ax,ay,az,wx,wy,wz
-0.492,-1.4213333333333333,0.6566666666666666,0.10266666666666667,0.5446666666666666,-0.24466666666666667
-0.7,-1.5710000000000002,0.753,0.14300000000000002,0.554,-0.20299999999999999
-1.1233333333333335,-1.4953333333333334,0.9733333333333334,0.22066666666666668,0.53,-0.11133333333333334
-1.4616666666666667,-1.1541666666666666,1.1333333333333333,0.35833333333333334,0.4825,0.021666666666666667
-1.3672727272727272,-0.6490909090909092,0.8509090909090911,0.43636363636363634,0.44727272727272727,0.10636363636363635
-0.9915384615384616,-0.2984615384615385,0.7153846153846154,0.4561538461538462,0.41615384615384615,0.10461538461538462
-0.5178571428571429,0.17500000000000002,0.6992857142857142,0.46785714285714286,0.3871428571428571,0.04428571428571428
-0.3909090909090909,0.3527272727272727,0.8372727272727272,0.4918181818181818,0.37545454545454543,-0.021818181818181816
-0.37785714285714284,0.39999999999999997,0.9035714285714286,0.48428571428571426,0.4178571428571428,-0.06642857142857143
-0.493,0.567,0.865,0.454,0.471,-0.05700000000000001
-0.5733333333333334,0.6606666666666666,0.478,0.3253333333333333,0.55,-0.05333333333333334
-0.4336363636363636,1.1654545454545453,0.6636363636363637,0.10090909090909092,0.6718181818181818,-0.06636363636363636
0.7421428571428572,1.56,1.6992857142857143,-0.07714285714285715,0.7028571428571428,-0.21142857142857144
0.9236363636363637,1.5745454545454545,2.3181818181818183,-0.09181818181818181,0.6590909090909091,-0.3981818181818182
-0.10166666666666664,1.6008333333333333,1.7733333333333334,0.0825,0.5891666666666667,-0.48416666666666663
-0.9446153846153847,2.246153846153846,0.37846153846153846,0.2469230769230769,0.33153846153846156,-0.5076923076923077
-2.027857142857143,3.9771428571428573,-2.4692857142857143,0.17142857142857143,-0.01142857142857143,-0.5621428571428572
-1.319090909090909,4.735454545454545,-3.8572727272727274,-0.17,-0.3181818181818182,-0.7327272727272728
-0.3892857142857143,3.623571428571428,-3.886428571428571,-0.49571428571428566,-0.5992857142857143,-0.97
-0.201,1.6059999999999999,-3.0469999999999997,-0.5660000000000001,-0.5900000000000001,-1.035
-0.18466666666666667,-1.2426666666666668,-1.784,-0.47200000000000003,-0.4473333333333333,-0.8806666666666667
-0.4690909090909091,-2.630909090909091,-1.510909090909091,-0.5245454545454545,-0.3227272727272727,-0.4481818181818182
-0.5742857142857144,-2.975714285714286,-1.0442857142857143,-0.5735714285714285,-0.1357142857142857,0.14785714285714285
0.15272727272727274,-2.6145454545454547,-0.6436363636363637,-0.46090909090909093,0.04181818181818182,0.6618181818181819
1.692142857142857,-1.66,-0.7614285714285715,-0.29642857142857143,0.075,0.8742857142857143
2.1563636363636363,-0.9272727272727272,-1.3327272727272728,-0.22272727272727275,0.0009090909090909087,0.7909090909090909
1.2514285714285713,0.23642857142857143,-1.5299999999999998,-0.20785714285714288,-0.13642857142857143,0.6449999999999999
0.04181818181818183,0.36727272727272725,-1.2063636363636363,-0.17,-0.34,0.48000000000000004
-1.1046153846153848,-0.03692307692307692,-0.9046153846153846,-0.12384615384615386,-0.48384615384615387,0.3246153846153846
-1.5116666666666667,-0.665,-0.7775,-0.09000000000000001,-0.5841666666666666,0.32083333333333336
-0.8376923076923077,-1.1307692307692307,-0.7107692307692308,-0.019230769230769232,-0.713076923076923,0.4046153846153846
-0.17166666666666666,-0.9933333333333333,-0.9291666666666667,-0.0075,-0.7816666666666667,0.5316666666666666
0.9658333333333333,-0.6816666666666666,-1.0616666666666668,-0.03166666666666667,-0.7216666666666667,0.615
1.7784615384615385,-0.6807692307692308,-0.7238461538461538,-0.038461538461538464,-0.6676923076923077,0.5715384615384616
2.0375,-1.3375000000000001,-0.016666666666666673,-0.01,-0.5825,0.455
1.6066666666666667,-1.7533333333333332,0.35000000000000003,0.013333333333333334,-0.5041666666666667,0.3975
1.3035714285714286,-2.0207142857142855,0.7464285714285713,0.024999999999999998,-0.4307142857142857,0.3592857142857143
1.4891666666666667,-2.0483333333333333,1.0041666666666667,0.07916666666666666,-0.3833333333333333,0.24416666666666667
1.576153846153846,-1.826153846153846,1.3761538461538463,0.23461538461538461,-0.35461538461538467,0.07153846153846154
1.3116666666666668,-1.4925,1.3966666666666665,0.36333333333333334,-0.28250000000000003,-0.09999999999999999
0.916923076923077,-0.9861538461538462,1.13,0.4076923076923077,-0.19769230769230767,-0.21769230769230768
0.795,-0.6641666666666667,0.8650000000000001,0.38083333333333336,-0.08916666666666667,-0.27416666666666667
0.6857142857142857,-0.06,0.7085714285714285,0.34071428571428575,-0.0028571428571428567,-0.26142857142857145
0.6572727272727273,0.5645454545454546,0.8818181818181817,0.3809090909090909,0.03818181818181818,-0.17909090909090908
0.7030769230769229,1.2815384615384615,0.7953846153846154,0.4176923076923077,0.04923076923076923,-0.07153846153846154
0.6,1.302,0.506,0.382,0.016999999999999998,-0.012
0.10666666666666666,1.2653333333333334,0.12200000000000001,0.2813333333333333,-0.07933333333333333,-0.035333333333333335
-0.73,1.4658333333333333,0.29083333333333333,0.11416666666666668,-0.2791666666666667,0.004166666666666667
-1.623076923076923,1.9469230769230772,1.1346153846153846,-0.03769230769230769,-0.49076923076923074,0.12692307692307692
-1.6524999999999999,2.1133333333333333,1.76,-0.12166666666666666,-0.6433333333333333,0.285
-1.1858333333333333,1.555,2.275,-0.19583333333333333,-0.7475,0.41583333333333333
-0.7884615384615384,0.8,2.5346153846153845,-0.2653846153846154,-0.8315384615384616,0.48230769230769227
0.059230769230769226,-0.10461538461538461,3.13,-0.20461538461538462,-0.7861538461538462,0.5123076923076924
0.9872727272727272,0.25181818181818183,2.985454545454546,0.010909090909090912,-0.7181818181818181,0.4509090909090909
1.2642857142857142,1.5057142857142856,1.9664285714285714,0.21571428571428572,-0.5985714285714286,0.3742857142857143
1.5650000000000002,2.6158333333333332,0.5650000000000001,0.39916666666666667,-0.32416666666666666,0.36916666666666664
1.7575,3.8074999999999997,-1.8041666666666665,0.3825,0.06833333333333334,0.5025000000000001
2.0915384615384616,3.955384615384615,-2.7115384615384617,0.20846153846153845,0.4876923076923077,0.7623076923076924
3.196153846153846,1.7961538461538462,-3.1846153846153844,-0.016153846153846154,0.7092307692307691,0.7915384615384615
2.99,-0.3408333333333333,-3.1983333333333337,-0.215,0.6025,0.5233333333333333
1.4023076923076923,-2.712307692307692,-2.9853846153846155,-0.4407692307692308,0.4815384615384615,0.1846153846153846
-0.011666666666666667,-3.348333333333333,-2.283333333333333,-0.5633333333333334,0.435,-0.15583333333333335
-1.5607692307692307,-2.9353846153846157,-0.9415384615384615,-0.48000000000000004,0.30230769230769233,-0.5192307692307693
-2.6058333333333334,-2.1750000000000003,-0.19000000000000003,-0.22916666666666666,0.19083333333333333,-0.6283333333333333
-2.6107692307692307,-1.1892307692307693,-0.09769230769230769,-0.05230769230769231,0.1346153846153846,-0.5207692307692308
-1.92,-0.24700000000000003,-0.373,-0.051000000000000004,0.185,-0.377
-0.5773333333333334,1.2146666666666666,-0.6773333333333333,-0.08333333333333333,0.29,-0.28933333333333333
0.8016666666666666,1.1891666666666667,-0.8700000000000001,-0.07333333333333333,0.21666666666666667,-0.3575
0.38307692307692304,0.30615384615384617,-0.9238461538461539,-0.21538461538461537,0.19461538461538463,-0.446923076923077
-0.5609090909090909,-0.3572727272727273,-0.43818181818181823,-0.29545454545454547,0.2618181818181818,-0.46
-1.0363636363636364,-1.3181818181818181,0.27636363636363637,-0.21818181818181817,0.2918181818181818,-0.4727272727272727
-0.874,-1.8566666666666665,0.7933333333333332,-0.0006666666666666673,0.23733333333333334,-0.5013333333333333
-0.5938461538461538,-1.976153846153846,1.3846153846153846,0.2576923076923077,0.2076923076923077,-0.46846153846153843
-0.44727272727272727,-1.7772727272727273,1.3154545454545454,0.35545454545454547,0.3181818181818182,-0.3909090909090909
-0.37846153846153846,-1.1376923076923076,1.0469230769230768,0.35461538461538467,0.4407692307692308,-0.30615384615384617
-0.5053846153846154,-1.0253846153846153,0.8546153846153846,0.30000000000000004,0.48000000000000004,-0.2576923076923077
-1.2407692307692306,-1.3276923076923077,0.8976923076923077,0.19615384615384615,0.4792307692307692,-0.2030769230769231
-1.4808333333333332,-1.3191666666666666,1.2266666666666666,0.125,0.5225000000000001,-0.14083333333333334
-1.2966666666666666,-0.9508333333333333,1.6583333333333332,0.15,0.5566666666666668,-0.11
-1.2908333333333333,-0.49583333333333335,1.5750000000000002,0.23666666666666666,0.57,-0.065
-0.9821428571428571,0.30357142857142855,1.1185714285714285,0.2671428571428572,0.5678571428571428,-0.03142857142857143
-0.32666666666666666,0.6066666666666666,0.7475,0.2041666666666667,0.5650000000000001,-0.06166666666666667
0.13384615384615384,1.0915384615384616,0.3107692307692308,0.05923076923076923,0.4423076923076923,-0.13615384615384615
-0.2758333333333333,1.5141666666666669,0.41,-0.165,0.3325,-0.24583333333333335
-1.1241666666666668,2.0483333333333333,1.5108333333333333,-0.345,0.33416666666666667,-0.31833333333333336
-1.162,2.039,2.4050000000000002,-0.381,0.349,-0.363
-0.511875,1.44875,3.283125,-0.211875,0.349375,-0.436875
-0.6333333333333333,1.3016666666666665,2.3558333333333334,0.13916666666666666,0.24166666666666667,-0.44333333333333336
-1.5358333333333334,2.783333333333333,-0.9791666666666666,0.32333333333333336,0.0025,-0.44416666666666665
-1.3361538461538462,4.247692307692308,-3.6507692307692308,0.19153846153846155,-0.14153846153846156,-0.5576923076923077
0.7608333333333334,4.614166666666667,-5.328333333333333,-0.1416666666666667,-0.28833333333333333,-0.7925
1.461,2.956,-5.089,-0.43499999999999994,-0.371,-0.889
1.3975,-0.816875,-3.6662500000000002,-0.6675,-0.380625,-0.7581249999999999
0.8290909090909092,-2.25,-2.4727272727272727,-0.8009090909090909,-0.29636363636363633,-0.41363636363636364
-0.39923076923076917,-2.0053846153846155,-0.3946153846153846,-0.6776923076923077,-0.05692307692307692,0.1123076923076923
-0.8611111111111112,-1.4944444444444445,0.3766666666666667,-0.44222222222222224,0.052222222222222225,0.6855555555555556
0.6705882352941177,-0.27,0.17647058823529416,-0.17882352941176471,-0.008823529411764707,0.9629411764705883
1.3475000000000001,0.21083333333333334,-0.8450000000000001,-0.07583333333333334,-0.11333333333333334,0.8108333333333334
1.1483333333333334,-0.07583333333333334,-1.7425,-0.1708333333333333,-0.20333333333333334,0.5416666666666666
0.8283333333333333,-0.5458333333333334,-1.375,-0.24166666666666667,-0.3358333333333334,0.3408333333333333
0.3076923076923077,-2.1092307692307695,-0.23,-0.18153846153846154,-0.5046153846153847,0.2169230769230769
-0.36333333333333334,-3.018333333333333,0.42,0.015833333333333335,-0.6058333333333333,0.32166666666666666
0.1685714285714286,-2.8057142857142856,0.5542857142857143,0.18357142857142855,-0.6235714285714286,0.485
1.0,-2.016363636363636,0.5045454545454545,0.31363636363636366,-0.5545454545454546,0.5672727272727273
2.167857142857143,-0.9621428571428572,0.24000000000000002,0.3942857142857143,-0.5007142857142857,0.47214285714285714
2.0716666666666668,-0.6158333333333333,-0.04416666666666667,0.375,-0.455,0.29
0.946923076923077,-0.8284615384615385,-0.05615384615384615,0.25384615384615383,-0.4269230769230769,0.21538461538461537
0.4575,-1.2108333333333332,0.2558333333333333,0.1075,-0.41250000000000003,0.20666666666666667
0.7116666666666666,-1.6933333333333334,0.8891666666666667,0.03916666666666667,-0.36999999999999994,0.18833333333333335
1.1938461538461538,-1.8746153846153848,1.2738461538461539,0.10846153846153847,-0.34153846153846157,0.08769230769230768
1.6530769230769229,-1.6815384615384614,1.5561538461538462,0.2915384615384615,-0.35769230769230764,-0.1053846153846154
1.5416666666666667,-1.2183333333333333,1.4108333333333334,0.4116666666666667,-0.345,-0.28833333333333333
0.7346153846153847,-0.5538461538461539,1.136923076923077,0.4553846153846154,-0.2846153846153846,-0.3438461538461538
0.39181818181818184,-0.08090909090909092,0.9854545454545455,0.46181818181818185,-0.18727272727272729,-0.25727272727272726
0.37461538461538463,0.816923076923077,0.9038461538461539,0.47384615384615386,-0.11461538461538462,-0.08923076923076922
0.52,1.5715384615384616,0.6323076923076923,0.44461538461538463,-0.016153846153846154,0.043846153846153854
0.5325000000000001,2.5458333333333334,-0.1758333333333333,0.26833333333333337,-0.015833333333333335,0.09999999999999999
0.41307692307692306,3.2684615384615388,-0.13384615384615384,-0.12000000000000001,-0.2492307692307692,0.12307692307692308
-0.7425,3.799166666666667,1.915,-0.4575,-0.5166666666666667,0.18666666666666668
-1.646153846153846,3.1546153846153846,3.6915384615384617,-0.5053846153846154,-0.6053846153846154,0.35923076923076924
-1.3074999999999999,0.755,5.056666666666667,-0.28833333333333333,-0.6158333333333333,0.5499999999999999
0.14500000000000002,-0.3241666666666667,4.538333333333333,0.07833333333333334,-0.6358333333333334,0.5616666666666666
2.1514285714285717,0.7300000000000001,2.285,0.38642857142857145,-0.5571428571428572,0.3985714285714286
2.3072727272727276,1.9418181818181817,0.4754545454545454,0.619090909090909,-0.4209090909090909,0.35454545454545455
1.153076923076923,2.7361538461538464,-2.5100000000000002,0.7453846153846153,-0.1623076923076923,0.55
0.6974999999999999,2.6141666666666667,-3.8266666666666667,0.7166666666666667,0.10833333333333334,0.8841666666666667
0.5735714285714285,0.5864285714285715,-4.719285714285715,0.5085714285714286,0.255,1.0507142857142857
0.3425,-1.0025000000000002,-4.734166666666667,0.16333333333333333,0.2891666666666666,0.9425
0.18153846153846154,-1.883076923076923,-4.044615384615384,-0.22615384615384615,0.2707692307692308,0.6069230769230769
0.005833333333333336,-1.4741666666666668,-3.079166666666666,-0.4741666666666667,0.145,0.15
-0.13307692307692306,-0.09230769230769233,-1.7615384615384615,-0.63,0.10923076923076923,-0.2976923076923077
0.6,0.2758333333333333,-1.16,-0.7433333333333333,0.14416666666666667,-0.6516666666666667
1.4561538461538461,0.18153846153846154,-0.19538461538461538,-0.7107692307692308,0.20076923076923078,-0.7930769230769231
1.2636363636363637,0.38181818181818183,0.21,-0.5572727272727273,0.3809090909090909,-0.7599999999999999
1.0907142857142857,-0.20142857142857146,0.37,-0.3242857142857143,0.5421428571428571,-0.7064285714285713
0.6908333333333334,-1.1925,-0.2316666666666667,-0.25666666666666665,0.6666666666666666,-0.6974999999999999
-1.3461538461538463,-1.9007692307692308,-0.4815384615384615,-0.2738461538461539,0.7484615384615385,-0.6484615384615384
-2.6466666666666665,-1.9974999999999998,-0.21833333333333335,-0.2333333333333333,0.7666666666666666,-0.4683333333333333
-1.9958333333333333,-2.0291666666666663,0.7458333333333335,-0.045000000000000005,0.69,-0.4116666666666666
-1.169230769230769,-1.8107692307692307,1.1907692307692308,0.2076923076923077,0.5361538461538461,-0.4507692307692307
-0.6974999999999999,-1.5175,1.0033333333333334,0.3033333333333333,0.4716666666666667,-0.4658333333333333
-0.6292307692307693,-1.360769230769231,0.8023076923076923,0.2561538461538462,0.5038461538461538,-0.3823076923076923
-0.2169230769230769,-1.2415384615384615,0.6292307692307693,0.15692307692307692,0.5276923076923077,-0.31384615384615383
-0.15333333333333335,-1.3791666666666667,0.8791666666666668,0.12,0.5175,-0.29333333333333333
-0.7525,-1.5750000000000002,1.4933333333333332,0.21083333333333334,0.5141666666666667,-0.23583333333333334
-1.176923076923077,-1.6530769230769229,1.6884615384615385,0.3976923076923077,0.5061538461538462,-0.09
-1.3184615384615386,-1.2476923076923077,1.5346153846153845,0.583076923076923,0.4807692307692308,0.07923076923076923
-1.0041666666666667,-0.6166666666666667,1.1816666666666666,0.6224999999999999,0.46166666666666667,0.13749999999999998
-0.23916666666666667,0.25916666666666666,0.8058333333333333,0.5499999999999999,0.4566666666666667,0.05333333333333334
-0.14615384615384613,0.6423076923076922,0.856923076923077,0.45615384615384613,0.4438461538461539,-0.016153846153846154
-0.16083333333333333,0.9225,0.8908333333333333,0.3741666666666667,0.435,-0.10166666666666667
-0.3776923076923077,0.9330769230769231,0.7361538461538462,0.2792307692307692,0.46846153846153843,-0.15923076923076926
-0.49153846153846154,1.0815384615384613,0.6661538461538462,0.14846153846153845,0.58,-0.1630769230769231
-0.10181818181818182,1.4345454545454546,1.1627272727272726,0.00818181818181818,0.6890909090909091,-0.18181818181818182
0.6441666666666667,1.9566666666666668,2.3958333333333335,-0.12166666666666666,0.7508333333333334,-0.24416666666666667
1.1615384615384614,2.1599999999999997,3.3400000000000003,-0.28153846153846157,0.7584615384615384,-0.36846153846153845
0.6864285714285714,1.6614285714285713,3.7728571428571427,-0.44571428571428573,0.6892857142857143,-0.5064285714285715
-0.7716666666666666,1.1525,3.7925,-0.33249999999999996,0.5466666666666666,-0.57
-3.4633333333333334,1.3816666666666666,2.5075,0.03916666666666666,0.39999999999999997,-0.43916666666666665
-3.6723076923076925,2.48,0.32538461538461527,0.3484615384615385,0.13923076923076924,-0.37153846153846154
-1.8584615384615384,4.251538461538461,-3.8023076923076924,0.34153846153846157,-0.27384615384615385,-0.6169230769230769
-0.24000000000000002,4.344545454545455,-5.364545454545454,0.018181818181818184,-0.6745454545454546,-1.0454545454545454
0.5700000000000001,1.9023076923076923,-5.157692307692307,-0.32384615384615384,-0.95,-1.1992307692307693
-0.5192307692307693,-0.22923076923076924,-4.202307692307692,-0.5630769230769231,-1.0,-0.8776923076923077
-2.185,-1.2775,-2.901666666666667,-0.8041666666666667,-0.7125,-0.29
-2.105,-0.9866666666666667,-2.0208333333333335,-0.8966666666666666,-0.4033333333333333,0.4183333333333333
-0.7376923076923076,-0.10846153846153847,-1.146923076923077,-0.8846153846153846,-0.3269230769230769,1.1084615384615384
0.7015384615384617,0.19846153846153847,-0.9238461538461539,-0.7584615384615384,-0.4169230769230769,1.386153846153846
2.0825,-0.3175,-0.6766666666666666,-0.5641666666666666,-0.46416666666666667,1.1675
1.7061538461538461,-1.5,-0.5753846153846154,-0.36846153846153845,-0.553076923076923,0.8
0.30615384615384617,-3.588461538461538,-0.27692307692307694,-0.15461538461538463,-0.6292307692307693,0.5146153846153847
-0.6316666666666667,-4.568333333333333,-0.20750000000000002,0.09333333333333334,-0.755,0.43083333333333335
-0.26384615384615384,-4.34,-0.09692307692307692,0.36153846153846153,-0.8115384615384615,0.4392307692307692
0.6563636363636364,-3.055454545454545,-0.0036363636363636333,0.5499999999999999,-0.7218181818181818,0.4309090909090909
1.885,-0.45785714285714285,-0.21928571428571428,0.5735714285714285,-0.6114285714285714,0.44214285714285717
2.673636363636364,1.048181818181818,-0.66,0.41181818181818186,-0.5327272727272727,0.32636363636363636
2.040714285714286,1.342857142857143,-1.1735714285714285,0.11714285714285713,-0.46071428571428574,0.21142857142857144
0.68,0.4266666666666667,-0.6774999999999999,-0.17916666666666667,-0.37166666666666665,0.20083333333333334
-0.06416666666666666,-1.24,0.5133333333333333,-0.33249999999999996,-0.325,0.225
0.2923076923076923,-2.1530769230769233,1.1700000000000002,-0.2969230769230769,-0.3507692307692307,0.20076923076923076
1.0753846153846154,-3.0946153846153845,2.0746153846153845,-0.030000000000000002,-0.39692307692307693,0.057692307692307696
1.4541666666666666,-3.049166666666667,2.4491666666666667,0.29833333333333334,-0.38916666666666666,-0.165
1.616923076923077,-1.9376923076923076,2.3515384615384614,0.48307692307692307,-0.38461538461538464,-0.37692307692307697
0.8418181818181818,-0.7818181818181817,2.097272727272727,0.5727272727272728,-0.3981818181818182,-0.42454545454545456
-0.6814285714285715,0.8057142857142857,1.5607142857142857,0.635,-0.3335714285714286,-0.255
-1.0366666666666666,1.865,0.8325,0.6483333333333333,-0.11083333333333334,-0.015833333333333335
-0.2361538461538462,3.0646153846153847,-0.5407692307692308,0.3984615384615384,-0.08230769230769232,0.12615384615384617
-0.02250000000000001,3.7733333333333334,-0.5033333333333333,-0.18166666666666667,-0.36333333333333334,0.21
-1.213076923076923,3.7823076923076924,2.503846153846154,-0.6269230769230769,-0.6061538461538462,0.36076923076923073
-1.9275000000000002,2.5483333333333333,4.867500000000001,-0.6441666666666667,-0.6616666666666667,0.5291666666666667
-1.3091666666666668,-0.31833333333333336,6.2491666666666665,-0.255,-0.6916666666666668,0.6333333333333333
0.4523076923076923,-1.1484615384615384,4.871538461538462,0.3792307692307692,-0.7553846153846154,0.4076923076923077
1.783076923076923,1.1653846153846155,1.0176923076923077,0.7607692307692309,-0.6323076923076923,0.17384615384615387
1.6,2.49,-1.3027272727272727,0.8918181818181818,-0.52,0.18727272727272729
-0.21923076923076923,2.9984615384615387,-4.093076923076922,0.7992307692307693,-0.2330769230769231,0.5707692307692308
-0.6784615384615384,2.536923076923077,-4.895384615384615,0.5684615384615385,-0.05,1.0738461538461537
-0.9692307692307692,1.1107692307692307,-5.244615384615385,0.31923076923076926,-0.08384615384615385,1.3753846153846152
-1.2690909090909093,0.36,-5.164545454545455,-0.06454545454545454,-0.2072727272727273,1.2636363636363637
-1.583846153846154,-0.053076923076923084,-4.777692307692307,-0.6269230769230769,-0.24000000000000002,0.8184615384615385
-0.9625,0.18583333333333332,-4.05,-1.0391666666666668,-0.19833333333333333,0.18583333333333332
0.9400000000000001,-0.09,-2.445,-1.2485714285714287,-0.18857142857142858,-0.43285714285714283
2.1424999999999996,-0.8641666666666667,-1.0733333333333333,-1.2558333333333334,-0.09166666666666667,-0.6658333333333334
3.5746153846153845,-1.1723076923076923,1.0223076923076921,-1.0138461538461538,0.15000000000000002,-0.7423076923076923
3.2245454545454546,-1.1827272727272726,1.6154545454545455,-0.5409090909090909,0.2981818181818182,-0.7990909090909092
1.9138461538461538,-2.4930769230769227,0.9569230769230769,-0.10846153846153846,0.45615384615384613,-0.856923076923077
-0.9253846153846155,-2.5100000000000002,0.3638461538461539,0.13153846153846155,0.5346153846153846,-0.7246153846153847
-3.61,-2.316923076923077,-0.5407692307692307,0.05384615384615385,0.6330769230769231,-0.5007692307692307
-3.2550000000000003,-2.38,-0.6083333333333333,0.04083333333333333,0.8108333333333334,-0.3433333333333333
-1.253076923076923,-1.8453846153846152,0.15,0.1523076923076923,0.6746153846153846,-0.3723076923076923
-0.7490909090909091,-1.2436363636363637,0.6018181818181818,0.25,0.6254545454545455,-0.4027272727272727
-0.5038461538461538,-0.7861538461538462,0.8653846153846154,0.2823076923076923,0.6638461538461539,-0.3376923076923077
0.0038461538461538494,-0.9730769230769231,0.7523076923076922,0.22615384615384615,0.7207692307692307,-0.2915384615384615
0.19230769230769232,-1.5107692307692309,0.8492307692307691,0.14846153846153848,0.7938461538461539,-0.31153846153846154
-0.21416666666666664,-1.915,1.1908333333333332,0.14666666666666667,0.7991666666666667,-0.30083333333333334
-1.2966666666666666,-2.0508333333333333,1.8283333333333331,0.255,0.7816666666666667,-0.18583333333333332
-1.69,-1.5653846153846156,2.0930769230769233,0.47923076923076924,0.8238461538461539,-0.023076923076923075
-1.133076923076923,-0.22692307692307695,1.5192307692307692,0.6423076923076922,0.8376923076923076,0.054615384615384614
-0.6933333333333334,0.6916666666666668,0.9575,0.5608333333333334,0.8475,0.08416666666666667
0.2525,1.425,0.7008333333333333,0.37666666666666665,0.8025000000000001,0.03916666666666667
0.46846153846153843,1.7323076923076923,0.8438461538461538,0.19384615384615383,0.6469230769230769,-0.13846153846153847
-0.5530769230769231,1.9938461538461536,0.8523076923076923,0.038461538461538464,0.5307692307692308,-0.3453846153846154
-1.3675,2.0208333333333335,1.1783333333333335,-0.09916666666666667,0.49583333333333335,-0.4191666666666667
-1.1953846153846155,2.1307692307692307,3.020769230769231,-0.06769230769230769,0.38153846153846155,-0.5
-0.8075000000000001,2.188333333333333,3.6758333333333333,0.26833333333333337,0.2608333333333333,-0.5916666666666667
-0.7799999999999999,3.5408333333333335,1.6083333333333334,0.5641666666666666,0.02666666666666667,-0.6583333333333333
-1.353846153846154,5.131538461538461,-1.1453846153846154,0.42076923076923073,-0.26615384615384613,-0.7738461538461539
-1.8723076923076922,5.377692307692308,-4.0976923076923075,-0.07692307692307693,-0.4123076923076923,-0.8546153846153846
-1.739090909090909,3.8954545454545455,-4.414545454545455,-0.5136363636363637,-0.44636363636363635,-0.729090909090909
-0.6614285714285714,0.7685714285714286,-3.402142857142857,-0.7114285714285714,-0.4635714285714286,-0.5549999999999999
-0.36272727272727273,-1.4345454545454546,-2.561818181818182,-0.73,-0.4336363636363636,-0.4209090909090909
-0.7635714285714287,-3.262857142857143,-1.3071428571428572,-0.6107142857142858,-0.325,-0.09857142857142857
-0.7000000000000001,-3.4066666666666667,-0.7241666666666666,-0.42083333333333334,-0.2275,0.39166666666666666
0.3569230769230769,-2.6515384615384616,-0.41307692307692306,-0.2246153846153846,-0.10692307692307693,0.806923076923077
1.3663636363636362,-1.4954545454545454,-0.45545454545454545,-0.05909090909090909,0.017272727272727273,0.9545454545454546
2.3742857142857146,-0.16642857142857143,-1.0357142857142858,-0.10071428571428573,-0.1192857142857143,0.7335714285714285
2.1266666666666665,0.28833333333333333,-1.02,-0.18000000000000002,-0.09583333333333333,0.46249999999999997
1.0569230769230769,0.5223076923076924,-0.4146153846153846,-0.16538461538461538,-0.08538461538461539,0.3353846153846154
0.23666666666666666,-0.06333333333333335,-0.62,-0.18000000000000002,-0.145,0.3516666666666666
-0.2246153846153846,-1.283076923076923,-1.1,-0.22846153846153844,-0.17615384615384616,0.4346153846153846
-0.24333333333333337,-1.8425,-1.0266666666666666,-0.27416666666666667,-0.14833333333333334,0.5716666666666667
-0.001538461538461542,-1.883076923076923,-0.36846153846153845,-0.27692307692307694,-0.07538461538461538,0.7207692307692307
1.0516666666666667,-1.3508333333333333,0.4166666666666667,-0.1275,-0.041666666666666664,0.6183333333333333
1.3030769230769232,-1.1061538461538463,0.8038461538461538,-0.031538461538461536,-0.11307692307692307,0.3861538461538462
0.7016666666666667,-1.3216666666666668,0.9916666666666667,0.03916666666666667,-0.145,0.24333333333333332
0.09583333333333334,-1.883333333333333,1.0483333333333333,-0.019166666666666665,-0.2041666666666667,0.18166666666666667
-0.04076923076923077,-2.1584615384615384,1.1076923076923078,-0.1576923076923077,-0.3007692307692308,0.14846153846153845
0.07076923076923078,-2.3423076923076924,1.5592307692307692,-0.1823076923076923,-0.3892307692307692,0.13076923076923078
0.5908333333333334,-2.3641666666666667,2.1441666666666666,0.0825,-0.47750000000000004,0.006666666666666667
1.2750000000000001,-2.299166666666667,2.5008333333333335,0.4141666666666666,-0.5158333333333334,-0.16583333333333333
1.5200000000000002,-1.8025,2.2425,0.5983333333333333,-0.5233333333333333,-0.3408333333333333
1.1542857142857144,-0.17571428571428568,1.342857142857143,0.6235714285714286,-0.5364285714285715,-0.43928571428571433
0.335,1.3099999999999998,0.7066666666666667,0.5566666666666666,-0.4066666666666667,-0.35083333333333333
-0.23692307692307693,3.5399999999999996,-0.14153846153846156,0.42230769230769233,-0.13384615384615384,-0.12307692307692308
-0.22583333333333333,4.516666666666667,-0.05333333333333332,0.051666666666666666,-0.18083333333333332,0.1691666666666667
-0.3775,4.759166666666666,1.8399999999999999,-0.3658333333333333,-0.45166666666666666,0.38916666666666666
-1.0666666666666667,3.6333333333333333,3.4825,-0.5825,-0.5625,0.5241666666666667
-1.3628571428571428,0.3857142857142857,5.170714285714285,-0.4471428571428571,-0.6014285714285714,0.635
0.1291666666666667,-1.195,4.405833333333333,0.06166666666666667,-0.6433333333333334,0.5666666666666667
2.2984615384615386,0.2676923076923077,1.3369230769230769,0.4053846153846154,-0.5138461538461538,0.37846153846153846
2.5941666666666667,1.8558333333333332,-0.715,0.6366666666666666,-0.2916666666666667,0.315
1.0161538461538462,2.670769230769231,-3.1515384615384616,0.693076923076923,0.023846153846153847,0.5553846153846154
0.1425,2.2866666666666666,-4.086666666666667,0.5841666666666666,0.23583333333333334,0.9249999999999999
-0.8676923076923078,0.7599999999999999,-4.994615384615385,0.3261538461538462,0.3469230769230769,1.0961538461538463
-0.9783333333333334,-0.030000000000000002,-5.0825,-0.059166666666666666,0.3358333333333334,1.0025000000000002
-0.38666666666666666,0.33,-4.315833333333333,-0.5299999999999999,0.14833333333333334,0.6258333333333334
-0.07538461538461538,1.0738461538461537,-3.62,-0.9653846153846154,0.13076923076923078,-0.037692307692307685
0.25785714285714284,1.1392857142857142,-2.7078571428571427,-1.2192857142857143,0.22571428571428573,-0.6449999999999999
1.0727272727272728,0.3190909090909091,-1.7263636363636363,-1.2436363636363637,0.23727272727272727,-0.8681818181818183
1.3800000000000001,-0.5464285714285715,0.5892857142857143,-1.002857142857143,0.37714285714285717,-0.8099999999999999
1.6118181818181818,-1.7172727272727273,1.5199999999999998,-0.5427272727272727,0.5054545454545455,-0.77
0.7292307692307692,-3.77,1.7030769230769232,-0.030000000000000002,0.6253846153846154,-0.783846153846154
-1.4574999999999998,-4.331666666666667,1.3433333333333335,0.3558333333333333,0.6633333333333333,-0.6316666666666667
-3.7624999999999997,-3.3341666666666665,0.725,0.5175,0.6941666666666667,-0.3725
-3.5676923076923077,-2.1823076923076923,0.63,0.6484615384615384,0.823076923076923,-0.15615384615384614
-0.8838461538461538,-0.7184615384615385,0.28384615384615386,0.69,0.7107692307692308,-0.2276923076923077
-0.32666666666666666,-0.14583333333333334,-0.12083333333333333,0.5591666666666667,0.6275000000000001,-0.3833333333333333
-1.155,-0.25857142857142856,-0.2671428571428572,0.34500000000000003,0.5835714285714285,-0.35285714285714287
-1.2563636363636363,-0.8990909090909092,0.046363636363636364,0.1509090909090909,0.5618181818181818,-0.28363636363636363
-1.156923076923077,-1.4553846153846155,0.833076923076923,0.07153846153846154,0.5338461538461539,-0.22692307692307695
-1.5075,-1.7,1.1758333333333333,0.09583333333333333,0.5141666666666667,-0.11833333333333333
-1.7007142857142856,-1.522142857142857,1.4749999999999999,0.2914285714285714,0.5014285714285714,0.011428571428571429
-1.0972727272727274,-0.8481818181818181,1.2963636363636366,0.4772727272727273,0.4581818181818182,0.06909090909090909
-0.25076923076923074,0.3553846153846154,0.9776923076923076,0.45615384615384613,0.46923076923076923,0.031538461538461536
0.15166666666666667,0.9474999999999999,1.0441666666666667,0.3408333333333333,0.49416666666666664,-0.11833333333333333
-0.1457142857142857,1.3271428571428572,1.227142857142857,0.21,0.48999999999999994,-0.315
-0.5463636363636364,1.3272727272727274,1.3127272727272727,0.06818181818181818,0.5263636363636364,-0.4
-1.137857142857143,1.2564285714285715,1.4328571428571428,-0.06642857142857143,0.45928571428571424,-0.36500000000000005
-1.839090909090909,1.288181818181818,1.5736363636363635,-0.21636363636363634,0.39272727272727276,-0.2781818181818182
-2.2853846153846153,1.3761538461538463,2.3830769230769233,-0.3107692307692308,0.41307692307692306,-0.22
-1.5791666666666666,1.2591666666666665,3.2891666666666666,-0.30916666666666665,0.37833333333333335,-0.2758333333333333
-0.9142857142857144,1.2028571428571428,3.742142857142857,-0.09571428571428572,0.29000000000000004,-0.435
-1.2363636363636363,1.7481818181818183,2.6636363636363636,0.28545454545454546,0.21818181818181817,-0.52
-0.9899999999999999,3.046666666666667,-0.39833333333333326,0.5775,0.02,-0.605
-0.27615384615384614,3.9238461538461538,-3.0015384615384617,0.6361538461538461,-0.23461538461538464,-0.8115384615384615
1.24,3.9153846153846152,-5.577692307692308,0.3046153846153846,-0.45692307692307693,-1.013076923076923
1.03,2.1508333333333334,-5.730833333333333,-0.21,-0.54,-0.9358333333333334
-0.5823076923076923,-0.38,-4.732307692307692,-0.7,-0.536923076923077,-0.5915384615384615
-1.2825,-1.1341666666666665,-3.4158333333333335,-0.9683333333333333,-0.35333333333333333,-0.19833333333333333
-1.5630000000000002,-1.388,-1.417,-0.943,-0.10600000000000001,0.253
-1.35,-0.8979999999999999,-0.664,-0.7193333333333333,-0.098,0.778
-0.12000000000000001,-0.011538461538461536,-0.6984615384615385,-0.5,-0.25076923076923074,1.1107692307692307
1.075,0.03,-1.16,-0.3675,-0.3516666666666666,0.9825
1.4876923076923076,-1.1792307692307693,-1.323846153846154,-0.23076923076923078,-0.4592307692307692,0.6461538461538462
0.5941666666666666,-2.308333333333333,-1.05,-0.13916666666666666,-0.545,0.43916666666666665
-0.22846153846153847,-3.196153846153846,-0.43,-0.02076923076923077,-0.6323076923076923,0.39538461538461545
-0.3575,-3.2733333333333334,-0.057499999999999996,0.135,-0.6458333333333334,0.46416666666666667
0.29230769230769227,-2.236923076923077,0.1423076923076923,0.26615384615384613,-0.6046153846153846,0.5838461538461538
0.9972727272727273,-0.8363636363636363,0.024545454545454547,0.29818181818181816,-0.5309090909090909,0.6218181818181818
1.5307142857142857,0.525,-0.59,0.18928571428571428,-0.49642857142857144,0.59
1.2708333333333333,0.6024999999999999,-0.8116666666666666,0.018333333333333333,-0.5133333333333333,0.4191666666666667
0.2946153846153846,-0.11000000000000001,-0.41000000000000003,-0.13846153846153847,-0.46384615384615385,0.30615384615384617
0.07666666666666667,-0.8541666666666666,0.14083333333333334,-0.21583333333333332,-0.4025,0.2125
0.2914285714285714,-1.602857142857143,0.6107142857142857,-0.22214285714285714,-0.3985714285714286,0.15142857142857144
0.8118181818181818,-2.07,0.9618181818181818,-0.057272727272727274,-0.4336363636363636,0.04363636363636363
1.1507692307692308,-2.4400000000000004,1.2615384615384615,0.1623076923076923,-0.4623076923076923,-0.12153846153846154
0.7216666666666667,-2.169166666666667,1.2916666666666667,0.27499999999999997,-0.45,-0.2316666666666667
0.3071428571428571,-1.1428571428571428,1.3385714285714287,0.33714285714285713,-0.4278571428571429,-0.2492857142857143
0.05272727272727273,0.2318181818181818,1.5627272727272727,0.3963636363636364,-0.38272727272727275,-0.22
-0.32,1.1585714285714286,1.5935714285714284,0.45928571428571424,-0.3435714285714285,-0.11
-0.12363636363636363,1.520909090909091,1.1763636363636363,0.4218181818181818,-0.3336363636363636,-0.010909090909090908
0.29714285714285715,1.5121428571428572,0.8521428571428571,0.3192857142857143,-0.35857142857142854,0.02214285714285714
0.4109090909090909,1.3581818181818184,0.9754545454545455,0.19363636363636363,-0.3790909090909091,0.05545454545454545
0.19285714285714287,1.2985714285714285,1.6271428571428572,0.04285714285714286,-0.43857142857142856,0.13285714285714287
-0.21727272727272728,1.2136363636363636,2.8145454545454545,-0.08,-0.4954545454545455,0.21545454545454545
-0.39,0.7778571428571428,3.8249999999999997,-0.09357142857142857,-0.5421428571428571,0.28214285714285714
-0.026363636363636363,-0.03636363636363637,4.01,0.08727272727272727,-0.5854545454545454,0.32545454545454544
0.35461538461538467,0.04384615384615384,3.039230769230769,0.42,-0.59,0.2476923076923077
0.5333333333333333,1.6875,0.5883333333333333,0.63,-0.39749999999999996,0.2508333333333333
0.9946153846153847,2.936923076923077,-2.1523076923076925,0.6915384615384615,-0.1846153846153846,0.3646153846153846
0.11916666666666666,3.4475000000000002,-4.2025,0.5491666666666667,0.09999999999999999,0.7325
-0.05538461538461538,2.4853846153846155,-5.046153846153846,0.2907692307692308,0.25153846153846154,1.0653846153846154
-0.5766666666666667,0.6033333333333334,-4.738333333333333,-0.035,0.19499999999999998,1.1424999999999998
-0.9208333333333334,-0.8133333333333334,-4.007499999999999,-0.3383333333333333,0.03666666666666667,0.945
-1.113076923076923,-1.1923076923076923,-2.9061538461538463,-0.5484615384615384,-0.07538461538461538,0.5576923076923077
-0.7407692307692308,-0.6953846153846153,-1.5276923076923077,-0.5384615384615384,-0.13538461538461538,0.02384615384615385
0.032499999999999994,-0.2125,-0.9525,-0.5016666666666666,-0.18583333333333332,-0.44416666666666665
0.9846153846153847,0.24615384615384617,-0.7446153846153846,-0.5415384615384616,-0.1453846153846154,-0.6446153846153847
1.2945454545454547,0.8690909090909091,-0.5990909090909091,-0.5745454545454545,-0.01636363636363636,-0.6318181818181818
1.6781818181818182,0.7472727272727273,-0.4854545454545454,-0.4981818181818182,0.07909090909090909,-0.6645454545454546
1.0586666666666666,-1.0766666666666667,-0.33066666666666666,-0.37,0.13933333333333334,-0.7106666666666667
-1.3376923076923077,-2.2815384615384615,0.005384615384615385,-0.3107692307692308,0.18692307692307694,-0.6130769230769231
-3.3275,-2.4325,0.5108333333333334,-0.2808333333333333,0.23666666666666666,-0.43166666666666664
-3.6658333333333335,-2.0799999999999996,1.175,-0.06916666666666667,0.3441666666666667,-0.2525
-2.336,-1.366,1.238,0.176,0.24900000000000003,-0.217
-0.5907692307692307,-0.713076923076923,0.7353846153846154,0.3107692307692308,0.17307692307692307,-0.28153846153846157
0.3106666666666667,-0.7753333333333334,0.3653333333333333,0.28733333333333333,0.218,-0.264
0.9323076923076923,-0.9930769230769231,0.5953846153846153,0.21307692307692308,0.3723076923076923,-0.25076923076923074
0.4881818181818182,-0.9727272727272727,0.9009090909090909,0.1981818181818182,0.5281818181818182,-0.25
-0.105,-1.1,0.9292857142857143,0.18357142857142855,0.6321428571428571,-0.23857142857142857
-0.7975,-1.045,0.9816666666666666,0.19416666666666668,0.6675,-0.16416666666666666
-1.2553846153846153,-0.7038461538461539,1.1307692307692307,0.24307692307692308,0.6607692307692308,-0.06307692307692309
-1.0883333333333334,-0.17416666666666666,1.075,0.2891666666666666,0.67,-0.021666666666666667
-0.6758333333333334,0.1775,0.8433333333333333,0.285,0.6675,-0.07166666666666667
-0.31272727272727274,0.32545454545454544,0.7363636363636363,0.24545454545454548,0.6345454545454546,-0.18
-0.29600000000000004,0.4026666666666667,0.8006666666666666,0.19133333333333333,0.5393333333333333,-0.3026666666666667
-0.7308333333333333,0.5133333333333333,0.8966666666666666,0.09166666666666667,0.49833333333333335,-0.36999999999999994
-1.1538461538461537,0.5446153846153846,1.0338461538461539,-0.016923076923076923,0.5507692307692308,-0.3507692307692307
-1.2872727272727273,0.8254545454545454,1.3527272727272728,-0.07818181818181819,0.6281818181818182,-0.2581818181818182
-0.7485714285714286,1.4092857142857143,1.8471428571428572,-0.13857142857142857,0.7107142857142856,-0.17071428571428574
0.003333333333333336,1.7466666666666668,2.276666666666667,-0.2316666666666667,0.7733333333333334,-0.165
0.4661538461538462,1.4530769230769232,2.6623076923076923,-0.3,0.7930769230769231,-0.2676923076923077
-0.5283333333333333,0.5716666666666667,3.0641666666666665,-0.305,0.6908333333333333,-0.3925
-1.8925,0.11499999999999999,3.311666666666666,-0.1175,0.5408333333333334,-0.425
-2.968461538461538,1.0238461538461539,2.6253846153846156,0.23846153846153847,0.30923076923076925,-0.3607692307692308
-2.581538461538462,2.4384615384615382,0.5307692307692308,0.5315384615384615,0.17923076923076925,-0.3584615384615385
-0.4566666666666666,3.2125000000000004,-2.605,0.6375000000000001,0.008333333333333335,-0.5775
1.2376923076923076,3.3623076923076924,-5.1923076923076925,0.37307692307692303,-0.23692307692307693,-0.8484615384615384
1.11,1.6725,-5.7925,-0.09916666666666667,-0.3358333333333334,-0.8716666666666667
-0.1546153846153846,-0.6815384615384615,-5.035384615384615,-0.5246153846153846,-0.30153846153846153,-0.6230769230769231
-0.6891666666666666,-1.225,-3.4766666666666666,-0.8466666666666667,-0.08750000000000001,-0.26333333333333336
-0.5715384615384616,-0.6961538461538462,-1.9,-0.9561538461538461,0.08076923076923077,0.22692307692307695
-0.31416666666666665,-0.0425,-0.8466666666666667,-0.8525,0.09000000000000001,0.7633333333333333
0.6766666666666667,0.14333333333333334,-0.505,-0.6699999999999999,-0.014166666666666668,1.0016666666666667
1.3653846153846154,-0.3607692307692308,-0.6215384615384616,-0.43538461538461537,-0.18,0.8276923076923077
0.7776923076923077,-1.0253846153846153,-0.6261538461538462,-0.23384615384615384,-0.32923076923076927,0.49769230769230766
-0.8016666666666666,-2.16,-0.3558333333333333,-0.11166666666666668,-0.43,0.3658333333333333
-0.8692307692307693,-2.686923076923077,0.11153846153846153,0.03230769230769231,-0.5138461538461538,0.2853846153846154
-0.21454545454545454,-2.348181818181818,0.2690909090909091,0.19727272727272727,-0.5790909090909091,0.2736363636363636
0.5171428571428571,-1.2542857142857142,-0.095,0.2928571428571428,-0.5471428571428572,0.35000000000000003
1.1708333333333334,-0.02333333333333334,-0.965,0.1825,-0.44916666666666666,0.49500000000000005
1.81,0.32538461538461544,-1.6153846153846154,-0.054615384615384614,-0.35923076923076924,0.5984615384615384
2.165,-0.002500000000000007,-1.1266666666666667,-0.21583333333333332,-0.3325,0.4808333333333334
1.1,-0.37166666666666665,0.08583333333333333,-0.22916666666666666,-0.30833333333333335,0.3333333333333333
-0.021538461538461548,-1.2761538461538462,0.9407692307692308,-0.08307692307692308,-0.2784615384615385,0.22615384615384615
-0.2715384615384615,-2.2169230769230768,1.1053846153846154,0.11923076923076924,-0.33153846153846156,0.11615384615384615
0.21833333333333335,-2.7066666666666666,0.9291666666666667,0.3125,-0.3499999999999999,0.005833333333333334
0.6738461538461539,-2.4546153846153844,0.7676923076923077,0.4369230769230769,-0.35,-0.13076923076923078
0.6558333333333334,-1.4675,0.7591666666666667,0.4791666666666667,-0.3516666666666666,-0.22166666666666668
0.46076923076923076,-0.2907692307692308,0.7776923076923077,0.4623076923076923,-0.28846153846153844,-0.23384615384615384
0.13583333333333333,0.43,0.9916666666666667,0.45416666666666666,-0.23916666666666667,-0.18083333333333332
-0.2676923076923077,0.6038461538461538,1.103846153846154,0.47538461538461535,-0.20615384615384616,-0.06384615384615386
-0.255,0.5516666666666666,0.8300000000000001,0.44916666666666666,-0.21916666666666665,0.041666666666666664
-0.03307692307692307,0.4653846153846154,0.59,0.38153846153846155,-0.28,0.07307692307692308
0.10333333333333333,0.5866666666666667,0.7508333333333334,0.2625,-0.3175,0.06166666666666667
0.16153846153846155,0.966923076923077,1.2723076923076921,0.20615384615384616,-0.34461538461538466,0.03307692307692307
0.0175,1.3383333333333332,1.6925,0.17416666666666666,-0.355,0.0675
-0.09153846153846155,1.4500000000000002,1.926153846153846,0.07461538461538461,-0.4030769230769231,0.14384615384615385
-0.42818181818181816,1.1454545454545455,2.484545454545455,-0.042727272727272725,-0.4818181818181818,0.23545454545454544
-0.71,0.612,3.2659999999999996,-0.046,-0.527,0.315
-0.769375,0.02375,3.534375,0.21,-0.645,0.33999999999999997
-1.1684615384615384,0.4376923076923077,2.1592307692307693,0.5761538461538461,-0.7084615384615385,0.3261538461538462
-0.33499999999999996,2.1149999999999998,-0.3941666666666667,0.8283333333333333,-0.5175,0.385
0.23090909090909092,3.3436363636363637,-3.0472727272727274,0.8372727272727274,-0.25363636363636366,0.5972727272727273
0.5992857142857143,3.948571428571429,-4.827857142857143,0.5892857142857143,-0.06857142857142857,0.9892857142857142
1.3807692307692307,2.730769230769231,-5.430000000000001,0.11461538461538462,0.02769230769230769,1.0761538461538462
1.1466666666666667,0.6625,-4.763333333333333,-0.325,0.041666666666666664,0.8624999999999999
0.6358333333333334,-0.7258333333333334,-3.424166666666667,-0.6541666666666667,0.04583333333333334,0.49333333333333335
0.7458333333333335,-1.21,-1.9966666666666668,-0.7958333333333334,0.08416666666666667,0.013333333333333336
0.7564285714285715,-1.2385714285714287,-0.7757142857142857,-0.7364285714285714,0.06142857142857144,-0.42642857142857143
0.775,-1.095,-0.6091666666666666,-0.6866666666666666,0.0675,-0.6708333333333334
0.2076923076923077,-0.66,-0.49461538461538457,-0.6323076923076923,0.1853846153846154,-0.6438461538461537
-0.345,-0.2141666666666667,-0.08,-0.5025000000000001,0.29,-0.5191666666666667
-0.10307692307692308,-0.6661538461538462,-0.14615384615384613,-0.3676923076923077,0.36846153846153845,-0.5161538461538462
-0.4233333333333333,-1.2833333333333332,-0.3111111111111111,-0.25777777777777783,0.3644444444444444,-0.5444444444444445
-2.001875,-1.496875,-0.5625,-0.193125,0.43125,-0.446875
-2.1141666666666667,-1.265,-0.4166666666666667,-0.08583333333333333,0.47583333333333333,-0.3183333333333333
-1.1653846153846152,-0.8892307692307693,-0.38923076923076927,-0.02,0.45153846153846156,-0.33153846153846156
-0.6372727272727272,-0.75,-0.1690909090909091,0.03272727272727272,0.4309090909090909,-0.3618181818181818
-0.578,-0.721,0.05600000000000001,0.074,0.461,-0.316
-0.38437499999999997,-0.874375,0.09625,0.0925,0.50875,-0.235625
-0.21769230769230768,-0.9823076923076923,0.031538461538461536,0.050769230769230775,0.5346153846153846,-0.21307692307692308
-0.15333333333333335,-0.9966666666666667,0.06833333333333334,-0.017499999999999998,0.5625,-0.2591666666666667
-0.495,-1.102,0.266,-0.039,0.577,-0.278
-1.0006666666666668,-1.4340000000000002,0.45933333333333337,-0.014666666666666666,0.5626666666666666,-0.228
-1.290769230769231,-1.5938461538461541,0.5953846153846153,-0.006923076923076922,0.5007692307692307,-0.12000000000000001
-1.1283333333333334,-1.185,1.0316666666666667,0.025833333333333333,0.43083333333333335,-0.04666666666666667
-1.206923076923077,-0.21230769230769228,1.4423076923076923,0.13,0.40230769230769237,0.0007692307692307693
-1.05,0.49636363636363634,1.2518181818181817,0.20363636363636364,0.39181818181818184,0.01
-0.71,0.7145454545454545,0.8981818181818183,0.2081818181818182,0.3409090909090909,-0.028181818181818183
-0.6506666666666666,0.492,0.732,0.114,0.30666666666666664,-0.06466666666666666
-0.5876923076923076,0.1776923076923077,0.8976923076923077,-0.03076923076923077,0.2969230769230769,-0.09538461538461539
-0.2975,0.215,1.3308333333333333,-0.08833333333333333,0.36333333333333334,-0.1225
0.000833333333333334,0.4875,1.4875,-0.1325,0.5091666666666667,-0.1366666666666667
0.3966666666666667,0.9888888888888889,1.3111111111111111,-0.21666666666666667,0.6577777777777778,-0.14
1.3388235294117647,1.3829411764705881,1.23,-0.3764705882352941,0.7894117647058824,-0.20470588235294118
1.74,0.8175,1.5424999999999998,-0.5283333333333333,0.8850000000000001,-0.37166666666666665
0.6438461538461537,-0.27461538461538465,2.223076923076923,-0.5115384615384616,0.8969230769230769,-0.4792307692307692
-1.2858333333333334,-0.4566666666666667,3.1225,-0.2725,0.7533333333333333,-0.47833333333333333
-2.766,0.45500000000000007,3.008,0.027000000000000003,0.605,-0.41200000000000003
-2.98,2.151333333333333,1.55,0.3173333333333333,0.3706666666666667,-0.396
-2.1538461538461537,3.816923076923077,-1.5623076923076922,0.4061538461538462,0.12923076923076923,-0.5838461538461538
-0.3358333333333334,4.125,-4.111666666666667,0.28750000000000003,-0.04916666666666667,-0.8708333333333332
0.7070000000000001,2.904,-5.511,0.079,-0.251,-1.004
0.37,0.8353333333333333,-5.339333333333333,-0.19666666666666668,-0.2046666666666667,-0.8
-0.27692307692307694,-0.823076923076923,-4.708461538461538,-0.6553846153846153,-0.18923076923076923,-0.4623076923076923
-0.37333333333333335,-1.2816666666666667,-2.904166666666667,-0.9558333333333334,-0.085,-0.14083333333333334
-0.46615384615384614,-0.6284615384615384,-0.5484615384615384,-0.8792307692307693,0.06538461538461539,0.33615384615384614
-0.010909090909090903,-0.11999999999999998,-0.25181818181818183,-0.7181818181818183,0.052727272727272734,0.759090909090909
0.6607692307692308,0.1623076923076923,-1.0892307692307692,-0.6453846153846154,-0.03538461538461539,0.9107692307692308
0.9175,-0.08166666666666667,-1.6391666666666664,-0.6341666666666667,-0.08583333333333333,0.7958333333333334
0.08214285714285714,-1.2014285714285715,-1.5685714285714287,-0.6285714285714287,-0.11571428571428573,0.6992857142857142
-0.41083333333333333,-2.525,-0.05166666666666666,-0.3516666666666666,-0.25333333333333335,0.515
-0.9299999999999999,-3.3899999999999997,1.2850000000000001,0.121,-0.388,0.39
-0.6933333333333334,-3.02,1.7613333333333332,0.626,-0.48666666666666664,0.324
-0.32538461538461544,-1.073076923076923,0.75,0.7123076923076923,-0.5492307692307693,0.3915384615384615
-0.13083333333333333,1.0641666666666667,-1.405,0.36166666666666664,-0.5358333333333334,0.5583333333333333
0.6908333333333333,1.3525,-2.7158333333333338,-0.001666666666666666,-0.4891666666666667,0.6291666666666667
1.2707692307692307,0.5238461538461539,-2.6738461538461538,-0.5015384615384615,-0.47307692307692306,0.583076923076923
1.467,-0.643,-0.893,-0.781,-0.45,0.45499999999999996
1.106,-1.8613333333333333,1.8973333333333333,-0.542,-0.44266666666666665,0.31
0.7391666666666666,-2.8625000000000003,3.6033333333333335,0.01833333333333333,-0.4283333333333333,0.145
0.7808333333333334,-2.874166666666667,3.1766666666666663,0.5016666666666667,-0.4608333333333334,-0.03666666666666667
0.5907692307692307,-2.2292307692307696,2.1930769230769234,0.7730769230769231,-0.5107692307692309,-0.19
0.01153846153846154,-0.7738461538461539,-0.05461538461538466,0.5553846153846154,-0.48384615384615387,-0.23615384615384613
-0.4846153846153846,0.20384615384615384,-1.1969230769230768,0.31461538461538463,-0.4392307692307692,-0.16538461538461538
-0.30583333333333335,0.5291666666666667,-1.4283333333333335,0.12333333333333334,-0.3758333333333333,-0.06166666666666667
-0.16153846153846155,0.8076923076923077,-0.6799999999999999,-0.03692307692307692,-0.33615384615384614,0.08076923076923077
0.24916666666666665,0.7433333333333333,0.6575000000000001,-0.011666666666666665,-0.3383333333333334,0.1425
0.4646153846153846,0.4238461538461538,2.186153846153846,0.22076923076923077,-0.4315384615384615,0.08538461538461539
-0.09000000000000001,0.4266666666666667,3.0175,0.43,-0.6566666666666666,0.035833333333333335
-1.2515384615384615,1.1484615384615384,2.630769230769231,0.3484615384615385,-0.8738461538461538,0.10076923076923078
-1.9554545454545456,1.9863636363636366,1.3854545454545455,0.04454545454545455,-1.0127272727272727,0.2545454545454545
-1.9957142857142858,1.4200000000000002,0.7385714285714285,-0.255,-1.05,0.39999999999999997
-0.7733333333333334,0.11444444444444447,0.828888888888889,-0.5577777777777777,-1.04,0.4066666666666667
0.9192307692307693,-1.1953846153846155,2.667692307692308,-0.5230769230769231,-0.9523076923076924,0.3438461538461538
2.0193333333333334,-0.6893333333333334,4.1193333333333335,0.037333333333333336,-0.7933333333333333,0.21666666666666667
2.509230769230769,1.5192307692307692,3.813846153846154,0.6453846153846154,-0.5638461538461539,0.10384615384615385
2.27,3.282,1.9189999999999998,1.089,-0.335,0.199
2.178,4.892666666666667,-1.84,1.1213333333333333,0.10466666666666667,0.502
2.97,4.846666666666667,-4.6575,0.8908333333333333,0.46416666666666667,0.7975
3.2476923076923074,2.0384615384615383,-5.829999999999999,0.5676923076923077,0.4407692307692308,0.6576923076923078
1.6308333333333334,-0.8741666666666666,-6.183333333333334,0.0275,0.23416666666666666,0.31666666666666665
-0.623,-2.569,-6.07,-0.56,0.1,0.029000000000000005
-1.9157142857142857,-2.585714285714286,-4.882857142857143,-1.082142857142857,0.05857142857142857,-0.29285714285714287
-2.462142857142857,-1.912857142857143,-2.766428571428571,-1.4335714285714285,0.023571428571428573,-0.5985714285714286
-2.8016666666666663,-2.0108333333333333,2.9408333333333334,-0.9233333333333333,0.08750000000000001,-0.5841666666666666
-1.8475000000000001,-1.2491666666666668,3.1958333333333333,-0.4458333333333333,0.23166666666666666,-0.4033333333333333
0.04615384615384614,0.09230769230769233,0.6184615384615384,-0.16153846153846155,0.43846153846153846,-0.31923076923076926
2.163076923076923,0.6607692307692308,-1.3761538461538463,-0.012307692307692306,0.41923076923076924,-0.40923076923076923
2.1275,-0.02583333333333333,-2.3583333333333334,-0.2708333333333333,0.41333333333333333,-0.5458333333333334
-0.8792307692307693,-0.5553846153846154,-0.7884615384615384,-0.3738461538461539,0.51,-0.4492307692307692
-2.335,-1.0250000000000001,1.19,-0.11,0.6291666666666667,-0.3175
-2.0829999999999997,-1.1409999999999998,2.23,0.31,0.6859999999999999,-0.276
-0.9341666666666667,-0.6675,0.63,0.35333333333333333,0.5866666666666666,-0.3833333333333333
0.028125,0.07625000000000001,-1.704375,0.108125,0.615625,-0.455
0.20666666666666667,-0.525,-2.4066666666666667,-0.19666666666666666,0.6158333333333333,-0.46166666666666667
-0.6591666666666667,-0.8574999999999999,-1.5216666666666667,-0.4141666666666666,0.6391666666666667,-0.39666666666666667
-1.8076923076923077,-1.8000000000000003,0.46307692307692305,-0.3284615384615384,0.6423076923076922,-0.29
-2.217,-2.508,2.19,0.012,0.612,-0.178
-2.5564285714285715,-2.3542857142857145,2.5142857142857147,0.38571428571428573,0.5864285714285714,-0.015714285714285715
