ax,ay,az,wx,wy,wz
-0.28692307692307695,1.4215384615384616,3.1184615384615384,-0.09769230769230769,-0.5846153846153845,0.3038461538461539
-0.3028571428571429,1.0042857142857142,3.4314285714285715,-0.05285714285714286,-0.5471428571428572,0.38571428571428573
-0.12777777777777777,1.135,2.5477777777777777,0.12611111111111112,-0.4527777777777778,0.43777777777777777
0.9546153846153846,2.7492307692307696,0.7307692307692307,0.24538461538461537,-0.22692307692307695,0.5276923076923077
1.4808333333333332,3.779166666666667,-0.5241666666666667,0.23583333333333334,-0.03,0.6441666666666667
1.3415384615384616,4.12,-1.3715384615384614,0.13384615384615384,0.2276923076923077,0.9330769230769231
2.05,2.624166666666667,-1.6858333333333333,0.049999999999999996,0.4366666666666667,1.0583333333333333
1.9953846153846155,-0.04538461538461536,-2.0138461538461536,-0.03076923076923077,0.43615384615384617,0.88
1.5658333333333332,-2.1241666666666665,-2.4891666666666667,-0.22083333333333333,0.37666666666666665,0.5008333333333334
1.1357142857142857,-2.7028571428571433,-2.41,-0.36,0.33999999999999997,0.16
0.32166666666666666,-2.3833333333333333,-1.5894444444444444,-0.37555555555555553,0.24722222222222223,-0.29388888888888887
-0.9758333333333334,-1.1016666666666668,-0.7191666666666667,-0.22,0.13,-0.6691666666666666
-1.5246153846153847,-0.06384615384615383,-0.8615384615384615,-0.11615384615384615,0.09384615384615384,-0.6653846153846155
-1.316923076923077,0.4492307692307692,-1.1084615384615384,-0.22692307692307695,0.20461538461538462,-0.5107692307692308
-0.6208333333333333,0.38916666666666666,-0.7458333333333332,-0.34,0.41083333333333333,-0.2966666666666667
0.5084615384615385,-0.6269230769230769,-0.1930769230769231,-0.27384615384615385,0.4507692307692308,-0.28692307692307695
0.16749999999999998,-1.7191666666666665,0.4908333333333334,-0.12666666666666668,0.42416666666666664,-0.37166666666666665
-0.6828571428571429,-1.6942857142857142,0.8414285714285714,0.015714285714285715,0.4257142857142857,-0.37
-1.1111111111111112,-1.6866666666666665,0.7127777777777777,0.17166666666666666,0.5316666666666667,-0.3227777777777778
-0.8684615384615385,-1.0223076923076921,0.5861538461538461,0.25461538461538463,0.5238461538461539,-0.34923076923076923
-1.1241666666666665,-0.3441666666666667,0.9400000000000001,0.34,0.38916666666666666,-0.3825
-1.1700000000000002,-0.38461538461538464,1.1976923076923076,0.44,0.3023076923076923,-0.34615384615384615
-1.4258333333333333,-0.6616666666666667,1.155,0.43083333333333335,0.32166666666666666,-0.2708333333333333
-1.003076923076923,-0.7946153846153846,1.1630769230769231,0.3038461538461539,0.4146153846153846,-0.19076923076923077
-0.6033333333333334,-0.765,1.5233333333333334,0.215,0.4691666666666667,-0.17
-0.5842857142857143,-0.9285714285714286,1.7414285714285713,0.1942857142857143,0.4857142857142857,-0.16714285714285718
-0.5633333333333334,-1.1916666666666667,1.9916666666666667,0.20944444444444443,0.538888888888889,-0.12944444444444445
-0.5230769230769231,-1.1584615384615384,2.226923076923077,0.26615384615384613,0.62,-0.06076923076923077
-0.45,-0.7675000000000001,2.2308333333333334,0.43416666666666665,0.7208333333333333,0.017499999999999998
-0.09384615384615384,-0.10615384615384617,1.7915384615384615,0.6561538461538461,0.7738461538461539,0.06461538461538462
0.295,0.9633333333333334,0.7208333333333333,0.7591666666666667,0.7233333333333333,-0.030833333333333334
-0.1992307692307692,1.8753846153846152,-0.4476923076923077,0.5392307692307692,0.6869230769230769,-0.21769230769230768
-0.7483333333333334,2.395,-0.20833333333333334,0.11083333333333334,0.7958333333333334,-0.38916666666666666
-0.8928571428571429,2.632857142857143,0.9528571428571428,-0.2057142857142857,0.8885714285714286,-0.4471428571428571
-0.305,2.21,2.6133333333333333,-0.43444444444444447,0.9783333333333333,-0.43166666666666664
-0.0015384615384615313,0.9246153846153846,3.4130769230769236,-0.2776923076923077,0.8907692307692308,-0.4746153846153846
-2.299166666666667,1.1758333333333333,1.9191666666666667,0.03416666666666667,0.45166666666666666,-0.51
-4.317692307692307,3.2507692307692313,-0.5361538461538461,0.18615384615384614,-0.02461538461538462,-0.4523076923076923
-2.8524999999999996,5.291666666666667,-2.700833333333333,-0.06083333333333333,-0.4708333333333334,-0.6058333333333333
-0.9261538461538462,5.43076923076923,-3.2684615384615388,-0.5084615384615385,-0.8376923076923077,-1.0007692307692309
-0.15166666666666667,3.11,-2.0116666666666667,-0.7441666666666666,-0.8875000000000001,-1.1516666666666666
-0.5142857142857143,0.5085714285714286,-1.3514285714285716,-0.6785714285714286,-0.8442857142857143,-1.0414285714285714
-1.3777777777777778,-2.613888888888889,-1.7377777777777779,-0.5527777777777777,-0.7738888888888888,-0.705
-1.85,-4.282307692307692,-1.6607692307692308,-0.5307692307692308,-0.5115384615384616,0.08769230769230768
-0.3033333333333333,-3.6216666666666666,-0.7425,-0.4683333333333333,-0.27666666666666667,0.755
2.335,-1.6749999999999998,0.18333333333333335,-0.2525,-0.06833333333333334,1.0833333333333333
4.202307692307692,0.0753846153846154,0.45461538461538464,0.013076923076923076,-0.05692307692307692,0.9353846153846154
3.2653846153846158,1.18,0.01230769230769231,0.16230769230769232,-0.20692307692307693,0.5376923076923077
0.945,1.4966666666666668,-0.6308333333333334,0.085,-0.29750000000000004,0.27666666666666667
-0.92,1.2942857142857143,-1.1871428571428573,-0.09857142857142857,-0.38,0.16714285714285712
-2.2383333333333333,-0.12499999999999997,-1.0016666666666667,-0.3488888888888889,-0.48666666666666664,0.21166666666666667
-1.616153846153846,-1.863846153846154,0.07615384615384616,-0.41923076923076924,-0.6246153846153846,0.4269230769230769
-0.21,-2.3975,0.8850000000000001,-0.2608333333333333,-0.7041666666666666,0.5408333333333334
0.9592307692307691,-2.0576923076923075,1.2453846153846155,-0.045384615384615384,-0.6523076923076924,0.5823076923076923
2.0566666666666666,-1.3416666666666668,1.2141666666666666,0.15916666666666665,-0.5608333333333334,0.5358333333333333
2.4992307692307696,-0.8715384615384616,0.9146153846153846,0.24000000000000002,-0.5292307692307693,0.3130769230769231
1.6909090909090911,-0.4872727272727273,0.7672727272727272,0.1918181818181818,-0.4818181818181818,0.17727272727272728
1.325,-0.4575,0.735,0.11625,-0.46875,0.125
0.895,-0.8155555555555556,0.9194444444444445,0.013888888888888888,-0.4666666666666667,0.07055555555555555
0.9346153846153846,-1.396923076923077,1.4284615384615384,-0.02,-0.42076923076923073,-0.013846153846153845
0.9033333333333333,-1.5516666666666667,1.7733333333333334,0.07,-0.37916666666666665,-0.10583333333333333
0.8276923076923077,-1.6376923076923076,1.9230769230769231,0.2276923076923077,-0.30615384615384617,-0.17153846153846153
0.7875000000000001,-1.385,1.88,0.3825,-0.21333333333333335,-0.21833333333333335
0.6799999999999999,-0.48461538461538467,1.5307692307692309,0.47923076923076924,-0.14461538461538462,-0.21
0.2841666666666667,0.5975,1.2775,0.49416666666666664,-0.1525,-0.11583333333333334
-0.2907692307692308,1.4884615384615385,1.3976923076923078,0.4423076923076923,-0.18846153846153849,0.04076923076923077
-0.6366666666666667,1.8908333333333331,1.5133333333333334,0.3591666666666667,-0.19083333333333333,0.19499999999999998
-0.5884615384615384,1.9523076923076923,1.26,0.21,-0.26,0.2753846153846154
-0.46,2.0441666666666665,1.495,0.014166666666666666,-0.4491666666666667,0.2866666666666667
-0.6915384615384615,2.103076923076923,2.308461538461539,-0.18615384615384614,-0.6407692307692308,0.29538461538461536
-1.0358333333333334,1.5133333333333334,3.2225,-0.3425,-0.7208333333333333,0.3441666666666667
-0.38769230769230767,0.28076923076923077,4.119999999999999,-0.3676923076923077,-0.7446153846153846,0.41384615384615386
1.09,-0.43083333333333335,4.589166666666666,-0.13916666666666666,-0.7324999999999999,0.3983333333333334
1.4246153846153846,0.44461538461538463,3.3784615384615386,0.2530769230769231,-0.7053846153846154,0.2630769230769231
1.2566666666666666,1.8849999999999998,1.245,0.5833333333333334,-0.5291666666666667,0.30416666666666664
1.320909090909091,2.689090909090909,-1.370909090909091,0.7763636363636365,-0.3318181818181818,0.4354545454545455
0.7971428571428572,3.117857142857143,-3.355,0.7557142857142857,-0.028571428571428574,0.7871428571428571
1.2538461538461538,1.9284615384615384,-3.8830769230769233,0.5353846153846153,0.2030769230769231,1.0746153846153847
1.1516666666666666,0.06999999999999999,-3.7283333333333335,0.23583333333333334,0.29,1.0041666666666667
0.37384615384615383,-1.1484615384615384,-3.3246153846153845,-0.06153846153846154,0.22846153846153847,0.7523076923076922
-0.37833333333333335,-1.14,-2.6041666666666665,-0.32749999999999996,0.145,0.39166666666666666
-0.4014285714285714,-0.33285714285714285,-1.842857142857143,-0.41428571428571426,0.08,0.025714285714285714
0.006666666666666672,0.5494444444444445,-1.395,-0.4972222222222222,0.08888888888888888,-0.4383333333333333
1.0038461538461538,0.4746153846153846,-1.05,-0.6923076923076923,0.11307692307692307,-0.8099999999999999
1.0791666666666666,0.3833333333333333,0.05833333333333332,-0.7083333333333334,0.265,-0.815
1.59,0.3484615384615385,0.6784615384615384,-0.5153846153846154,0.42461538461538456,-0.7707692307692308
1.4625000000000001,-0.6825000000000001,0.5183333333333333,-0.26916666666666667,0.5858333333333333,-0.8258333333333333
-0.1507692307692308,-1.3984615384615384,-0.28307692307692306,-0.23923076923076922,0.7661538461538461,-0.7923076923076924
-1.8525,-1.2858333333333334,-0.31916666666666665,-0.295,0.8641666666666666,-0.6549999999999999
-2.077142857142857,-1.3699999999999999,-0.22428571428571425,-0.3242857142857143,0.9428571428571428,-0.5328571428571429
-0.9622222222222222,-1.4200000000000002,0.4011111111111111,-0.24333333333333332,0.9700000000000001,-0.5216666666666667
-0.33999999999999997,-1.4307692307692306,0.9176923076923077,-0.06769230769230769,0.8276923076923077,-0.5723076923076923
-0.9358333333333334,-1.7125000000000001,0.7966666666666667,0.04083333333333333,0.7725,-0.5233333333333333
-1.5815384615384613,-1.8184615384615386,0.696923076923077,0.07076923076923078,0.7507692307692307,-0.37846153846153846
-1.7,-1.4541666666666666,0.8541666666666666,0.07250000000000001,0.7041666666666666,-0.24916666666666668
-1.7323076923076923,-1.096923076923077,0.9684615384615385,0.0676923076923077,0.5984615384615385,-0.18307692307692308
-2.1427272727272726,-1.09,1.1645454545454546,0.08454545454545455,0.5145454545454545,-0.07363636363636364
-2.19375,-1.1312499999999999,1.38375,0.13625,0.45375,0.04
-1.8688888888888888,-0.8338888888888889,1.515,0.22499999999999998,0.36666666666666664,0.19055555555555556
-0.7061538461538461,-0.1846153846153846,1.6176923076923078,0.25230769230769234,0.3423076923076923,0.2661538461538462
0.3766666666666667,0.2608333333333333,1.8741666666666668,0.245,0.37083333333333335,0.135
0.89,0.6966666666666667,2.0075,0.3075,0.3983333333333334,-0.05583333333333334
0.746923076923077,0.9392307692307693,1.6953846153846153,0.35307692307692307,0.4453846153846154,-0.24615384615384617
0.14384615384615385,0.8507692307692308,1.3884615384615384,0.30692307692307697,0.5430769230769231,-0.3038461538461539
-0.22333333333333336,0.7158333333333333,1.2966666666666666,0.2275,0.6491666666666667,-0.24666666666666667
-0.37714285714285717,0.8528571428571429,1.31,0.14714285714285716,0.74,-0.19142857142857145
-0.31,1.316111111111111,1.7622222222222221,0.017777777777777778,0.8266666666666667,-0.1711111111111111
-0.22230769230769232,1.813076923076923,2.7823076923076924,-0.07384615384615384,0.8507692307692308,-0.22
-0.20333333333333334,1.4800000000000002,3.4025,-0.01916666666666667,0.8316666666666667,-0.3275
-0.3833333333333333,1.0225,3.3008333333333333,0.23083333333333333,0.7291666666666666,-0.44416666666666665
-0.7846153846153846,1.8784615384615386,1.3492307692307692,0.5261538461538462,0.58,-0.5007692307692307
-1.0075,3.965,-1.9208333333333334,0.48833333333333334,0.3025,-0.6408333333333333
-0.9338461538461539,5.450000000000001,-4.456153846153846,0.1176923076923077,0.02,-0.8907692307692308
-1.0342857142857143,4.507142857142857,-4.714285714285714,-0.2785714285714286,-0.16999999999999998,-1.0
-1.1394444444444445,0.8844444444444445,-3.207777777777778,-0.5738888888888889,-0.25222222222222224,-0.8572222222222222
-1.265,-2.2433333333333336,-1.5558333333333334,-0.6275000000000001,-0.2333333333333333,-0.54
-1.32,-2.946923076923077,-0.6799999999999999,-0.5753846153846154,-0.18,-0.09307692307692307
-0.9038461538461539,-2.21,0.1246153846153846,-0.3830769230769231,-0.15615384615384617,0.3638461538461539
-0.09416666666666666,-0.9233333333333333,-0.03500000000000001,-0.14916666666666667,-0.15666666666666668,0.7158333333333333
0.8815384615384616,0.26076923076923075,-0.89,-0.10615384615384614,-0.2476923076923077,0.7861538461538462
1.0733333333333333,0.6541666666666667,-1.0866666666666667,-0.1775,-0.40166666666666667,0.5941666666666666
0.4471428571428571,0.23285714285714287,-0.9457142857142857,-0.22714285714285712,-0.43,0.4585714285714286
-0.04944444444444445,-0.5955555555555556,-0.6444444444444444,-0.26222222222222225,-0.47888888888888886,0.35833333333333334
-0.5715384615384616,-1.713076923076923,-0.5069230769230769,-0.2723076923076923,-0.6030769230769231,0.3515384615384616
-0.7616666666666667,-2.4483333333333337,-0.10666666666666667,-0.2333333333333333,-0.6691666666666666,0.51
-0.21,-2.4007692307692308,0.13538461538461538,-0.15923076923076923,-0.7007692307692307,0.6561538461538461
0.7908333333333334,-1.3433333333333335,0.5291666666666667,-0.02916666666666667,-0.6233333333333334,0.6774999999999999
1.0438461538461539,-0.5623076923076924,0.5869230769230769,0.1053846153846154,-0.5969230769230769,0.59
0.725,-0.44416666666666665,0.8941666666666667,0.23500000000000001,-0.6066666666666666,0.4291666666666667
-0.047142857142857146,-0.5357142857142857,1.1528571428571428,0.25285714285714284,-0.64,0.34285714285714286
-0.39222222222222225,-0.7105555555555555,1.346111111111111,0.195,-0.635,0.30833333333333335
0.17538461538461542,-0.9353846153846154,1.49,0.09461538461538462,-0.6492307692307692,0.3
1.2066666666666668,-1.0566666666666666,1.46,0.023333333333333334,-0.61,0.20583333333333334
1.7038461538461538,-0.9230769230769231,1.4684615384615385,-0.014615384615384615,-0.5323076923076923,0.09923076923076923
2.0041666666666664,-0.9500000000000001,1.6300000000000001,0.051666666666666666,-0.48500000000000004,-0.012500000000000002
1.9138461538461538,-1.2961538461538462,1.6615384615384614,0.18153846153846154,-0.39384615384615385,-0.15923076923076923
1.2816666666666665,-1.3033333333333335,1.4891666666666667,0.25583333333333336,-0.2841666666666667,-0.26416666666666666
0.7728571428571429,-0.8085714285714286,1.5585714285714285,0.31,-0.21714285714285714,-0.26285714285714284
0.3922222222222222,0.32999999999999996,1.765,0.4288888888888889,-0.1922222222222222,-0.12833333333333333
0.14083333333333334,1.6183333333333334,1.4750000000000003,0.5499999999999999,-0.18916666666666668,0.03333333333333333
-0.13384615384615384,2.167692307692308,0.7638461538461538,0.52,-0.16923076923076924,0.07384615384615384
-0.6869230769230769,2.4553846153846157,0.5561538461538462,0.24923076923076926,-0.27307692307692305,0.13615384615384615
-1.0466666666666666,2.7183333333333333,1.6958333333333335,-0.0775,-0.4608333333333334,0.2658333333333333
-1.1376923076923078,2.2646153846153845,3.204615384615385,-0.25923076923076926,-0.5907692307692307,0.41307692307692306
-0.68,1.0133333333333334,3.981666666666667,-0.32083333333333336,-0.6716666666666667,0.44916666666666666
-0.048571428571428564,-0.09,4.281428571428572,-0.20857142857142857,-0.6742857142857144,0.47714285714285715
0.5122222222222222,0.29888888888888887,3.4188888888888886,0.12611111111111112,-0.6305555555555555,0.39722222222222225
1.3761538461538463,2.183846153846154,1.3323076923076924,0.49230769230769234,-0.42615384615384616,0.3669230769230769
1.4183333333333332,3.089166666666667,-1.2283333333333333,0.715,-0.1758333333333333,0.4608333333333334
0.9071428571428571,3.9,-3.329285714285714,0.705,0.14142857142857143,0.8464285714285714
0.8772727272727273,3.049090909090909,-4.127272727272727,0.4681818181818182,0.34909090909090906,1.1536363636363636
0.6353846153846153,0.4515384615384615,-4.008461538461538,0.17076923076923076,0.4330769230769231,1.1092307692307692
0.08666666666666667,-1.8983333333333334,-3.481666666666667,-0.13749999999999998,0.31416666666666665,0.8316666666666667
-0.40888888888888886,-2.6455555555555557,-2.73,-0.38222222222222224,0.20333333333333334,0.4555555555555555
-0.7725,-1.920625,-1.5731249999999999,-0.4975,0.0525,-0.108125
-1.23,-0.5461538461538462,-0.7961538461538461,-0.47538461538461535,-0.006923076923076922,-0.6207692307692307
-0.6208333333333333,0.09916666666666667,-0.6083333333333333,-0.4891666666666667,0.02666666666666667,-0.7491666666666666
0.26,0.9176923076923077,-0.4369230769230769,-0.5753846153846154,0.15,-0.7223076923076923
1.3466666666666667,1.5066666666666666,-0.3208333333333333,-0.6124999999999999,0.3875,-0.5975
1.6907692307692308,0.2730769230769231,-0.2623076923076923,-0.53,0.4776923076923077,-0.6215384615384616
-0.04583333333333331,-1.2466666666666666,-0.055833333333333325,-0.43083333333333335,0.5266666666666667,-0.585
-1.9614285714285713,-1.26,0.26571428571428574,-0.39999999999999997,0.6057142857142858,-0.4957142857142857
-2.5194444444444444,-1.213888888888889,0.7288888888888888,-0.2916666666666667,0.6627777777777778,-0.41333333333333333
-1.8099999999999998,-1.583846153846154,1.1953846153846153,-0.003076923076923075,0.5223076923076924,-0.4530769230769231
-1.4908333333333335,-1.5508333333333333,1.1283333333333334,0.165,0.33166666666666667,-0.46416666666666667
-1.3192307692307692,-1.4207692307692308,1.0323076923076924,0.1930769230769231,0.32,-0.3946153846153846
-0.8366666666666666,-1.3333333333333333,1.0291666666666666,0.11750000000000001,0.3658333333333333,-0.3283333333333333
-0.7715384615384615,-1.0138461538461538,1.3707692307692307,0.07230769230769231,0.3776923076923077,-0.2792307692307693
-0.5650000000000001,-1.2675,1.4533333333333331,0.047499999999999994,0.35666666666666663,-0.2808333333333333
-0.8285714285714285,-1.65,1.4728571428571429,0.03,0.35,-0.27
-1.173888888888889,-1.7761111111111112,1.7105555555555556,0.051111111111111114,0.33055555555555555,-0.18666666666666665
-1.5684615384615386,-0.9607692307692308,1.9384615384615385,0.10769230769230768,0.31769230769230766,-0.038461538461538464
-1.3724999999999998,0.24,1.9675,0.1475,0.43250000000000005,0.10333333333333333
-0.3225,0.815,1.79,0.17833333333333334,0.44083333333333335,0.13833333333333334
0.5684615384615385,0.9084615384615385,1.5938461538461541,0.14461538461538462,0.41538461538461535,0.016923076923076926
0.666923076923077,1.103846153846154,1.7561538461538464,0.05461538461538462,0.4715384615384615,-0.15846153846153846
0.36000000000000004,1.2483333333333333,1.8758333333333335,-0.043333333333333335,0.5408333333333334,-0.28250000000000003
-0.08285714285714287,1.417142857142857,2.1157142857142857,-0.10428571428571429,0.56,-0.31714285714285717
-0.7894444444444444,1.4383333333333335,2.48,-0.16055555555555556,0.5894444444444444,-0.33055555555555555
-1.1738461538461538,1.1623076923076923,2.9007692307692308,-0.18,0.61,-0.34153846153846157
-1.2308333333333332,1.2191666666666665,2.9933333333333336,-0.10333333333333333,0.5733333333333334,-0.3741666666666667
-1.4138461538461538,1.8146153846153845,2.38,0.1553846153846154,0.46923076923076923,-0.43230769230769234
-1.4908333333333335,3.07,0.6966666666666667,0.43083333333333335,0.21083333333333334,-0.5666666666666667
-1.3023076923076924,3.833076923076923,-1.8946153846153846,0.4015384615384615,0.02769230769230769,-0.7630769230769231
-0.6491666666666667,3.355,-3.8683333333333336,0.10416666666666667,-0.1025,-0.8666666666666667
-0.39999999999999997,1.96875,-4.1225000000000005,-0.15375,-0.17875,-0.80125
-0.36882352941176466,-0.32647058823529407,-3.436470588235294,-0.3723529411764706,-0.20470588235294118,-0.5388235294117647
-0.16,-1.8692307692307693,-2.316153846153846,-0.5,-0.24923076923076926,-0.2623076923076923
-0.7525,-1.3233333333333335,-1.1416666666666668,-0.4383333333333333,-0.1525,0.0825
-1.0161538461538462,-0.16923076923076924,-0.546923076923077,-0.3469230769230769,-0.16846153846153847,0.5238461538461539
-0.24333333333333332,0.8575,-0.6791666666666667,-0.3458333333333334,-0.2833333333333333,0.805
0.6384615384615385,0.8853846153846153,-0.8284615384615385,-0.34461538461538466,-0.39,0.7646153846153846
0.6133333333333333,-0.15916666666666665,-1.0058333333333334,-0.34833333333333333,-0.4708333333333334,0.6749999999999999
0.9514285714285714,-0.5557142857142857,-0.5414285714285715,-0.3157142857142857,-0.42,0.5771428571428572
0.135,-1.4005555555555556,-0.4722222222222222,-0.30833333333333335,-0.6477777777777778,0.32944444444444443
-1.2042857142857142,-2.9114285714285715,0.23714285714285713,-0.18857142857142858,-0.7707142857142858,0.42071428571428576
-0.28545454545454546,-2.778181818181818,0.7227272727272728,0.05,-0.7209090909090908,0.6045454545454545
1.2046153846153846,-1.8292307692307692,0.6538461538461539,0.1776923076923077,-0.7092307692307691,0.5923076923076922
1.9083333333333332,-0.9424999999999999,0.315,0.1991666666666667,-0.6575000000000001,0.5
2.1092307692307695,-0.7453846153846153,0.27307692307692305,0.18153846153846154,-0.6069230769230769,0.32076923076923075
1.3583333333333334,-1.0441666666666667,0.41916666666666663,0.13083333333333333,-0.605,0.15666666666666668
0.7542857142857143,-1.2142857142857142,0.6585714285714286,0.06999999999999999,-0.5514285714285715,0.06999999999999999
0.44833333333333336,-1.2638888888888888,1.2466666666666666,0.058333333333333334,-0.4911111111111111,-0.018333333333333333
0.38846153846153847,-1.6084615384615384,1.4346153846153844,0.13846153846153847,-0.4269230769230769,-0.062307692307692314
0.8733333333333334,-1.825,1.4241666666666666,0.3066666666666667,-0.3775,-0.09833333333333333
1.1846153846153844,-1.7161538461538461,1.3046153846153847,0.42,-0.2853846153846154,-0.19230769230769232
1.0616666666666668,-0.93,1.2891666666666668,0.4483333333333333,-0.22083333333333333,-0.2775
0.38,0.2907692307692308,1.389230769230769,0.4538461538461539,-0.1853846153846154,-0.24846153846153846
-0.19416666666666668,1.4174999999999998,1.5625,0.4558333333333333,-0.13,-0.09000000000000001
-0.1985714285714286,1.9285714285714286,1.5471428571428572,0.47000000000000003,-0.1,0.0642857142857143
-0.07722222222222223,1.8250000000000002,1.133888888888889,0.41277777777777774,-0.145,0.1638888888888889
-0.35923076923076924,1.6538461538461537,0.7923076923076924,0.22076923076923077,-0.23384615384615384,0.16153846153846155
-0.7308333333333333,1.8333333333333333,1.3983333333333334,0.0275,-0.3675,0.1525
-0.8623076923076923,2.1607692307692306,2.566923076923077,-0.11153846153846153,-0.49,0.25384615384615383
-0.3675,1.7166666666666668,3.52,-0.165,-0.5125000000000001,0.3658333333333333
0.5215384615384615,0.5761538461538461,3.9384615384615387,-0.043846153846153854,-0.47384615384615386,0.42230769230769233
0.8375,0.42250000000000004,3.2825,0.25583333333333336,-0.4483333333333333,0.40166666666666667
0.9914285714285713,1.56,1.9857142857142858,0.4057142857142857,-0.31857142857142856,0.4228571428571429
1.5811111111111111,2.388888888888889,0.2233333333333333,0.43277777777777776,-0.15055555555555555,0.4516666666666666
1.1984615384615382,2.6115384615384616,-1.5015384615384615,0.3323076923076923,0.11923076923076924,0.6453846153846154
1.4116666666666668,2.1533333333333333,-2.105,0.3175,0.2791666666666667,0.8266666666666667
0.97,0.45785714285714285,-2.6114285714285717,0.2792857142857143,0.2871428571428571,0.8314285714285715
-0.07818181818181819,-1.2972727272727271,-2.900909090909091,0.12636363636363634,0.2,0.7045454545454546
-1.1528571428571428,-2.079285714285714,-2.6785714285714284,-0.09,0.08928571428571429,0.43142857142857144
-2.063636363636364,-1.5663636363636364,-1.7872727272727273,-0.2690909090909091,-0.07363636363636364,0.13
-1.8664285714285713,-0.15571428571428572,-0.7635714285714286,-0.3242857142857143,-0.15571428571428572,-0.1335714285714286
-0.729090909090909,0.8281818181818181,-0.4145454545454545,-0.31636363636363635,-0.14363636363636365,-0.29636363636363633
0.8323076923076923,0.8738461538461538,-0.5338461538461539,-0.41000000000000003,-0.16538461538461538,-0.4538461538461538
1.345,1.2258333333333333,-0.1975,-0.47750000000000004,0.034999999999999996,-0.42166666666666663
2.0576923076923075,0.7900000000000001,-0.2792307692307692,-0.49,0.12769230769230772,-0.4953846153846154
1.2583333333333333,-0.37833333333333335,-0.03416666666666667,-0.46,0.20333333333333334,-0.5633333333333334
-0.7635714285714286,-0.8871428571428571,0.722857142857143,-0.4185714285714286,0.325,-0.5357142857142857
-1.619090909090909,-1.2754545454545454,1.1718181818181819,-0.29454545454545455,0.40090909090909094,-0.49
-1.55,-1.6063636363636364,1.3718181818181818,-0.13,0.41818181818181815,-0.48454545454545456
-1.205,-1.522857142857143,1.3457142857142856,0.075,0.3321428571428572,-0.47000000000000003
-1.0307142857142857,-1.2107142857142856,1.1264285714285713,0.22571428571428573,0.30357142857142855,-0.4114285714285714
-0.7718181818181818,-1.1918181818181817,1.0254545454545456,0.22,0.3518181818181818,-0.3409090909090909
-0.6730769230769231,-0.9823076923076923,1.333846153846154,0.18692307692307694,0.40230769230769237,-0.26
-0.3116666666666667,-0.9049999999999999,1.3833333333333335,0.11750000000000001,0.43416666666666665,-0.25833333333333336
-0.5930769230769231,-1.1346153846153846,1.43,0.036153846153846154,0.46153846153846156,-0.2692307692307692
-1.0541666666666667,-1.4391666666666667,1.6983333333333333,0.0425,0.455,-0.21
-1.5115384615384615,-1.4715384615384615,2.023846153846154,0.14076923076923079,0.41615384615384615,-0.08076923076923077
-1.5425000000000002,-1.0516666666666667,2.15,0.30083333333333334,0.4475,0.06916666666666667
-0.8057142857142857,-0.21571428571428572,1.6714285714285713,0.4035714285714286,0.48857142857142855,0.14285714285714285
-0.06818181818181818,0.6118181818181818,1.1727272727272726,0.3290909090909091,0.5436363636363637,0.09818181818181819
0.43785714285714283,1.262857142857143,1.2764285714285715,0.25142857142857145,0.5864285714285714,-0.047142857142857146
0.5490909090909091,1.6663636363636363,1.3336363636363637,0.20454545454545456,0.5736363636363636,-0.19727272727272727
0.12384615384615386,1.7215384615384615,1.2892307692307694,0.10615384615384617,0.5784615384615385,-0.2976923076923077
-0.6008333333333333,1.5374999999999999,1.6391666666666664,-0.03916666666666667,0.66,-0.33666666666666667
-0.8966666666666667,1.4522222222222223,2.362222222222222,-0.17333333333333334,0.7477777777777779,-0.35
-0.573125,1.471875,3.2975,-0.2275,0.7681250000000001,-0.368125
-0.4346153846153846,1.5092307692307694,3.6884615384615387,-0.08153846153846155,0.7153846153846153,-0.4423076923076923
-1.0225,1.9083333333333332,2.8699999999999997,0.18416666666666667,0.6175,-0.5016666666666666
-1.9507692307692308,2.856923076923077,1.1676923076923076,0.40692307692307694,0.39692307692307693,-0.5476923076923077
-2.485,3.5766666666666667,-1.1358333333333333,0.4675,0.1875,-0.5816666666666667
-1.2730769230769232,3.2884615384615383,-3.5176923076923075,0.3123076923076923,0.05846153846153846,-0.6423076923076922
0.09666666666666666,1.8716666666666668,-4.178333333333334,0.04416666666666667,-0.03916666666666667,-0.6991666666666667
0.2414285714285714,0.25428571428571434,-3.6757142857142857,-0.13857142857142857,-0.06285714285714286,-0.6185714285714285
0.38,-1.5311111111111113,-2.807777777777778,-0.3766666666666667,-0.12000000000000001,-0.4577777777777778
0.11384615384615385,-1.5884615384615384,-1.1284615384615384,-0.5069230769230769,-0.009230769230769232,-0.13538461538461538
-0.40166666666666667,-0.15416666666666665,-0.09250000000000001,-0.4183333333333333,0.015,0.2866666666666667
-0.48000000000000004,1.1876923076923076,-0.48846153846153845,-0.44,-0.02846153846153846,0.7453846153846153
0.4633333333333334,1.3875000000000002,-1.2083333333333333,-0.555,-0.08333333333333333,0.8991666666666668
0.9646153846153847,0.38,-1.4007692307692308,-0.6369230769230769,-0.1769230769230769,0.6984615384615385
0.19083333333333333,-0.9874999999999999,-0.8691666666666666,-0.6566666666666667,-0.2658333333333333,0.5
-0.32071428571428573,-2.2714285714285714,0.13428571428571429,-0.5564285714285714,-0.3657142857142857,0.4164285714285714
-0.4318181818181818,-3.1990909090909088,0.7472727272727273,-0.3790909090909091,-0.5181818181818182,0.37636363636363634
-0.1946153846153846,-3.3530769230769226,1.0307692307692309,-0.14923076923076922,-0.5323076923076923,0.42
0.53,-2.7716666666666665,1.1058333333333332,0.0325,-0.52,0.45249999999999996
1.1338461538461537,-1.6546153846153844,1.1730769230769231,0.18769230769230769,-0.4569230769230769,0.4330769230769231
1.5841666666666665,-0.81,0.9674999999999999,0.26666666666666666,-0.35833333333333334,0.37916666666666665
1.6292307692307693,-0.3976923076923077,0.9515384615384617,0.31,-0.3092307692307692,0.2107692307692308
1.2025,-0.15916666666666668,1.0233333333333334,0.31,-0.2708333333333333,0.09166666666666667
0.9557142857142856,-0.10142857142857142,0.97,0.24714285714285714,-0.29,0.037142857142857144
0.6566666666666667,-0.42,1.0644444444444445,0.10944444444444444,-0.2905555555555555,0.027777777777777776
0.5392307692307692,-1.106923076923077,1.3276923076923077,0.05846153846153846,-0.31923076923076926,-0.006153846153846154
0.14916666666666667,-1.545,1.5791666666666666,0.21,-0.42250000000000004,-0.07
-0.27692307692307694,-1.5861538461538462,1.5799999999999998,0.40384615384615385,-0.4792307692307692,-0.19230769230769232
-0.86,-1.0391666666666668,1.4508333333333334,0.47833333333333333,-0.5,-0.2675
-1.253076923076923,0.08076923076923079,1.4,0.4176923076923077,-0.5876923076923076,-0.19153846153846155
-1.1083333333333334,1.2750000000000001,1.6500000000000001,0.3625,-0.6875,-0.000833333333333334
-0.5785714285714285,1.9442857142857142,1.6099999999999999,0.32,-0.6928571428571428,0.14714285714285716
0.38111111111111107,2.045,1.1955555555555555,0.1688888888888889,-0.6988888888888888,0.2594444444444444
0.9138461538461538,1.6338461538461537,1.2223076923076923,-0.03153846153846154,-0.7392307692307691,0.2630769230769231
0.5533333333333333,1.4400000000000002,2.2025,-0.13333333333333333,-0.75,0.22416666666666665
0.05153846153846154,1.613846153846154,3.704615384615385,-0.1676923076923077,-0.7707692307692308,0.26999999999999996
-0.265,1.5558333333333334,4.880833333333333,-0.13166666666666668,-0.7983333333333333,0.3466666666666667
-0.030000000000000002,0.7907692307692307,5.087692307692308,0.02692307692307692,-0.7215384615384616,0.4776923076923077
0.9541666666666666,0.18333333333333335,3.5666666666666664,0.31416666666666665,-0.615,0.4991666666666667
1.4442857142857142,0.7071428571428572,1.7971428571428572,0.4757142857142857,-0.59,0.4257142857142857
1.3494444444444444,1.992777777777778,-0.175,0.5866666666666667,-0.515,0.37555555555555553
0.7042857142857143,2.8242857142857143,-2.3428571428571425,0.6421428571428571,-0.18,0.5357142857142857
0.2127272727272727,2.6854545454545455,-3.4536363636363636,0.5972727272727273,0.04727272727272727,0.8681818181818183
0.21642857142857144,1.4278571428571427,-4.0842857142857145,0.3271428571428571,0.1742857142857143,1.0164285714285715
0.47181818181818186,-0.07272727272727275,-3.9527272727272726,-0.010000000000000002,0.23636363636363636,0.8972727272727272
0.6815384615384615,-0.8853846153846153,-3.457692307692308,-0.3984615384615384,0.22153846153846152,0.5676923076923077
0.6849999999999999,-0.48583333333333334,-2.1733333333333333,-0.6858333333333334,0.24250000000000002,0.125
1.1199999999999999,0.05857142857142857,-1.4728571428571429,-0.8014285714285715,0.2928571428571428,-0.2642857142857143
1.7216666666666667,-0.1111111111111111,-1.1772222222222224,-0.8983333333333334,0.35333333333333333,-0.675
1.1878571428571427,-0.3535714285714286,-0.018571428571428572,-0.8578571428571429,0.48214285714285715,-0.7921428571428571
1.2609090909090908,-0.3309090909090909,0.868181818181818,-0.7072727272727273,0.6427272727272727,-0.6963636363636364
1.3883333333333334,-1.4241666666666666,1.1333333333333333,-0.48333333333333334,0.68,-0.7866666666666666
-0.2953846153846154,-2.028461538461538,1.1223076923076922,-0.2053846153846154,0.7415384615384616,-0.8246153846153845
-2.5953846153846154,-1.8061538461538462,0.8607692307692307,0.012307692307692308,0.7930769230769231,-0.7061538461538461
-3.3241666666666667,-1.5358333333333334,0.5883333333333334,0.1075,0.7691666666666667,-0.5141666666666667
-2.7414285714285715,-1.1357142857142857,0.6799999999999999,0.16857142857142857,0.74,-0.40285714285714286
-1.5766666666666667,-0.6499999999999999,0.8344444444444444,0.2411111111111111,0.6444444444444444,-0.3222222222222222
-0.7178571428571429,-0.7357142857142857,0.8892857142857142,0.25214285714285717,0.5392857142857144,-0.3271428571428571
-0.44090909090909086,-0.83,0.9754545454545455,0.19454545454545455,0.5081818181818182,-0.30363636363636365
-0.22846153846153847,-0.8730769230769231,0.9746153846153847,0.10384615384615385,0.48230769230769227,-0.3376923076923077
-0.41250000000000003,-1.1958333333333333,0.9841666666666667,0.008333333333333333,0.48666666666666664,-0.3658333333333333
-0.9253846153846155,-1.756153846153846,1.4792307692307693,0.026153846153846156,0.49,-0.3223076923076923
-1.6941666666666666,-1.9174999999999998,1.9883333333333333,0.19833333333333333,0.43416666666666665,-0.16833333333333333
-2.0685714285714285,-1.562857142857143,2.005714285714286,0.32142857142857145,0.43857142857142856,0.018571428571428572
-1.195,-0.6944444444444444,2.03,0.39555555555555555,0.5327777777777778,0.12611111111111112
-0.10583333333333333,0.5558333333333333,1.79,0.4375,0.58,0.08083333333333333
0.17153846153846153,1.2607692307692309,1.4376923076923078,0.39384615384615385,0.5753846153846154,-0.053076923076923084
0.02071428571428571,1.4392857142857143,1.0942857142857143,0.28285714285714286,0.585,-0.19142857142857145
-0.24818181818181817,1.1045454545454545,1.0581818181818183,0.13818181818181818,0.5854545454545454,-0.23909090909090908
-0.42769230769230765,0.8061538461538462,1.580769230769231,0.02307692307692308,0.5746153846153846,-0.21769230769230768
-0.4275,1.0841666666666667,2.6566666666666667,-0.08416666666666667,0.6341666666666667,-0.22416666666666665
-0.3028571428571429,1.4785714285714284,3.5785714285714287,-0.10285714285714286,0.687142857142857,-0.25142857142857145
-0.1927777777777778,1.745,3.960555555555555,0.023333333333333334,0.6394444444444445,-0.365
-1.0042857142857142,2.376428571428572,2.8185714285714285,0.3842857142857143,0.5235714285714286,-0.48928571428571427
-1.6754545454545455,3.555454545454545,0.45363636363636367,0.5390909090909092,0.31636363636363635,-0.5427272727272728
-2.0876923076923077,4.568461538461539,-2.1546153846153846,0.43538461538461537,0.07846153846153846,-0.6476923076923077
-1.115,4.598333333333334,-4.476666666666667,0.08416666666666667,-0.10083333333333333,-0.7858333333333333
-0.14285714285714285,2.347857142857143,-4.525,-0.33571428571428574,-0.2342857142857143,-0.8264285714285714
-0.4954545454545455,-0.7036363636363636,-3.3345454545454545,-0.56,-0.32181818181818184,-0.63
-0.7057142857142856,-2.3657142857142857,-2.544285714285714,-0.6528571428571429,-0.33,-0.4228571428571429
-0.7494444444444445,-2.687222222222222,-0.835,-0.6522222222222223,-0.16722222222222224,-0.04555555555555556
-0.5838461538461539,-1.1684615384615384,0.7607692307692309,-0.3253846153846153,-0.09076923076923078,0.5053846153846154
-0.4066666666666667,0.23750000000000002,-0.0575,-0.09500000000000001,-0.205,0.9249999999999999
0.666923076923077,0.9230769230769231,-1.0646153846153845,-0.10615384615384617,-0.27692307692307694,0.9730769230769231
1.2083333333333333,0.6216666666666667,-1.3708333333333333,-0.18666666666666668,-0.36166666666666664,0.6983333333333334
0.5461538461538461,-0.35,-1.0084615384615385,-0.2630769230769231,-0.47692307692307695,0.4492307692307692
-0.13999999999999999,-1.8241666666666667,-0.5583333333333333,-0.3025,-0.5975,0.3475
-0.6442857142857142,-2.932857142857143,-0.23142857142857146,-0.2928571428571428,-0.6828571428571429,0.3628571428571429
-0.5788888888888889,-3.6350000000000002,0.4027777777777778,-0.12833333333333333,-0.7444444444444445,0.5055555555555555
0.3707692307692308,-2.6061538461538465,0.9476923076923077,0.1769230769230769,-0.7315384615384615,0.6030769230769231
1.7575,-0.9500000000000001,0.6525,0.28250000000000003,-0.6141666666666666,0.5725
2.3535714285714286,0.06999999999999999,0.5592857142857143,0.3321428571428572,-0.5757142857142856,0.3228571428571429
1.219090909090909,0.04363636363636364,0.38272727272727275,0.26636363636363636,-0.5227272727272727,0.17272727272727273
0.44,-0.18076923076923077,0.53,0.08461538461538462,-0.483076923076923,0.11846153846153847
0.1275,-0.6491666666666667,0.7733333333333333,-0.14666666666666667,-0.4608333333333334,0.125
0.3071428571428571,-1.16,1.07,-0.2414285714285714,-0.4114285714285714,0.1442857142857143
0.8155555555555556,-1.646111111111111,1.4605555555555556,-0.17277777777777778,-0.3844444444444444,0.09055555555555556
1.212142857142857,-1.8635714285714287,1.9335714285714285,0.09285714285714286,-0.37142857142857144,-0.08
1.018181818181818,-1.608181818181818,2.0872727272727274,0.25363636363636366,-0.3190909090909091,-0.20636363636363636
0.3646153846153846,-0.81,2.2123076923076925,0.3392307692307692,-0.31923076923076926,-0.22307692307692306
-0.44,0.5525000000000001,2.2958333333333334,0.4383333333333333,-0.3075,-0.07083333333333333
-0.5885714285714286,1.8292857142857142,1.9921428571428572,0.4657142857142857,-0.3178571428571429,0.11571428571428573
-0.520909090909091,2.370909090909091,1.4163636363636363,0.35363636363636364,-0.35,0.1890909090909091
-0.39285714285714285,2.552857142857143,0.9385714285714286,0.19571428571428573,-0.35,0.1842857142857143
-0.2122222222222222,2.5855555555555556,1.0605555555555555,-0.11055555555555556,-0.42944444444444446,0.1688888888888889
-0.10642857142857143,2.3757142857142854,2.8514285714285714,-0.37714285714285717,-0.6121428571428572,0.24857142857142858
-0.03909090909090909,1.5445454545454544,4.294545454545455,-0.3836363636363636,-0.6990909090909091,0.3372727272727273
0.26769230769230773,0.5846153846153845,4.864615384615385,-0.12153846153846154,-0.6907692307692308,0.38769230769230767
0.5108333333333334,0.765,3.561666666666667,0.3216666666666667,-0.6308333333333334,0.39999999999999997
1.22,2.0507692307692307,0.7838461538461539,0.5346153846153846,-0.4876923076923077,0.41615384615384615
1.5066666666666666,2.735,-1.7283333333333335,0.5591666666666667,-0.26833333333333337,0.5083333333333333
1.1842857142857142,2.7414285714285715,-3.2085714285714286,0.4957142857142857,-0.07857142857142858,0.6742857142857143
0.7942105263157895,1.6426315789473684,-4.058421052631579,0.28,0.10105263157894738,0.8921052631578947
-0.36076923076923073,-0.10846153846153847,-3.576923076923077,0.026153846153846153,0.10307692307692308,0.9653846153846153
-0.7718181818181818,-1.1727272727272728,-3.2654545454545456,-0.2427272727272727,0.06727272727272728,0.7654545454545455
-0.91,-0.9721428571428571,-2.542142857142857,-0.4985714285714286,0.04214285714285714,0.3892857142857143
-0.34545454545454546,-0.01636363636363637,-1.6945454545454546,-0.57,-0.015454545454545455,-0.07181818181818182
0.7792857142857142,0.3085714285714286,-1.4792857142857143,-0.6192857142857143,-0.034999999999999996,-0.44642857142857145
1.6109090909090908,0.08181818181818182,-0.8809090909090909,-0.7354545454545455,-0.06727272727272728,-0.6936363636363636
0.9642857142857143,0.37000000000000005,0.03285714285714285,-0.7871428571428571,0.032857142857142856,-0.6771428571428572
1.142777777777778,-0.17444444444444446,1.0083333333333333,-0.5994444444444444,0.18333333333333332,-0.5777777777777778
1.093076923076923,-1.7876923076923075,1.4207692307692308,-0.20153846153846156,0.34769230769230763,-0.6138461538461538
-0.8733333333333334,-1.8208333333333335,1.2558333333333334,0.05333333333333334,0.445,-0.62
-2.602307692307692,-1.639230769230769,0.6407692307692308,0.08384615384615385,0.5276923076923077,-0.4938461538461538
-2.1416666666666666,-1.2525,0.4058333333333333,0.08083333333333333,0.5716666666666667,-0.3733333333333333
-0.8957142857142858,-1.0992857142857144,0.5542857142857143,0.12357142857142857,0.44357142857142856,-0.3757142857142857
-0.4581818181818182,-1.1618181818181819,0.8236363636363637,0.17090909090909093,0.40545454545454546,-0.3981818181818182
-0.42714285714285716,-1.292857142857143,0.9871428571428572,0.15857142857142859,0.44571428571428573,-0.37857142857142856
-0.355,-1.2522222222222221,1.3250000000000002,0.11777777777777779,0.5416666666666666,-0.3238888888888889
-0.3507142857142857,-1.2378571428571428,1.4814285714285713,0.12571428571428572,0.6035714285714285,-0.28285714285714286
-0.9727272727272727,-1.4563636363636363,1.3781818181818182,0.14545454545454548,0.6054545454545455,-0.22454545454545458
-1.7307692307692308,-1.4461538461538461,1.52,0.2169230769230769,0.5915384615384615,-0.05384615384615384
-1.8616666666666666,-1.07,1.5958333333333334,0.29833333333333334,0.5875,0.15166666666666667
-1.2107692307692308,-0.22307692307692306,1.6223076923076922,0.35923076923076924,0.6153846153846154,0.25076923076923074
-0.21833333333333335,0.435,1.6624999999999999,0.3541666666666667,0.62,0.16333333333333333
0.19428571428571426,0.8185714285714285,1.7714285714285716,0.3242857142857143,0.5957142857142858,0.032857142857142856
0.2027777777777778,1.2777777777777777,1.7294444444444443,0.29888888888888887,0.5266666666666667,-0.14944444444444444
-0.2192307692307692,1.6592307692307693,1.2630769230769232,0.2361538461538462,0.5146153846153847,-0.30846153846153845
-0.5366666666666667,1.5,1.1058333333333332,0.0725,0.5533333333333333,-0.3408333333333333
-0.55,1.27,2.0,-0.09769230769230769,0.6084615384615385,-0.3538461538461538
-0.29250000000000004,1.2166666666666666,3.4450000000000003,-0.15833333333333333,0.695,-0.3575
0.14928571428571427,1.157857142857143,4.667857142857143,-0.005714285714285715,0.7035714285714285,-0.4178571428571428
-0.019999999999999997,1.0818181818181818,4.133636363636364,0.2590909090909091,0.7281818181818182,-0.5045454545454545
-0.72,1.52,2.704285714285714,0.45285714285714285,0.7700000000000001,-0.51
-1.366111111111111,2.8155555555555556,-0.29944444444444446,0.5466666666666666,0.6144444444444445,-0.45222222222222225
-1.462142857142857,4.147857142857142,-4.077857142857143,0.38,0.2342857142857143,-0.5264285714285715
0.07636363636363637,4.259090909090909,-5.163636363636363,0.06545454545454545,-0.004545454545454544,-0.8545454545454546
0.28285714285714286,1.6514285714285715,-4.284285714285714,-0.20357142857142857,-0.20500000000000002,-1.0478571428571428
-0.30454545454545456,-1.0863636363636364,-3.0254545454545454,-0.3718181818181818,-0.3,-0.9600000000000001
-1.1300000000000001,-2.273846153846154,-2.0892307692307694,-0.5461538461538461,-0.2561538461538462,-0.6446153846153846
-1.6508333333333332,-1.8125,-0.8483333333333333,-0.6091666666666666,-0.059166666666666666,-0.09000000000000001
-1.6199999999999999,-0.9414285714285714,-0.11857142857142856,-0.5457142857142857,-0.032857142857142856,0.4028571428571429
-0.5526315789473685,-0.01789473684210526,0.021052631578947368,-0.4336842105263158,-0.14684210526315788,0.8778947368421053
1.0266666666666666,0.29333333333333333,-0.051666666666666666,-0.26833333333333337,-0.2966666666666667,0.9183333333333333
0.7433333333333333,-0.11,-0.3333333333333333,-0.1725,-0.4291666666666667,0.6666666666666666
-0.4521428571428571,-0.9828571428571429,-0.5635714285714285,-0.16857142857142857,-0.6114285714285714,0.47000000000000003
-1.1981818181818182,-2.111818181818182,-0.05818181818181818,-0.16454545454545455,-0.7827272727272727,0.4018181818181818
-1.1835714285714285,-2.9092857142857143,0.6028571428571429,-0.015,-0.835,0.5142857142857143
0.023636363636363646,-2.5890909090909093,0.6763636363636363,0.1509090909090909,-0.8918181818181818,0.6036363636363636
0.7085714285714285,-1.6785714285714286,0.5971428571428571,0.22,-0.8742857142857143,0.63
1.907777777777778,-0.49888888888888894,0.3022222222222222,0.20222222222222222,-0.7827777777777778,0.6005555555555556
2.5776923076923075,0.07307692307692308,0.15615384615384614,0.13,-0.7246153846153847,0.3707692307692308
1.5441666666666667,-0.23500000000000001,0.47833333333333333,0.04750000000000001,-0.6616666666666667,0.21666666666666667
0.72,-0.7846153846153846,0.9530769230769232,-0.05230769230769231,-0.6107692307692307,0.13307692307692306
0.5066666666666667,-1.4316666666666666,1.1558333333333333,-0.17166666666666666,-0.5675,0.10583333333333333
0.6657142857142857,-1.9035714285714285,1.51,-0.16142857142857142,-0.5364285714285715,0.04214285714285714
0.87,-2.0209090909090905,1.8727272727272728,0.017272727272727273,-0.4818181818181818,-0.04454545454545455
1.0942857142857143,-1.8514285714285716,1.9685714285714284,0.19857142857142857,-0.44857142857142857,-0.1357142857142857
0.9610526315789473,-1.2957894736842106,1.791578947368421,0.3526315789473684,-0.4126315789473684,-0.24000000000000002
-0.0723076923076923,0.06230769230769229,1.8315384615384618,0.38923076923076927,-0.42923076923076925,-0.23923076923076925
-0.6918181818181818,1.4263636363636365,1.791818181818182,0.3618181818181818,-0.38818181818181824,-0.05454545454545454
-0.8371428571428572,2.402857142857143,1.6785714285714286,0.2571428571428572,-0.49642857142857144,0.13142857142857142
-1.0827272727272728,2.6245454545454545,1.55,0.14636363636363636,-0.6045454545454545,0.21909090909090911
-0.9384615384615386,2.0876923076923077,1.2653846153846153,-0.01846153846153846,-0.6207692307692307,0.26999999999999996
-0.24749999999999997,1.3825,1.6275000000000002,-0.2675,-0.7058333333333332,0.3416666666666666
0.44428571428571434,1.1157142857142859,2.5685714285714285,-0.39999999999999997,-0.7557142857142857,0.3671428571428571
0.9257894736842105,1.318421052631579,3.832631578947369,-0.2889473684210526,-0.7531578947368421,0.36315789473684207
0.8138461538461539,2.8884615384615384,2.876153846153846,0.19307692307692306,-0.5653846153846154,0.3761538461538461
1.3763636363636365,4.244545454545454,0.4918181818181818,0.38181818181818183,-0.25181818181818183,0.5481818181818182
2.067142857142857,4.462857142857143,-1.2707142857142857,0.29857142857142854,0.04,0.8028571428571428
2.8866666666666667,3.0775,-2.0675,0.13,0.4166666666666667,1.0291666666666666
2.729230769230769,0.2869230769230769,-2.299230769230769,0.02923076923076923,0.4646153846153846,0.9976923076923078
1.5399999999999998,-1.5972727272727274,-2.1427272727272726,0.009090909090909092,0.3845454545454546,0.7454545454545454
-0.04461538461538462,-3.0876923076923077,-1.9930769230769232,-0.04230769230769231,0.36846153846153845,0.43
-1.1828571428571428,-3.0742857142857143,-1.624285714285714,-0.10714285714285714,0.3407142857142857,0.019285714285714285
-1.55,-2.25,-1.28,-0.12,0.31,-0.21000000000000002
-1.492794117647059,-2.172565359477124,-1.3034150326797387,-0.07336601307189541,0.27681372549019606,-0.17066993464052288
-1.4355882352941176,-2.0951307189542483,-1.3268300653594771,-0.026732026143790846,0.24362745098039215,-0.13133986928104577
-1.3783823529411765,-2.0176960784313724,-1.3502450980392158,0.01990196078431372,0.21044117647058824,-0.09200980392156864
-1.3211764705882354,-1.9402614379084968,-1.3736601307189542,0.0665359477124183,0.1772549019607843,-0.052679738562091516
-1.263970588235294,-1.862826797385621,-1.3970751633986929,0.11316993464052288,0.14406862745098037,-0.013349673202614376
-1.206764705882353,-1.785392156862745,-1.4204901960784313,0.15980392156862744,0.11088235294117646,0.025980392156862736
-1.1495588235294116,-1.7079575163398695,-1.44390522875817,0.20643790849673205,0.07769607843137255,0.06531045751633985
-1.0923529411764705,-1.6305228758169936,-1.4673202614379086,0.2530718954248366,0.044509803921568614,0.10464052287581699
-1.0351470588235294,-1.5530882352941178,-1.490735294117647,0.29970588235294116,0.011323529411764677,0.14397058823529413
-0.9779411764705882,-1.475653594771242,-1.5141503267973857,0.34633986928104576,-0.02186274509803926,0.18330065359477127
-0.920735294117647,-1.398218954248366,-1.5375653594771241,0.3929738562091504,-0.05504901960784314,0.22263071895424835
-0.8635294117647059,-1.3207843137254902,-1.5609803921568628,0.4396078431372549,-0.08823529411764706,0.2619607843137255
1.0641666666666667,2.165,-4.0675,0.17166666666666666,0.22291666666666668,1.0729166666666667
0.21230769230769228,-1.5,-3.1361538461538463,-0.2053846153846154,0.28153846153846157,1.0215384615384617
-0.3984615384615384,-2.293846153846154,-2.1215384615384614,-0.3515384615384616,0.20615384615384616,0.6984615384615385
-0.29833333333333334,-1.99,-1.2558333333333334,-0.3858333333333333,0.02,0.14833333333333334
-0.6723076923076923,-1.0607692307692307,-0.793076923076923,-0.38461538461538464,-0.1930769230769231,-0.47384615384615386
-0.8058333333333333,-0.33916666666666667,-0.4825,-0.4725,-0.22833333333333336,-0.7091666666666666
0.22846153846153847,0.26153846153846155,0.34461538461538466,-0.5784615384615385,-0.1623076923076923,-0.716923076923077
0.8816666666666667,1.37,1.3925,-0.5425,-0.0008333333333333338,-0.65
1.5508333333333333,0.8224999999999999,1.115,-0.43916666666666665,0.12083333333333333,-0.7441666666666666
0.9544444444444444,-0.911111111111111,0.5066666666666667,-0.34111111111111114,0.28555555555555556,-0.76
-0.20400000000000004,-2.028,0.21266666666666667,-0.3266666666666667,0.414,-0.7533333333333334
-2.0357142857142856,-1.9364285714285714,0.615,-0.35714285714285715,0.5357142857142857,-0.5721428571428572
-1.2816666666666667,-2.0058333333333334,1.0574999999999999,-0.3133333333333333,0.6333333333333333,-0.45083333333333336
-0.26692307692307693,-1.7123076923076925,1.8438461538461537,-0.06384615384615386,0.6230769230769231,-0.51
-0.2538461538461539,-1.396153846153846,1.7315384615384617,0.14846153846153848,0.6115384615384616,-0.5392307692307693
-0.6425,-1.3325,1.2958333333333332,0.12916666666666668,0.665,-0.43583333333333335
-0.935,-1.7249999999999999,1.3516666666666666,0.025833333333333333,0.7399999999999999,-0.3075
-1.1675,-1.9862499999999998,1.8287499999999999,-0.015,0.7675000000000001,-0.2475
-1.468235294117647,-2.165294117647059,2.4011764705882355,0.03823529411764706,0.7305882352941176,-0.18941176470588236
-2.1569230769230767,-1.7384615384615385,2.880769230769231,0.1846153846153846,0.73,-0.06538461538461539
-1.9966666666666668,-0.8291666666666666,2.8625000000000003,0.36083333333333334,0.7841666666666667,0.05666666666666667
-1.1335714285714285,0.34785714285714286,2.3649999999999998,0.4907142857142857,0.8321428571428572,0.12642857142857142
0.2916666666666667,1.235,1.7183333333333335,0.465,0.8383333333333334,0.07666666666666667
0.09576923076923077,1.6079807692307693,1.6250961538461541,0.4045192307692308,0.7873076923076924,0.011346153846153853
-0.10012820512820514,1.9809615384615387,1.5318589743589746,0.3440384615384615,0.7362820512820514,-0.05397435897435897
-0.29602564102564105,2.353942307692308,1.438621794871795,0.2835576923076923,0.6852564102564103,-0.11929487179487179
-0.4919230769230769,2.726923076923077,1.3453846153846156,0.22307692307692306,0.6342307692307693,-0.1846153846153846
-0.7871428571428571,2.7497142857142856,3.156285714285714,-0.2022857142857143,0.6131428571428572,-0.4248571428571429
-0.6866666666666668,2.7986666666666666,3.0200000000000005,0.43866666666666665,0.4693333333333333,-0.5866666666666667
-1.1109090909090908,5.007272727272727,-1.0863636363636362,0.6254545454545455,0.1190909090909091,-0.8018181818181819
-1.265,6.645,-4.384166666666666,0.2025,-0.20750000000000002,-1.1541666666666666
-1.3515384615384616,4.765384615384615,-4.633076923076922,-0.42230769230769233,-0.28,-1.287692307692308
-1.6376923076923076,0.6353846153846153,-3.0715384615384616,-0.6392307692307693,-0.34076923076923077,-0.8984615384615384
-1.2419999999999998,-2.342,-2.346,-0.561,-0.41200000000000003,-0.524
-1.1553333333333335,-3.0900000000000003,-1.63,-0.45066666666666666,-0.20866666666666667,-0.09933333333333333
-0.7891666666666667,-1.31,-0.5566666666666666,-0.3433333333333333,0.028333333333333335,0.3575
-0.28153846153846157,0.4423076923076923,-0.1223076923076923,-0.2915384615384615,-0.03692307692307692,0.8046153846153847
0.82,1.0875000000000001,-0.5891666666666666,-0.30833333333333335,-0.16666666666666666,0.9708333333333333
1.22,0.7108333333333334,-0.945,-0.3433333333333333,-0.2866666666666667,0.7983333333333333
0.5092857142857142,-0.33142857142857146,-0.2757142857142857,-0.24071428571428571,-0.3921428571428572,0.5878571428571429
-0.1875,-1.4425,0.07333333333333333,-0.16,-0.5241666666666667,0.45249999999999996
-0.5153846153846154,-2.296923076923077,0.27,-0.09461538461538462,-0.6338461538461538,0.4238461538461538
-0.5169230769230769,-2.8815384615384616,0.06153846153846154,-0.06461538461538462,-0.7061538461538461,0.5307692307692308
-0.15083333333333335,-3.065,-0.024999999999999998,-0.0016666666666666663,-0.6875,0.6816666666666666
0.8272727272727273,-2.6818181818181817,0.24727272727272728,0.04727272727272727,-0.6445454545454545,0.6890909090909091
1.3728571428571428,-1.842142857142857,0.8257142857142857,0.12642857142857142,-0.6035714285714285,0.5585714285714286
1.6308333333333334,-1.1091666666666666,1.1608333333333334,0.21833333333333335,-0.5833333333333334,0.33499999999999996
0.7983333333333333,-1.095,0.9558333333333334,0.19416666666666668,-0.5791666666666666,0.20583333333333334
0.3376923076923077,-1.3061538461538462,1.0915384615384616,0.10692307692307693,-0.5646153846153846,0.08615384615384616
-0.09142857142857143,-1.6014285714285716,1.3314285714285714,0.02,-0.5771428571428572,0.04142857142857143
0.23105263157894734,-2.0210526315789474,1.8805263157894736,0.022105263157894735,-0.5863157894736841,0.01473684210526316
0.95,-2.1872727272727275,2.3636363636363638,0.19636363636363638,-0.5754545454545454,-0.08
