ax,ay,az,wx,wy,wz
-2.0941666666666667,-2.005,0.12166666666666666,-0.06583333333333334,0.6133333333333333,-0.5775
-2.06,-1.6714285714285715,0.2742857142857143,-0.07428571428571429,0.7378571428571429,-0.3885714285714285
-0.6909090909090909,-1.2309090909090907,0.48363636363636364,0.015454545454545453,0.7227272727272727,-0.39545454545454545
-0.265,-1.2185714285714284,0.4985714285714286,0.11214285714285714,0.6485714285714286,-0.4735714285714286
-0.8490909090909091,-1.3863636363636365,0.5563636363636363,0.13818181818181818,0.6254545454545455,-0.37545454545454543
-1.0338461538461539,-1.51,0.7323076923076923,0.09538461538461539,0.6838461538461539,-0.2469230769230769
-1.3145454545454545,-1.6781818181818182,0.9709090909090908,0.09090909090909091,0.6845454545454546,-0.1690909090909091
-1.8764285714285713,-1.7735714285714288,1.27,0.1457142857142857,0.5928571428571429,-0.060714285714285714
-2.325833333333333,-1.7466666666666668,1.7116666666666667,0.26916666666666667,0.5125000000000001,0.09083333333333334
-2.046923076923077,-1.259230769230769,1.7307692307692308,0.4376923076923077,0.4776923076923077,0.19615384615384615
-1.12,-0.4854545454545454,1.2372727272727273,0.4890909090909091,0.46818181818181814,0.1990909090909091
-0.37214285714285716,0.23714285714285716,1.0492857142857142,0.4257142857142857,0.4714285714285714,0.09642857142857143
0.18833333333333332,0.8675,1.1491666666666667,0.345,0.4891666666666667,-0.06166666666666667
0.34214285714285714,1.2285714285714284,1.0957142857142856,0.29071428571428576,0.47714285714285715,-0.17214285714285715
0.3609090909090909,1.3927272727272728,0.8545454545454546,0.18818181818181817,0.4945454545454545,-0.22636363636363638
0.3641666666666667,1.5216666666666667,1.1824999999999999,0.03333333333333333,0.5975,-0.26166666666666666
0.6463636363636364,1.6454545454545453,2.4481818181818182,-0.12090909090909091,0.7390909090909091,-0.33636363636363636
1.325625,1.653125,3.796875,-0.15125,0.8575,-0.47000000000000003
1.6909090909090907,1.2645454545454546,4.254545454545454,0.03363636363636364,0.9054545454545455,-0.6681818181818181
-0.015384615384615382,1.1,2.673076923076923,0.46,0.9384615384615385,-0.6507692307692307
-2.6427272727272726,2.369090909090909,-0.7636363636363637,0.8509090909090908,0.8218181818181818,-0.44909090909090904
-3.0228571428571427,4.031428571428571,-4.4835714285714285,0.8257142857142857,0.3828571428571429,-0.5178571428571429
-1.8041666666666665,5.44,-7.5058333333333325,0.29583333333333334,-0.01833333333333333,-0.8675
-0.3676923076923077,3.7523076923076926,-6.886923076923077,-0.4107692307692308,-0.3107692307692308,-1.0884615384615386
-0.7091666666666666,0.2558333333333333,-4.448333333333333,-0.8491666666666666,-0.49583333333333335,-0.9158333333333334
-2.285,-1.4858333333333331,-2.6591666666666667,-1.0458333333333334,-0.4691666666666667,-0.4483333333333333
-3.166923076923077,-2.256923076923077,-1.1892307692307693,-1.0723076923076924,-0.25384615384615383,0.28615384615384615
-1.9107692307692308,-1.79,-0.27692307692307694,-0.8461538461538461,-0.23461538461538461,0.963076923076923
0.08750000000000001,-1.1108333333333333,-0.06,-0.5766666666666667,-0.38999999999999996,1.2275
1.8535714285714284,-0.5742857142857144,-0.0014285714285714218,-0.31428571428571433,-0.5421428571428571,0.995
2.193,-0.861,0.14300000000000002,-0.07,-0.619,0.604
1.165,-1.653,-0.178,0.09,-0.666,0.42400000000000004
-0.09062500000000001,-2.42625,-0.94875,0.141875,-0.733125,0.33125
-0.6115384615384616,-2.6046153846153848,-1.6892307692307693,0.0023076923076923075,-0.7630769230769231,0.40923076923076923
-0.5175,-2.0775,-1.6883333333333332,-0.12416666666666666,-0.7641666666666667,0.5850000000000001
0.009166666666666656,-0.9908333333333333,-1.3041666666666665,-0.1991666666666667,-0.7025,0.6941666666666667
1.4469230769230768,0.46,-0.8861538461538461,-0.2630769230769231,-0.6061538461538462,0.6853846153846154
2.3346153846153843,0.4423076923076923,-0.4123076923076923,-0.28692307692307695,-0.583076923076923,0.4123076923076923
0.9183333333333333,-0.7275,0.19166666666666668,-0.2941666666666667,-0.535,0.21833333333333335
0.08307692307692308,-2.1515384615384616,0.676923076923077,-0.32923076923076927,-0.5161538461538462,0.13692307692307693
0.12636363636363637,-3.1209090909090906,1.1663636363636363,-0.2609090909090909,-0.5554545454545455,0.07
0.5535714285714286,-3.347142857142857,1.372142857142857,-0.019285714285714288,-0.5742857142857142,-0.025714285714285714
1.185,-2.99,1.4249999999999998,0.2658333333333333,-0.56,-0.1991666666666667
1.2976923076923077,-2.323846153846154,1.2138461538461538,0.3930769230769231,-0.5423076923076924,-0.3723076923076923
0.8133333333333334,-1.5,1.0,0.4283333333333333,-0.505,-0.415
0.16083333333333333,-0.5291666666666667,1.0091666666666665,0.42250000000000004,-0.4666666666666666,-0.3016666666666667
-0.721,0.8639999999999999,1.279,0.4109999999999999,-0.533,-0.099
-1.1441176470588235,1.7829411764705885,1.54,0.43470588235294116,-0.6158823529411765,0.1411764705882353
-1.0990909090909091,2.1954545454545458,1.3118181818181818,0.42363636363636364,-0.6272727272727273,0.24000000000000002
-1.043076923076923,2.253076923076923,0.9915384615384616,0.2030769230769231,-0.7146153846153845,0.27307692307692305
-1.1363636363636365,2.233636363636364,1.9463636363636363,-0.15181818181818182,-0.8481818181818181,0.3436363636363637
-1.1809999999999998,2.16,3.372,-0.356,-0.881,0.445
-0.384375,1.5325,4.985625000000001,-0.326875,-0.798125,0.53125
1.649230769230769,0.9015384615384616,4.266153846153847,0.11,-0.7,0.4523076923076923
2.953333333333333,2.013333333333333,1.6666666666666667,0.5750000000000001,-0.5916666666666667,0.295
1.9946153846153847,3.5292307692307694,-1.3784615384615386,0.9230769230769231,-0.3423076923076923,0.42076923076923084
-0.6058333333333333,4.716666666666666,-4.4191666666666665,0.9116666666666666,0.07083333333333333,0.875
-0.9815384615384615,3.77,-5.18076923076923,0.583076923076923,0.47846153846153844,1.35
0.26999999999999996,1.1325,-5.0925,0.19083333333333333,0.6066666666666666,1.3908333333333334
1.3753846153846152,-0.8269230769230769,-4.7446153846153845,-0.21384615384615385,0.5361538461538461,1.0161538461538462
1.8718181818181818,-1.4672727272727273,-3.848181818181818,-0.5736363636363636,0.3790909090909091,0.4354545454545455
1.6420000000000001,-1.116,-3.0799999999999996,-0.7769999999999999,0.279,-0.24000000000000005
0.6112500000000001,-0.7225,-2.078125,-0.910625,0.2725,-0.938125
-0.05615384615384615,-1.0692307692307692,-0.7992307692307693,-0.8530769230769231,0.3161538461538461,-1.19
-0.6425,-0.9483333333333333,0.8791666666666668,-0.6075,0.4741666666666667,-0.9841666666666667
-0.42363636363636364,-0.5499999999999999,1.508181818181818,-0.2827272727272727,0.5872727272727273,-0.8018181818181819
-0.1246153846153846,-1.35,0.8161538461538461,-0.01846153846153846,0.5869230769230769,-0.7538461538461539
-1.2021428571428572,-2.3935714285714282,-0.10357142857142858,0.1285714285714286,0.6678571428571428,-0.6435714285714286
-3.1058333333333334,-2.18,-0.37166666666666665,0.17333333333333334,0.64,-0.4116666666666667
-2.913846153846154,-2.1507692307692308,-0.06692307692307693,0.16615384615384615,0.6638461538461539,-0.26692307692307693
-1.711818181818182,-1.5818181818181818,0.8418181818181818,0.2772727272727273,0.6109090909090908,-0.2681818181818182
-0.779,-1.27,1.02,0.382,0.505,-0.341
-0.284375,-1.029375,0.815,0.42874999999999996,0.485,-0.326875
-0.1623076923076923,-1.2207692307692308,0.5092307692307693,0.38846153846153847,0.47307692307692306,-0.2507692307692308
-0.4791666666666667,-1.5925,0.6416666666666667,0.3308333333333333,0.4875,-0.19666666666666666
-1.0558333333333334,-1.8099999999999998,0.9758333333333334,0.26916666666666667,0.5291666666666667,-0.11
-1.3781818181818182,-1.9481818181818182,1.4218181818181819,0.28272727272727277,0.5254545454545455,-0.018181818181818184
-1.57,-1.671875,1.7537500000000001,0.435,0.51375,0.08812500000000001
-1.4454545454545453,-0.7936363636363637,1.778181818181818,0.5909090909090909,0.5754545454545454,0.16363636363636364
-0.6038461538461538,0.18769230769230769,1.3523076923076922,0.6484615384615384,0.6084615384615385,0.15000000000000002
0.6341666666666667,1.0833333333333333,0.7425,0.6016666666666667,0.5966666666666667,0.0425
1.1239999999999999,1.5379999999999998,0.281,0.44299999999999995,0.579,-0.136
0.6113333333333333,1.8073333333333332,-0.19933333333333333,0.12866666666666665,0.6486666666666667,-0.30333333333333334
-0.20846153846153845,1.9876923076923076,0.6799999999999999,-0.22384615384615386,0.7653846153846153,-0.38153846153846155
-0.4891666666666667,2.15,2.705,-0.33666666666666667,0.8191666666666667,-0.38666666666666666
-0.4369230769230769,1.6192307692307693,3.6884615384615382,-0.21461538461538462,0.8115384615384615,-0.44692307692307687
-1.1540000000000001,1.2109999999999999,3.495,0.16099999999999998,0.749,-0.495
-1.893,1.687,2.247,0.557,0.538,-0.479
-2.4641176470588237,4.107647058823529,-2.0470588235294116,0.7158823529411764,0.13941176470588235,-0.54
-1.2353846153846153,5.5600000000000005,-5.470769230769231,0.31769230769230766,-0.23846153846153847,-0.836923076923077
-0.5283333333333333,4.194166666666667,-6.279166666666666,-0.1925,-0.3658333333333333,-0.9366666666666666
0.19,1.6580000000000001,-5.48,-0.5469999999999999,-0.386,-0.9190000000000002
0.07466666666666667,-1.0873333333333333,-3.99,-0.8320000000000001,-0.34,-0.7586666666666667
-0.7661538461538462,-1.8246153846153845,-2.1723076923076925,-0.9723076923076923,-0.11538461538461539,-0.19692307692307692
-0.8816666666666667,-1.2016666666666669,-0.12749999999999997,-0.8675,0.006666666666666667,0.5083333333333333
-0.257,-1.049,0.269,-0.6990000000000001,-0.022,1.0379999999999998
1.1179999999999999,-1.329,-0.146,-0.545,-0.068,1.158
1.2327777777777778,-1.7855555555555556,-0.2677777777777778,-0.3516666666666667,-0.17333333333333334,0.8400000000000001
-0.44,-2.345,-0.03916666666666666,-0.18500000000000003,-0.3283333333333333,0.4808333333333333
-1.3,-2.768333333333333,0.02666666666666667,-0.1025,-0.435,0.39749999999999996
-1.016923076923077,-2.803076923076923,-0.22076923076923077,-0.05153846153846154,-0.5769230769230769,0.34769230769230763
-0.4428571428571429,-2.5471428571428567,-0.155,0.09571428571428572,-0.7442857142857143,0.39428571428571424
-0.03636363636363637,-1.4463636363636363,-0.23272727272727273,0.2427272727272727,-0.7900000000000001,0.4981818181818182
1.0461538461538462,-0.05923076923076923,-0.5753846153846154,0.24076923076923076,-0.7030769230769232,0.5392307692307693
2.3358333333333334,0.785,-0.8008333333333333,0.09999999999999999,-0.6924999999999999,0.3725
1.576153846153846,0.12846153846153846,-0.5130769230769231,-0.08153846153846155,-0.6576923076923078,0.2253846153846154
0.3275,-0.9125000000000001,0.37999999999999995,-0.11666666666666665,-0.6333333333333333,0.155
-1.982541115402065e-18,-1.8085714285714285,0.9114285714285714,-0.04357142857142857,-0.6528571428571429,0.14714285714285716
0.32727272727272727,-2.4154545454545455,1.2154545454545453,0.04090909090909091,-0.6318181818181818,0.14
0.9223076923076923,-2.619230769230769,1.3815384615384616,0.1476923076923077,-0.6230769230769231,0.05384615384615385
1.3936363636363636,-2.4736363636363636,1.5190909090909093,0.2927272727272727,-0.6336363636363637,-0.09181818181818181
1.4321428571428572,-1.8928571428571428,1.5264285714285715,0.4271428571428571,-0.585,-0.25785714285714284
1.2208333333333334,-1.0041666666666667,1.2858333333333334,0.4883333333333333,-0.4925,-0.35333333333333333
0.7646153846153846,0.02538461538461539,1.0538461538461539,0.44692307692307687,-0.47307692307692306,-0.3384615384615385
-0.14416666666666667,1.4533333333333331,1.075,0.39166666666666666,-0.4558333333333333,-0.15666666666666665
-0.271,2.309,1.063,0.449,-0.281,0.039
0.23133333333333334,3.241333333333333,0.306,0.3993333333333334,-0.22866666666666668,0.15933333333333335
-0.19666666666666666,3.7483333333333335,0.7458333333333332,-0.04583333333333334,-0.46249999999999997,0.28833333333333333
-1.73,3.573846153846154,3.5999999999999996,-0.4123076923076923,-0.6915384615384615,0.38846153846153847
-2.876923076923077,2.223076923076923,5.595384615384615,-0.3515384615384616,-0.6623076923076923,0.5746153846153846
-1.552,0.022999999999999975,5.188,0.052000000000000005,-0.621,0.683
0.9279999999999999,0.045,3.125,0.33799999999999997,-0.594,0.461
3.598125,2.873125,-0.43062500000000004,0.569375,-0.2975,0.254375
3.2260000000000004,4.842,-2.4099999999999997,0.698,0.145,0.393
1.906,5.578,-3.79,0.65,0.45,0.708
1.6625,4.2175,-4.5356250000000005,0.40125,0.745625,1.0731249999999999
1.205,-0.6185,-4.078,0.023,0.843,1.0125
0.4630769230769231,-2.86,-3.655384615384615,-0.3161538461538462,0.753076923076923,0.5115384615384616
-0.08416666666666667,-3.0058333333333334,-2.8816666666666664,-0.5675,0.45999999999999996,-0.05583333333333334
-0.7876923076923077,-2.1330769230769233,-1.6676923076923076,-0.6376923076923078,0.2907692307692308,-0.66
-1.7249999999999999,-1.1316666666666666,-0.245,-0.545,0.21333333333333335,-0.9058333333333334
-0.9930769230769231,-0.6653846153846155,0.48307692307692307,-0.40230769230769226,0.09769230769230769,-0.9561538461538461
-0.9672727272727273,0.4836363636363636,0.7581818181818182,-0.27090909090909093,0.2290909090909091,-0.7936363636363637
-0.2735714285714286,0.8828571428571428,-0.02285714285714286,-0.17785714285714288,0.3628571428571429,-0.6442857142857142
0.5283333333333333,-1.0508333333333333,-0.5583333333333333,-0.11416666666666665,0.4633333333333333,-0.6083333333333333
-0.6515384615384616,-1.6453846153846154,-0.5038461538461538,-0.1346153846153846,0.5084615384615385,-0.56
-2.4183333333333334,-1.3625,0.28833333333333333,-0.16833333333333333,0.5591666666666667,-0.35833333333333334
-1.7036363636363638,-1.7263636363636365,0.9018181818181819,-0.022727272727272728,0.589090909090909,-0.30363636363636365
-0.4035714285714286,-2.3121428571428573,1.4714285714285715,0.25857142857142856,0.4414285714285714,-0.42
-1.0223076923076921,-2.076923076923077,1.0923076923076922,0.37538461538461537,0.42615384615384616,-0.3569230769230769
-1.0441666666666667,-1.7016666666666664,0.6783333333333333,0.27499999999999997,0.5383333333333333,-0.21916666666666665
-0.8845454545454546,-1.5009090909090907,0.8372727272727272,0.14181818181818182,0.6045454545454545,-0.1509090909090909
-1.0742857142857143,-1.4592857142857143,1.5042857142857142,0.08571428571428572,0.59,-0.11714285714285715
-1.5675,-1.5108333333333333,2.0749999999999997,0.125,0.5416666666666666,-0.06833333333333334
-2.1792307692307693,-1.143076923076923,2.318461538461538,0.2361538461538462,0.5330769230769231,0.004615384615384616
-2.1457142857142855,-0.5285714285714286,2.1371428571428575,0.33428571428571424,0.5885714285714286,0.09142857142857143
-0.9583333333333334,0.30444444444444446,1.5333333333333332,0.4244444444444444,0.635,0.14333333333333334
0.4488888888888889,0.9533333333333334,0.43,0.49888888888888894,0.4555555555555555,0.05888888888888889
0.29875,1.94375,-0.5375,0.30625,0.320625,-0.12625
-0.27769230769230774,2.993846153846154,0.7792307692307692,-0.21230769230769228,0.4746153846153846,-0.33999999999999997
0.3516666666666666,3.26,3.3808333333333334,-0.42250000000000004,0.7166666666666667,-0.4366666666666667
1.6507692307692308,2.1538461538461537,4.351538461538461,-0.29538461538461536,0.7976923076923078,-0.5492307692307692
1.0374999999999999,1.0533333333333335,3.1975,0.02916666666666667,0.7725,-0.6425
-2.1338461538461537,1.7353846153846153,0.47923076923076924,0.27615384615384614,0.46076923076923076,-0.6423076923076922
-4.524166666666667,3.1441666666666666,-2.68,0.3358333333333334,0.030833333333333334,-0.5716666666666667
-3.421538461538461,4.740769230769231,-4.697692307692308,0.13076923076923078,-0.3007692307692308,-0.7184615384615385
-0.6308333333333332,4.129166666666666,-4.4558333333333335,-0.17,-0.5216666666666666,-0.9816666666666666
0.18846153846153843,1.0653846153846154,-3.486923076923077,-0.25538461538461543,-0.7361538461538462,-0.913076923076923
-1.0191666666666668,-1.3525,-3.533333333333333,-0.3075,-0.8250000000000001,-0.5816666666666667
-2.1630769230769227,-1.9492307692307693,-3.183846153846154,-0.4969230769230769,-0.5630769230769231,0.02000000000000001
-1.5200000000000002,-1.3391666666666666,-2.0216666666666665,-0.5958333333333333,-0.3133333333333333,0.6808333333333333
-0.2871428571428572,-0.63,-1.4614285714285715,-0.5914285714285714,-0.3271428571428571,1.0785714285714285
1.4044444444444446,0.14,-1.1433333333333335,-0.5533333333333333,-0.35888888888888887,1.235
2.8146153846153843,0.10384615384615385,-0.43692307692307697,-0.3569230769230769,-0.43615384615384617,0.8823076923076923
1.8533333333333333,-1.1708333333333334,-0.29416666666666663,-0.14333333333333334,-0.5333333333333333,0.5116666666666666
0.6661538461538462,-2.382307692307692,-0.28615384615384615,0.007692307692307693,-0.6253846153846153,0.31846153846153846
0.1708333333333333,-3.0850000000000004,-0.6475000000000001,0.04583333333333334,-0.7391666666666666,0.20833333333333334
-0.34307692307692306,-3.289230769230769,-0.5061538461538462,0.07230769230769231,-0.7207692307692307,0.2830769230769231
-0.45999999999999996,-2.8691666666666666,-0.3541666666666667,0.0775,-0.6749999999999999,0.425
0.09285714285714286,-1.6685714285714286,-0.09857142857142856,0.09142857142857143,-0.6042857142857142,0.48999999999999994
1.0761111111111112,-0.3288888888888889,0.09444444444444444,0.12888888888888891,-0.5555555555555556,0.46388888888888885
1.1641666666666668,0.1875,-0.1625,0.024999999999999998,-0.5075,0.33666666666666667
0.5953846153846154,-0.20153846153846156,-0.06769230769230769,-0.19615384615384618,-0.4230769230769231,0.2507692307692308
0.6130769230769231,-1.3976923076923078,0.2569230769230769,-0.39,-0.3223076923076923,0.1776923076923077
1.1158333333333335,-2.59,0.8483333333333333,-0.38916666666666666,-0.29583333333333334,0.075
1.6892307692307693,-3.2930769230769235,1.6284615384615386,-0.13153846153846155,-0.3,-0.08153846153846155
1.9175000000000002,-3.1016666666666666,2.0425,0.24333333333333332,-0.2966666666666667,-0.3066666666666667
1.6199999999999999,-2.282857142857143,1.92,0.4485714285714285,-0.25285714285714284,-0.45428571428571424
0.6172222222222222,-0.8616666666666668,1.4966666666666668,0.5483333333333333,-0.14222222222222222,-0.5033333333333334
-0.49615384615384617,0.8984615384615384,1.2284615384615383,0.5938461538461538,-0.026153846153846156,-0.33076923076923076
-0.7808333333333334,2.013333333333333,0.9983333333333334,0.54,0.008333333333333333,-0.09583333333333333
-0.6730769230769231,2.2630769230769228,0.6192307692307693,0.41923076923076924,-0.02769230769230769,0.08
-0.37916666666666665,1.9358333333333333,0.32916666666666666,0.2091666666666667,-0.07333333333333333,0.14583333333333334
-0.27615384615384614,1.8553846153846154,0.8876923076923077,-0.08,-0.24076923076923076,0.1623076923076923
-0.6925,2.1325,2.405,-0.3358333333333334,-0.4975,0.19999999999999998
-1.2615384615384615,1.9538461538461538,3.775384615384615,-0.35923076923076924,-0.61,0.27384615384615385
-1.2008333333333334,1.2791666666666668,3.5566666666666666,-0.14416666666666667,-0.5908333333333333,0.38083333333333336
-0.5438461538461539,1.533076923076923,1.433846153846154,0.16615384615384615,-0.4984615384615384,0.47923076923076924
0.29916666666666664,2.8866666666666667,-0.8075,0.3408333333333333,-0.2041666666666667,0.7066666666666667
1.0953846153846154,4.204615384615385,-2.1353846153846154,0.4107692307692308,0.19538461538461538,1.1207692307692307
2.3916666666666666,3.909166666666667,-2.6283333333333334,0.33166666666666667,0.48500000000000004,1.5233333333333334
2.866923076923077,1.3800000000000001,-2.8123076923076926,0.13076923076923078,0.4815384615384615,1.433846153846154
1.9625000000000001,-0.8608333333333333,-2.783333333333333,-0.04666666666666667,0.4075,0.9874999999999999
1.062857142857143,-2.1685714285714286,-2.904285714285714,-0.20714285714285716,0.40857142857142853,0.5771428571428572
0.08666666666666667,-2.6238888888888887,-2.2594444444444446,-0.35111111111111115,0.39666666666666667,0.07500000000000001
-0.4269230769230769,-2.183076923076923,-1.2015384615384614,-0.3153846153846154,0.2323076923076923,-0.45769230769230773
-0.5966666666666667,-1.0058333333333334,-0.7283333333333334,-0.235,0.14416666666666667,-0.6375000000000001
-0.8318181818181819,0.21545454545454545,-0.4809090909090909,-0.2609090909090909,0.12636363636363637,-0.6818181818181818
-1.4835714285714285,1.8571428571428572,-0.2571428571428572,-0.29357142857142854,0.24428571428571427,-0.5607142857142857
-0.5661538461538461,1.4800000000000002,-0.4938461538461538,-0.26461538461538464,0.33384615384615385,-0.5023076923076923
-0.01833333333333333,-0.10666666666666665,-0.7541666666666668,-0.31916666666666665,0.3566666666666667,-0.5683333333333334
-0.4057142857142857,-0.9914285714285713,-0.5142857142857143,-0.41000000000000003,0.44,-0.5757142857142856
-0.7683333333333333,-1.3438888888888887,0.17222222222222222,-0.4811111111111111,0.5116666666666667,-0.5694444444444444
-0.4653846153846154,-1.5461538461538462,1.2092307692307693,-0.32384615384615384,0.55,-0.6153846153846154
-0.3408333333333333,-1.5525,1.5650000000000002,-0.050833333333333335,0.505,-0.6333333333333333
-0.8061538461538462,-1.593076923076923,1.2915384615384615,0.16461538461538464,0.49,-0.5684615384615385
-1.1241666666666668,-1.5641666666666667,0.9175,0.25166666666666665,0.5483333333333333,-0.4275
-1.0084615384615385,-1.1730769230769231,0.8200000000000001,0.2330769230769231,0.6223076923076923,-0.31461538461538463
-1.0925,-0.6733333333333333,0.8525,0.2041666666666667,0.6658333333333334,-0.23666666666666666
-1.2557142857142856,-0.48999999999999994,0.8257142857142856,0.17285714285714285,0.6571428571428573,-0.19714285714285712
-1.4961111111111112,-0.58,0.8666666666666667,0.12666666666666665,0.6261111111111111,-0.1461111111111111
-1.5430769230769232,-0.9600000000000001,1.0276923076923077,0.12615384615384617,0.5384615384615384,-0.057692307692307696
-1.4958333333333333,-0.9883333333333333,1.265,0.19166666666666665,0.4383333333333333,-0.006666666666666667
-1.273846153846154,-0.643076923076923,1.3976923076923076,0.25,0.3776923076923077,-0.02153846153846154
-0.9550000000000001,-0.22666666666666668,1.3891666666666669,0.26,0.3625,-0.08916666666666667
-0.7261538461538461,0.043846153846153854,1.5276923076923077,0.28615384615384615,0.3761538461538461,-0.13846153846153847
-0.71,0.30416666666666664,1.4775,0.32833333333333337,0.32583333333333336,-0.15666666666666665
-0.9342857142857144,0.5942857142857143,1.167142857142857,0.3157142857142857,0.2842857142857143,-0.14857142857142858
-1.135,0.9927777777777779,0.8127777777777777,0.19055555555555556,0.2838888888888889,-0.1061111111111111
-0.7892307692307692,1.3623076923076924,1.4100000000000001,-0.04846153846153846,0.3169230769230769,-0.1053846153846154
-0.20249999999999999,1.4825,2.8033333333333332,-0.1725,0.35083333333333333,-0.1708333333333333
0.1776923076923077,1.4176923076923076,3.6315384615384616,-0.09307692307692307,0.3669230769230769,-0.2969230769230769
0.02083333333333334,1.4883333333333333,3.0775,0.2058333333333333,0.3475,-0.405
-0.43538461538461537,2.3784615384615386,0.7892307692307692,0.4423076923076923,0.2784615384615385,-0.4461538461538461
-1.0216666666666667,3.8541666666666665,-1.9966666666666668,0.465,0.015,-0.5483333333333333
-1.2053846153846153,4.369230769230769,-4.13076923076923,0.2553846153846154,-0.23153846153846155,-0.7323076923076923
-0.84,2.9958333333333336,-4.5808333333333335,-0.06916666666666667,-0.4183333333333333,-0.8533333333333334
-0.4476923076923077,0.47000000000000003,-3.5446153846153843,-0.27615384615384614,-0.4046153846153846,-0.7384615384615384
-0.5708333333333334,-1.5250000000000001,-2.749166666666667,-0.44250000000000006,-0.38333333333333336,-0.5166666666666667
-0.9346153846153846,-1.8684615384615384,-1.7238461538461538,-0.5476923076923078,-0.23076923076923078,-0.09153846153846154
-0.9066666666666667,-0.9700000000000001,-0.6941666666666667,-0.5008333333333334,-0.13833333333333334,0.44083333333333335
-0.5092307692307693,-0.012307692307692297,-0.39923076923076917,-0.4269230769230769,-0.20615384615384616,0.9023076923076924
0.6333333333333333,0.4666666666666666,-0.7916666666666666,-0.4258333333333333,-0.26166666666666666,1.0316666666666667
1.1788888888888889,0.4122222222222222,-1.0522222222222224,-0.4255555555555556,-0.36666666666666664,0.8622222222222222
0.46937500000000004,-0.109375,-1.03375,-0.42875,-0.485625,0.6125
-0.40230769230769226,-1.416153846153846,-0.6476923076923077,-0.3538461538461538,-0.6015384615384616,0.44384615384615383
-0.49499999999999994,-2.450833333333333,-0.44916666666666666,-0.285,-0.6658333333333334,0.4091666666666667
-0.38769230769230767,-2.92,-0.08384615384615385,-0.15692307692307692,-0.7269230769230769,0.47000000000000003
-0.015833333333333324,-2.5108333333333333,0.059166666666666666,-0.05333333333333334,-0.7391666666666666,0.5741666666666666
1.05,-1.1215384615384616,0.25230769230769234,0.026153846153846156,-0.6784615384615384,0.556923076923077
1.8933333333333333,-0.30333333333333334,0.29083333333333333,0.09333333333333334,-0.5941666666666666,0.42083333333333334
1.667142857142857,-0.20285714285714285,0.23142857142857146,0.11142857142857143,-0.5828571428571429,0.2914285714285714
0.8244444444444444,-0.5077777777777778,0.3461111111111111,0.030555555555555558,-0.5683333333333334,0.15777777777777777
0.02769230769230769,-1.0792307692307692,0.47923076923076924,-0.12000000000000001,-0.5123076923076924,0.08538461538461538
0.245,-1.5883333333333336,0.5983333333333333,-0.17166666666666666,-0.49,0.04583333333333334
0.6730769230769231,-2.2830769230769232,0.9438461538461538,-0.04538461538461539,-0.49,-0.04615384615384615
0.9925,-2.5458333333333334,1.2266666666666666,0.165,-0.4575,-0.20583333333333334
0.8500000000000001,-2.036153846153846,1.3107692307692307,0.31846153846153846,-0.41307692307692306,-0.33999999999999997
0.3183333333333333,-0.915,1.3608333333333336,0.41083333333333333,-0.3666666666666667,-0.36000000000000004
-0.1757142857142857,0.1157142857142857,1.4357142857142855,0.47428571428571425,-0.3057142857142857,-0.2857142857142857
-0.2127777777777778,1.255,1.3872222222222221,0.5155555555555557,-0.22777777777777775,-0.11
0.08153846153846155,1.6630769230769231,1.0715384615384616,0.45999999999999996,-0.2692307692307692,0.07076923076923078
0.030833333333333334,1.4641666666666666,0.9066666666666667,0.31,-0.35833333333333334,0.1325
-0.2753846153846154,1.6207692307692307,0.9438461538461538,0.1,-0.4407692307692308,0.12923076923076923
-0.8191666666666667,2.089166666666667,1.6341666666666665,-0.11,-0.5841666666666666,0.13833333333333334
-1.1316666666666666,2.2216666666666667,2.9258333333333333,-0.225,-0.6758333333333333,0.23750000000000002
-0.5423076923076923,1.4476923076923076,3.916923076923077,-0.23153846153846155,-0.7015384615384614,0.3469230769230769
0.26857142857142857,0.48,4.065714285714285,-0.09857142857142856,-0.6657142857142857,0.39
0.5761111111111111,0.6488888888888888,2.908333333333333,0.21666666666666667,-0.5783333333333334,0.365
1.0092307692307692,2.756153846153846,0.5238461538461539,0.42769230769230765,-0.31384615384615383,0.44384615384615383
1.3408333333333333,4.025,-1.11,0.4141666666666666,-0.051666666666666666,0.5975
1.4646153846153847,3.8400000000000003,-1.8807692307692307,0.34615384615384615,0.3046153846153846,0.9207692307692308
2.0425,2.2675,-2.405,0.25333333333333335,0.5341666666666667,1.135
1.8923076923076925,-0.019230769230769232,-2.7476923076923074,0.11538461538461539,0.45769230769230773,1.0384615384615385
0.7691666666666667,-2.1783333333333332,-2.7083333333333335,-0.04833333333333334,0.30333333333333334,0.7483333333333334
-0.27999999999999997,-3.031428571428571,-2.552857142857143,-0.19857142857142857,0.22999999999999998,0.46
-1.4983333333333333,-2.6705555555555556,-1.782777777777778,-0.31333333333333335,0.11222222222222222,0.05333333333333334
-2.4707692307692306,-1.0915384615384616,-0.7292307692307692,-0.20153846153846156,-0.05384615384615384,-0.33692307692307694
-1.9875,0.04333333333333333,-0.8508333333333334,-0.11333333333333334,-0.10583333333333333,-0.3658333333333333
-0.25923076923076926,0.7076923076923076,-1.136923076923077,-0.23153846153846153,-0.08846153846153845,-0.3538461538461538
0.7391666666666666,1.1483333333333332,-0.7875,-0.3666666666666667,0.10333333333333333,-0.29416666666666663
1.9076923076923076,0.916923076923077,-0.23923076923076925,-0.34153846153846157,0.2246153846153846,-0.31230769230769234
1.6708333333333334,-0.1441666666666667,-0.09000000000000001,-0.31666666666666665,0.27416666666666667,-0.4675
-0.06142857142857143,-0.4928571428571429,0.16714285714285712,-0.31,0.39571428571428574,-0.49142857142857144
-1.0783333333333334,-0.8999999999999999,0.40166666666666667,-0.27888888888888885,0.5144444444444445,-0.47611111111111115
-0.7007692307692307,-1.4084615384615384,0.5823076923076923,-0.19461538461538463,0.5261538461538462,-0.5576923076923077
-0.8141666666666666,-1.3091666666666668,0.9983333333333334,-0.09333333333333334,0.4033333333333333,-0.5599999999999999
-1.0046153846153845,-1.3123076923076924,1.376923076923077,0.03769230769230769,0.39,-0.4984615384615385
-1.1508333333333334,-1.3991666666666667,1.515,0.16333333333333333,0.4283333333333333,-0.41083333333333333
-1.0015384615384615,-1.3323076923076924,1.4476923076923076,0.22153846153846152,0.4653846153846154,-0.34461538461538466
-0.7908333333333334,-0.9833333333333334,1.3216666666666665,0.19000000000000003,0.5233333333333333,-0.2916666666666667
-0.7485714285714286,-0.89,1.1914285714285715,0.08142857142857143,0.5657142857142857,-0.27571428571428575
-0.8266666666666667,-1.0466666666666666,1.3627777777777779,-0.031111111111111114,0.6038888888888888,-0.2361111111111111
-0.9523076923076924,-1.196923076923077,1.786153846153846,-0.006923076923076922,0.5684615384615385,-0.14076923076923079
-1.1125,-0.92,1.9574999999999998,0.05833333333333334,0.5650000000000001,-0.07583333333333334
-1.0176923076923077,-0.4230769230769231,1.9215384615384616,0.12230769230769231,0.6615384615384615,-0.04538461538461539
-0.6341666666666667,0.0825,1.5941666666666665,0.17916666666666667,0.7033333333333333,-0.05416666666666667
-0.16461538461538464,0.40692307692307694,1.2715384615384617,0.2107692307692308,0.716153846153846,-0.09384615384615384
0.09083333333333334,0.8775000000000001,0.8808333333333334,0.1875,0.6308333333333334,-0.22083333333333333
-0.37461538461538463,1.2669230769230768,0.3353846153846154,0.0015384615384615376,0.5246153846153846,-0.37461538461538463
-1.5116666666666667,1.3941666666666668,0.5691666666666667,-0.27416666666666667,0.465,-0.4475
-2.1715384615384616,1.580769230769231,1.9469230769230772,-0.46076923076923076,0.4553846153846154,-0.40230769230769237
-1.51,1.6500000000000001,3.4266666666666663,-0.4041666666666666,0.4608333333333334,-0.3983333333333334
-0.89,2.240769230769231,3.4030769230769233,-0.0007692307692307678,0.30846153846153845,-0.4776923076923077
-1.1383333333333334,3.6025000000000005,0.8433333333333333,0.29833333333333334,-0.04083333333333334,-0.6216666666666667
-1.7000000000000002,4.905384615384616,-2.3207692307692307,0.17538461538461536,-0.2846153846153846,-0.78
-0.7291666666666666,4.611666666666667,-3.6483333333333334,-0.1975,-0.38166666666666665,-0.8908333333333333
-0.25846153846153846,2.513076923076923,-3.1376923076923076,-0.4330769230769231,-0.4461538461538461,-0.7953846153846154
-0.6141666666666666,-0.28500000000000003,-2.6166666666666667,-0.45916666666666667,-0.40166666666666667,-0.4975
-0.5623076923076923,-2.5184615384615388,-2.3607692307692307,-0.46384615384615385,-0.30230769230769233,-0.18076923076923077
-0.15916666666666665,-3.0075000000000003,-1.625,-0.4633333333333333,-0.15416666666666667,0.14666666666666667
0.24846153846153846,-2.07,-0.6315384615384616,-0.33,-0.1,0.4807692307692308
1.0158333333333334,-0.8008333333333333,-0.4475,-0.15916666666666668,-0.1575,0.7158333333333333
1.8453846153846156,0.22076923076923077,-0.6407692307692308,-0.043846153846153854,-0.22692307692307695,0.6538461538461539
1.4941666666666666,0.5575,-0.7966666666666667,0.010833333333333334,-0.2966666666666667,0.47583333333333333
0.4776923076923077,0.4153846153846154,-0.9046153846153846,-0.07153846153846154,-0.3738461538461539,0.32769230769230767
-0.2366666666666667,-0.3875,-0.62,-0.14833333333333334,-0.43166666666666664,0.27666666666666667
-0.08830409356725147,-1.0617543859649121,-0.28385964912280703,-0.13467836257309942,-0.4436549707602339,0.33935672514619886
0.060058479532163755,-1.736008771929824,0.05228070175438593,-0.1210233918128655,-0.45564327485380113,0.402046783625731
0.20842105263157895,-2.4102631578947364,0.38842105263157894,-0.10736842105263159,-0.4676315789473684,0.46473684210526317
1.6316666666666666,-1.4641666666666666,0.9775,0.18333333333333335,-0.36916666666666664,0.5175
1.813076923076923,-0.916923076923077,0.8469230769230769,0.30615384615384617,-0.2753846153846154,0.44999999999999996
1.5175,-0.6858333333333334,0.64,0.29916666666666664,-0.2316666666666667,0.31
0.8392307692307692,-0.4315384615384615,0.5492307692307693,0.16846153846153847,-0.20153846153846156,0.22615384615384615
0.30416666666666664,-0.2933333333333334,0.7458333333333332,0.013333333333333336,-0.18833333333333332,0.20666666666666667
0.49923076923076926,-0.5,1.0746153846153847,-0.10615384615384617,-0.16153846153846155,0.2023076923076923
0.69,-0.91,1.5366666666666668,-0.10833333333333334,-0.17416666666666666,0.16
0.46,-1.3953846153846154,1.943076923076923,0.057692307692307696,-0.24384615384615385,0.09615384615384616
0.21666666666666667,-1.7416666666666665,2.0391666666666666,0.245,-0.2708333333333333,-0.0033333333333333335
0.09,-1.4607692307692306,2.096923076923077,0.42923076923076925,-0.28846153846153844,-0.08307692307692308
0.17666666666666667,-0.4891666666666667,1.7166666666666668,0.5983333333333333,-0.2816666666666667,-0.10166666666666667
0.35,0.8238461538461539,1.0038461538461538,0.6146153846153847,-0.3092307692307692,-0.026153846153846156
0.3758333333333333,1.7033333333333331,0.5558333333333333,0.5408333333333334,-0.35916666666666663,0.049999999999999996
0.18307692307692308,1.9207692307692308,0.36846153846153845,0.44692307692307687,-0.33999999999999997,0.08
0.22333333333333336,1.8841666666666665,0.3225,0.30416666666666664,-0.3016666666666667,0.12666666666666668
0.6346153846153846,1.7484615384615385,0.7707692307692308,0.08692307692307694,-0.3230769230769231,0.1846153846153846
0.9075000000000001,1.415,1.9458333333333335,-0.11,-0.4175,0.21583333333333332
0.6323076923076922,0.91,3.3615384615384616,-0.17846153846153845,-0.5284615384615384,0.21307692307692308
0.39166666666666666,0.45749999999999996,3.8575,-0.001666666666666668,-0.5516666666666667,0.21583333333333332
-0.16923076923076924,0.9246153846153846,2.643076923076923,0.22230769230769232,-0.46384615384615385,0.2423076923076923
0.365,1.7583333333333335,1.0783333333333334,0.2783333333333334,-0.29916666666666664,0.3425
1.1223076923076922,2.249230769230769,-0.15846153846153846,0.2353846153846154,-0.10076923076923078,0.44999999999999996
1.3625,2.485,-0.8141666666666666,0.17916666666666667,0.18999999999999997,0.6758333333333333
1.9738461538461538,2.1038461538461535,-1.366923076923077,0.13846153846153847,0.41307692307692306,0.8507692307692308
2.1991666666666667,0.7891666666666666,-1.9483333333333333,0.06583333333333334,0.4666666666666666,0.7883333333333332
1.4646153846153847,-1.3115384615384615,-2.5153846153846158,-0.0776923076923077,0.3738461538461539,0.5376923076923077
-0.09083333333333334,-2.3675,-2.3516666666666666,-0.29083333333333333,0.2125,0.22166666666666668
-1.2657142857142856,-2.067142857142857,-1.687142857142857,-0.3814285714285714,0.13857142857142857,-0.04
-2.0216666666666665,-0.6305555555555555,-0.9677777777777778,-0.3038888888888889,0.09666666666666666,-0.3327777777777778
-1.4723076923076923,0.8446153846153847,-0.9746153846153847,-0.25923076923076926,0.045384615384615384,-0.48384615384615387
-0.6608333333333333,1.3216666666666665,-0.945,-0.41583333333333333,0.10333333333333333,-0.49583333333333335
0.07076923076923075,1.2369230769230768,-0.6330769230769231,-0.5061538461538462,0.26615384615384613,-0.38384615384615384
0.9808333333333333,-0.2225,-0.45083333333333336,-0.4583333333333333,0.305,-0.39083333333333337
0.295,-1.6083333333333334,0.2525,-0.29416666666666663,0.355,-0.4666666666666666
-1.7038461538461538,-1.7484615384615385,1.0153846153846156,0.03076923076923077,0.48846153846153845,-0.3392307692307692
-1.657142857142857,-1.727142857142857,0.8842857142857143,0.24857142857142858,0.5857142857142856,-0.27
-1.0294444444444446,-1.133888888888889,0.7838888888888889,0.48500000000000004,0.6005555555555556,-0.28777777777777774
-0.45,-0.10583333333333333,0.38833333333333336,0.5783333333333333,0.5366666666666667,-0.365
-0.5116666666666667,0.04666666666666667,0.35000000000000003,0.5466666666666667,0.5058333333333334,-0.4041666666666666
-0.6838461538461539,-0.4392307692307692,0.45153846153846156,0.4676923076923077,0.49076923076923074,-0.4492307692307692
-1.136923076923077,-0.7384615384615384,0.5923076923076923,0.3353846153846154,0.49461538461538457,-0.4792307692307692
-1.526923076923077,-1.0146153846153845,0.8984615384615384,0.24615384615384617,0.47846153846153844,-0.4746153846153846
-1.8033333333333335,-1.2966666666666666,1.3166666666666667,0.2508333333333333,0.4475,-0.3941666666666667
-1.9253846153846155,-1.5415384615384615,1.7284615384615383,0.31,0.4376923076923077,-0.23692307692307693
-1.6958333333333335,-1.4124999999999999,1.8866666666666667,0.4183333333333333,0.43416666666666665,-0.06833333333333334
-1.1507692307692308,-0.9507692307692308,1.5576923076923077,0.4930769230769231,0.38153846153846155,0.047692307692307694
-0.7583333333333333,-0.36333333333333334,1.1616666666666666,0.4691666666666667,0.3225,0.0775
-0.4338461538461539,0.20076923076923078,1.146153846153846,0.36846153846153845,0.3353846153846154,0.025384615384615387
-0.2733333333333334,0.535,1.4091666666666667,0.27,0.34,-0.09749999999999999
-0.43846153846153846,0.5892307692307692,1.5223076923076921,0.16692307692307692,0.3384615384615385,-0.2053846153846154
-0.6683333333333333,0.6691666666666666,1.4208333333333334,0.06333333333333334,0.31583333333333335,-0.22416666666666665
-1.0114285714285713,0.9414285714285714,1.2857142857142858,-0.04,0.29,-0.20142857142857143
-1.2044444444444444,1.6127777777777776,1.66,-0.1988888888888889,0.35555555555555557,-0.14722222222222223
0.14461538461538462,2.436923076923077,3.0369230769230766,-0.3692307692307692,0.4646153846153846,-0.16692307692307692
1.3916666666666666,2.2125,4.0225,-0.43583333333333335,0.48333333333333334,-0.3233333333333333
1.1666666666666667,1.3266666666666667,4.1025,-0.33,0.4991666666666667,-0.5133333333333333
-0.4791666666666667,1.0975,3.0091666666666668,-0.03416666666666667,0.4291666666666667,-0.5975
-2.6478571428571427,2.6364285714285716,0.4321428571428572,0.27571428571428575,0.17785714285714288,-0.5814285714285713
-2.6766666666666663,4.6049999999999995,-2.5683333333333334,0.2816666666666667,-0.0525,-0.71
-1.0871428571428572,5.132857142857143,-4.1499999999999995,0.06142857142857143,-0.08714285714285715,-0.8957142857142857
0.958888888888889,3.0572222222222223,-4.118333333333333,-0.23500000000000001,-0.2744444444444445,-1.0205555555555557
-0.0791666666666667,-0.8591666666666667,-3.6733333333333333,-0.4908333333333333,-0.5516666666666666,-0.8066666666666666
-1.5353846153846153,-2.4023076923076925,-2.721538461538461,-0.7207692307692307,-0.43538461538461537,-0.3738461538461539
-1.7723076923076921,-1.9215384615384616,-0.8576923076923075,-0.7292307692307692,-0.1476923076923077,0.16
-1.7583333333333335,-0.7933333333333333,0.17666666666666667,-0.6108333333333333,-0.09833333333333334,0.7241666666666666
-0.3384615384615385,0.5007692307692307,0.3092307692307692,-0.4730769230769231,-0.17153846153846153,1.0307692307692309
1.1975,0.8183333333333334,-0.08166666666666668,-0.31333333333333335,-0.2816666666666667,0.9483333333333334
1.5185714285714287,0.45999999999999996,-0.5414285714285715,-0.18857142857142858,-0.38571428571428573,0.7714285714285715
1.0827777777777776,-0.5305555555555556,-1.0522222222222224,-0.16333333333333333,-0.55,0.5061111111111111
0.34076923076923077,-1.8253846153846154,-0.783076923076923,-0.1846153846153846,-0.6246153846153846,0.3584615384615385
-0.27999999999999997,-2.3183333333333334,-0.36333333333333334,-0.18416666666666667,-0.7191666666666666,0.3541666666666667
-0.5107692307692308,-2.266923076923077,0.17384615384615387,-0.07076923076923078,-0.6984615384615385,0.4915384615384616
-0.13249999999999998,-1.7716666666666665,0.11,0.022500000000000003,-0.6541666666666667,0.6141666666666666
0.926923076923077,-0.996923076923077,0.08230769230769232,0.07846153846153846,-0.5884615384615384,0.5738461538461539
1.4458333333333335,-0.8858333333333334,0.10083333333333333,0.1225,-0.5991666666666666,0.4075
1.1714285714285713,-1.0271428571428571,0.19571428571428573,0.11714285714285713,-0.6157142857142857,0.2871428571428572
0.315,-1.4105555555555556,0.3238888888888889,0.03222222222222222,-0.5405555555555556,0.21777777777777776
0.2846153846153846,-1.639230769230769,0.6876923076923076,-0.03769230769230769,-0.4476923076923077,0.14846153846153845
0.8300000000000001,-1.6533333333333333,0.9991666666666666,0.020833333333333332,-0.425,0.0625
1.3461538461538463,-1.2476923076923077,1.2423076923076921,0.13,-0.39692307692307693,-0.07307692307692308
1.25,-0.8308333333333334,1.41,0.19083333333333333,-0.3183333333333333,-0.19083333333333333
0.6015384615384616,-0.3153846153846154,1.6753846153846155,0.23,-0.2469230769230769,-0.19769230769230767
0.0625,0.36916666666666664,2.013333333333333,0.32916666666666666,-0.1525,-0.09666666666666666
0.04285714285714286,0.72,2.0328571428571425,0.4228571428571429,-0.11,-0.02428571428571429
0.05444444444444444,0.7727777777777778,1.6827777777777777,0.44777777777777783,-0.14277777777777778,0.041666666666666664
-0.18,0.7884615384615384,1.5753846153846154,0.37153846153846154,-0.2776923076923077,0.07153846153846154
-0.2791666666666667,1.1241666666666668,1.6900000000000002,0.32666666666666666,-0.36833333333333335,0.06583333333333334
-0.30615384615384617,1.5023076923076923,1.7069230769230768,0.2746153846153846,-0.41846153846153844,0.07307692307692307
-0.19999999999999998,1.6849999999999998,1.8233333333333333,0.15333333333333335,-0.47333333333333333,0.12916666666666668
-0.10307692307692308,1.6453846153846154,2.37,-0.0007692307692307688,-0.5423076923076923,0.21153846153846154
-0.2966666666666667,1.4091666666666667,3.1425,-0.09999999999999999,-0.585,0.30833333333333335
-0.3028571428571429,1.0042857142857142,3.4314285714285715,-0.05285714285714286,-0.5471428571428572,0.38571428571428573
-0.12777777777777777,1.135,2.5477777777777777,0.12611111111111112,-0.4527777777777778,0.43777777777777777
0.9546153846153846,2.7492307692307696,0.7307692307692307,0.24538461538461537,-0.22692307692307695,0.5276923076923077
1.4808333333333332,3.779166666666667,-0.5241666666666667,0.23583333333333334,-0.03,0.6441666666666667
1.3415384615384616,4.12,-1.3715384615384614,0.13384615384615384,0.2276923076923077,0.9330769230769231
2.05,2.624166666666667,-1.6858333333333333,0.049999999999999996,0.4366666666666667,1.0583333333333333
1.9953846153846155,-0.04538461538461536,-2.0138461538461536,-0.03076923076923077,0.43615384615384617,0.88
1.5658333333333332,-2.1241666666666665,-2.4891666666666667,-0.22083333333333333,0.37666666666666665,0.5008333333333334
1.1357142857142857,-2.7028571428571433,-2.41,-0.36,0.33999999999999997,0.16
0.32166666666666666,-2.3833333333333333,-1.5894444444444444,-0.37555555555555553,0.24722222222222223,-0.29388888888888887
-0.9758333333333334,-1.1016666666666668,-0.7191666666666667,-0.22,0.13,-0.6691666666666666
-1.5246153846153847,-0.06384615384615383,-0.8615384615384615,-0.11615384615384615,0.09384615384615384,-0.6653846153846155
-1.316923076923077,0.4492307692307692,-1.1084615384615384,-0.22692307692307695,0.20461538461538462,-0.5107692307692308
-0.6208333333333333,0.38916666666666666,-0.7458333333333332,-0.34,0.41083333333333333,-0.2966666666666667
0.5084615384615385,-0.6269230769230769,-0.1930769230769231,-0.27384615384615385,0.4507692307692308,-0.28692307692307695
0.16749999999999998,-1.7191666666666665,0.4908333333333334,-0.12666666666666668,0.42416666666666664,-0.37166666666666665
-0.6828571428571429,-1.6942857142857142,0.8414285714285714,0.015714285714285715,0.4257142857142857,-0.37
-1.1111111111111112,-1.6866666666666665,0.7127777777777777,0.17166666666666666,0.5316666666666667,-0.3227777777777778
-0.8684615384615385,-1.0223076923076921,0.5861538461538461,0.25461538461538463,0.5238461538461539,-0.34923076923076923
-1.1241666666666665,-0.3441666666666667,0.9400000000000001,0.34,0.38916666666666666,-0.3825
-1.1700000000000002,-0.38461538461538464,1.1976923076923076,0.44,0.3023076923076923,-0.34615384615384615
-1.4258333333333333,-0.6616666666666667,1.155,0.43083333333333335,0.32166666666666666,-0.2708333333333333
-1.003076923076923,-0.7946153846153846,1.1630769230769231,0.3038461538461539,0.4146153846153846,-0.19076923076923077
-0.6033333333333334,-0.765,1.5233333333333334,0.215,0.4691666666666667,-0.17
-0.5842857142857143,-0.9285714285714286,1.7414285714285713,0.1942857142857143,0.4857142857142857,-0.16714285714285718
-0.5633333333333334,-1.1916666666666667,1.9916666666666667,0.20944444444444443,0.538888888888889,-0.12944444444444445
-0.5230769230769231,-1.1584615384615384,2.226923076923077,0.26615384615384613,0.62,-0.06076923076923077
-0.45,-0.7675000000000001,2.2308333333333334,0.43416666666666665,0.7208333333333333,0.017499999999999998
-0.09384615384615384,-0.10615384615384617,1.7915384615384615,0.6561538461538461,0.7738461538461539,0.06461538461538462
0.295,0.9633333333333334,0.7208333333333333,0.7591666666666667,0.7233333333333333,-0.030833333333333334
-0.1992307692307692,1.8753846153846152,-0.4476923076923077,0.5392307692307692,0.6869230769230769,-0.21769230769230768
-0.7483333333333334,2.395,-0.20833333333333334,0.11083333333333334,0.7958333333333334,-0.38916666666666666
-0.8928571428571429,2.632857142857143,0.9528571428571428,-0.2057142857142857,0.8885714285714286,-0.4471428571428571
-0.305,2.21,2.6133333333333333,-0.43444444444444447,0.9783333333333333,-0.43166666666666664
-0.0015384615384615313,0.9246153846153846,3.4130769230769236,-0.2776923076923077,0.8907692307692308,-0.4746153846153846
-2.299166666666667,1.1758333333333333,1.9191666666666667,0.03416666666666667,0.45166666666666666,-0.51
-4.317692307692307,3.2507692307692313,-0.5361538461538461,0.18615384615384614,-0.02461538461538462,-0.4523076923076923
-2.8524999999999996,5.291666666666667,-2.700833333333333,-0.06083333333333333,-0.4708333333333334,-0.6058333333333333
-0.9261538461538462,5.43076923076923,-3.2684615384615388,-0.5084615384615385,-0.8376923076923077,-1.0007692307692309
-0.15166666666666667,3.11,-2.0116666666666667,-0.7441666666666666,-0.8875000000000001,-1.1516666666666666
-0.5142857142857143,0.5085714285714286,-1.3514285714285716,-0.6785714285714286,-0.8442857142857143,-1.0414285714285714
-1.3777777777777778,-2.613888888888889,-1.7377777777777779,-0.5527777777777777,-0.7738888888888888,-0.705
-1.85,-4.282307692307692,-1.6607692307692308,-0.5307692307692308,-0.5115384615384616,0.08769230769230768
-0.3033333333333333,-3.6216666666666666,-0.7425,-0.4683333333333333,-0.27666666666666667,0.755
2.453076923076923,-1.583846153846154,0.20461538461538462,-0.24076923076923076,-0.06461538461538462,1.083846153846154
4.2299999999999995,0.12250000000000001,0.45416666666666666,0.022500000000000003,-0.06,0.9225
3.2653846153846158,1.18,0.01230769230769231,0.16230769230769232,-0.20692307692307693,0.5376923076923077
0.945,1.4966666666666668,-0.6308333333333334,0.085,-0.29750000000000004,0.27666666666666667
-0.92,1.2942857142857143,-1.1871428571428573,-0.09857142857142857,-0.38,0.16714285714285712
-2.2383333333333333,-0.12499999999999997,-1.0016666666666667,-0.3488888888888889,-0.48666666666666664,0.21166666666666667
-1.616153846153846,-1.863846153846154,0.07615384615384616,-0.41923076923076924,-0.6246153846153846,0.4269230769230769
-0.21,-2.3975,0.8850000000000001,-0.2608333333333333,-0.7041666666666666,0.5408333333333334
0.9592307692307691,-2.0576923076923075,1.2453846153846155,-0.045384615384615384,-0.6523076923076924,0.5823076923076923
2.0566666666666666,-1.3416666666666668,1.2141666666666666,0.15916666666666665,-0.5608333333333334,0.5358333333333333
2.4992307692307696,-0.8715384615384616,0.9146153846153846,0.24000000000000002,-0.5292307692307693,0.3130769230769231
1.67,-0.4825,0.765,0.1875,-0.48,0.17416666666666666
1.3085714285714285,-0.4614285714285714,0.7342857142857142,0.11285714285714286,-0.47000000000000003,0.12285714285714286
0.895,-0.8155555555555556,0.9194444444444445,0.013888888888888888,-0.4666666666666667,0.07055555555555555
0.9346153846153846,-1.396923076923077,1.4284615384615384,-0.02,-0.42076923076923073,-0.013846153846153845
0.9033333333333333,-1.5516666666666667,1.7733333333333334,0.07,-0.37916666666666665,-0.10583333333333333
0.8276923076923077,-1.6376923076923076,1.9230769230769231,0.2276923076923077,-0.30615384615384617,-0.17153846153846153
0.7875000000000001,-1.385,1.88,0.3825,-0.21333333333333335,-0.21833333333333335
0.6664285714285715,-0.4385714285714286,1.5171428571428573,0.48071428571428576,-0.1442857142857143,-0.20714285714285713
0.26545454545454544,0.6372727272727272,1.2718181818181817,0.4936363636363636,-0.15363636363636363,-0.1109090909090909
-0.2907692307692308,1.4884615384615385,1.3976923076923078,0.4423076923076923,-0.18846153846153849,0.04076923076923077
-0.6366666666666667,1.8908333333333331,1.5133333333333334,0.3591666666666667,-0.19083333333333333,0.19499999999999998
-0.5814285714285715,1.9542857142857142,1.26,0.20285714285714285,-0.2664285714285714,0.2764285714285714
-0.4572727272727273,2.05,1.5163636363636364,0.005454545454545454,-0.4581818181818182,0.2863636363636364
-0.7078571428571429,2.0914285714285716,2.3442857142857143,-0.19357142857142856,-0.6457142857142857,0.2964285714285714
-1.0463636363636366,1.4745454545454544,3.26,-0.34727272727272723,-0.7218181818181818,0.34727272727272723
-0.38769230769230767,0.28076923076923077,4.119999999999999,-0.3676923076923077,-0.7446153846153846,0.41384615384615386
1.09,-0.43083333333333335,4.589166666666666,-0.13916666666666666,-0.7324999999999999,0.3983333333333334
1.3992857142857142,0.5057142857142857,3.3064285714285715,0.2671428571428572,-0.6985714285714285,0.26285714285714284
1.2736363636363637,1.9381818181818182,1.1427272727272728,0.5954545454545455,-0.5218181818181818,0.30818181818181817
1.320909090909091,2.689090909090909,-1.370909090909091,0.7763636363636365,-0.3318181818181818,0.4354545454545455
0.7971428571428572,3.117857142857143,-3.355,0.7557142857142857,-0.028571428571428574,0.7871428571428571
1.2538461538461538,1.9284615384615384,-3.8830769230769233,0.5353846153846153,0.2030769230769231,1.0746153846153847
1.1516666666666666,0.06999999999999999,-3.7283333333333335,0.23583333333333334,0.29,1.0041666666666667
0.37384615384615383,-1.1484615384615384,-3.3246153846153845,-0.06153846153846154,0.22846153846153847,0.7523076923076922
-0.37833333333333335,-1.14,-2.6041666666666665,-0.32749999999999996,0.145,0.39166666666666666
-0.4014285714285714,-0.33285714285714285,-1.842857142857143,-0.41428571428571426,0.08,0.025714285714285714
0.006666666666666672,0.5494444444444445,-1.395,-0.4972222222222222,0.08888888888888888,-0.4383333333333333
1.0038461538461538,0.4746153846153846,-1.05,-0.6923076923076923,0.11307692307692307,-0.8099999999999999
1.0791666666666666,0.3833333333333333,0.05833333333333332,-0.7083333333333334,0.265,-0.815
1.59,0.3484615384615385,0.6784615384615384,-0.5153846153846154,0.42461538461538456,-0.7707692307692308
1.4625000000000001,-0.6825000000000001,0.5183333333333333,-0.26916666666666667,0.5858333333333333,-0.8258333333333333
-0.1507692307692308,-1.3984615384615384,-0.28307692307692306,-0.23923076923076922,0.7661538461538461,-0.7923076923076924
-1.8525,-1.2858333333333334,-0.31916666666666665,-0.295,0.8641666666666666,-0.6549999999999999
-2.077142857142857,-1.3699999999999999,-0.22428571428571425,-0.3242857142857143,0.9428571428571428,-0.5328571428571429
-0.9622222222222222,-1.4200000000000002,0.4011111111111111,-0.24333333333333332,0.9700000000000001,-0.5216666666666667
-0.33999999999999997,-1.4307692307692306,0.9176923076923077,-0.06769230769230769,0.8276923076923077,-0.5723076923076923
-0.9358333333333334,-1.7125000000000001,0.7966666666666667,0.04083333333333333,0.7725,-0.5233333333333333
-1.5815384615384613,-1.8184615384615386,0.696923076923077,0.07076923076923078,0.7507692307692307,-0.37846153846153846
-1.7,-1.4541666666666666,0.8541666666666666,0.07250000000000001,0.7041666666666666,-0.24916666666666668
-1.7323076923076923,-1.096923076923077,0.9684615384615385,0.0676923076923077,0.5984615384615385,-0.18307692307692308
-2.1491666666666664,-1.0941666666666667,1.175,0.08666666666666667,0.5116666666666667,-0.0675
-2.1900000000000004,-1.13,1.397142857142857,0.13999999999999999,0.45,0.045714285714285714
-1.8688888888888888,-0.8338888888888889,1.515,0.22499999999999998,0.36666666666666664,0.19055555555555556
-0.7741666666666668,-0.20916666666666664,1.6049999999999998,0.2525,0.3416666666666666,0.2691666666666667
