accx,accy,accz,gyrox,gyroy,gyroz
1.007219,-0.1800543,-0.1661687,0.1355239,0.1091104,-0.06990804
1.009422,-0.185623,-0.1792569,0.1326798,0.1622367,-0.05978528
1.006344,-0.1946834,-0.1907638,0.1497494,0.1882435,-0.05020402
1.004144,-0.2066367,-0.1833866,0.2055719,0.1734182,-0.03975265
1.001644,-0.2096902,-0.1719459,0.2271679,0.2318096,-0.03308718
1.004412,-0.2062316,-0.1768135,0.1825067,0.2611967,-0.03039332
1.013664,-0.2047123,-0.1684913,0.125114,0.2585007,-0.04988503
1.009712,-0.1924118,-0.1511149,0.1308067,0.2577676,-0.07437435
1.002759,-0.1785532,-0.1586754,0.1516459,0.1758127,-0.07602711
1.000062,-0.1749291,-0.1691228,0.1449534,0.1189443,-0.0782422
1.002882,-0.1728238,-0.1730823,0.1542635,0.1604465,-0.07995219
1.011318,-0.172574,-0.1791406,0.1488989,0.2024189,-0.07272742
1.009476,-0.1706755,-0.181126,0.1297893,0.2119646,-0.06871269
1.011574,-0.166744,-0.1909359,0.1018221,0.1943314,-0.06261707
1.028597,-0.1689469,-0.2136506,0.01251827,0.1954561,-0.0522552
1.038778,-0.1724465,-0.2270737,-0.09426899,0.2470236,-0.04815979
1.028437,-0.1723426,-0.20556,-0.134246,0.2843534,-0.04358073
1.006333,-0.170514,-0.1674412,-0.04503297,0.2244953,-0.009597124
0.9949836,-0.1643305,-0.1555613,0.09657,0.1063301,0.04530095
0.9873147,-0.1606692,-0.1628213,0.1193893,0.02686772,0.06062526
0.9781651,-0.1786688,-0.1694374,0.05500883,-0.02349604,0.01594067
0.9914579,-0.2056157,-0.1832421,-0.002625488,0.0187509,-0.04033121
1.010629,-0.2112771,-0.1996216,-0.02331076,0.146332,-0.07278435
1.018539,-0.2061422,-0.2038631,0.02733258,0.2071512,-0.08434644
1.02999,-0.2020185,-0.2084352,0.1059444,0.2339168,-0.08613506
1.035644,-0.1930791,-0.2259369,0.148681,0.2147745,-0.09157862
1.025761,-0.1931331,-0.2289445,0.1305906,0.1555896,-0.09095439
1.012863,-0.1945741,-0.2110734,0.08989302,0.1835585,-0.07857192
1.003153,-0.1826578,-0.197462,0.07911528,0.2169353,-0.0753008
0.9988416,-0.1780735,-0.1848658,0.07014265,0.2103783,-0.07329651
1.003862,-0.1754307,-0.178455,0.04619334,0.2008025,-0.06462286
1.004592,-0.1657883,-0.1889081,0.009619514,0.1852977,-0.06246945
0.9998759,-0.1677454,-0.1965718,-0.009154257,0.1954663,-0.06192364
1.002757,-0.1715475,-0.1927262,0.00160494,0.1910819,-0.05994873
1.001587,-0.1712254,-0.1882033,-0.0200159,0.1867309,-0.05951742
1.001515,-0.1741609,-0.187481,-0.03557585,0.1923117,-0.05664212
1.004873,-0.1739522,-0.1859986,-0.02743928,0.1764774,-0.05221814
0.9992254,-0.175149,-0.1880038,-0.04321435,0.1799537,-0.0498963
1.00035,-0.1780677,-0.192827,-0.04184508,0.1758899,-0.05104975
1.004553,-0.1797222,-0.1916249,-0.0371187,0.1659592,-0.0538558
1.005328,-0.182774,-0.1936918,-0.04137015,0.1661366,-0.0550527
1.007174,-0.1810365,-0.1951593,-0.03156791,0.1631082,-0.05677541
1.004117,-0.1767378,-0.1913035,-0.03416558,0.1804921,-0.06263814
1.005616,-0.1757265,-0.1920257,-0.03071178,0.185331,-0.06747956
1.005623,-0.1752815,-0.1887993,-0.02601615,0.185346,-0.06586391
1.00151,-0.173677,-0.1840257,-0.03439252,0.1889703,-0.0645026
1.000648,-0.1713606,-0.184748,-0.03771952,0.1708117,-0.06596543
0.9947044,-0.1706804,-0.185345,-0.04585463,0.1545567,-0.06078162
0.9945572,-0.1738802,-0.1884357,-0.04286073,0.1282806,-0.05028938
0.997099,-0.1813166,-0.1902701,-0.03339719,0.1022581,-0.03938829
0.9919703,-0.1890832,-0.1851913,-0.02856443,0.09221682,-0.02788786
0.9920063,-0.191363,-0.1806504,-0.006463872,0.07824337,-0.02560874
0.9980174,-0.1907293,-0.1876718,0.01349568,0.05890438,-0.03005328
1.008837,-0.1919081,-0.2007871,0.02367781,0.04322134,-0.02969927
1.015175,-0.1943917,-0.205291,0.03327717,0.06041729,-0.02919958
1.007605,-0.2027661,-0.2046316,0.03315666,0.07655787,-0.03385362
1.003885,-0.2106552,-0.2086824,0.04348169,0.06647436,-0.04706619
1.01062,-0.1960326,-0.2230261,0.06819304,0.08906097,-0.06076134
1.013292,-0.1749403,-0.2359064,0.08387916,0.1334966,-0.0623183
1.005989,-0.1748317,-0.2268618,0.09151977,0.1530027,-0.06476811
0.9999208,-0.1706674,-0.2147359,0.07352573,0.1442175,-0.0702201
1.001923,-0.1514647,-0.2181581,0.04009252,0.1227613,-0.06213474
1.002452,-0.1448664,-0.2183917,0.03455386,0.09564804,-0.04995729
1.001622,-0.1565478,-0.2171651,0.01299758,0.06634278,-0.03650337
1.005186,-0.177581,-0.2230196,-0.04609262,0.06245492,-0.01384906
1.00653,-0.1906732,-0.2212445,-0.08216124,0.0735154,-0.00720188
1.002848,-0.1849791,-0.2176465,-0.06120419,0.1035778,-0.01309655
0.9949241,-0.1770939,-0.2153151,-0.02096737,0.1456065,-0.005944259
0.9877858,-0.1752884,-0.2109833,-0.04567715,0.1056921,-0.01279964
0.9971303,-0.1806505,-0.2295657,-0.1163351,0.05029001,-0.04636624
1.00991,-0.1895753,-0.253276,-0.170979,0.07899554,-0.07550111
1.00383,-0.1884585,-0.2478156,-0.1710588,0.0840163,-0.07420212
1.000081,-0.1857919,-0.2442978,-0.07373836,0.07441349,-0.05572988
1.003401,-0.1885453,-0.2534928,0.02730277,0.1265273,-0.0473111
0.9983868,-0.1865724,-0.2476017,0.07190133,0.1739244,-0.02695918
0.9987342,-0.1824055,-0.2324084,0.105648,0.1938466,-0.005832185
0.9975459,-0.1806411,-0.2165791,0.0873223,0.1556019,-0.01450926
0.9853946,-0.1831658,-0.2044613,0.0001850166,0.05122948,-0.01866791
0.9827612,-0.1871605,-0.2058812,-0.05716667,-0.01658858,-0.0119937
0.9923344,-0.1792217,-0.206569,0.0006734317,-0.04716053,-0.003329844
1.003349,-0.1657344,-0.2126736,0.1591404,-0.08232626,0.02457393
1.005032,-0.1630712,-0.2354088,0.3328164,-0.07745357,0.07445806
1.001212,-0.1702602,-0.2414396,0.3421095,-0.02947047,0.1030271
1.00519,-0.1783256,-0.2210854,0.1999171,-0.01098839,0.05239674
1.00358,-0.1772804,-0.1915762,0.1392458,-0.03590277,-0.01455901
0.9895327,-0.1751837,-0.1767011,0.1217047,-0.07135283,-0.0180253
0.9817952,-0.181529,-0.200405,0.1457657,-0.1146842,0.007148976
0.9994674,-0.1874375,-0.2286901,0.2484558,-0.1065128,0.01929489
1.022076,-0.1906214,-0.2307836,0.2522735,-0.05692822,-0.001762213
1.010319,-0.185099,-0.2287986,0.1967054,-0.02560413,-0.02731032
0.990881,-0.1772704,-0.2333172,0.1243728,0.01177651,-0.01815013
0.9853852,-0.1852196,-0.2385485,0.06217796,-0.009873005,-0.004516964
0.9824679,-0.1951894,-0.2460285,0.08925653,-0.03431753,0.00967278
1.001361,-0.1984254,-0.2549158,0.1132839,0.07889683,0.0246644
1.019108,-0.1991705,-0.2538499,0.1772282,0.2310649,0.01284094
1.014161,-0.1964981,-0.2409694,0.2504244,0.312462,-0.0020336
1.011561,-0.1969149,-0.2327565,0.2319517,0.2912009,-0.02028592
1.002679,-0.1949886,-0.2330029,0.1671261,0.243438,-0.06748246
0.9919995,-0.1893705,-0.2253858,0.04835396,0.206002,-0.09599303
0.9978593,-0.1833968,-0.2148516,0.01106836,0.09238637,-0.07165949
1.00564,-0.1732591,-0.2299191,0.08455894,0.05955695,-0.03176827
1.006267,-0.1727248,-0.2516695,0.106146,0.1209711,-0.006363864
1.004331,-0.1783138,-0.2447012,0.09163575,0.1014091,-0.005661804
1.001451,-0.1775114,-0.2322441,0.0754075,0.1079164,-0.01639376
0.9943119,-0.181118,-0.2272121,0.06975931,0.1148184,-0.009225418
0.9912062,-0.1822536,-0.2210942,0.06352572,0.07186387,-0.006084801
0.9948138,-0.1786144,-0.2222937,0.04125805,0.09027146,-0.01439962
0.99487,-0.1814108,-0.2232168,0.04022972,0.09185283,-0.007799083
0.9955603,-0.1813196,-0.2287048,0.03047251,0.07814532,-0.00733955
0.9979276,-0.1812433,-0.2378322,0.01650467,0.09662824,-0.005546148
1.000207,-0.1856428,-0.2295005,0.02012006,0.08716514,0.009823769
1.004278,-0.1866172,-0.2174513,0.01609934,0.08303268,0.01319522
1.005915,-0.1894108,-0.2090507,0.003800269,0.07137168,0.0156031
0.9981334,-0.1899415,-0.2084509,-0.01255822,0.0388703,0.01745904
0.9849848,-0.1865544,-0.2188653,-0.01556975,0.0260903,0.02100626
0.9819795,-0.1878775,-0.2184355,-0.012821,0.02031984,0.02965912
0.9817412,-0.1876624,-0.2208375,-0.02034838,0.02463811,0.02443648
0.9860109,-0.1878212,-0.2324497,-0.02826902,0.02973789,0.02245366
1.00225,-0.193701,-0.2358569,-0.0332065,0.04325914,0.019174
1.0032,-0.2007235,-0.231083,-0.01435508,0.081646,0.004230709
0.9987759,-0.2046636,-0.2171915,0.01369364,0.1097282,-0.006142892
1.002712,-0.199962,-0.2156385,0.01766051,0.1081954,-0.009745786
0.9912616,-0.1938281,-0.2232685,0.02660505,0.08602858,0.001315804
0.9833608,-0.1948217,-0.2213705,0.0416326,0.07684452,0.008705249
0.9914882,-0.2036655,-0.2258659,0.02661222,0.07281822,0.00212825
0.9949126,-0.2168204,-0.2268949,0.01845815,0.05966246,0.001344996
0.9947419,-0.218733,-0.2249014,0.04866963,0.04944431,0.0003321734
0.9892987,-0.2140887,-0.227291,0.06425449,0.02575295,-0.001848703
0.9817852,-0.2099169,-0.2212557,0.04046731,0.04364764,-0.00112979
0.9846028,-0.1995166,-0.2203705,0.01825742,0.07890737,0.001524262
0.9883976,-0.2009341,-0.2205996,0.02448067,0.04992858,0.00356859
0.9878516,-0.2099166,-0.2099547,0.02937452,0.03844848,0.001977149
0.9889553,-0.2142927,-0.1965667,0.02191416,0.04302463,0.009134967
0.9875785,-0.2320854,-0.186383,0.05167327,0.01691171,0.01804925
0.9860061,-0.2418604,-0.1893252,0.1052923,0.007791696,0.01610863
0.9926768,-0.2279129,-0.2066098,0.1157593,0.007044978,0.005629258
0.9981836,-0.2058695,-0.2244982,0.09210293,0.008092277,-0.0061672
0.9964458,-0.1744281,-0.2281855,0.06955335,0.01797827,-0.00252674
0.9988127,-0.1649348,-0.2496188,-9.884456e-05,0.06312698,0.002370048
1.007621,-0.1840878,-0.2914619,-0.1050523,0.1387654,-0.004876958
1.009412,-0.1893086,-0.2761183,-0.1320249,0.1362279,-0.007820327
0.9943656,-0.1943903,-0.2291561,-0.1185786,0.0405858,-0.008859448
0.9759687,-0.2074264,-0.2107695,-0.1025974,-0.08234404,0.0008945897
0.9753032,-0.2012848,-0.2042565,-0.05079142,-0.1367743,0.02315627
0.9910493,-0.1911516,-0.2312626,-0.05758876,-0.02270938,0.02765849
1.007275,-0.1908107,-0.2687596,-0.09718917,0.1203805,0.02547333
1.013076,-0.1938646,-0.2723945,-0.05187313,0.1581675,0.04726003
1.006702,-0.1980058,-0.2666281,0.1107207,0.2243746,0.1107957
0.9899225,-0.1917164,-0.2488673,0.2862204,0.2955967,0.1956685
0.9607039,-0.1839207,-0.233536,0.1894515,0.1766225,0.2165633
0.9285264,-0.1912477,-0.2319673,-0.05181342,-0.05570641,0.1802598
0.926381,-0.2026871,-0.2136801,-0.1268511,-0.1788109,0.165525
0.9653361,-0.2118918,-0.1977941,-0.1538933,-0.1448208,0.1489103
1.003809,-0.2148063,-0.2096053,-0.1179364,-0.09334708,0.1293928
1.004533,-0.207723,-0.2208694,-0.06568344,-0.1039288,0.121324
0.9940608,-0.1957627,-0.1995838,-0.1985354,-0.1426393,0.07510069
1.003606,-0.1737345,-0.196746,-0.3128549,-0.3348468,0.04541923
1.01433,-0.1661157,-0.2631713,-0.3026875,-0.5087601,0.07337273
1.027343,-0.1947413,-0.315725,-0.2243641,-0.2115958,0.08333667
1.042702,-0.2189041,-0.2796975,-0.1172324,0.2172131,0.06522773
1.039045,-0.2184516,-0.2365329,-0.04967211,0.3083465,0.03331837
1.036578,-0.2100183,-0.2573654,0.06631588,0.2953943,0.003138505
1.025969,-0.2004103,-0.2582464,0.09626396,0.2218094,0.02685443
0.9792487,-0.1954671,-0.2409613,-0.1138328,-0.003354944,0.06058549
0.9442608,-0.1961411,-0.2613246,-0.3065382,-0.1269305,0.04126475
0.9751303,-0.1993878,-0.2403311,-0.1754567,-0.003222122,0.02592325
1.017807,-0.2006254,-0.2181584,0.05961365,0.190213,0.03067879
1.003255,-0.1997142,-0.2372371,0.0095344,0.2119362,0.01199668
0.9988592,-0.1895016,-0.2289568,-0.02918085,0.08206057,-0.001890663
1.019516,-0.176376,-0.2290757,-0.003378372,-0.004753856,-0.01046697
1.005485,-0.1997746,-0.2319607,-0.09507313,0.07179497,-0.02224879
0.993047,-0.2385129,-0.2191148,-0.01814058,0.161027,-0.02780798
0.9725418,-0.2439049,-0.2184306,0.01231246,0.03198093,-0.05491219
0.9472769,-0.2293093,-0.2120068,-0.1313267,-0.1526916,-0.07132497
0.9578754,-0.2141406,-0.2019463,-0.1373767,-0.4225456,-0.06812212
0.9603903,-0.2105789,-0.1916725,0.06723356,-0.9969117,-0.04239585
0.9718089,-0.2189489,-0.2260449,0.3056211,-1.350965,0.008690123
0.9936851,-0.2223919,-0.3036647,0.153968,-1.030302,-0.02421866
0.9818238,-0.2190026,-0.331928,-0.0434082,-0.6741899,-0.09454251
0.9628009,-0.2115171,-0.3281421,0.08985662,-0.7708818,-0.0981333
0.944218,-0.2063965,-0.3502046,0.08953815,-0.6656721,-0.07760735
0.9497408,-0.2075558,-0.3841441,0.08140988,-0.2600368,-0.03568725
0.9693896,-0.2144324,-0.3835269,0.1820413,-0.09150846,0.0002859137
0.9522793,-0.2251749,-0.3604023,0.1817936,0.1552593,0.02372532
0.9494585,-0.2304477,-0.3599334,0.2450987,0.4253267,0.03450352
0.9661245,-0.2320271,-0.346871,0.2578511,0.4924969,0.002483695
0.9638796,-0.2325727,-0.3275329,0.175002,0.6493982,0.01105487
0.9642022,-0.2326908,-0.3213645,0.1496933,0.6583395,0.01896073
0.961915,-0.2357397,-0.3002637,0.1376374,0.6122481,-0.02208546
0.9697062,-0.2362881,-0.2835026,0.1401058,0.681264,-0.05074158
0.9855595,-0.2324446,-0.2604598,0.09876184,0.586956,-0.109769
0.9784261,-0.2236195,-0.2420836,0.06141933,0.4723519,-0.131184
0.9756981,-0.2137624,-0.255125,0.06286283,0.3231385,-0.09033273
0.9800887,-0.2084139,-0.257486,0.03085058,0.1695866,-0.07815402
0.9791638,-0.2024324,-0.2506815,0.05458234,0.1431004,-0.06485797
0.9848328,-0.1996314,-0.2424563,0.0748141,0.07489995,-0.06594813
0.9890426,-0.2014184,-0.2346959,0.08268675,0.06975534,-0.06201531
0.9889798,-0.2011222,-0.2435586,0.1145079,0.07289233,-0.037128
0.9901813,-0.2017286,-0.2479168,0.08370753,0.01773271,-0.04430062
0.996229,-0.1977051,-0.2518429,0.08832452,0.06256172,-0.03406617
0.9976795,-0.1898915,-0.2541457,0.08910008,0.05936408,-0.02012008
0.9927482,-0.1945083,-0.2482462,0.06160032,0.04233857,-0.03392513
0.9910131,-0.2039673,-0.2486607,0.08607065,0.07454239,-0.03479704
0.9833102,-0.2079645,-0.2353042,0.06604347,0.05119261,-0.02679419
0.981231,-0.2078628,-0.2203798,0.05920494,0.06298625,-0.01955404
0.9875015,-0.2012558,-0.2291523,0.06797968,0.06072675,-0.02235381
0.9865736,-0.1976422,-0.2339738,0.04580566,0.03127382,-0.02890197
0.987975,-0.1969328,-0.2289176,0.06278393,0.04215528,-0.02798357
0.9889407,-0.1938185,-0.2300285,0.05409532,0.02421537,-0.02604836
0.9881838,-0.1923491,-0.230822,0.04389656,0.02527311,-0.0213305
0.9900601,-0.1897944,-0.2280408,0.04897369,0.02897209,-0.02025431
0.9894809,-0.1949578,-0.2287757,0.03191508,0.008299781,-0.0182875
0.9925539,-0.2036941,-0.2281496,0.04266339,0.01995378,-0.01352452
0.995081,-0.2022801,-0.2250011,0.0396749,0.01626713,-0.01240143
0.9942192,-0.1991637,-0.226797,0.03499277,0.0159693,-0.01284381
0.9956904,-0.1956404,-0.2277914,0.04283116,0.0253003,-0.01355629
0.99537,-0.1930688,-0.2273624,0.02513429,0.01368698,-0.00823292
0.9930439,-0.1900937,-0.2282116,0.01770023,0.00925075,-0.004296689
0.9898192,-0.1850753,-0.2264857,0.00781166,-0.006036812,-0.004037888
0.9885495,-0.1891065,-0.2261252,0.002348801,-0.01533653,0.001930949
0.9900026,-0.1951854,-0.2264087,0.009152986,-0.01310702,0.005469982
0.9914656,-0.199544,-0.2261771,0.003782011,-0.0171365,0.001318098
0.9953426,-0.2021856,-0.2297837,0.008474355,-0.007742241,-0.003719576
0.9950864,-0.1987723,-0.2349858,0.008484169,-0.007978231,-0.004009924
0.990532,-0.200965,-0.2373104,0.005641618,-0.01150059,-0.004382392
0.9905524,-0.2035138,-0.2369854,0.01208942,-0.007547899,-0.002417722
0.9905385,-0.2009757,-0.2368936,0.00989641,-0.01623183,0.006510081
0.9897484,-0.2015979,-0.232741,0.01010609,-0.02263175,0.009756525
0.990502,-0.2002797,-0.2280142,0.009740296,-0.02800371,0.0120562
0.9890973,-0.1994985,-0.2307698,0.008700882,-0.03052164,0.01600629
0.9877656,-0.2004977,-0.2323254,0.009822901,-0.02655154,0.01364241
0.9887822,-0.1997213,-0.2331175,0.005014413,-0.02770798,0.01682998
0.9917482,-0.201553,-0.2355222,0.004211137,-0.02375716,0.02084113
0.9939924,-0.2041261,-0.234085,0.006643544,-0.02058715,0.0180001
0.9919801,-0.2086867,-0.2346191,0.0103495,-0.01751912,0.01591382
0.9899587,-0.2139039,-0.2343735,0.01342877,-0.00849483,0.01187935
0.9901878,-0.2144291,-0.2326087,0.01417306,-0.01240569,0.009379989
0.9893549,-0.2131344,-0.2359915,0.01640976,-0.0185673,0.009797228
0.988385,-0.2095436,-0.238132,0.01475601,-0.01800886,0.007891708
0.9881856,-0.2045138,-0.237642,0.01456786,-0.02155278,0.008569683
0.9880293,-0.202161,-0.2367601,0.01341197,-0.02423776,0.01174691
0.9884786,-0.2027017,-0.2371237,0.005463875,-0.03035859,0.01358749
0.9889482,-0.2031941,-0.2395623,-0.001128785,-0.03574542,0.014813
0.9888361,-0.2020111,-0.2402679,-0.006052101,-0.03099526,0.01520923
0.9883232,-0.2011587,-0.2436293,-0.008349331,-0.02857323,0.014254
0.9889092,-0.1995861,-0.2457394,-0.01498868,-0.02700138,0.01254689
0.9913784,-0.1994564,-0.2421356,-0.0236747,-0.02308311,0.01180808
0.9929817,-0.200768,-0.2419645,-0.02296162,-0.02519943,0.01142277
0.993243,-0.2004696,-0.2412247,-0.02569226,-0.02957574,0.007758806
0.992992,-0.2043941,-0.2367108,-0.02770249,-0.03543566,0.003414019
0.9917273,-0.2087128,-0.2341129,-0.02238512,-0.04423711,0.004985432
0.9906499,-0.206303,-0.231249,-0.02191565,-0.0536804,0.008942434
0.9903197,-0.2029849,-0.2307053,-0.01758751,-0.06489596,0.01122683
0.992301,-0.2022,-0.2348651,-0.006279933,-0.07073107,0.01324703
0.9957314,-0.2028812,-0.2373157,0.003344007,-0.0649486,0.01035575
0.9970325,-0.2033788,-0.2384805,0.01319744,-0.05717349,0.004328531
0.9997869,-0.2041039,-0.2419154,0.02527256,-0.05413217,-0.0018608
1.005115,-0.2056966,-0.2444184,0.03572369,-0.046434,-0.01622431
1.007185,-0.2070065,-0.2449229,0.0397307,-0.02544105,-0.03555983
1.006541,-0.2125443,-0.2458484,0.04808878,0.005245602,-0.05378634
1.006586,-0.2191115,-0.2463669,0.06022309,0.03160525,-0.07113669
1.003987,-0.2167648,-0.2465889,0.06500612,0.04525582,-0.08137109
0.99829,-0.2120189,-0.251038,0.07570338,0.05159401,-0.08841931
0.9941972,-0.2097753,-0.2558634,0.08343295,0.04785985,-0.1014925
0.9886152,-0.2028854,-0.2526823,0.07766062,0.03591639,-0.1113113
0.9809821,-0.1951451,-0.2498231,0.07939677,0.0252466,-0.108759
0.9771076,-0.1906592,-0.2534553,0.08119828,0.01701861,-0.1042653
0.9759645,-0.1854149,-0.2562089,0.07670483,0.01923922,-0.09703978
0.9759509,-0.1797983,-0.2581542,0.07389431,0.02075706,-0.07559018
0.9758408,-0.170427,-0.2588002,0.05744349,0.01229947,-0.05351281
0.9760434,-0.1576036,-0.2560298,0.0278989,0.009540394,-0.03840452
0.9828443,-0.1545218,-0.254815,-0.004274162,0.00021676,-0.02780679
0.993448,-0.1614563,-0.2549785,-0.0364376,-0.01070919,-0.02028066
0.9969123,-0.1670653,-0.2553585,-0.06191714,-0.003210995,-0.01059572
0.9957023,-0.1756097,-0.2583928,-0.08443306,0.0004548957,-0.01811638
0.9986922,-0.1876686,-0.259563,-0.09982363,-0.0002002641,-0.0301673
1.00093,-0.1907581,-0.2526231,-0.1003479,0.007435839,-0.02902007
0.9978446,-0.1908169,-0.2420109,-0.09054867,0.01567084,-0.04237001
0.9926034,-0.1919343,-0.2359729,-0.07105993,0.02815179,-0.05109137
0.9878017,-0.1873765,-0.2345389,-0.05127133,0.03426042,-0.04766078
0.9888649,-0.186001,-0.2368136,-0.03541784,0.02638813,-0.05345149
0.9934895,-0.1852963,-0.241353,-0.02241501,0.02326753,-0.05314898
0.9943378,-0.1788033,-0.2440467,-0.02228512,0.02155015,-0.05305713
0.9908083,-0.175548,-0.2491793,-0.02174229,0.01259505,-0.05118068
0.9856184,-0.1719174,-0.2540694,-0.02102213,0.005501386,-0.04061278
0.9856824,-0.1671579,-0.2514289,-0.03710425,-0.002176395,-0.03460197
0.9897459,-0.1667157,-0.2480706,-0.04680464,-0.00952726,-0.02875982
0.9907059,-0.1652112,-0.2452019,-0.04744455,-0.01375442,-0.03105591
0.9916829,-0.1663912,-0.2437813,-0.05365795,-0.02397704,-0.03870675
0.996356,-0.1757769,-0.2437774,-0.04796248,-0.02988415,-0.04363468
1.001424,-0.1849153,-0.2394125,-0.02643947,-0.01960996,-0.0553095
0.9987806,-0.188523,-0.2427799,-0.002947935,-0.004280249,-0.06416365
0.9913209,-0.190884,-0.250178,0.003785473,0.004001962,-0.06701514
0.9878421,-0.1870547,-0.2511288,-0.004010241,0.001713198,-0.06047232
0.9826089,-0.1750134,-0.2573349,9.016423e-05,-0.001047378,-0.03952961
0.9804221,-0.1728848,-0.2602083,0.01050897,0.001404804,-0.02079164
0.985968,-0.1789638,-0.2580866,0.0216857,-0.0003795473,-0.009487333
0.9867543,-0.1795274,-0.2610179,0.03769729,-0.004402124,-0.004717429
0.9861264,-0.1809466,-0.2582392,0.0434029,-0.00514554,-0.005519103
0.9882045,-0.1800933,-0.255162,0.04593207,-0.002949927,-0.005394586
0.9890247,-0.1740185,-0.2553454,0.05142922,0.00453232,-0.005032159
0.9896619,-0.1693716,-0.2538215,0.04614536,0.0103713,-0.002888366
0.9895735,-0.1631242,-0.2590361,0.03633547,0.01073977,0.002404826
0.9927288,-0.1554123,-0.2620383,0.02936398,0.01003687,0.009114104
0.996342,-0.1511399,-0.25576,0.02078001,0.00595,0.01270714
0.9974853,-0.1564711,-0.2486378,0.0133403,0.003418001,0.01258553
0.9995644,-0.1639058,-0.2423417,0.01217359,0.00740286,0.01605905
0.997829,-0.1616003,-0.2372231,0.01057057,0.0102764,0.0172579
0.9945148,-0.1573882,-0.2324936,0.003594428,0.006216457,0.01733021
0.9929718,-0.1502356,-0.2300739,-0.001030224,0.0006979377,0.0245558
0.9948527,-0.1442828,-0.2322376,-0.004465117,0.002842429,0.02793965
1.001813,-0.1495348,-0.2371205,-0.008790809,0.008482895,0.02777955
1.002844,-0.1534624,-0.2424815,-0.01119615,0.01615234,0.02944467
0.9961732,-0.1556757,-0.2443905,-0.01225211,0.02456598,0.02841116
0.9914497,-0.1594485,-0.2402813,-0.006018538,0.01913044,0.02990435
0.9940626,-0.1597237,-0.2331124,0.005398129,0.009670062,0.03041562
0.9976565,-0.1606551,-0.2347932,0.01417927,0.007764254,0.02375181
0.992854,-0.1631187,-0.2407858,0.01788456,-0.005286797,0.01967125
0.9891002,-0.1688963,-0.2391394,0.01870884,-0.02231808,0.02114098
0.9898089,-0.1730574,-0.2410437,0.02303913,-0.02504491,0.02238057
0.9916194,-0.1695591,-0.2449918,0.02453203,-0.03408356,0.02416131
0.9960262,-0.1659875,-0.2443202,0.02529834,-0.04342413,0.03423928
0.9936222,-0.1614048,-0.2452619,0.02813118,-0.02919961,0.050306
0.9899169,-0.157705,-0.2437167,0.01692044,-0.02265131,0.05889169
0.9928049,-0.1595054,-0.2393842,0.001675481,-0.02796998,0.06239146
0.9940723,-0.156578,-0.2363877,-0.006364992,-0.02406733,0.06612078
0.9952639,-0.1499131,-0.235964,-0.02128794,-0.03155544,0.06722389
0.9974612,-0.14543,-0.2380412,-0.04358271,-0.0365821,0.06935535
1.002483,-0.1414456,-0.2418519,-0.06307289,-0.02560165,0.06845275
1.007904,-0.1493995,-0.2468137,-0.07178228,-0.01161707,0.0637786
1.004371,-0.169382,-0.2422182,-0.07147139,0.0130219,0.0610199
1.001486,-0.1778849,-0.2323224,-0.06851871,0.01778551,0.05376381
1.00157,-0.1724008,-0.2280221,-0.06293922,-0.0005080081,0.04494277
0.9978045,-0.1704301,-0.2194766,-0.05898447,-0.005828453,0.04213948
0.9963114,-0.1733797,-0.2150287,-0.05441638,-0.0121196,0.04329081
0.9960918,-0.1738981,-0.2217854,-0.04473455,-0.01279367,0.04325775
0.9966662,-0.1764434,-0.2225039,-0.03515695,-0.003970594,0.03915093
1.00068,-0.1829365,-0.2214073,-0.02429565,-0.002201018,0.035132
1.002037,-0.1837242,-0.2232206,-0.01569806,0.008260691,0.02953986
1.000355,-0.1790815,-0.2215557,-0.01635696,0.01591081,0.02500219
0.9990401,-0.1744764,-0.2233698,-0.01856105,0.0153306,0.02437344
0.9971182,-0.1685166,-0.2285524,-0.02480568,0.01761733,0.02348547
0.9943964,-0.1641974,-0.234216,-0.03829972,0.009475955,0.02906369
0.993624,-0.1664038,-0.2376276,-0.04502328,0.005022451,0.03247216
0.9949898,-0.1721786,-0.2374882,-0.04967089,0.009170259,0.02851119
0.9944952,-0.1749795,-0.2407556,-0.06017892,0.008737048,0.02766379
0.9941844,-0.1792678,-0.2420708,-0.06671066,0.01626096,0.01889782
0.9963343,-0.1846475,-0.2463696,-0.07151497,0.02840597,0.007821225
0.9983869,-0.1837065,-0.2551605,-0.07452735,0.03993375,0.008332748
0.9999464,-0.1888152,-0.2494482,-0.07058369,0.05887034,0.008002412
0.9980293,-0.1963902,-0.2420655,-0.06323293,0.06965288,0.006281132
0.9939046,-0.1927603,-0.2411631,-0.04648897,0.06282468,0.006091149
0.9918383,-0.1918243,-0.233952,-0.02607848,0.060966,-0.001057148
0.9910245,-0.1926449,-0.2279923,-0.01536461,0.06881681,-0.01158885
0.9935723,-0.1825578,-0.2249294,-0.006904877,0.06882405,-0.0177112
0.9973078,-0.1677863,-0.2248378,-0.001177681,0.06600122,-0.02211046
0.9987417,-0.1597372,-0.2225907,-0.004598703,0.05963471,-0.02535761
0.9972184,-0.1614415,-0.2110157,-0.006910477,0.03977724,-0.02128895
0.9925029,-0.1631672,-0.2073451,0.0007675862,0.01248255,-0.01050085
0.9915308,-0.1657126,-0.2108361,0.01411982,-0.01776586,0.003011578
0.9926938,-0.1733219,-0.2164912,0.02745129,-0.03471192,0.009415624
0.9936495,-0.1738631,-0.2257606,0.03929802,-0.03823626,0.004442355
0.9973084,-0.1712698,-0.2243187,0.04727324,-0.04326677,0.003344138
0.997029,-0.1737401,-0.223499,0.04954838,-0.03897,0.001098651
0.9970112,-0.1721239,-0.2293945,0.04625969,-0.03561311,-0.006611729
1.000884,-0.1697066,-0.225653,0.04487198,-0.03891084,-0.003188873
1.001303,-0.1687579,-0.2189528,0.04729615,-0.03375626,-0.0007178727
0.9998563,-0.1633545,-0.2166871,0.04451046,-0.03206269,-0.003711382
0.9979224,-0.1592792,-0.2209525,0.03876821,-0.03341697,-0.0009088109
0.9983201,-0.1563474,-0.2285325,0.03010663,-0.03072562,-0.000750069
1.000423,-0.1551945,-0.2286192,0.01944765,-0.02480128,-0.0004289818
0.9996364,-0.1566233,-0.2317162,0.007063414,-0.01026207,0.001078095
1.000157,-0.1536034,-0.2375629,-0.01355684,-0.003302506,0.0009700937
0.9996856,-0.1555652,-0.2331501,-0.02361196,-0.009898768,0.006725105
0.9968275,-0.1617192,-0.2319682,-0.02686368,-0.0126654,0.01552436
0.9955102,-0.1617951,-0.2347878,-0.04120976,-0.009730759,0.02434228
0.9948954,-0.1654307,-0.2332115,-0.04493508,-0.00827304,0.02647493
0.9946097,-0.1715459,-0.2369698,-0.04492279,-0.007747533,0.02364924
0.9925114,-0.1732178,-0.2404842,-0.04988646,-0.005645555,0.02944973
0.9926862,-0.1733153,-0.2377134,-0.04217562,-0.006323826,0.03383217
0.9959039,-0.1769452,-0.2341687,-0.03753249,-0.01049939,0.03085206
0.9955881,-0.1864757,-0.2314589,-0.03404071,-0.01629319,0.03002603
0.9948932,-0.1889951,-0.235212,-0.02267409,-0.01988123,0.03191363
0.9934385,-0.1826161,-0.2413105,-0.02014066,-0.01747162,0.03686404
0.9918403,-0.1788528,-0.2435339,-0.01721859,-0.01963289,0.0404751
0.9919081,-0.1771066,-0.2444735,-0.01246199,-0.02550232,0.0386935
0.990245,-0.1751809,-0.2365394,-0.01152672,-0.02796218,0.03895373
0.993612,-0.1728114,-0.2234332,-0.007082142,-0.03313096,0.04431504
0.9986693,-0.1732515,-0.2222822,-0.006712093,-0.04502408,0.05150321
0.9974459,-0.1749385,-0.2229241,-0.004196599,-0.06199844,0.05937516
0.9972388,-0.1725188,-0.2171328,0.005752204,-0.0680577,0.06496495
0.9974872,-0.173149,-0.2192374,0.0134833,-0.06859731,0.06528182
0.9952838,-0.1782505,-0.2210795,0.02681447,-0.08106649,0.06233858
0.9953471,-0.1823703,-0.2178228,0.05451554,-0.08313698,0.05435427
0.9973296,-0.1843225,-0.2217867,0.08288822,-0.07548181,0.03906592
1.001368,-0.184219,-0.2284782,0.0929732,-0.06484305,0.02173832
1.010143,-0.1838599,-0.2370598,0.09411427,-0.02725886,0.004354496
1.014816,-0.17889,-0.2387587,0.0911687,0.009988878,-0.009220085
1.008896,-0.1667352,-0.2263195,0.06945499,0.02020974,-0.01276541
1.004076,-0.1536315,-0.2201553,0.0352786,0.02266544,-0.01267625
1.002267,-0.144001,-0.2220538,0.001537407,0.01811098,-0.008054255
0.9983587,-0.1398995,-0.2227051,-0.02049255,0.007040948,0.01028682
0.9978276,-0.1439134,-0.2225852,-0.03707236,-0.004034181,0.02682242
0.9974806,-0.1556554,-0.2224137,-0.05737426,-0.008380385,0.02420367
0.9954346,-0.1708927,-0.2252137,-0.06210349,-0.001781172,0.01683376
0.9960751,-0.1835607,-0.2279191,-0.05788722,0.003676315,0.01814658
0.9954806,-0.187971,-0.2338517,-0.05036365,0.01263011,0.01785624
0.9937575,-0.1906323,-0.2406817,-0.03072964,0.01820572,0.01536347
0.992553,-0.1951389,-0.2387513,-0.01884763,0.01248013,0.01638314
0.9907708,-0.1929342,-0.2321947,-0.01070559,0.01312232,0.01165545
0.9901924,-0.1910307,-0.2244928,0.0003467119,0.00902975,0.005338886
0.9903902,-0.1896924,-0.2243372,0.003474858,0.003453312,0.004626543
0.9924845,-0.1824298,-0.2270347,0.00591093,0.004634898,0.002594475
0.9958187,-0.1802994,-0.2214665,0.003354499,-0.005057443,0.0006295184
0.9971119,-0.1794104,-0.2207434,-0.00112482,-0.009216228,0.0008102727
0.9971728,-0.1769826,-0.219837,0.001436161,-0.005419997,0.002701056
0.9953632,-0.1796542,-0.2171418,-0.0007868913,-0.006056179,0.006991268
0.993898,-0.1805235,-0.2245356,-0.004641858,-0.00425372,0.01074673
0.9954082,-0.1818414,-0.2275082,-0.005196377,-0.005342852,0.008068342
0.9959391,-0.1826386,-0.2283299,-0.00802827,-0.006313389,0.0001784254
0.9940185,-0.1785712,-0.2344389,-0.008585688,-0.006247405,-0.001260645
0.9923151,-0.1791433,-0.2349591,-0.006932131,-0.005248133,-0.0004430112
0.993335,-0.1830753,-0.2361357,-0.005979719,0.000194543,-0.001492424
0.9953028,-0.1863993,-0.2387151,0.0007813877,0.0002029155,0.0008803771
0.9959926,-0.1891314,-0.2367862,0.008967867,-0.0007940893,0.0008114797
0.9961598,-0.1890425,-0.2353571,0.006635895,-0.001567958,-0.0002760228
0.99555,-0.1901862,-0.2335933,0.004578674,-0.004498586,-0.0007283111
0.9957961,-0.1899989,-0.2326193,0.01151195,-0.002943893,-0.0008110337
0.9961293,-0.186968,-0.2341015,0.0152225,0.0002804759,0.0008731455
0.9954981,-0.1873477,-0.2351074,0.01609324,0.00671183,-0.001706815
0.9960169,-0.187872,-0.2364505,0.01721083,0.01172754,-0.003846541
0.9958698,-0.1858852,-0.2356535,0.01519616,0.01030298,-0.004450994
0.9956306,-0.1812951,-0.2311095,0.01444938,0.01076483,-0.006464208
0.9955482,-0.1745815,-0.227474,0.01270333,0.0111608,-0.00525226
0.9929713,-0.1734579,-0.2261033,0.01053397,0.008368602,-0.003969351
0.9916118,-0.1746145,-0.2249136,0.01186186,0.005434941,-0.002267121
0.9949992,-0.1730657,-0.2247682,0.009944482,0.002974678,-0.001758587
0.9987813,-0.1751567,-0.2271424,0.007579873,0.001657735,-0.006059054
0.9971456,-0.1757315,-0.2284852,0.01087019,0.001205611,-0.006420193
0.9943759,-0.1725019,-0.2275517,0.01780274,-0.00125711,-0.003724666
0.9953893,-0.1736533,-0.226287,0.02547758,-0.004828664,-0.005009125
0.9979013,-0.1751171,-0.220781,0.02718154,-0.002115331,-0.006380231
1.002291,-0.1747652,-0.2143421,0.0283943,0.004118525,-0.009528223
1.004294,-0.174956,-0.216094,0.03449474,0.009539632,-0.01731352
1.003473,-0.1730476,-0.2191725,0.03289446,0.0175146,-0.02220834
1.004716,-0.1716233,-0.2182145,0.0297559,0.01855067,-0.02455647
1.003153,-0.1720281,-0.2207547,0.0312169,0.01213189,-0.02392748
1.001621,-0.1717058,-0.2217543,0.02428861,0.01077913,-0.01771034
1.001666,-0.1712106,-0.2165965,0.01734362,0.008338115,-0.01592675
0.9990842,-0.1713858,-0.2161532,0.0151999,0.001487148,-0.01442634
0.9998016,-0.1706838,-0.2178272,0.01026631,-0.002308423,-0.00750562
1.000698,-0.1685357,-0.2167456,0.007014716,-0.0005948595,-0.004733944
0.9993648,-0.1679253,-0.2211718,0.004192057,0.006137863,-0.005182896
1.000667,-0.1698113,-0.2251473,0.002076005,0.01057844,-0.005913315
1.00181,-0.1741904,-0.2217182,0.002590111,0.01246241,-0.006846343
1.003089,-0.1780041,-0.2199923,0.003954865,0.01567499,-0.008524246
1.003108,-0.176171,-0.2229083,0.007214215,0.01563849,-0.00971227
1.000875,-0.1737407,-0.2237895,0.009386637,0.01483506,-0.006687256
0.9996487,-0.173361,-0.2185833,0.01060153,0.01239665,-0.005141944
0.9980554,-0.17148,-0.2104487,0.01263394,0.002287841,-0.003411245
0.9982657,-0.170451,-0.2074166,0.0146271,-0.006592849,-0.001567106
0.9992736,-0.1709452,-0.2148211,0.01072394,-0.006849139,-0.002802148
0.9981693,-0.1718272,-0.2256115,0.003688762,-0.006342047,0.003725312
0.9989994,-0.1714913,-0.2274714,0.005920508,-0.00572946,0.008852461
1.000854,-0.1666129,-0.2214328,0.006525646,-0.0001572936,0.003489668
1.002463,-0.1612946,-0.2149635,0.0005122419,0.001117665,0.001678448
1.003521,-0.1616734,-0.2124427,-0.001162528,2.077579e-05,0.00125344
1.002409,-0.1637496,-0.2148429,-0.001560268,0.002993564,0.00037958
1.002478,-0.1630368,-0.2179319,-0.002018682,-0.001088041,0.004606572
1.002096,-0.1643141,-0.219675,-0.003544765,-0.006368501,0.005670538
0.9998444,-0.1673442,-0.2181245,-0.006884901,-0.007074528,0.004832828
0.9998048,-0.1681808,-0.2144581,-0.0101204,-0.01195513,0.006239305
1.00015,-0.1687289,-0.2142966,-0.01153867,-0.01497352,0.008082566
0.9998986,-0.1686629,-0.2119932,-0.007059633,-0.01684633,0.01337194
1.000099,-0.1696352,-0.206307,-0.004524785,-0.02187994,0.01354401
1.000084,-0.1710392,-0.2072441,-0.005620649,-0.02581581,0.01004001
1.000772,-0.1703796,-0.2132296,-0.005868814,-0.02880917,0.01304779
1.000777,-0.1710169,-0.2175026,-0.009011038,-0.02384368,0.01249358
0.9997623,-0.1693109,-0.217344,-0.01038809,-0.01482835,0.009932759
0.9997881,-0.1651019,-0.2141226,-0.01086718,-0.01384179,0.01011971
1.000576,-0.163296,-0.2116608,-0.01558827,-0.01269385,0.007856773
1.00177,-0.1636343,-0.2089523,-0.01892371,-0.01113094,0.007311641
1.003357,-0.1664214,-0.2093949,-0.02005292,-0.01323232,0.002510384
1.004224,-0.1676137,-0.2142848,-0.02286923,-0.008128773,-0.005434318
1.004854,-0.1690456,-0.2177802,-0.02369538,0.006092321,-0.005164962
1.006255,-0.1716381,-0.2201691,-0.0214914,0.02450234,-0.006768504
1.00657,-0.1690239,-0.2182348,-0.02294572,0.03658358,-0.0137508
1.005852,-0.1672361,-0.215251,-0.02528551,0.03641363,-0.01743093
1.002285,-0.1698667,-0.2194208,-0.02956977,0.03557714,-0.01679016
0.994023,-0.1741938,-0.2223657,-0.03502291,0.03280908,-0.01074071
0.988986,-0.1805344,-0.222857,-0.02527657,0.02567236,-0.004937828
0.9878951,-0.1862476,-0.223698,-0.01159553,0.01557564,-0.003109226
0.9867006,-0.1887631,-0.2220488,-0.009043816,-0.005197531,0.003352935
0.9885628,-0.1867971,-0.2221499,-0.003931966,-0.0256811,0.01051896
0.9913126,-0.1831398,-0.2218323,0.003508024,-0.036588,0.01106366
0.9934182,-0.1804646,-0.2215302,0.004811111,-0.04405208,0.01659169
0.9930896,-0.1788236,-0.2215561,0.005769513,-0.05382597,0.02782243
0.9908792,-0.176487,-0.2137683,0.01069443,-0.06685805,0.03102441
0.9954384,-0.1712187,-0.2070143,0.01351336,-0.06818318,0.03125177
1.002516,-0.1700668,-0.2095535,0.01114842,-0.05569075,0.03221455
1.007838,-0.1718087,-0.2120973,0.007552688,-0.03643961,0.02344377
1.013682,-0.1692667,-0.2137521,0.001413609,-0.01150926,0.006200355
1.015504,-0.1690309,-0.223332,-0.004714552,0.003494733,-0.01153928
1.014875,-0.1702032,-0.2323328,-0.007224477,0.01384589,-0.02259821
1.011615,-0.168921,-0.2246256,-0.01123201,0.03431795,-0.03056259
1.002795,-0.1674608,-0.2121786,-0.01362876,0.04241016,-0.03845071
0.9917409,-0.1648115,-0.2097723,-0.01095591,0.02206605,-0.02948025
0.983277,-0.1651535,-0.2109086,-0.008259113,-0.01083264,-0.01241016
0.9845627,-0.1649343,-0.2116639,-6.11171e-05,-0.03919232,0.001293733
0.9919608,-0.1621507,-0.2125019,0.01082925,-0.05648315,0.01960361
0.9996844,-0.1646213,-0.217766,0.009871621,-0.05825452,0.02541273
1.006668,-0.1648417,-0.2244585,0.01028091,-0.04841908,0.02466165
1.006707,-0.1649478,-0.2199304,0.0180054,-0.04204887,0.02768122
1.006823,-0.1709586,-0.214539,0.01482954,-0.03442065,0.01827553
1.009584,-0.1709845,-0.2183961,0.008207379,-0.01346668,0.008755845
1.005703,-0.167477,-0.2224098,0.00392245,0.007488125,-0.0002161276
1.002672,-0.1653501,-0.2256995,-0.00304366,0.01480888,-0.009208192
1.002972,-0.1644738,-0.2253558,-0.00325499,0.01694886,-0.006321092
1.002061,-0.1675239,-0.2218682,-0.005120838,0.02811544,-0.01006426
1.002137,-0.1694443,-0.2236263,-0.01724774,0.03545177,-0.01629028
1.000031,-0.1713349,-0.2225991,-0.02498027,0.02636636,-0.01506272
0.9979934,-0.1716399,-0.2188254,-0.02324079,0.0118247,-0.01751454
0.9971716,-0.1697148,-0.2202789,-0.01874206,-0.01014632,-0.0154268
0.9948997,-0.1712651,-0.2214274,-0.01354434,-0.02422213,-0.007531813
0.995781,-0.1700672,-0.2238124,-0.006239753,-0.01901946,-0.0005208081
0.996946,-0.1694336,-0.2250482,0.0001209296,-0.02037606,0.006500213
0.9981125,-0.1745264,-0.2220938,0.005235134,-0.0215448,0.009350007
1.002012,-0.1774882,-0.2232063,0.008520249,-0.01400576,0.005139191
1.001996,-0.1768971,-0.2234843,0.006953455,-0.01184024,-0.002346127
1.000653,-0.1755747,-0.222781,0.008565669,-0.009005304,-0.008991694
1.001762,-0.1764062,-0.2248558,0.009438574,-0.0009467868,-0.01967898
1.001406,-0.1758171,-0.2236383,0.00503824,0.01248528,-0.02669244
1.000988,-0.1727171,-0.2232248,0.001653816,0.02130753,-0.01840205
1.000722,-0.1719761,-0.2225302,-0.004306886,0.01657353,-0.009543404
0.9987212,-0.1706954,-0.221034,-0.002519818,0.01429322,-0.003081589
0.9954115,-0.1721276,-0.2235207,0.003162324,0.01309955,0.002305968
0.992885,-0.1750026,-0.2235323,-0.0003313619,0.006252797,-0.006039291
0.9967837,-0.1730383,-0.2226212,0.001578431,0.006283805,-0.01495556
1.002421,-0.1722471,-0.2198948,0.004235438,0.008386588,-0.0142639
0.9994295,-0.1715549,-0.2141694,0.004286535,0.00315031,-0.01169509
0.9950238,-0.1700551,-0.2124135,0.008079474,-0.005502984,-0.006579708
0.9950875,-0.1713053,-0.209025,0.009964267,-0.01690706,-3.213653e-05
0.9963752,-0.171647,-0.2091371,0.01354481,-0.02523345,0.01127234
1.000151,-0.1708155,-0.2159611,0.009861788,-0.02682067,0.01990772
1.001275,-0.1682099,-0.2172444,0.003951918,-0.02768495,0.01434333
1.001942,-0.1655931,-0.2166352,0.0109014,-0.02131172,0.009183938
1.00693,-0.1675687,-0.215415,0.01403295,-0.007021937,0.003769216
1.006841,-0.1685761,-0.2120128,0.01189411,0.002677646,-0.007760862
1.00321,-0.1653157,-0.2089843,0.0112256,0.005529535,-0.008986594
0.9986679,-0.1619887,-0.2060872,0.006118686,-0.001190118,-0.002644307
0.9945478,-0.1607213,-0.2107374,0.0009649741,-0.01132939,0.002161847
0.9975734,-0.1636273,-0.2175042,-0.0003102822,-0.01319811,0.007452318
1.000572,-0.1694234,-0.2205902,0.000772076,-0.01275906,0.008921723
1.001633,-0.1717191,-0.2240283,0.0005938922,-0.01034275,0.006638899
1.002133,-0.1691327,-0.2190196,-0.000291607,-0.00511462,0.002693972
1.000318,-0.1669572,-0.2124365,-6.445192e-06,-0.005392046,-0.0006740893
1.000882,-0.1679478,-0.2166843,-0.001071907,-0.007591193,0.001563653
1.000158,-0.1675407,-0.22055,-0.002769331,-0.00785002,0.004324435
1.000329,-0.164593,-0.2216279,-0.006071219,-0.009282671,0.004445488
1.003407,-0.1632943,-0.224566,-0.00971454,-0.009941629,0.006623812
1.00269,-0.162258,-0.2231446,-0.01201778,-0.008493084,0.007660535
1.0028,-0.1621794,-0.2196557,-0.01485534,-0.006537515,0.004351876
1.003993,-0.164007,-0.2162435,-0.01468525,-0.003461244,0.002521156
1.003874,-0.1638943,-0.2085932,-0.01318429,-0.002148353,0.003474657
1.00334,-0.1638354,-0.2064176,-0.01452809,-0.004713296,0.003642117
1.000549,-0.1644423,-0.2103879,-0.01501351,-0.004705169,0.004302685
1.000279,-0.1657415,-0.2115555,-0.0160276,-0.002441698,0.005326235
1.002089,-0.1692398,-0.2153159,-0.0200395,-0.0007405205,0.004582665
1.002327,-0.170666,-0.2189256,-0.0209228,0.003805396,0.003173574
1.0029,-0.1718057,-0.2210566,-0.01721406,0.004796128,0.002549251
1.002196,-0.1744515,-0.2244679,-0.01197298,9.266558e-05,0.002933178
0.999075,-0.1739851,-0.2205855,-0.006429228,-0.002885426,0.002112181
0.9965274,-0.172973,-0.2139375,-0.00297092,-0.004629285,-0.002901474
0.998588,-0.173538,-0.2103414,0.0006644859,-0.004860283,-0.00856076
1.001746,-0.1719604,-0.2112516,0.004075634,-0.006749317,-0.006791872
1.001539,-0.1699737,-0.2188018,0.004412888,-0.01205399,-0.0009290071
1.002806,-0.1704913,-0.2234309,0.005320623,-0.01068361,6.889955e-05
1.002914,-0.1696246,-0.2240569,0.006460981,-0.004493896,-0.001043276
0.9984396,-0.1678558,-0.2178981,0.007725367,-0.001217559,-0.001750534
0.9963156,-0.1685717,-0.2074927,0.00825321,-0.002033571,-0.003163673
0.9971333,-0.167312,-0.2094591,0.006617097,-0.007080807,-0.003259681
0.997885,-0.1646167,-0.2107628,0.008281328,-0.009992978,-0.003531338
0.9989859,-0.1644096,-0.2061504,0.009998813,-0.01011986,-0.005499527
1.000649,-0.1643271,-0.2090184,0.01131376,-0.009477533,-0.007225639
1.002282,-0.1662066,-0.208743,0.01536654,-0.003922542,-0.006003847
1.002808,-0.169294,-0.2063373,0.01406637,0.003775322,-0.003678983
1.003065,-0.1683707,-0.2081351,0.01073026,0.008110486,-0.004279755
1.00271,-0.1682213,-0.2101901,0.01053456,0.00601541,-0.005308508
1.001968,-0.1702905,-0.217355,0.0103571,0.0002052953,-0.006474207
1.000494,-0.1692428,-0.2215903,0.01078534,-0.0038492,-0.007038031
0.9977329,-0.1675779,-0.2178316,0.007579588,-0.003922557,-0.005081312
0.9991282,-0.1653792,-0.2164103,0.0030521,0.000780824,-0.00578597
1.000659,-0.1618497,-0.2168434,0.002077357,0.00237998,-0.008488382
0.9967527,-0.1620695,-0.2165474,-0.0004520753,-0.0004781274,-0.01116828
0.9949397,-0.1632989,-0.2166939,-0.0016454,-0.001392686,-0.0113746
0.9959193,-0.1630284,-0.2166902,0.00164065,-0.00109816,-0.005723832
0.9960327,-0.1645458,-0.2166558,0.004295304,0.00255646,-0.002005972
0.9963187,-0.165975,-0.2166365,0.005183049,0.006710058,0.0003414797
0.998345,-0.1662256,-0.2176124,0.004337818,0.006968623,0.0009009009
1.00105,-0.1642913,-0.2210956,0.003434496,0.005330701,-0.005457862
1.000202,-0.1603738,-0.2231832,0.00599325,0.003201447,-0.006186988
0.9993086,-0.1608941,-0.2152672,0.008714399,0.003438618,-0.003186963
1.000515,-0.1640777,-0.205877,0.009383696,0.00292403,-0.005151663
0.9998883,-0.165744,-0.2092283,0.010398,0.002079874,-0.004412657
0.9998038,-0.1670688,-0.2125252,0.009553144,0.004735832,-0.003992802
1.00065,-0.164997,-0.2107662,0.007589399,0.006642316,-0.006163666
1.001569,-0.1623878,-0.2148673,0.008500661,0.007099372,-0.007013738
1.003034,-0.1622538,-0.2154911,0.009700318,0.00650803,-0.007430899
1.001269,-0.1598959,-0.21389,0.007364974,0.005005544,-0.003826087
0.9992685,-0.1590408,-0.2176965,-0.001083918,0.003849266,-0.0001648568
1.001895,-0.1612013,-0.2143121,-0.009820525,0.004455124,-0.002196725
1.003583,-0.1609233,-0.2103842,-0.008908477,0.006127929,-0.002142952
1.001477,-0.1592154,-0.2137581,-0.007466758,0.003131155,0.003355961
0.9999796,-0.1578723,-0.2143594,-0.01051138,-0.0005374452,0.009181421
0.9999245,-0.1585582,-0.2144345,-0.007685114,-0.0008679706,0.00965325
1.000489,-0.1611638,-0.2115503,-0.003819271,-0.00165193,0.002226611
1.002757,-0.1612773,-0.2060094,-0.002216057,-0.001998194,-0.004177982
1.004782,-0.1594046,-0.2078032,-0.001518017,-0.002152747,-0.002119973
1.003022,-0.1591746,-0.2106789,-0.00506302,-0.002358933,0.001643806
0.9992623,-0.1607024,-0.2123551,-0.003193732,-0.003856037,0.003591043
0.9984836,-0.1624484,-0.2161849,0.002185533,-0.00608171,0.006962709
1.00131,-0.164326,-0.2171863,0.002276826,-0.004290506,0.006160911
1.00415,-0.1642281,-0.2164074,0.002182179,-0.002923783,0.00144016
1.004806,-0.1611702,-0.2157825,0.001935596,-0.004292318,0.003381555
1.005395,-0.1591145,-0.2132842,0.00219705,-0.005083108,0.006668508
1.00585,-0.1560924,-0.2072821,0.001695486,-0.006538887,0.005623322
1.003415,-0.153111,-0.2006528,-0.001492388,-0.008388089,0.005771889
1.0024,-0.1559605,-0.2028723,-0.004828052,-0.009602531,0.00614215
1.004853,-0.1581004,-0.2086023,-0.009471077,-0.008831451,0.007477913
1.005892,-0.1566288,-0.2083975,-0.01050823,-0.007220553,0.00926614
1.004815,-0.1574435,-0.2097032,-0.009552111,-0.008764796,0.00847803
1.00358,-0.1607848,-0.2098566,-0.01099691,-0.01048619,0.00857927
1.003948,-0.1635091,-0.2070453,-0.01221498,-0.01011743,0.01014399
1.003712,-0.1633734,-0.2100452,-0.01547957,-0.01040817,0.01195549
1.002061,-0.164478,-0.2122304,-0.0162758,-0.01097579,0.01180035
1.003217,-0.1674837,-0.2117621,-0.01321578,-0.01145067,0.009291786
1.004889,-0.165307,-0.2105759,-0.01004511,-0.01130466,0.008239738
1.005688,-0.1623862,-0.2068635,-0.004804631,-0.009621397,0.007113934
1.006058,-0.164083,-0.2081342,-0.003288605,-0.008745245,0.005669226
1.004873,-0.1634605,-0.2093608,-0.00698727,-0.009282891,0.006535641
1.004244,-0.1613777,-0.2073858,-0.009946818,-0.01053655,0.007530039
1.001481,-0.1619226,-0.2089244,-0.01103924,-0.01238066,0.007223211
0.9986516,-0.1611969,-0.2095407,-0.008840449,-0.01602112,0.006707001
1.00022,-0.1620585,-0.2107947,-0.004252551,-0.02030525,0.005598076
1.000418,-0.1659878,-0.21376,-0.001415307,-0.01694311,0.004065097
0.9995266,-0.1669725,-0.2134867,-0.002143319,-0.01099907,0.002908702
1.000246,-0.1649334,-0.211382,-0.00326792,-0.01203855,0.002680397
1.000175,-0.1630768,-0.2087741,-0.001372508,-0.01250766,0.005236962
1.000946,-0.1639222,-0.2094642,0.0005279025,-0.01440115,0.008487275
1.002691,-0.1653846,-0.2113644,0.0003568499,-0.0197668,0.008391138
1.002723,-0.1654244,-0.2100556,0.0006715059,-0.01977838,0.006810585
1.000899,-0.1672705,-0.2104769,0.001613754,-0.01891628,0.006709309
0.9992046,-0.1684535,-0.2123636,0.001014542,-0.01898501,0.006807968
0.9991719,-0.1671071,-0.2154869,0.0007418287,-0.02023943,0.005593564
0.9996012,-0.1663139,-0.2194904,0.003378796,-0.02418696,0.004006623
0.9999409,-0.1661908,-0.2188365,0.006142803,-0.02386498,0.002255776
1.00029,-0.1649987,-0.2188729,0.008324765,-0.02311799,0.002586725
0.9996882,-0.1621137,-0.2219354,0.009045861,-0.0236694,0.005451913
0.9989912,-0.161207,-0.2209187,0.005293647,-0.02267825,0.006674679
0.9987491,-0.1622997,-0.2191375,0.002256453,-0.02342148,0.00776691
0.9992234,-0.1627626,-0.2197468,0.001713866,-0.02382923,0.008266466
1.00068,-0.1645502,-0.2194525,0.000628145,-0.02477536,0.007285764
1.001017,-0.1659242,-0.2202207,0.0005597787,-0.02383991,0.009423014
1.001058,-0.1661842,-0.221425,-0.0006292595,-0.01619726,0.01097244
1.000781,-0.1673944,-0.2199191,-0.0008978924,-0.00963826,0.009940247
0.998524,-0.1692147,-0.2173544,0.001718449,-0.01130182,0.00841816
0.9983705,-0.170698,-0.2152843,0.0016824,-0.01470089,0.00461676
0.999906,-0.169146,-0.2175534,0.0008813788,-0.01267527,0.003944676
1.000209,-0.1669184,-0.2248949,-0.001097307,-0.01431715,0.008640055
1.001066,-0.1666926,-0.2320954,-0.003840895,-0.01996941,0.01146123
1.001353,-0.1660167,-0.2342747,-0.0005411502,-0.01976446,0.0104206
1.000544,-0.1650048,-0.2276565,0.001727591,-0.01794065,0.009691355
0.9997327,-0.1640524,-0.2222198,-0.001740677,-0.01361967,0.01126119
0.9997576,-0.1663883,-0.2245986,-0.003918785,-0.008757043,0.0117421
1.000388,-0.1713333,-0.2240551,-0.003532321,-0.01231519,0.01067219
0.9992597,-0.1714335,-0.2226602,-0.001963923,-0.01655084,0.009768697
0.9972412,-0.1702099,-0.2244481,3.204302e-05,-0.014284,0.007877142
0.9952853,-0.171181,-0.2243767,0.0005191826,-0.01070865,0.007495496
0.9952209,-0.170761,-0.2252001,-0.001788939,-0.01054922,0.008233783
0.9966294,-0.1698317,-0.2263598,-0.00340263,-0.012069,0.00794459
0.9955304,-0.1665522,-0.2261914,-0.003678731,-0.01286842,0.008771627
0.9960953,-0.163243,-0.2270409,-0.006117726,-0.0128357,0.006662367
0.9990708,-0.1679276,-0.2280716,-0.005758242,-0.01213048,0.002887755
1.000337,-0.1728617,-0.2292093,-0.003506772,-0.01234534,0.00373493
1.000502,-0.1690139,-0.2278604,-0.002049218,-0.01173573,0.001256178
0.9993391,-0.1667134,-0.22521,0.002159547,-0.01004916,-0.002146777
0.9987206,-0.1706309,-0.2264464,0.001107647,-0.009488618,0.004066792
0.9970236,-0.1715486,-0.2266171,-0.00378169,-0.01028217,0.008228312
0.9946214,-0.1704225,-0.223997,-0.004044507,-0.01209742,0.00755683
0.996146,-0.1711742,-0.2233444,-0.005058271,-0.01099301,0.009300867
0.9962003,-0.1716742,-0.2229467,-0.007449846,-0.008823117,0.007775669
0.9952429,-0.1724846,-0.2210512,-0.009690216,-0.008301093,0.007246986
0.9968352,-0.1722277,-0.2187317,-0.008291377,-0.0051409,0.008787165
0.9983264,-0.170629,-0.219928,-0.003732624,-0.00209984,0.007073638
1.000376,-0.1693839,-0.2256719,-0.006369668,-0.003277682,0.004347028
0.9986089,-0.1691228,-0.2290268,-0.01051859,-0.004691014,0.00182565
0.9948723,-0.1714584,-0.2280096,-0.01184989,-0.002770181,0.00480386
0.996398,-0.1724244,-0.2262027,-0.01227113,-0.001669588,0.005349844
0.9988745,-0.1716711,-0.2265692,-0.008305483,-0.002740286,0.001772587
1.000053,-0.1726634,-0.2287111,-0.006416592,-0.002159546,0.003545238
0.9988045,-0.1720372,-0.2300676,-0.005136631,-0.00149943,0.001129252
0.9959739,-0.1704368,-0.2303085,-0.004962458,0.001409531,0.0009127995
0.9975964,-0.1681434,-0.2287134,-0.01082993,0.003901038,0.004394262
0.9996997,-0.1645764,-0.2285367,-0.01239651,-0.001041049,0.002783432
0.9998474,-0.1652491,-0.2295756,-0.01213436,-0.004772354,0.005725638
1.000344,-0.168053,-0.2291285,-0.01392907,-0.002306146,0.006751924
0.9988103,-0.1701348,-0.2303696,-0.01370074,-1.791945e-05,0.005695225
0.9981799,-0.1729531,-0.2296462,-0.01247644,-0.0006055452,0.008306973
0.9989551,-0.1742174,-0.2295232,-0.008566206,-0.0007128365,0.008542987
0.9985617,-0.1748417,-0.2320873,-0.007279024,0.0004958574,0.008604929
0.9995936,-0.1735443,-0.2302658,-0.006781546,0.001318172,0.004630107
0.9999813,-0.1693155,-0.2313159,-0.004729141,0.006723526,-2.424108e-05
0.9979545,-0.1660907,-0.2328138,-0.006326836,0.01212469,-0.001258308
0.9958034,-0.1639231,-0.2295831,-0.003586035,0.009216739,-0.0027897
0.9956316,-0.1674246,-0.2301973,0.0006327806,0.004834287,-0.000395114
0.9980272,-0.1734045,-0.2279425,0.001852344,0.003088848,0.001011465
0.999114,-0.1703668,-0.2247638,0.003325876,0.002325688,-0.0007791331
0.9985872,-0.1667317,-0.2266842,0.002767553,0.004799303,-0.003793691
0.9985201,-0.1671429,-0.2246681,0.006531242,0.008293599,-0.007311537
0.998576,-0.1658962,-0.2251088,0.009754991,0.006724615,-0.005327607
0.9987615,-0.1669322,-0.2278889,0.008785555,0.005369549,-0.002911795
0.9984763,-0.1670941,-0.2256428,0.01072209,0.007636599,-0.002566097
0.9986241,-0.1655411,-0.2271987,0.008226233,0.007042623,-0.001243715
0.9987342,-0.1655047,-0.2314444,0.004013769,0.006687978,-0.000689969
0.9984194,-0.1631645,-0.2340112,0.00261887,0.006278921,0.0024174
0.9987747,-0.1633958,-0.2334458,-0.0009806476,0.002270472,0.005093437
0.9985481,-0.1642995,-0.2277082,-0.004265531,0.0002333999,0.002325329
0.9985559,-0.1605029,-0.2255184,-0.005824639,0.001594754,8.617173e-06
0.9987488,-0.1592607,-0.227319,-0.005469579,0.005757259,-0.001454304
0.9984562,-0.1609322,-0.2281549,-0.007772545,0.00866501,-0.002974644
0.9988983,-0.163305,-0.2280931,-0.01250215,0.007366941,1.530211e-05
0.9992996,-0.1655634,-0.2273558,-0.0140054,0.007079014,0.003264356
0.9991459,-0.1680188,-0.2290208,-0.0147078,0.008023502,0.004510569
0.9974786,-0.1721948,-0.2299316,-0.01215124,0.008288771,0.006076783
0.9956316,-0.1715315,-0.230911,-0.008455432,0.00881491,0.00514145
0.9958378,-0.1695756,-0.2342864,-0.007317806,0.01037454,0.001439939
0.9962136,-0.171377,-0.233798,-0.005751583,0.01198178,-0.003078453
0.9975306,-0.1701701,-0.2332045,-0.003514615,0.01176122,-0.003315971
0.9994787,-0.1695476,-0.2359266,0.002408416,0.01217749,-0.001048779
0.9995865,-0.171727,-0.2364255,0.005665596,0.01625545,-0.002542883
0.9999138,-0.1721063,-0.2325754,0.00300859,0.0220585,-0.00285472
1.00017,-0.1739413,-0.2281238,0.003214947,0.02577711,-0.004543277
0.998523,-0.1752454,-0.2266605,0.004772827,0.02922758,-0.009067618
0.9961778,-0.1711221,-0.2245085,0.006967296,0.03124121,-0.007745319
0.9935646,-0.1671201,-0.2209252,0.008640274,0.0226194,-0.004274758
0.9923319,-0.1677039,-0.220922,0.004685456,0.007708119,-0.002500694
0.9932289,-0.1691828,-0.2244874,-0.0008570763,-0.001996886,0.001118762
0.99398,-0.1706354,-0.22463,-0.002458756,-0.004582807,0.004269593
0.9968861,-0.1738342,-0.2235267,-0.0008567084,0.002388438,0.002745416
1.002534,-0.1744915,-0.230425,0.0001499701,0.01389068,-0.0007468755
1.003858,-0.1726646,-0.2358028,0.002572684,0.01788477,-0.004347364
1.001077,-0.1727249,-0.2335535,0.006797759,0.01656264,-0.009760952
0.9999635,-0.1713672,-0.2302424,0.007515071,0.01448498,-0.009296601
0.9987599,-0.1699688,-0.2230661,0.006775374,0.01039174,-0.0007838174
0.9963199,-0.1707579,-0.2171925,0.00763436,0.008091401,0.005139271
0.9962901,-0.1690636,-0.2208266,0.009423359,0.006843715,0.00402093
1.000243,-0.1696537,-0.2235758,0.01177837,0.004839132,-0.0001658096
1.004344,-0.1732222,-0.2179507,0.01310537,0.008300979,-0.001728468
1.003244,-0.1706774,-0.2149599,0.01201861,0.01324446,-0.002913481
1.001631,-0.1666377,-0.2175063,0.009617536,0.01134086,-0.004052478
1.003284,-0.1664122,-0.217617,0.008775126,0.00953355,-0.00346015
1.001442,-0.1647134,-0.2187338,0.01054363,0.01006831,-0.00539652
0.9976709,-0.1626465,-0.2220592,0.01343105,0.007284261,-0.003648467
0.9960205,-0.1614277,-0.2242257,0.01337385,0.007305763,-0.0005761765
0.9956709,-0.1596483,-0.2243326,0.009098613,0.009305342,-0.001695993
0.998849,-0.1628575,-0.2227308,0.004868514,0.007308048,0.000747466
1.001205,-0.1673252,-0.2231579,0.003213086,0.006639654,0.002070196
1.000701,-0.1657714,-0.2204512,0.003785807,0.005687721,0.002651291
1.001154,-0.16468,-0.2164346,0.00407079,0.004771324,0.005149675
0.9998184,-0.1657765,-0.2190896,0.003797518,0.006877225,0.003036739
0.9975028,-0.1656905,-0.2209074,0.00258418,0.005431523,-0.0006687796
0.9966935,-0.1655216,-0.2216031,-0.001053806,0.001607647,-0.001549168
0.9956956,-0.164943,-0.2244965,-0.0009430133,-0.002627304,0.006273118
0.9957791,-0.1654277,-0.2237107,0.001454585,-0.005977328,0.01249649
0.9979199,-0.167056,-0.2209008,0.00131851,-0.00410688,0.005248428
0.9990438,-0.1692396,-0.2197275,0.002177881,-0.001235128,0.0006240264
0.9976389,-0.1715656,-0.2191232,-0.0002215629,0.000112357,0.001647917
0.9966115,-0.169274,-0.2195418,-0.001482329,0.0006740449,0.001530513
0.9963787,-0.1666992,-0.2206414,0.004628846,0.001465656,0.00144826
0.9958624,-0.1684807,-0.2214108,0.006640573,0.000554103,0.0008078937
0.9967296,-0.1683282,-0.223801,0.006335106,-0.005729447,0.001088051
0.9985423,-0.1675671,-0.2266995,0.008723942,-0.008876613,0.000302079
0.9988253,-0.1684251,-0.2270083,0.008986745,-0.002395753,0.001039273
0.9974955,-0.1686373,-0.2269763,0.009877935,0.006595157,0.002104057
0.9969465,-0.1715588,-0.2280231,0.01059171,0.008837553,-0.001866014
0.9972572,-0.1745153,-0.2264741,0.01070491,0.007701141,-0.004192628
0.9974358,-0.1720832,-0.2193856,0.01099712,0.00913612,-0.002750566
0.9983132,-0.1695596,-0.2134474,0.008258061,0.005825222,-0.001347718
0.9997051,-0.1710078,-0.2173572,0.006018597,0.001972315,-0.001543793
1.00044,-0.1713714,-0.2229234,0.00613432,0.002876642,-0.000145179
0.9997269,-0.1702371,-0.2215951,0.006811678,0.001203912,0.002951464
0.9989227,-0.1710891,-0.2215921,0.006790163,0.001215842,0.002029352
0.9982374,-0.1709718,-0.223323,0.007404221,0.003448281,0.001504237
0.9963724,-0.1701167,-0.2217229,0.009342997,0.002552869,0.0005369478
0.9946198,-0.1693954,-0.2230362,0.007792437,-0.001541,-0.005236604
0.9944958,-0.1671591,-0.2245153,0.005080855,-0.005826744,-0.008053801
0.9972374,-0.1665433,-0.2233394,0.00355254,-0.001381204,-0.004493863
0.9996789,-0.1655869,-0.2252816,0.002430114,0.00496036,-9.010065e-05
0.9987655,-0.1649266,-0.2256091,0.003391421,0.003133221,-0.0004533494
0.9990818,-0.1692685,-0.2243762,0.004342019,0.002760759,-0.0002205942
1.00061,-0.1714158,-0.2243852,0.005777534,0.005782016,0.003022163
0.9998466,-0.1694805,-0.2209049,0.004472662,0.005565321,0.001974318
0.9986234,-0.1693257,-0.2179986,-5.593843e-05,0.001857103,3.71346e-06
0.9976786,-0.1696388,-0.2198725,-0.0006348012,-0.003897682,-0.0001886267
0.9968155,-0.1704604,-0.2221126,-0.00042496,-0.007443325,0.004956177
0.9971942,-0.1728519,-0.223043,0.001519505,-0.007456337,0.01275177
0.9978446,-0.1760228,-0.2243726,0.006592393,-0.003032133,0.007764858
0.9987788,-0.1779538,-0.225108,0.006296587,0.004069548,0.001942589
1.000597,-0.1733091,-0.2274116,0.003663006,0.002528064,0.00421974
1.000333,-0.1668788,-0.2304728,0.002214943,-0.0004874879,0.002476642
0.9993932,-0.1674427,-0.2263704,-0.001536345,0.00255016,0.003106531
1.000179,-0.1689479,-0.2178688,-0.003734643,-0.001577642,0.005440153
0.9991421,-0.167569,-0.2125662,-0.004776666,-0.004786898,0.004923064
0.9980436,-0.1680443,-0.2161367,-0.006385122,-1.208055e-05,0.006797026
0.9988353,-0.168538,-0.2225497,-0.00119132,0.001597085,0.005709682
0.9986229,-0.1693264,-0.2192581,0.004100339,0.002007754,0.005751005
0.9986892,-0.1734826,-0.2193575,-0.0001055143,0.001871044,0.008204053
0.9996122,-0.1760206,-0.2255807,-0.002101435,0.0003138738,0.005960963
1.000185,-0.174185,-0.2249434,0.001421147,-0.002451855,0.005271566
1.000167,-0.1727911,-0.2257203,0.002831348,-0.005355621,0.003507436
0.9995847,-0.1736426,-0.2289057,0.003206719,-0.001391196,0.000576691
0.9992042,-0.1728361,-0.2304378,0.002487153,0.000649656,0.002668672
0.9984149,-0.1708207,-0.2290092,0.000462586,-0.005108395,0.002384
0.9983343,-0.1717544,-0.224344,-0.0004671425,-0.008319653,0.001455803
0.9987969,-0.1735363,-0.2260455,0.001814497,-0.005807549,0.002371406
0.9975444,-0.1740367,-0.2258529,0.006239493,-0.002506037,0.0004812535
0.9972365,-0.1747085,-0.2216934,0.007553142,-0.001829053,-0.0006080561
0.9991135,-0.1759683,-0.2248632,0.006393252,0.001905031,-0.000233495
1.000542,-0.1771102,-0.2276498,0.005988795,0.006366392,0.0004702397
1.000222,-0.1766352,-0.2294346,0.005985296,0.003895583,0.002078715
0.9995589,-0.1751299,-0.2304738,0.006564613,0.002452353,0.003571572
1.000213,-0.1732374,-0.2288712,0.007719697,0.003375712,0.0036988
0.9999362,-0.1733897,-0.2310586,0.008545049,0.002250341,0.002052447
0.9988087,-0.177053,-0.2294695,0.007771385,0.002671586,0.0007140794
0.99879,-0.1784577,-0.224305,0.00503994,0.00418471,-0.001162468
0.9992885,-0.1778376,-0.223222,0.003394487,0.005988472,-0.0001592179
1.000046,-0.1786703,-0.2224158,0.00558288,0.007689486,0.005906846
0.9982345,-0.1793243,-0.2212276,0.007431717,0.006989628,0.008503689
0.9951517,-0.1796193,-0.2198937,0.005064228,0.005814049,0.007227045
0.9947949,-0.179074,-0.2199744,0.003002512,0.004374059,0.006387421
0.9945952,-0.1770646,-0.2179737,0.003141455,0.0004673369,0.007402476
0.9950545,-0.1734079,-0.2138143,0.002941502,-0.002975247,0.00974674
0.9969458,-0.1723368,-0.215807,0.002883418,-0.005404698,0.009265531
0.998476,-0.174856,-0.2174868,0.002579813,-0.008321507,0.008902599
1.000573,-0.1746964,-0.2215382,0.001278767,-0.005720649,0.008998479
1.000388,-0.1764699,-0.2272887,-0.001946259,0.002312201,0.005657518
0.9983699,-0.1788978,-0.223609,-0.007556958,0.008498259,0.0006827941
0.9982712,-0.1754184,-0.2238246,-0.01009033,0.0104089,-0.003734816
0.9969226,-0.1740684,-0.2225321,-0.007938033,0.005957038,-0.002890611
0.9950713,-0.174277,-0.216221,-0.007194299,0.0006903388,0.0008082187
0.9958564,-0.1721352,-0.221246,-0.008075543,-0.0004513258,0.0017412
0.9961167,-0.1710677,-0.2244027,-0.00754271,-0.004806736,0.001998513
0.9955992,-0.170532,-0.2279463,-0.006259986,-0.007647184,-0.0002516024
0.9960856,-0.1708953,-0.2364185,-0.002988349,-0.002451095,-0.002460673
0.996768,-0.1713208,-0.2354995,0.0004292395,0.001678491,-0.001498814
0.9974227,-0.1725863,-0.2309304,-0.0009166274,0.00260998,-0.002839665
0.9975548,-0.175961,-0.2207265,-0.003967354,0.002659152,-0.004791515
0.9978981,-0.1782278,-0.2139878,-0.006438482,0.001220187,-0.004813644
0.9991513,-0.1779537,-0.2236736,-0.009843139,-0.00108587,-0.004502718
0.9996679,-0.1753136,-0.2292793,-0.01053317,-0.004592813,-0.003090404
0.9994091,-0.175798,-0.2254912,-0.009068151,-0.00416239,-0.000410704
0.9976237,-0.1794829,-0.2222699,-0.008161917,-0.0009409653,0.002430869
0.9948265,-0.1792451,-0.2194073,-0.004797804,-0.001190351,0.001788628
0.9954532,-0.178912,-0.2172053,-0.001288064,-0.0009371116,-0.0006011174
0.9973897,-0.1792505,-0.2185817,0.002212519,-0.001342786,-0.0009593911
0.9988877,-0.176938,-0.2207215,0.007521881,-0.002862821,-0.00358618
1.001906,-0.1760591,-0.2193751,0.005731308,-0.001670235,-0.006532459
0.9995511,-0.1768126,-0.2219042,0.0006814182,-0.002387348,-0.004967935
0.9952846,-0.1786158,-0.2255078,0.002461169,-0.003747438,-0.003622723
0.9984694,-0.1788653,-0.2249519,0.003519451,-0.003482734,-0.003863858
0.9989808,-0.1753924,-0.2271232,0.002291093,-0.003025529,-0.002615491
0.9941342,-0.1747935,-0.2286918,0.002533161,-0.001642161,-0.002041325
0.9925254,-0.1761811,-0.2286917,0.0009441402,-0.002143358,-0.00249141
0.9937837,-0.1773527,-0.2279866,0.0002812957,-0.002731733,-0.00155323
0.9961034,-0.1809332,-0.2253513,0.002535752,-0.003502511,-0.0009525086
0.9961763,-0.1817944,-0.2262701,0.002773951,-0.005274023,-0.0008751076
0.9953148,-0.1814706,-0.2273993,1.51811e-05,-0.002285668,0.0004973316
0.9962622,-0.1841802,-0.2276162,-0.001281877,0.001068362,0.001941808
0.9956603,-0.1837874,-0.2299067,0.0007398931,3.921031e-05,0.0009532448
0.995716,-0.1820909,-0.2291492,0.003041808,-0.000839969,-0.002082947
0.9965044,-0.1821298,-0.2267058,0.002831492,0.0007931967,-0.002518276
0.9972707,-0.1799784,-0.2262613,0.002170092,0.002887548,0.001310185
0.9993903,-0.1803201,-0.2265355,0.003421075,0.003519236,0.003732275
0.9987861,-0.1830664,-0.2283102,0.005187658,0.003940082,-0.002474183
0.9982297,-0.1824492,-0.2296461,0.008550828,0.003686669,-0.01005137
0.9999525,-0.1818603,-0.2282325,0.009826933,0.004699345,-0.007057843
1.000122,-0.1816596,-0.2283632,0.00622072,0.008447135,-0.004286889
0.9996544,-0.1809625,-0.2335619,0.006957008,0.0107506,-0.007164642
0.9980276,-0.1805962,-0.2396843,0.01040376,0.01338215,-0.006630773
0.9957068,-0.1795833,-0.239068,0.01049786,0.01609573,-0.006960524
0.9954802,-0.1775078,-0.2319421,0.009951724,0.01296553,-0.006857506
0.9960254,-0.1718404,-0.2237437,0.006814211,0.006735345,-0.004058716
0.9958818,-0.1683617,-0.2191753,0.003186759,0.002581143,-0.005352368
0.9958639,-0.1707005,-0.2240081,0.0008106039,-0.001773579,-0.004812018
0.9968275,-0.171762,-0.2288941,-0.004767576,-0.005395362,-0.0001847644
0.9973254,-0.1733294,-0.223712,-0.009667504,-0.004143152,0.002444075
0.9963394,-0.1758956,-0.2186002,-0.01081183,-0.002558816,0.001745719
0.995471,-0.1752221,-0.2160854,-0.01177722,-0.001176422,-0.002041818
0.9962859,-0.1750445,-0.2150935,-0.01397651,0.001269627,-0.004059786
0.9987705,-0.1778817,-0.2161715,-0.01669667,-0.0001223483,-0.004216881
1.000476,-0.1799453,-0.2130445,-0.01690685,-0.001366685,-0.005594619
0.9994041,-0.1781577,-0.2128132,-0.0141944,-0.001092977,-0.006897355
0.9978695,-0.1761366,-0.2144625,-0.01270375,-0.002343599,-0.007911736
0.9984595,-0.1760121,-0.2126771,-0.01192761,-0.003501531,-0.006459458
0.9979697,-0.1746256,-0.2196186,-0.01218849,-0.005534095,-0.005254212
0.9956164,-0.1730468,-0.2266377,-0.01520531,-0.004706535,-0.00600492
0.9961562,-0.1732515,-0.2234865,-0.01493536,-0.002172927,-0.005582745
0.9987551,-0.1730889,-0.2225668,-0.0136117,-0.003247918,-0.007735446
1.000434,-0.1716106,-0.2243478,-0.01820644,-0.003168797,-0.009044315
0.9995786,-0.1714639,-0.2239424,-0.02305664,-0.002839124,-0.006476396
0.9978239,-0.1731593,-0.2251933,-0.02498486,-0.003269388,-0.006394276
0.9996733,-0.1758889,-0.2279879,-0.02323327,-0.0007671827,-0.005694176
1.000542,-0.1791553,-0.2275121,-0.01821335,0.001760637,-0.002674927
0.9984331,-0.1792622,-0.2264522,-0.01707897,0.003753613,-0.00287416
0.9974487,-0.1770662,-0.2282851,-0.01780988,0.006007773,-0.004735844
0.9960109,-0.1760246,-0.2280454,-0.01756338,0.007445828,-0.005212687
0.9954611,-0.1764422,-0.2272823,-0.01682055,0.005700609,-0.006431383
0.9960677,-0.1785857,-0.2277732,-0.01090052,0.002133933,-0.007571934
0.9958908,-0.1796106,-0.2251696,-0.006333045,0.003124318,-0.00576848
0.9969605,-0.1787768,-0.2208085,-0.01201585,0.001822427,-0.002736556
0.9983902,-0.1773548,-0.2189966,-0.01865564,-0.002858545,0.0001344827
0.9989277,-0.1762905,-0.2230548,-0.01575184,-0.0019396,-0.000665829
0.9986205,-0.1789949,-0.2275119,-0.01205302,-0.003595308,-0.005688142
0.9983843,-0.1811937,-0.2251431,-0.01272523,-0.006961958,-0.008066621
0.9984859,-0.1779084,-0.2211981,-0.008873654,-0.003195735,-0.008772988
0.9967255,-0.1750545,-0.2196873,-0.005582766,-0.0002721666,-0.008392538
0.9952303,-0.1767644,-0.2205583,-0.005053822,-0.001303013,-0.002564299
0.9957749,-0.1788342,-0.2249129,-3.302356e-05,-0.002442997,0.002757191
0.9962626,-0.1791411,-0.2277114,0.005131783,-0.005532428,-0.00108097
0.9966257,-0.1793293,-0.2263176,0.007798074,-0.01005101,-0.007591251
0.9972216,-0.1779499,-0.2262483,0.005943754,-0.0109559,-0.005913111
0.996245,-0.1762165,-0.228572,0.003151575,-0.010462,-0.00355082
0.9934666,-0.1755204,-0.2298257,0.004331021,-0.01123026,-0.004251118
0.9926561,-0.1746869,-0.2302804,0.001292114,-0.009253462,-0.002679824
0.9942899,-0.1759551,-0.2315172,-0.00224569,-0.008907838,-0.002754736
0.9956595,-0.1769221,-0.2324193,-0.001173593,-0.009417571,0.001185131
0.9961631,-0.1761409,-0.2318995,-0.001555229,-0.006375226,0.008230041
0.9957292,-0.1764447,-0.2311839,-0.002005631,-0.006922241,0.008338164
0.9957415,-0.1765861,-0.2296713,-0.002125471,-0.007774977,0.006985319
0.9961789,-0.1772327,-0.2277742,-0.003114517,-0.006514272,0.004345434
0.9965837,-0.1775943,-0.2302886,-0.003026719,-0.006631939,0.001030712
0.9973838,-0.1751001,-0.2363073,-0.003174281,-0.003521553,0.0004729953
0.9964517,-0.1726906,-0.239967,-0.003463605,-0.001450106,-0.00228159
0.9949206,-0.173321,-0.2386018,-0.001635208,-0.002970696,-0.003521993
0.9941377,-0.1742883,-0.2344064,0.000991744,-0.00506213,-0.001706591
0.9930382,-0.1732391,-0.2311142,0.003072841,-0.009364206,-0.001100549
0.9949806,-0.1738529,-0.2267097,0.003271108,-0.01251688,0.000618315
0.9995483,-0.1758104,-0.2244319,-0.0006539836,-0.01193198,0.002146198
1.00086,-0.1765239,-0.2271794,-0.0033288,-0.006348575,0.0007317472
0.9995671,-0.1764405,-0.2278259,-0.002168445,0.0001674161,-0.001120019
0.9989766,-0.1744379,-0.2307703,-0.00176255,-0.0008394706,-0.002669964
0.9985175,-0.1739081,-0.2340457,-0.0009451865,-0.003868468,-0.003016535
0.9984272,-0.17561,-0.2310066,0.000774639,-0.003625912,-0.0009860557
0.9984446,-0.1763474,-0.233021,0.0009166891,-0.004060168,0.0004814312
0.9964127,-0.1782724,-0.2359986,-0.001317661,-0.004201659,0.001010006
0.9934335,-0.1798831,-0.2337383,-0.003255872,-0.003103726,-0.0008569092
0.9924052,-0.1790062,-0.2325493,-0.001778445,-0.003071679,-0.005994624
0.9931805,-0.1779661,-0.2312669,0.0005351482,-0.002658734,-0.007078539
0.9934612,-0.1776822,-0.2331458,0.002180084,-0.0001387795,-0.003011474
0.993874,-0.1780985,-0.2350996,0.002120939,0.004452708,-0.0005349612
0.9957071,-0.179564,-0.2342431,0.001285561,0.00711012,-0.003635262
0.9962835,-0.1804587,-0.2350661,0.002525025,0.0006713548,-0.007278353
0.995582,-0.1771258,-0.2335946,0.001874609,-0.00609717,-0.00483712
0.9960355,-0.1742024,-0.2337583,-0.0005240313,-0.001719378,-0.002167879
0.996822,-0.1784414,-0.2381959,-0.000869796,0.002708743,-0.001335497
0.9972041,-0.1820747,-0.2407644,-0.0003780062,0.001023137,-0.001144303
0.9965098,-0.1784765,-0.2380266,0.0005722303,0.0004186766,-0.004727228
0.9953307,-0.1755223,-0.2323864,0.001147305,0.001007232,-0.006294201
0.9958099,-0.1768256,-0.2321368,0.0006965359,0.003284093,-0.005152611
0.9961217,-0.1773891,-0.2306627,0.0006276143,0.007677677,-0.004757311
0.9953973,-0.1772256,-0.2267833,0.0003100353,0.01049532,-0.003297147
0.9948478,-0.1755035,-0.2322298,-0.001637546,0.009287455,-0.002526319
0.9933534,-0.1724066,-0.2365968,-0.003657573,0.003178676,-0.002506169
0.9925277,-0.1733992,-0.2326874,-0.003069742,-0.001012588,-0.003823836
0.993463,-0.1745911,-0.2308704,-0.001476903,0.0008389661,-0.004230002
0.9940019,-0.1740619,-0.2331925,-0.001303237,0.00469678,-0.001363447
0.9945452,-0.1763125,-0.2339997,-0.0005382211,0.009414048,-0.0007918676
0.9947045,-0.1770059,-0.232869,0.001501202,0.01051763,-0.00107998
0.9939882,-0.1760938,-0.2337952,0.002655322,0.008525488,-0.002854658
0.9936391,-0.1774619,-0.2353006,0.00245415,0.009871582,-0.00945373
0.9928884,-0.1781021,-0.2359878,0.002033927,0.01059234,-0.01293338
0.9927599,-0.1770092,-0.2348265,0.00180832,0.009702188,-0.01015848
0.993772,-0.174161,-0.2322151,7.771932e-05,0.01037369,-0.005909659
0.9946923,-0.1718451,-0.2342035,-0.00135339,0.01075036,-0.004089186
0.9962814,-0.1754296,-0.2382724,0.0007431994,0.01136708,-0.005208216
0.996276,-0.1792733,-0.2400958,0.00200908,0.01087703,-0.004977171
0.9952064,-0.1758572,-0.239107,0.002174078,0.007379648,-0.0003305127
0.9961321,-0.1725977,-0.2360149,0.005915479,0.005013231,0.00392779
0.9956012,-0.1739257,-0.2356449,0.008278583,0.005920086,0.002123007
0.9936824,-0.1739299,-0.2339962,0.005419865,0.00686706,-0.0006272884
0.9935749,-0.1741393,-0.2296936,0.002070759,0.006683817,-0.001996932
0.996249,-0.1756357,-0.228602,0.001467239,0.008944297,-0.00447581
1.00024,-0.1750852,-0.2289963,0.002714138,0.01274974,-0.004589747
0.9999357,-0.1758492,-0.2300481,0.005684214,0.0136635,-0.004360198
0.9991181,-0.1778363,-0.2318111,0.009757078,0.0148913,-0.005572101
1.000557,-0.1777846,-0.2338167,0.01050701,0.0187684,-0.006381586
0.9979301,-0.176138,-0.2344792,0.01039245,0.01973425,-0.007974257
0.9962999,-0.1724714,-0.2341797,0.01248544,0.01725154,-0.006493184
0.9971443,-0.1700465,-0.2353677,0.01231957,0.01440336,-0.002544115
0.9944103,-0.172424,-0.2276089,0.01267813,0.01037734,-0.001009712
0.9931065,-0.1747981,-0.2146382,0.01409182,0.008596451,0.0006233903
0.9973109,-0.1734755,-0.214409,0.0131136,0.009221516,0.001633612
1.001282,-0.1730811,-0.2208263,0.01297882,0.007815423,-0.001116502
0.9977418,-0.1740042,-0.2234737,0.01242117,0.008218484,-0.003556428
0.9940484,-0.1722993,-0.2222737,0.00931199,0.00936831,7.588684e-05
0.9982291,-0.1709196,-0.2208743,0.005616479,0.01011059,0.004492477
0.9997246,-0.1708001,-0.2228799,0.004389208,0.01343157,0.002143686
0.9980858,-0.1709554,-0.2240679,0.004302164,0.01292474,0.0006001594
0.9997479,-0.1728955,-0.2232793,-7.426535e-05,0.0124771,-0.0001255377
1.0003,-0.1740513,-0.2212287,-0.003604278,0.01780067,-0.00785829
0.9999633,-0.1737108,-0.2167815,-0.0007953418,0.01994489,-0.01365755
0.9999691,-0.1734408,-0.2122734,0.002671434,0.0168184,-0.01282231
0.9999357,-0.1741116,-0.2110397,0.002091586,0.01317072,-0.01164673
0.9998099,-0.1764997,-0.216443,0.003165321,0.01166131,-0.01182308
0.9980366,-0.178209,-0.2222283,0.00679363,0.01046299,-0.01068716
0.9967655,-0.1772704,-0.222243,0.004492405,0.009692872,-0.008825694
0.997049,-0.1750668,-0.2231435,0.003196635,0.01170235,-0.01041765
0.997496,-0.173694,-0.2236681,0.005129409,0.01076217,-0.01034623
0.9971906,-0.1719436,-0.2203551,0.002649378,0.006794573,-0.008592425
0.997367,-0.1713429,-0.2203248,0.00124122,0.002573326,-0.009086914
0.9992813,-0.1730845,-0.2213968,-0.0001963884,-6.316366e-05,-0.00607225
1.000394,-0.1718828,-0.2196014,-0.002602843,0.003563624,-0.003133511
0.9999927,-0.1708209,-0.220525,-0.00461956,0.006101214,-0.001185418
0.9987044,-0.1711287,-0.2234008,-0.008374216,0.004401316,0.0003088043
0.9972406,-0.1696523,-0.2258399,-0.007266979,0.003032427,-0.002030494
0.9961914,-0.1714424,-0.2273701,-0.004912155,0.002243874,-0.0001522895
0.9954008,-0.1737612,-0.2271771,-0.005387842,0.004188519,0.002361929
0.9957614,-0.1737594,-0.2287945,-0.004555722,0.004103619,0.003551017
0.9949217,-0.1737632,-0.2293354,-0.004886472,0.001003294,0.007726472
0.9930199,-0.1736094,-0.2253744,-0.003377497,-0.001878667,0.007026398
0.9928894,-0.1756634,-0.2206703,0.0006271281,-0.006483979,0.00538052
0.9939569,-0.1765979,-0.2183387,0.001822421,-0.007868382,0.00417375
0.9975895,-0.1741656,-0.2203569,0.001614325,-0.00701133,0.003006107
1.001347,-0.1712662,-0.2217784,0.001687422,-0.007294784,0.006116099
1.000102,-0.1699638,-0.2208534,0.003004214,-0.006539125,0.004674029
0.9971226,-0.1712151,-0.2240532,0.006710101,-0.006714197,0.003411454
0.9961865,-0.1709495,-0.2287772,0.01031631,-0.007232365,0.004120804
0.9955905,-0.1706419,-0.2292804,0.0096497,-0.008089994,0.002141579
0.9959639,-0.1721099,-0.2254802,0.008362652,-0.01007337,0.006668744
0.9976766,-0.172252,-0.2221734,0.01078906,-0.01360114,0.008128633
0.9974761,-0.1723769,-0.2242389,0.01070379,-0.01605695,0.004734405
0.9972285,-0.1723137,-0.2279276,0.01013879,-0.0131521,0.006628907
0.9988207,-0.1731832,-0.2296902,0.0121357,-0.01086267,0.004362196
0.9987532,-0.1750323,-0.2295108,0.01177409,-0.006936414,0.001771214
0.9964865,-0.1749447,-0.2276992,0.01266168,-0.0002724209,0.003685777
0.9951919,-0.1737819,-0.2277503,0.01231885,-0.002453554,0.00257835
0.9959439,-0.1714819,-0.2289441,0.00794071,-0.006875625,0.0004637023
0.9961896,-0.1705146,-0.2291713,0.005860777,-0.00641647,-0.002408289
0.9966824,-0.1731065,-0.2290786,0.005926067,-0.006732982,-0.004826265
0.9985462,-0.1757232,-0.2270063,0.00686014,-0.005862474,-0.003639346
0.9990988,-0.1755983,-0.224884,0.005606904,-0.003691859,1.530209e-05
0.9985044,-0.1743087,-0.2249641,0.003488599,-0.003272331,0.004620107
0.9957651,-0.1749414,-0.2262617,0.003484492,-0.004113199,0.00535393
0.9918458,-0.1748575,-0.2289675,0.001744459,-0.004300582,0.004680986
0.9926921,-0.1749614,-0.2311064,0.0019639,-0.0008662557,0.00695014
0.9959039,-0.1796306,-0.2296317,0.002790653,0.001429287,0.006905519
0.9959922,-0.1833901,-0.2233168,0.001785697,-0.002369929,0.006658943
0.9960456,-0.1834266,-0.2189595,0.003640562,-0.007538872,0.009963719
0.9978547,-0.1806855,-0.223432,0.004624486,-0.01043668,0.01144249
0.9985434,-0.1751567,-0.2283445,0.005335294,-0.01014758,0.01150629
0.9971612,-0.1723673,-0.2278208,0.006889198,-0.008615459,0.01203207
0.9949637,-0.1734637,-0.2261137,0.005822226,-0.009383681,0.01060324
0.9961033,-0.1741813,-0.2254504,0.004494098,-0.01192054,0.008284355
0.9992955,-0.1733933,-0.2250662,0.003949186,-0.01319539,0.006394251
0.999852,-0.1733562,-0.22259,0.004367543,-0.01063172,0.006519891
0.9984685,-0.173694,-0.2202875,0.004072293,-0.006570254,0.007506511
0.9954911,-0.1715366,-0.2194866,0.002422695,-0.001281718,0.006516343
0.9951371,-0.1706174,-0.219259,0.002139044,0.002910579,0.005729295
0.9970463,-0.172698,-0.2225548,0.00248623,0.001280396,0.003812489
0.9972943,-0.1750894,-0.2246572,0.003238393,-0.0007424097,0.002684525
1.000046,-0.1783556,-0.2232917,0.002705211,-0.003020379,0.005560623
1.000526,-0.181366,-0.2239358,-0.0002181074,-0.002700257,0.004482102
0.997371,-0.1813737,-0.2254899,-0.002350463,0.001106607,0.002419845
0.9969139,-0.1798402,-0.2270191,-0.002320202,-0.002454221,0.005744346
0.9965026,-0.1813625,-0.2274472,-0.001246279,-0.003495367,0.006368353
0.9970919,-0.181952,-0.22657,-0.001546756,0.001037638,0.005344113
0.9978058,-0.1795983,-0.2258762,-0.001706062,0.001438057,0.005239402
0.9971142,-0.1808603,-0.2223223,-0.0006839061,0.001932627,0.002870726
0.9987787,-0.1818639,-0.2188898,-0.001209824,0.0002690924,0.003395457
0.9992579,-0.1814598,-0.2184941,-0.001180454,-0.00270468,0.004220696
0.9980816,-0.1810869,-0.2170775,-0.0005326867,-0.006122571,0.002208393
0.9986791,-0.177187,-0.2145568,-0.0001293692,-0.008581183,0.001672685
0.998856,-0.1755023,-0.2158854,0.003381103,-0.003325078,-0.000744565
0.9979914,-0.1767524,-0.2231129,0.006544739,-0.000360308,-0.002621756
0.9969123,-0.177544,-0.2301776,0.004755697,-0.0001859213,-0.001118933
0.9953939,-0.1789602,-0.2318642,0.002791132,0.001980195,-0.0008701836
0.9954236,-0.1795613,-0.2289351,0.003620755,0.0004447281,0.0009474827
0.996226,-0.1797731,-0.226814,0.001681354,-0.002614908,0.00366316
0.9712376,-0.1988288,-0.3172118,-0.03997451,0.08761404,-0.03213264
0.9729032,-0.1905935,-0.3155809,-0.04570954,0.1041431,-0.02713042
0.9708082,-0.1794384,-0.312795,-0.05860623,0.1078813,-0.02208082
0.9716685,-0.1682597,-0.3186612,-0.07204335,0.09539541,-0.01521327
0.9693694,-0.1704748,-0.3192877,-0.08680236,0.07516056,-0.004210145
0.9671758,-0.1818818,-0.3166148,-0.1027501,0.04809895,0.009797115
0.9657825,-0.1869594,-0.32404,-0.1227835,0.01527517,0.02149456
0.9590201,-0.1901147,-0.3272985,-0.1309677,-0.002683848,0.02079223
0.9568788,-0.1934629,-0.3297244,-0.1091182,0.007014477,0.01110608
0.9590877,-0.1991643,-0.3384778,-0.08455718,0.01093236,0.008136318
0.9562497,-0.2092662,-0.3438324,-0.05697528,0.000186028,0.01274669
0.9556176,-0.214531,-0.3500049,-0.01331448,-0.00212984,0.01703948
0.9545281,-0.2155304,-0.3548905,0.02147275,-0.006742787,0.0178101
0.9532933,-0.216603,-0.3479647,0.05223403,-0.01133536,0.01687864
0.9593556,-0.2153372,-0.3395002,0.07839181,-0.002446221,0.02060569
0.9628022,-0.2096725,-0.3435903,0.0854091,0.01543423,0.02449479
0.9648159,-0.202424,-0.3467042,0.08869622,0.04337871,0.0265197
0.9681186,-0.1984456,-0.3403078,0.08745208,0.06018473,0.02871528
0.9679772,-0.1944937,-0.3375546,0.08249626,0.06004138,0.02909301
0.9680789,-0.1921133,-0.3321702,0.07883807,0.06439385,0.03287695
0.9658719,-0.1955284,-0.3261939,0.06737272,0.05870483,0.03458628
0.9634386,-0.1997725,-0.3299628,0.06379591,0.04755863,0.03026605
0.963077,-0.2032561,-0.3299772,0.06895849,0.04816388,0.02536757
0.9619336,-0.2068355,-0.3290516,0.06755748,0.04467441,0.01984636
0.963272,-0.2096638,-0.3312419,0.06925718,0.04635588,0.01642647
0.9652555,-0.2110127,-0.3285217,0.07047899,0.05569396,0.01001653
0.9671958,-0.2135263,-0.3270257,0.06819664,0.05530799,-0.002588932
0.9668282,-0.215742,-0.3278756,0.06940932,0.05341422,-0.01289097
0.9628553,-0.2098532,-0.3291971,0.06573171,0.05095996,-0.01757937
0.9612706,-0.2044934,-0.3339783,0.06230138,0.04832063,-0.02253532
0.9610225,-0.2071514,-0.3392386,0.06615384,0.05174396,-0.02856473
0.9632303,-0.2079767,-0.339066,0.07030361,0.05562972,-0.02957833
0.9667019,-0.2071061,-0.3385045,0.07285399,0.06137322,-0.03482995
0.9668494,-0.2087754,-0.3427064,0.07238318,0.06717098,-0.04179232
0.9657274,-0.2085206,-0.3395672,0.07139547,0.06732298,-0.04255626
0.9611385,-0.2068786,-0.3340948,0.07134331,0.06585108,-0.04935139
0.9566459,-0.2064314,-0.3366048,0.06920443,0.06501558,-0.05380125
0.9585092,-0.2042409,-0.3351282,0.06811217,0.06100018,-0.05153887
0.962446,-0.2014968,-0.3314079,0.06849537,0.05466047,-0.05221425
0.9656163,-0.2008829,-0.3289978,0.06881798,0.05374182,-0.05198614
0.96701,-0.1998899,-0.324688,0.06924869,0.05592515,-0.05197332
0.9641912,-0.1995301,-0.3245542,0.06734371,0.05554075,-0.05176493
0.9610382,-0.2004018,-0.3260927,0.06442667,0.05315851,-0.05150606
0.962565,-0.199939,-0.32851,0.06324846,0.04703639,-0.05211713
0.9632419,-0.1992712,-0.3327168,0.06065983,0.0432352,-0.05179514
0.9617352,-0.1975561,-0.3314417,0.05506227,0.0488195,-0.05241267
0.9628463,-0.1950713,-0.3259162,0.05008394,0.05487919,-0.05269211
0.9628055,-0.196377,-0.3218678,0.04802003,0.0526569,-0.053218
0.9631585,-0.197707,-0.3216636,0.0462616,0.0502219,-0.0481341
0.9654991,-0.1942144,-0.3239784,0.03959626,0.05160741,-0.04066856
0.9652002,-0.1921473,-0.3279274,0.03090679,0.04847988,-0.04186243
0.9641408,-0.1940989,-0.332519,0.02680853,0.04492131,-0.04131118
0.9627875,-0.1948205,-0.3313749,0.02596456,0.04418539,-0.037725
0.9616388,-0.192713,-0.3281543,0.02333186,0.04395723,-0.0356952
0.9609847,-0.1890306,-0.3280424,0.01364287,0.04625739,-0.02999973
0.9591344,-0.1870369,-0.3271819,0.003147672,0.04302343,-0.02525835
0.9594255,-0.1902656,-0.3284147,-3.72843e-05,0.03840744,-0.01949062
0.9602622,-0.1952541,-0.3313453,-0.003885235,0.04007779,-0.01225892
0.9590442,-0.1966369,-0.3346831,-0.00911352,0.03832923,-0.01282592
0.9579373,-0.1964646,-0.3405556,-0.01030457,0.03483415,-0.0102596
0.9565905,-0.1969494,-0.3426216,-0.01135381,0.03261719,0.0006589828
0.9561654,-0.1969996,-0.3418371,-0.01293202,0.03116284,0.00451464
0.9556839,-0.1977029,-0.3424422,-0.01237819,0.03134178,0.004420104
0.9534286,-0.1983272,-0.342762,-0.01042491,0.02747254,0.008463863
0.9543139,-0.1994187,-0.341435,-0.009519784,0.0215055,0.01155689
0.9575994,-0.2007957,-0.3374527,-0.009834035,0.01078066,0.01427911
0.9590352,-0.199686,-0.3364221,-0.01106761,-0.002949347,0.01934253
0.9604314,-0.1998064,-0.3359865,-0.01469502,-0.004338803,0.02487621
0.9613811,-0.2004538,-0.3323434,-0.01785102,0.002080322,0.02852026
0.9610396,-0.1995684,-0.3351111,-0.01692275,0.006768212,0.03130303
0.960182,-0.2005776,-0.3453414,-0.01651339,0.008626602,0.03223124
0.9592945,-0.2020061,-0.351587,-0.0181918,0.007091505,0.02794859
0.9598162,-0.2039811,-0.3427671,-0.01604708,0.007124912,0.02347025
0.9598599,-0.2049537,-0.3333311,-0.01255447,0.007128261,0.02248687
0.9598557,-0.2037989,-0.3406394,-0.008643169,0.005580863,0.02249212
0.9617097,-0.2051506,-0.3444493,-0.001565512,0.004912307,0.02297875
0.9625751,-0.2062521,-0.3399585,0.002233556,0.00519972,0.02382431
0.9609305,-0.2058423,-0.3413733,0.002605087,0.01158185,0.02309132
0.9593876,-0.2055016,-0.3394611,0.003319398,0.01918573,0.02088538
0.962251,-0.2031875,-0.3351264,0.004300018,0.01905568,0.01794046
0.9651642,-0.201045,-0.3375042,0.004944359,0.01765144,0.01373516
0.9624396,-0.1997482,-0.3412028,0.001526069,0.01832287,0.01225895
0.9599423,-0.1996153,-0.3440602,-0.001129431,0.01687834,0.01203671
0.9596074,-0.2021247,-0.344523,0.004081452,0.01507571,0.0112577
0.9598146,-0.2051879,-0.339671,0.01212138,0.01496534,0.0135416
0.9617946,-0.2078082,-0.3332142,0.0164878,0.01485462,0.01312312
0.9620828,-0.2072156,-0.3327269,0.02041699,0.01543281,0.01148584
0.9581041,-0.2040215,-0.3436752,0.02644997,0.01450083,0.01236511
0.9547147,-0.2031447,-0.3538568,0.02660415,0.009303909,0.01134753
0.9586268,-0.2030966,-0.3486405,0.024652,0.00800474,0.01041587
0.9635542,-0.2051443,-0.341979,0.03048774,0.01406459,0.007678293
0.9615734,-0.2083069,-0.3427703,0.0352667,0.01805647,0.004567903
0.9607419,-0.2061788,-0.3378908,0.03456322,0.01622816,0.004870916
0.9603794,-0.2025677,-0.3346871,0.03299818,0.01481325,0.004518739
0.9548985,-0.200035,-0.3415449,0.02942006,0.01567641,0.00534294
0.9520627,-0.1991637,-0.3444274,0.02878784,0.01224018,0.007376016
0.9518349,-0.2021355,-0.3411035,0.03265445,0.004188981,0.009479764
0.951066,-0.2043566,-0.336584,0.03432877,-0.002784443,0.01264436
0.9517199,-0.2059553,-0.3354877,0.03714558,-0.007459304,0.01309241
0.9522195,-0.2064588,-0.3453939,0.04085696,-0.00951004,0.01193323
0.9530265,-0.2052041,-0.3552174,0.04034081,-0.008749504,0.01113052
0.9535461,-0.2061399,-0.3521245,0.04111667,-0.006751665,0.01110042
0.9552292,-0.2052657,-0.3480415,0.04176655,-0.005325551,0.01353939
0.9594889,-0.2037622,-0.3512508,0.03775251,-0.002175305,0.01436885
0.9615395,-0.2025513,-0.3511996,0.03168583,0.006698776,0.01161694
0.9621283,-0.1980462,-0.350448,0.02406893,0.01441787,0.009254461
0.9604777,-0.1966529,-0.3536053,0.01850152,0.01430007,0.009003731
0.9567181,-0.1974348,-0.3551193,0.01309753,0.0161664,0.009096576
0.9570624,-0.1988477,-0.3580392,0.007347055,0.02213021,0.008776307
0.9567207,-0.2039735,-0.3526593,0.007804858,0.02002607,0.01007493
0.9545927,-0.2076489,-0.3422202,0.006888163,0.01571652,0.01161659
0.9567359,-0.2087518,-0.3439695,0.003835414,0.01654751,0.01265198
0.9579843,-0.2089389,-0.3427879,0.003738557,0.01500242,0.01432476
0.9582101,-0.2095666,-0.3416143,-0.0001098483,0.01427984,0.01199557
0.9606798,-0.2079975,-0.3494773,-0.00302736,0.01677614,0.006060843
0.9610253,-0.202741,-0.3482402,-0.0004030134,0.02091207,-0.0007846538
0.9616818,-0.2009193,-0.342301,0.001501409,0.02811952,-0.008351081
0.9629629,-0.1995866,-0.3392855,4.588017e-05,0.03167656,-0.009036215
0.9597875,-0.1983243,-0.338393,-0.003488759,0.03174926,-0.006149643
0.9553541,-0.2021023,-0.3410942,-0.006812896,0.03104674,-0.008030922
0.9539543,-0.2069775,-0.3412572,-0.008761932,0.02823401,-0.00854879
0.9574657,-0.2121308,-0.3434155,-0.00472702,0.03001255,-0.009685279
0.9613237,-0.2160775,-0.34588,0.0009524769,0.03880913,-0.01743525
0.9588639,-0.2174141,-0.3436374,0.00229924,0.04819663,-0.02716509
0.9560609,-0.2168197,-0.3443699,0.006300433,0.0529524,-0.03107337
0.9536735,-0.2160159,-0.3439333,0.006980477,0.0539093,-0.02633556
0.948341,-0.2166677,-0.3425562,0.004169945,0.05125945,-0.02193687
0.9484382,-0.2135355,-0.3452596,0.008496442,0.04168666,-0.018491
0.9490133,-0.2090333,-0.3457643,0.009728459,0.02827997,-0.01363726
0.9450234,-0.2063328,-0.3432548,0.003762629,0.01700593,-0.01026465
0.9499312,-0.2029303,-0.3406434,-0.002038337,0.009689905,0.0001169931
0.956523,-0.2027283,-0.3425519,-0.005471635,0.004728963,0.01241011
0.9538222,-0.2056541,-0.349565,-0.004570099,0.002645326,0.01925062
0.9533184,-0.2088995,-0.3554754,-0.001094989,0.002490649,0.02369537
0.9535452,-0.2125727,-0.3556705,0.006577221,-0.002120638,0.01976524
0.9484341,-0.2154897,-0.3510754,0.01343948,-0.008575571,0.01536098
0.9433283,-0.2126561,-0.3521838,0.01032771,-0.01048198,0.01715183
0.9410687,-0.2062797,-0.3541062,0.007566153,-0.0102419,0.01905193
0.9453153,-0.2065032,-0.3494564,0.007956259,-0.01276352,0.02418854
0.9513827,-0.2053804,-0.3492266,0.005040474,-0.02008955,0.03406618
0.9526489,-0.2010115,-0.3505753,0.00778649,-0.02688082,0.04266504
0.9556107,-0.2050548,-0.3515091,0.01505207,-0.02317033,0.04046561
0.9592517,-0.2082117,-0.3532339,0.01691202,-0.01280766,0.03382653
0.9583969,-0.2077736,-0.3483959,0.01589685,-0.009478029,0.03289581
0.9579446,-0.209224,-0.3442019,0.01505827,-0.007804365,0.03008105
0.9588431,-0.2086338,-0.3445063,0.01623297,-0.002132205,0.03031985
0.9587358,-0.2112832,-0.347128,0.01999345,0.0008805983,0.03503454
0.9581638,-0.2138377,-0.3497633,0.0238046,0.003670055,0.03288478
0.956462,-0.2100448,-0.347256,0.02773763,0.002278718,0.02483362
0.9553177,-0.2088919,-0.3451879,0.03164817,-0.001919764,0.01197067
0.9551602,-0.2101653,-0.3430736,0.03382946,0.0002567805,0.005862087
0.9541609,-0.2097926,-0.3396682,0.03284736,0.0005569892,0.0103801
0.9542437,-0.2105812,-0.3400241,0.03347939,-0.001804263,0.01107068
0.954466,-0.2114465,-0.340745,0.03555322,-0.004939245,0.01313186
0.954338,-0.2109838,-0.3411025,0.03094116,-0.01190364,0.01327942
0.9547649,-0.210057,-0.3420495,0.02725053,-0.01517372,0.00716782
0.954006,-0.2095132,-0.3430647,0.02972939,-0.01597104,0.006493671
0.9558447,-0.2096811,-0.3451611,0.03266736,-0.01673813,0.002234245
0.9582738,-0.2098106,-0.3478461,0.03627481,-0.01244604,-0.003869245
0.9574065,-0.209704,-0.3503971,0.03666366,-0.005580682,-0.002451054
0.9584889,-0.2098563,-0.3516178,0.03473729,0.001033563,-0.001833671
0.9586278,-0.2106636,-0.3502021,0.03308661,0.003830674,-0.002058402
0.95684,-0.2111981,-0.345711,0.02530941,0.002797485,-0.004177836
0.9575937,-0.2093956,-0.3428869,0.01738082,0.003705745,-0.007064896
0.9594449,-0.2048294,-0.3424784,0.01792464,0.002785057,-0.007273299
0.9619621,-0.2019064,-0.3395907,0.01718964,0.002932142,-0.01100043
0.961616,-0.2058875,-0.3384697,0.01131344,0.01035407,-0.01475196
0.960181,-0.212193,-0.3417966,0.01016495,0.01482326,-0.01105349
0.9616894,-0.2130503,-0.3439438,0.009248354,0.01430306,-0.004446861
0.9605818,-0.2100815,-0.3422133,0.006974569,0.01806793,-0.003133606
0.958018,-0.2072869,-0.3411747,0.0100152,0.02430984,-0.004462838
0.9562695,-0.2063078,-0.3438129,0.008581637,0.0219346,-0.004114954
0.954507,-0.2074907,-0.3449286,0.003638962,0.01512496,-0.004860316
0.9544816,-0.2088875,-0.3434349,0.001605148,0.01582514,-0.005947644
0.9550655,-0.2098413,-0.3428474,-0.0005105823,0.01508729,-0.006079995
0.9576369,-0.2090332,-0.3444316,-0.0008902536,0.0103267,-0.003793364
0.9599005,-0.2067143,-0.3476751,-0.004069743,0.007391582,-0.002355209
0.9605173,-0.2067024,-0.3494987,-0.005798861,0.006276416,-0.004372733
0.9629542,-0.2072389,-0.3498109,-0.003860888,0.01111238,-0.003638206
0.9606042,-0.2067207,-0.3508048,-0.005538002,0.01320168,-0.002613833
0.9546249,-0.2070537,-0.3506468,-0.00340297,0.01092269,-0.001451043
0.9536302,-0.2064217,-0.345206,-0.002244738,0.01068989,0.001313587
0.9552157,-0.2039803,-0.3393654,-0.004714319,0.009434446,0.001507082
0.9569749,-0.2012103,-0.3412508,-0.003361423,0.01279193,0.005068526
0.9572848,-0.2006732,-0.343775,-0.004174207,0.01560345,0.009038563
0.9566102,-0.202677,-0.344859,-0.003679122,0.01101425,0.006326081
0.9571609,-0.2048834,-0.3510139,-0.002077569,0.00788982,0.003901627
0.9563496,-0.2077293,-0.3521309,-0.003793211,0.008883315,0.004642098
0.9541759,-0.2074246,-0.3448794,-0.00455579,0.009487285,0.005840526
0.9523199,-0.2040514,-0.3415483,-0.006497167,0.006334937,0.006564702
0.9535126,-0.2044271,-0.343644,-0.006490993,0.004766823,0.007007429
0.9573393,-0.206242,-0.3468742,-0.005242666,0.005187033,0.007370967
0.9590476,-0.2079133,-0.3477142,-0.006873998,0.004895718,0.009541482
0.9599001,-0.2083349,-0.3448772,-0.006817124,0.008463807,0.01181555
0.9592073,-0.2060533,-0.3425732,-0.007416222,0.01002683,0.009050599
0.9576318,-0.2068796,-0.3417649,-0.009578267,0.005765182,0.006706619
0.9598343,-0.2072073,-0.3430113,-0.0104197,0.0009708664,0.005896184
0.9620403,-0.2046757,-0.3454093,-0.01004441,-0.0004152539,0.003436259
0.9625299,-0.2048872,-0.3447786,-0.006730523,0.001211445,0.003382254
0.9616146,-0.2061504,-0.3446971,-0.002237467,0.001545531,0.002130491
0.9585949,-0.2084822,-0.3465848,-0.001829751,0.003159621,-0.0004530989
0.9580348,-0.2101428,-0.3458767,-0.004567182,0.005923676,-0.002269711
0.9593865,-0.2079779,-0.3453675,-0.0046452,0.007012857,-0.004142737
0.9596042,-0.2063516,-0.3455614,-0.002895874,0.007570454,-0.002484678
0.9579351,-0.2078494,-0.3420869,0.002230784,0.005351218,-0.002155143
0.9551885,-0.2100253,-0.3388996,0.01042473,0.002626075,-0.002421796
0.9552402,-0.2098042,-0.3393947,0.01219267,0.002549048,-0.001730354
0.9559363,-0.2096726,-0.3402739,0.01333108,0.002689756,-0.005128257
0.9554978,-0.2103818,-0.3414036,0.01580242,0.000765077,-0.00585411
0.9565228,-0.2087935,-0.343912,0.01408224,-0.0007954454,-0.003049221
0.957256,-0.2077847,-0.3451042,0.01614666,-0.0002187904,0.0004675266
0.9569584,-0.2083785,-0.3435663,0.0157909,-0.002411612,0.002676459
0.9568372,-0.2085532,-0.3407221,0.01163209,-0.00371445,-7.885625e-06
0.9569684,-0.2073073,-0.3387266,0.01306574,-0.001805789,-0.0004998111
0.9577399,-0.2037695,-0.3418866,0.01080421,-0.001844463,0.0003017057
0.9604021,-0.1999203,-0.3464161,0.004039552,0.001046653,0.001532073
0.9636592,-0.1991915,-0.3439604,-0.001213548,0.004579298,0.008702146
0.9622325,-0.2006113,-0.3403296,-0.002454686,0.002856763,0.01358372
0.9576468,-0.20025,-0.3389964,-0.0009902559,-0.00362095,0.01206004
0.9545908,-0.201649,-0.338639,-0.005966585,-0.01866567,0.01151227
0.9536304,-0.2047027,-0.3441567,-0.008037096,-0.03342064,0.01333112
0.9561309,-0.2042612,-0.3495425,-0.001756927,-0.03207114,0.01234194
0.9582998,-0.2038123,-0.352097,0.006057749,-0.01861443,0.009586657
0.9587179,-0.2027036,-0.3547285,0.01545875,-0.007922136,0.007745435
0.9615957,-0.198433,-0.3495707,0.01726024,-0.003502255,0.005587837
0.9617519,-0.1938606,-0.3430451,0.01409416,-0.004480823,0.005346908
0.9587157,-0.1908567,-0.3437072,0.01130969,-0.008996804,0.002950263
0.9594491,-0.1905835,-0.3417635,0.001496678,-0.01171311,-0.0002099805
0.9605718,-0.1926342,-0.3362544,-0.01005601,-0.01662191,0.004813617
0.9600224,-0.1965752,-0.3341726,-0.01769726,-0.01664891,0.01045109
0.959775,-0.2002735,-0.334797,-0.01479219,-0.01234143,0.01320463
0.9557035,-0.2033685,-0.3348725,-0.00615013,-0.02050205,0.01586075
0.9498137,-0.2046628,-0.3361205,-0.006265732,-0.02917191,0.01258426
0.9500747,-0.2043598,-0.3430879,-0.001800393,-0.03524267,0.006166338
0.9549764,-0.2087731,-0.3503607,0.009860693,-0.03916949,0.003854155
0.9585566,-0.2096445,-0.348519,0.01663967,-0.02926423,0.006228572
0.9591779,-0.2052322,-0.3433514,0.02123463,-0.02117751,0.009805662
0.9593442,-0.2046267,-0.3433107,0.01916027,-0.01790787,0.00899611
0.9600128,-0.2012052,-0.3422455,0.0134174,-0.0158264,0.004164589
0.9577646,-0.2000823,-0.3397113,0.008892242,-0.01994507,0.003543811
0.9560067,-0.2033482,-0.3411284,0.0001311311,-0.0204569,0.006910546
0.9576849,-0.2033033,-0.3428782,-0.00340441,-0.01961079,0.006387344
0.9591061,-0.2064898,-0.3450106,0.0006256225,-0.01906106,0.006877575
0.9618511,-0.2074133,-0.3456058,0.002331955,-0.01257561,0.009633332
0.9635138,-0.205782,-0.3451322,0.001438735,-0.002621715,0.007574447
0.9618925,-0.2076113,-0.3481395,-0.0005845077,0.005213803,0.005358123
0.9615395,-0.2048635,-0.3467444,-0.005396231,0.005073674,0.004220353
0.9610972,-0.2033658,-0.3446441,-0.01237393,0.003863697,0.003888844
0.9609477,-0.2056272,-0.347722,-0.01303684,0.009915998,0.004831726
0.9623442,-0.2055571,-0.3482611,-0.01080955,0.02231523,-0.0003765901
0.9624554,-0.2057713,-0.3486492,-0.01560061,0.03747517,-0.005695397
0.9609387,-0.2055501,-0.3472352,-0.01915487,0.04422953,-0.003970545
0.9572155,-0.2063946,-0.3391387,-0.02210003,0.03859331,-0.002022652
0.9543125,-0.2071512,-0.332364,-0.02838954,0.02799689,-0.001583938
0.9545609,-0.2048913,-0.3342936,-0.03094523,0.01526975,0.0004349762
0.9517053,-0.2044,-0.3401952,-0.03003523,0.004737661,0.003714103
0.9470254,-0.2079228,-0.3417142,-0.02301015,-0.00236112,0.005645395
0.9489461,-0.213266,-0.3457375,-0.0111392,-0.01015598,0.006180358
0.9516014,-0.2155655,-0.3525091,-0.002731973,-0.009297821,0.004082658
0.9493024,-0.2167438,-0.3526887,0.001928922,-0.003671275,-0.001830318
0.9497057,-0.2179191,-0.3543075,0.003500938,-0.005599582,-0.006123072
0.9511222,-0.2110056,-0.3581323,0.002919794,-0.004782487,-0.005696459
0.9516517,-0.2022797,-0.3564429,0.000963268,-0.005819021,-0.003411723
0.9562576,-0.2015904,-0.3544723,-0.00187441,-0.00913189,-0.003550619
0.958159,-0.203081,-0.3546935,-0.006176805,-0.003687256,-0.00208271
0.9565943,-0.2011082,-0.3496131,-0.01052387,-0.002258416,0.003542684
0.9580316,-0.199009,-0.340691,-0.01060877,-0.001883353,0.005342761
0.9596427,-0.2001085,-0.3413546,-0.01391451,-0.0002318411,0.006097822
0.9599848,-0.2004105,-0.3453485,-0.02142006,-0.003200324,0.01101537
0.9593321,-0.1995421,-0.3404496,-0.02467202,-0.001761956,0.01547948
0.9577733,-0.2006005,-0.3390383,-0.02698188,-0.003054578,0.01425424
0.9564343,-0.2017988,-0.3432296,-0.02820577,-0.005507165,0.01144103
0.9556902,-0.2033225,-0.3431651,-0.02692491,-0.00464719,0.01383473
0.9557283,-0.2041062,-0.3443983,-0.02627247,-0.008231323,0.01382888
0.9553213,-0.2042155,-0.3456315,-0.02507927,-0.01174263,0.01395992
0.9550115,-0.2065051,-0.3429587,-0.02448929,-0.01899953,0.017622
0.9531359,-0.2084731,-0.3438392,-0.02361585,-0.02316645,0.01695966
0.9502465,-0.2096645,-0.3461669,-0.01916754,-0.01391703,0.01849075
0.9517945,-0.211111,-0.3487907,-0.01081953,-0.008547541,0.01932548
0.9549006,-0.2126527,-0.3507064,-0.003972135,-0.01471282,0.01913428
0.9565739,-0.2155939,-0.3489071,-0.006983104,-0.02108017,0.02381002
0.9564298,-0.2167176,-0.3520357,-0.01007101,-0.02078255,0.0227894
0.9531286,-0.2132081,-0.3527103,-0.005180055,-0.02359188,0.0211222
0.9528675,-0.209839,-0.3486263,-0.002392828,-0.03113651,0.02118186
0.9576559,-0.2117076,-0.348986,0.002084572,-0.03011234,0.01630667
0.9601347,-0.2137629,-0.3470096,0.00801881,-0.02325596,0.01378517
0.9556897,-0.2119357,-0.3487963,0.006056308,-0.01942502,0.0143439
0.9505024,-0.2124654,-0.350104,0.007824296,-0.02822092,0.0154198
0.9526526,-0.2138154,-0.3469589,0.01423765,-0.04081462,0.01569318
0.9546253,-0.212714,-0.3546074,0.0143234,-0.03521495,0.01479266
0.9543355,-0.2125821,-0.3584095,0.01372147,-0.02463714,0.01183837
0.9580615,-0.2122821,-0.3562797,0.01322928,-0.01765745,0.00705919
0.9577082,-0.2124919,-0.359091,0.01004515,-0.008555766,0.007308246
0.9555761,-0.2127939,-0.3569819,0.008827112,-0.006663592,0.007502588
0.9578492,-0.2119276,-0.3535791,0.007119568,-0.009269493,0.007002773
0.9563308,-0.2113356,-0.3482005,0.003273164,-0.01386724,0.01035805
0.9537194,-0.2081479,-0.3447284,0.00254351,-0.01831993,0.01102617
0.9526905,-0.2068706,-0.3566743,0.002975291,-0.01651112,0.01096167
0.9522836,-0.2125122,-0.3678819,0.002765745,-0.01616559,0.00860227
0.9553323,-0.2171665,-0.3605689,0.005354376,-0.01441314,0.001902456
0.9556513,-0.215507,-0.3492867,0.008516284,-0.008962896,-0.001697515
0.9534557,-0.2130116,-0.3499208,0.01154255,-0.007538995,-0.00170776
0.9523739,-0.21322,-0.351056,0.01347283,-0.008191849,-0.00236087
0.9513485,-0.2114216,-0.3521878,0.01188352,-0.009837833,-0.006686211
0.9518976,-0.2102187,-0.3565607,0.01221758,-0.0106162,-0.006661139
0.9523806,-0.2118122,-0.353208,0.01364922,-0.009425287,-0.001595884
0.9546892,-0.2108717,-0.3535445,0.01328836,-0.007492795,0.000959795
0.9563441,-0.2109097,-0.3554883,0.01345,-0.005999641,0.005371552
0.9532402,-0.2117438,-0.3517888,0.01172015,-0.00961331,0.004424504
0.9522047,-0.2115381,-0.3533238,0.01078392,-0.01253959,-0.00163227
0.9528883,-0.2130584,-0.3527354,0.01186172,-0.009173635,-0.001847123
0.9527982,-0.2127638,-0.3527611,0.01062768,-0.007057098,-0.001231524
0.9528911,-0.212978,-0.3563864,0.01006107,-0.01155583,-0.0002896758
0.9528894,-0.2145824,-0.3568658,0.01136914,-0.01639887,-0.000628348
0.9547877,-0.2135693,-0.3586572,0.01174308,-0.01410036,-0.0008733588
0.9560424,-0.2128263,-0.3608384,0.009748791,-0.009152068,0.001537504
0.9556269,-0.2124482,-0.363444,0.006430629,-0.005937056,-0.0002001422
0.9550527,-0.212245,-0.3568586,0.004934344,-0.004085471,0.0004024112
0.9537046,-0.2127701,-0.3451513,0.00375694,-0.003799671,0.001250789
0.9524693,-0.2123877,-0.3482132,9.916748e-05,-0.003500802,-0.0008907771
0.9523423,-0.2128062,-0.3511736,-0.00462774,-0.003596151,0.00230457
0.9532463,-0.2145954,-0.3507913,-0.007395876,-0.003638126,0.003294061
0.9523635,-0.2165953,-0.3571454,-0.00793137,-0.001989473,0.002669819
0.9506451,-0.2172158,-0.3582329,-0.006938642,2.652561e-05,0.004281149
0.9502907,-0.2163586,-0.3572041,-0.003513002,-0.0006776076,0.003203754
0.9512464,-0.2166224,-0.3575443,-0.00132231,-0.002549249,0.002390019
0.9534103,-0.2169013,-0.3552422,-0.001719907,-0.003175357,-8.722515e-06
0.9512422,-0.2167977,-0.3587353,9.695608e-05,-0.005164219,-0.002539321
0.9487703,-0.218552,-0.3633384,0.001990771,-0.002726789,-0.001257281
0.9514274,-0.2198541,-0.3610106,0.0008264414,0.002286813,-0.0002243685
0.951821,-0.2184609,-0.3581365,8.353087e-05,-0.0005914946,0.0006453081
0.951237,-0.2166023,-0.3549346,0.001128389,-0.001713846,0.001521282
0.952483,-0.2160628,-0.3526345,0.00335442,0.001390646,0.0008474764
0.9529126,-0.215594,-0.3548062,0.007146273,0.001162387,-0.00120467
0.9529807,-0.2152494,-0.354525,0.00983685,0.00176827,-0.004068544
0.9525363,-0.2150561,-0.3546175,0.00940988,0.001289607,-0.005549356
0.9524748,-0.2122289,-0.3610744,0.008620354,-0.0008876365,-0.004535165
0.9511515,-0.2107902,-0.3645204,0.007344452,-0.001552532,-0.004065122
0.9495487,-0.2118435,-0.3585151,0.005339086,-0.001355275,-0.005485448
0.9517936,-0.2089198,-0.3502316,0.005988541,0.002602234,-0.005273651
0.9538339,-0.2078684,-0.3502286,0.006556892,0.005730624,-0.004810932
0.9530781,-0.2099182,-0.3528172,0.004505665,0.00399152,-0.005001314
0.9514241,-0.2101888,-0.3508047,0.002889537,0.00197009,-0.004001134
0.9493713,-0.2139086,-0.3523922,0.001947242,-0.0004411856,-0.005664584
0.9487507,-0.2161326,-0.3543855,0.002596987,-0.001955887,-0.008331754
0.9497747,-0.2160026,-0.3527327,0.006152614,0.0005606769,-0.007558379
0.9502874,-0.217904,-0.3520173,0.008881956,0.004620878,-0.007008267
0.9512223,-0.2156977,-0.3500849,0.008174415,0.006570954,-0.009667273
0.9533653,-0.2144882,-0.3478001,0.006422414,0.006162743,-0.01103629
0.9537948,-0.2141748,-0.3457601,0.004938535,0.004339697,-0.007722709
0.9523903,-0.2116279,-0.3485671,0.002902659,0.00251933,-0.005641773
0.9515356,-0.2122068,-0.3574015,0.004658226,0.005545028,-0.008276812
0.951405,-0.2107135,-0.3598208,0.01014657,0.01170519,-0.01103631
0.9514911,-0.2104965,-0.3572423,0.01126929,0.01349755,-0.01034207
0.9522369,-0.2121763,-0.354474,0.009801124,0.01072014,-0.008549337
0.9531953,-0.2106206,-0.3507891,0.00885646,0.008067817,-0.008488024
0.9527694,-0.2131479,-0.3501888,0.006409684,0.009064247,-0.007336434
0.9529164,-0.2147842,-0.3481364,0.004345439,0.009764161,-0.006857688
0.954802,-0.2134189,-0.343685,0.002736893,0.008009767,-0.008952119
0.9559602,-0.2137835,-0.3442099,0.004213267,0.008967908,-0.008977892
0.9559639,-0.2119258,-0.3479441,0.008451675,0.01050119,-0.007859708
0.9561137,-0.2106429,-0.3492278,0.009067717,0.009874357,-0.006876716
0.957296,-0.210986,-0.3485771,0.00841192,0.006403015,-0.00660719
0.9570742,-0.2112733,-0.3483273,0.007642516,0.001581104,-0.009000895
0.9557159,-0.2112354,-0.3473489,0.005330689,0.004535075,-0.01054031
0.9563161,-0.2107559,-0.3452562,0.0055476,0.01149131,-0.01088868
0.9562322,-0.2112763,-0.3433961,0.00815758,0.0133837,-0.01108868
0.955335,-0.2100953,-0.3429212,0.008366373,0.01238803,-0.009947523
0.9554642,-0.2092934,-0.3439356,0.006018305,0.0104551,-0.01006507
0.9556002,-0.2097776,-0.3472178,0.004396709,0.01054736,-0.01007504
0.9560119,-0.2090386,-0.3508783,0.002078903,0.009755991,-0.008612759
0.9575584,-0.2104962,-0.3487382,0.001166812,0.005852456,-0.008039143
0.9607162,-0.2143619,-0.3449292,0.003320399,0.006681504,-0.008075985
0.961959,-0.2173465,-0.3442268,0.003916545,0.00802961,-0.009627817
0.9596585,-0.2160192,-0.3436318,0.006927078,0.006564115,-0.008546649
0.9557131,-0.2116336,-0.3430923,0.009006689,0.00716007,-0.005797357
0.9518828,-0.2088277,-0.3415075,0.006511511,0.00661946,-0.008884454
0.9546239,-0.2084797,-0.3440357,0.007804072,0.006173515,-0.009607171
0.9591204,-0.207955,-0.3522212,0.007450215,0.006489725,-0.008126736
0.9569777,-0.2050664,-0.3550145,0.006922282,0.005252791,-0.009602426
0.9580169,-0.2073856,-0.3508486,0.009821312,0.005684546,-0.007236915
0.9622082,-0.2121321,-0.3464392,0.006373279,0.005740024,-0.006551872
0.9601725,-0.209729,-0.347286,0.003353463,0.004219476,-0.007221425
0.9562287,-0.2090741,-0.3498118,0.003518858,0.003808799,-0.005282369
0.9531252,-0.2098375,-0.3497401,0.002228532,0.005353247,-0.005704983
0.9523768,-0.2088119,-0.3505952,0.001495742,0.01012154,-0.005260139
0.9536763,-0.2109353,-0.3501334,-0.001199939,0.01396885,-0.005778753
0.9520648,-0.211368,-0.3517416,-0.002110154,0.01276035,-0.00674799
0.95185,-0.2124842,-0.3555208,-0.003390104,0.01103004,-0.007303545
0.9525439,-0.2135439,-0.3534964,-0.007145815,0.01088089,-0.0120793
0.951515,-0.2114553,-0.3497718,-0.006697791,0.007440846,-0.01325171
0.952835,-0.2130522,-0.345537,-0.006707265,0.003310393,-0.0078513
0.9536752,-0.2137525,-0.3420124,-0.006590831,0.004401507,-0.002847269
0.9541625,-0.2130575,-0.3415928,-0.00554137,0.005192331,-0.004494354
0.9537556,-0.2127252,-0.3412004,-0.006537093,0.004530128,-0.008444747
0.9517984,-0.2091266,-0.3420562,-0.004460091,0.006334405,-0.006878633
0.9529298,-0.209423,-0.3417096,-0.002860579,0.005815988,-0.004699378
0.9521447,-0.2117222,-0.3412478,-0.001889076,0.003722674,-0.001537648
0.9509195,-0.2127543,-0.3420092,0.0007166528,0.001964284,-9.955648e-05
0.9539625,-0.2158845,-0.3404183,0.0002457111,-0.003329893,-0.002732261
0.9563974,-0.2163176,-0.3391713,0.0005878225,-0.00669429,-0.002693154
0.9579678,-0.2154035,-0.3360923,0.001874444,-0.003126231,-0.003253676
0.9587235,-0.2144024,-0.332729,0.001536976,0.0001693993,0.0001613497
0.9592885,-0.2120362,-0.3357404,0.002931843,-0.001765297,0.003758529
0.9577554,-0.2115709,-0.3410246,0.004729896,-0.00337662,-0.0002571487
0.9545705,-0.2107846,-0.3435305,0.005261552,-0.00353629,0.001612272
0.9581168,-0.209912,-0.3409782,0.006895142,-0.005508278,0.002496185
0.9611104,-0.2098845,-0.3370761,0.009327693,-0.003660787,-0.001011265
0.9574188,-0.2093399,-0.3378876,0.00840251,-0.0008192425,-0.0007482654
0.9559194,-0.2111933,-0.3382105,0.007463558,-0.004345437,-0.004985507
0.956494,-0.2160603,-0.3378278,0.01024609,-0.008479266,-0.00514374
0.956123,-0.2205225,-0.3442975,0.01286098,-0.01089411,-0.003505425
0.9562306,-0.2174702,-0.3506921,0.01581445,-0.01062486,-0.009162723
0.9568743,-0.21104,-0.3504159,0.01780052,-0.00813526,-0.008042557
0.9586912,-0.2121565,-0.3496958,0.0209638,-0.009491633,-0.004490104
0.960505,-0.2122923,-0.3500573,0.02582888,-0.01249369,-0.003904154
0.9598637,-0.2088474,-0.349137,0.01892611,-0.01447865,-0.004797224
0.9589863,-0.2086433,-0.345906,0.008353721,-0.01187802,-0.009190459
0.9592352,-0.2059867,-0.3430378,0.007332926,-0.005629263,-0.007944084
0.9580437,-0.2028374,-0.3445142,0.003592168,-0.004541053,-0.005938533
0.9582889,-0.2029886,-0.344788,-0.001770011,-0.004320936,-0.00615922
0.9607055,-0.2048251,-0.3419849,-0.001110263,-0.005090711,-0.0009025048
0.9609483,-0.2091478,-0.3422433,-0.001667271,-0.007822913,0.002698381
0.9595194,-0.2106253,-0.3464792,-0.003045392,-0.005326788,0.002182619
0.9576635,-0.209795,-0.3517838,-0.001996499,-0.006802767,0.003093515
0.9579593,-0.2114642,-0.3508059,-0.0002481188,-0.01202766,0.005859973
0.9585562,-0.2130816,-0.3414336,0.002972561,-0.01314356,0.005385327
0.9551518,-0.2124239,-0.3364256,0.005215784,-0.0128158,0.001663341
0.9533516,-0.2105604,-0.3440055,0.003900414,-0.008801147,0.000876973
0.9540486,-0.2108295,-0.3511618,0.003185171,-0.007898846,-0.0008372671
0.9537655,-0.2112224,-0.3435435,0.004469798,-0.009040134,-0.003073854
0.9543279,-0.2088733,-0.3369997,0.004758196,-0.004409687,-0.001939663
0.9559738,-0.2062086,-0.3440707,0.003997457,-0.002463087,-0.001911982
0.957048,-0.2033503,-0.3458481,0.002133795,-0.002861701,-0.001967626
0.9566902,-0.2019085,-0.3414339,0.00121746,-0.003403576,-0.0009932924
0.957039,-0.2029436,-0.34142,0.001225716,-0.004059274,-0.0003482599
0.9566632,-0.2036354,-0.340586,-0.003716135,-0.003953524,0.0008102306
0.9538159,-0.2051141,-0.3401415,-0.008110532,-0.005646272,0.002136308
0.95267,-0.2078534,-0.3406847,-0.00647679,-0.004275346,0.003234495
0.954361,-0.207432,-0.3427498,-0.005593713,-0.004214878,0.003499019
0.9573786,-0.2060546,-0.3484235,-0.006271463,-0.006991738,0.003425355
0.9575189,-0.2077961,-0.3503642,-0.007862909,-0.006684815,0.003336399
0.956159,-0.2088413,-0.3457618,-0.00985624,-0.005756286,0.004272158
0.9572718,-0.2101282,-0.3410106,-0.009015586,-0.001929281,0.005696702
0.9560051,-0.2122487,-0.3434939,-0.00900674,-7.72648e-05,0.004818012
0.9549461,-0.2119861,-0.3480025,-0.0102746,-0.00177137,0.003529818
0.9555886,-0.2110935,-0.3485794,-0.009465881,-0.000534535,0.002420712
0.9535599,-0.2094821,-0.3496604,-0.008729521,-0.001176452,0.001364632
0.9526662,-0.2114447,-0.3504178,-0.009407357,-0.002144414,0.00132725
0.9543991,-0.2166995,-0.3533255,-0.009416105,-0.001457518,0.0003974471
0.9558192,-0.2165676,-0.3557484,-0.008742665,-0.001442198,0.0003385602
0.9531122,-0.2138441,-0.353073,-0.008732525,0.0002592148,0.001430392
0.9500373,-0.2117881,-0.3527587,-0.006147013,3.42773e-05,0.0009363413
0.952699,-0.2117446,-0.3502326,-0.002755255,-0.005358859,4.813201e-05
0.954455,-0.2125662,-0.3460322,-0.003729332,-0.009659021,-0.0004495394
0.9543074,-0.2101228,-0.34741,-0.004185205,-0.006747348,0.001307485
0.9561892,-0.2099828,-0.3474384,-0.002484182,-0.003516052,0.005684518
0.9573453,-0.2102389,-0.347087,-0.002146457,-0.004091236,0.008285872
0.9571591,-0.208865,-0.3484083,-0.002304499,-0.002137776,0.007278905
0.9562827,-0.2106418,-0.3490101,-0.002442527,-0.001872634,0.003569964
0.9552112,-0.2115058,-0.3495797,-0.0021223,-0.005253257,0.002293208
0.9536514,-0.2126055,-0.347749,-0.001303952,-0.005941267,0.005089637
0.9529413,-0.2131144,-0.3486491,-0.0006321129,-0.006112234,0.004821092
0.9541952,-0.2105835,-0.354743,-0.000854571,-0.006745899,0.002917075
0.9550012,-0.2102757,-0.3554433,-0.00239283,-0.00526656,0.002200282
0.9555633,-0.2095923,-0.3532465,-0.003558117,-0.004226435,0.0009422564
0.9540068,-0.2092573,-0.3583123,-0.003998395,-0.005768374,0.003171167
0.9517067,-0.2103675,-0.3590434,-0.004247349,-0.007284052,0.005683913
0.9534999,-0.2093031,-0.3528436,-0.005322871,-0.006319324,0.004694236
0.9558136,-0.2104598,-0.3551771,-0.006781795,-0.005447069,0.004451223
0.9569486,-0.2135973,-0.3568688,-0.005170693,-0.006839463,0.004357788
0.9556038,-0.2152288,-0.3522842,-0.001973406,-0.008004216,0.003479839
0.9520184,-0.2124759,-0.3513468,-0.0008616291,-0.00650337,0.003085757
0.9528707,-0.2076637,-0.3494872,-0.001064221,-0.002733134,0.003655345
0.9551634,-0.2096158,-0.3480979,0.0003091227,-0.0003623877,0.002324542
0.955591,-0.2109566,-0.3510514,0.004110899,-0.001343139,-0.00400563
0.956,-0.2082242,-0.3537416,0.006164475,-0.001858762,-0.009061882
0.9553716,-0.208367,-0.3544923,0.005521437,0.0007283961,-0.006777018
0.9564235,-0.2068532,-0.3522186,0.005285387,0.00279265,-0.003204035
0.9570297,-0.207166,-0.3509643,0.004631488,0.0002582626,-0.005788787
0.9539529,-0.2105153,-0.3532985,0.004321341,-0.004666136,-0.00878355
0.9520096,-0.2095923,-0.3548942,0.004623542,-0.008057187,-0.01022192
0.9527365,-0.2093116,-0.3542416,0.002484322,-0.009221035,-0.0132611
0.9541286,-0.2096095,-0.3537378,-2.362198e-05,-0.01160893,-0.0116345
0.9544804,-0.2094203,-0.3544709,-0.0005260082,-0.01621391,-0.01099072
0.9550968,-0.2119942,-0.3543506,-0.00111317,-0.01562513,-0.01435125
0.9570891,-0.2122186,-0.3551753,-0.00224304,-0.01128984,-0.01717384
0.9582254,-0.2111843,-0.3582653,-0.001882169,-0.007584443,-0.02643812
0.9594491,-0.2113848,-0.3602308,0.0002364578,-0.0002321913,-0.03301
0.960282,-0.2107456,-0.3595273,0.001699255,0.008238771,-0.03072293
0.9604443,-0.211218,-0.3556838,0.002128239,0.01810803,-0.03068058
0.9612406,-0.2111274,-0.3526394,0.001515611,0.02409154,-0.03339167
0.9594428,-0.2098946,-0.352773,-0.002270782,0.01651018,-0.03912126
0.9540331,-0.2096993,-0.3531901,-0.007707072,0.01043912,-0.04314884
0.9477117,-0.2095482,-0.3544203,-0.0114663,0.009732509,-0.03554358
0.9448706,-0.2101806,-0.353265,-0.01164656,0.006120635,-0.02362481
0.9472934,-0.2115992,-0.3506269,-0.008641744,0.0107478,-0.01811745
0.952297,-0.2128294,-0.3547137,-0.005872635,0.01950233,-0.01209567
0.9567912,-0.2129154,-0.3587952,-0.004146904,0.01974182,-0.00402278
0.9547419,-0.2120033,-0.3568198,-0.005264716,0.01536871,-0.007050295
0.9507092,-0.2126412,-0.3541937,-0.01127653,0.007592094,-0.01376135
0.9533977,-0.2127395,-0.3503989,-0.0163935,5.108721e-06,-0.01481758
0.9548518,-0.2121021,-0.3491666,-0.01616146,0.002066551,-0.01641305
0.9551013,-0.212805,-0.3486255,-0.0142333,0.00919106,-0.01559009
0.9589947,-0.2124276,-0.3425918,-0.01299246,0.0110393,-0.01495959
0.9605247,-0.2116335,-0.3442275,-0.007199803,0.01294235,-0.01730365
0.9625865,-0.2083027,-0.3478226,0.0002062306,0.01746059,-0.01869554
0.9627602,-0.2011419,-0.3415129,0.000250159,0.01448294,-0.02402332
0.9586104,-0.1983297,-0.3395749,0.0006716905,0.008637883,-0.03193948
0.959732,-0.2003294,-0.3389231,0.004955796,0.005737886,-0.03687232
0.9603847,-0.2006635,-0.3362151,0.005660188,0.002399448,-0.03616254
0.9588529,-0.2005764,-0.3385848,0.005144807,0.00592349,-0.0333038
0.9603734,-0.2026714,-0.3401787,0.005669479,0.0135334,-0.03446216
0.9597037,-0.2033849,-0.3425348,0.007999306,0.01586487,-0.03251648
0.9603651,-0.2023427,-0.3442181,0.013112,0.0185246,-0.03118309
0.9618905,-0.2028876,-0.3439207,0.01827024,0.02482484,-0.03686096
0.9607117,-0.2027453,-0.3452911,0.0218024,0.03430068,-0.03823327
0.9606698,-0.201092,-0.343853,0.02522174,0.04139722,-0.03692934
0.9581622,-0.198667,-0.3433045,0.03113718,0.04137562,-0.03678725
0.9541534,-0.1960017,-0.3434411,0.03465117,0.04310226,-0.03538142
0.9535237,-0.1954831,-0.3433574,0.03514807,0.04736077,-0.03486108
0.9547327,-0.1926313,-0.3489815,0.03907206,0.04907506,-0.03245838
0.9565442,-0.1889283,-0.351179,0.0426504,0.04859177,-0.03190155
0.9589297,-0.1919673,-0.3425391,0.04239541,0.0445494,-0.03359329
0.9610197,-0.1939863,-0.3331839,0.04029735,0.03841827,-0.03204272
0.961382,-0.1894831,-0.3349387,0.03769315,0.03281986,-0.03136449
0.9622203,-0.1860438,-0.3383258,0.03494729,0.03132714,-0.03060906
0.961502,-0.1857445,-0.33382,0.03163735,0.03101727,-0.02930218
0.9584297,-0.1857997,-0.3342471,0.02964413,0.02383365,-0.02797703
0.9596957,-0.1845177,-0.3358594,0.02868105,0.0159214,-0.02298504
0.9604965,-0.1826036,-0.3339368,0.02820132,0.0123487,-0.01956577
0.9591091,-0.1840444,-0.3367973,0.02928556,0.008902624,-0.01795095
0.9611821,-0.188331,-0.3362986,0.03120736,0.006510478,-0.01356703
0.9623529,-0.1916211,-0.3338073,0.03274534,0.00946704,-0.009469322
0.9625124,-0.1924692,-0.3352322,0.03410862,0.01353484,-0.00615494
0.9624595,-0.1918652,-0.3365079,0.0379446,0.007195977,-0.005506873
0.9603285,-0.191499,-0.3374437,0.040528,-0.0005901524,-0.007342979
0.9593829,-0.1893867,-0.3340085,0.03847622,-0.0003866804,-0.005049292
0.9599167,-0.1863558,-0.3309494,0.03730145,-0.003837981,-0.003465405
0.9616897,-0.1857496,-0.3346417,0.03715372,-0.006378195,-0.005287333
0.9631173,-0.1860156,-0.3374786,0.0346877,-0.0076095,-0.003987092
0.9622628,-0.1861541,-0.3359328,0.02848798,-0.01367704,-0.002556082
0.9614637,-0.1851922,-0.3343208,0.02005554,-0.007728687,0.0006815813
0.9607578,-0.184229,-0.3341569,0.01598804,0.0001573301,0.008198054
0.9600914,-0.1849281,-0.3328755,0.01487083,-0.007990044,0.01264284
0.9601982,-0.1845409,-0.3328663,0.01180475,-0.01216772,0.01439242
0.962329,-0.1837265,-0.3331019,0.01000175,-0.00852339,0.01421457
0.9660216,-0.1832136,-0.3311178,0.009281254,-0.008112111,0.01264627
0.966889,-0.1830629,-0.3320044,0.006241233,-0.004639893,0.01183891
0.9673677,-0.1840286,-0.3323845,0.003541737,1.546353e-05,0.0080503
0.9696262,-0.1849603,-0.3310322,0.004483683,0.0005259653,0.006132548
0.9695061,-0.1869385,-0.3303758,0.007585921,0.0005299494,0.009209873
0.9681223,-0.1890503,-0.3268892,0.01166764,-0.001151919,0.01182451
0.966349,-0.1923491,-0.3235952,0.01621135,-0.007166522,0.01647208
0.9626317,-0.1952155,-0.3220628,0.01471481,-0.01354127,0.02141089
0.9601178,-0.1900522,-0.3236598,0.008029904,-0.01498758,0.01962263
0.960676,-0.185538,-0.3290661,0.006513188,-0.01841898,0.01623336
0.9608172,-0.1899558,-0.3330849,0.007456672,-0.02788314,0.02059914
0.9591882,-0.1933776,-0.3373428,0.003618651,-0.02958617,0.02894911
0.9594322,-0.192686,-0.3384214,-0.002937122,-0.02653002,0.0294712
0.9603131,-0.191353,-0.3336324,-0.008328509,-0.02629985,0.02765153
0.9593296,-0.189686,-0.3317137,-0.01293603,-0.01913106,0.03726702
0.9599023,-0.1900043,-0.3335112,-0.01987601,-0.01379184,0.04827926
0.9610942,-0.1908167,-0.3398019,-0.02404381,-0.01602309,0.0507876
0.9618969,-0.1903265,-0.346002,-0.02189317,-0.01517317,0.05356848
0.9634928,-0.1920114,-0.3385195,-0.02104004,-0.01393673,0.05448259
0.9643293,-0.1942354,-0.328472,-0.02175219,-0.01279765,0.04973158
0.9673389,-0.1945927,-0.3282123,-0.01939818,-0.01126565,0.04557739
0.9720229,-0.1952061,-0.3273004,-0.0175993,-0.008323993,0.04021962
0.9738247,-0.1946406,-0.3284584,-0.0186665,0.003881081,0.03042243
0.9715624,-0.1940057,-0.3329417,-0.01943818,0.01441313,0.02076534
0.9676893,-0.1958949,-0.3260431,-0.02013594,0.008789767,0.01859646
0.9681637,-0.1970561,-0.3187174,-0.0230443,0.0007577259,0.0209264
0.9676686,-0.1972736,-0.3235372,-0.02556934,0.002760905,0.01857133
0.9635033,-0.1974545,-0.3275786,-0.02392969,-0.001072692,0.01412432
0.9637524,-0.197139,-0.3319288,-0.02056066,-0.006798581,0.01034954
0.963609,-0.1982019,-0.3394046,-0.01904966,0.002872431,0.004712501
0.9607959,-0.1988227,-0.3414002,-0.01611315,0.008592437,-0.001750734
0.9593812,-0.1976047,-0.3418141,-0.01110741,0.004982274,-0.003183609
0.9590611,-0.1969316,-0.3406303,-0.009069963,0.005307856,0.003559466
0.9600446,-0.1973233,-0.3335979,-0.01025602,0.003877655,0.006709955
0.9578619,-0.1983077,-0.3269376,-0.01152823,0.0001014377,-0.0002234385
0.9562397,-0.1989821,-0.327633,-0.01128415,-0.004371087,-0.004829904
0.9594107,-0.2004181,-0.3353842,-0.01094279,-0.006610368,-0.0002364333
0.9610787,-0.2047046,-0.3402483,-0.01046453,-0.004552459,0.004046065
0.9611036,-0.2072999,-0.3387731,-0.009099405,-0.004158321,0.002077898
0.9592594,-0.2019979,-0.3362975,-0.009650741,-0.004639652,0.003293592
0.9575049,-0.195986,-0.3338228,-0.009793635,-0.008326195,0.007868133
0.9587269,-0.1983143,-0.3333649,-0.007266968,-0.01444478,0.008346274
0.9593129,-0.1991559,-0.3361756,-0.004050859,-0.01493197,0.007792936
0.9600506,-0.1964532,-0.3395693,-0.001290165,-0.01407248,0.006184285
0.9608122,-0.2009926,-0.3403549,-0.002021463,-0.01741152,0.005023242
0.9605531,-0.2045622,-0.3398511,-0.003012147,-0.01915745,0.005901758
0.9587525,-0.2024977,-0.3412571,-0.002096584,-0.01581415,0.007447307
0.9558414,-0.2032255,-0.3421402,-0.003405459,-0.01250598,0.01142542
0.957221,-0.2038891,-0.3414122,-0.003399759,-0.01017771,0.01052889
0.9605771,-0.2024512,-0.3385763,-0.0009266789,-0.007129122,0.008241095
0.9622716,-0.2026505,-0.3374554,0.001100855,-0.005217495,0.01380112
0.963179,-0.204006,-0.3405231,0.002421498,-0.004048959,0.01617706
0.9622345,-0.2040386,-0.3405193,0.002501991,-0.002935432,0.01160673
0.9622652,-0.202092,-0.3424679,0.003571145,-0.001366535,0.009956221
0.9629433,-0.2000161,-0.3485125,0.003165412,0.003265201,0.01165917
0.9621643,-0.1994712,-0.3513889,0.0008315266,0.01093631,0.008841866
0.9620365,-0.2006521,-0.3525756,0.001175874,0.01455495,0.005582224
0.9598083,-0.2018782,-0.349395,-0.0004788845,0.01259943,0.006043335
0.9558173,-0.2030029,-0.3435152,-0.004866517,0.01110847,0.003802726
0.9538926,-0.2033061,-0.3385322,-0.006968928,0.003605354,0.005171532
0.9522175,-0.2022179,-0.3382199,-0.005025749,-0.01156991,0.009409998
0.9515726,-0.203628,-0.3454248,0.0008622814,-0.01877673,0.008910209
0.9523937,-0.2064706,-0.346639,0.005147271,-0.01683649,0.006560381
0.9522325,-0.2080521,-0.3442674,0.008605283,-0.0161042,0.002347628
0.9533727,-0.2072965,-0.3422585,0.01247065,-0.01346783,0.001554788
0.9567721,-0.2046462,-0.3362654,0.0124011,-0.008818889,0.003248559
0.9595278,-0.2037766,-0.3382441,0.01280324,-0.008744143,0.005442514
0.9605058,-0.2014256,-0.3428164,0.01372629,-0.005135972,0.009413193
0.9615699,-0.1985168,-0.3445057,0.01258217,-0.0005227023,0.005718083
0.9636859,-0.1958067,-0.3439783,0.01258612,-0.006184171,0.001748034
0.9634078,-0.1895266,-0.3359215,0.01202658,-0.01059248,0.004614256
0.9609622,-0.1890723,-0.3333379,0.009987551,-0.0116528,0.007305196
0.961103,-0.1921792,-0.3347631,0.006536657,-0.01199785,0.01173923
0.9631916,-0.192758,-0.3327128,0.001851605,-0.00310851,0.01598685
0.9645099,-0.1974166,-0.3322344,-0.002051615,0.003012882,0.01506617
0.9646044,-0.1978835,-0.3329667,-0.004506144,0.001795475,0.009383049
0.9632551,-0.1945336,-0.3355724,-0.00544857,0.007447164,0.003166247
0.9613011,-0.197556,-0.3331983,-0.008256398,0.01516033,0.0006658871
0.9605291,-0.1983402,-0.3307909,-0.01124818,0.01588168,-0.001679142
0.9616568,-0.196166,-0.335572,-0.01006722,0.01503063,-0.002120352
0.9631159,-0.1977001,-0.336567,-0.008038042,0.01152851,0.005591098
0.9635597,-0.1984699,-0.3350444,-0.007855685,-0.00160809,0.01290029
0.9614478,-0.1983242,-0.3334752,-0.009085563,-0.01101177,0.01348657
0.9576214,-0.1990865,-0.3327118,-0.008922034,-0.007135273,0.01393661
0.9577467,-0.1983839,-0.3344874,-0.007450715,-0.005940916,0.01247511
0.9595261,-0.1988128,-0.3356217,-0.00677185,-0.009037868,0.007833603
0.9598145,-0.2013159,-0.3376641,-0.005718086,-0.007014895,0.005953058
0.9625387,-0.2042587,-0.3343247,-0.00758163,-0.004760425,0.006986202
0.9633384,-0.2060177,-0.3288951,-0.0137292,-0.00402628,0.01103334
0.9617582,-0.2016382,-0.3314927,-0.01948731,-0.004150257,0.0154427
0.9627939,-0.1964315,-0.3356024,-0.02025403,-0.007006618,0.01555525
0.962622,-0.1967485,-0.3370841,-0.01788617,-0.009345576,0.01543094
0.9621621,-0.1970191,-0.3320245,-0.01774582,-0.009677256,0.01653934
0.9626628,-0.1970383,-0.3251831,-0.01728965,-0.005997711,0.01301667
0.9614027,-0.1981619,-0.3292302,-0.0183708,-0.0003654206,0.007238412
0.960684,-0.1973717,-0.3337405,-0.0205812,-0.001599431,0.005425432
0.9602289,-0.1971775,-0.3339111,-0.0187592,-0.002453123,0.005902535
0.9592996,-0.2002013,-0.3386505,-0.01850834,0.00266205,0.005828499
0.9589566,-0.2021763,-0.3389084,-0.01823691,0.004111462,0.003484577
0.9590379,-0.2004468,-0.3356389,-0.01793042,0.003448444,0.001588565
0.9602508,-0.199213,-0.3381922,-0.01976473,0.001727323,0.003128042
0.9617582,-0.1994486,-0.3366084,-0.01702372,-0.003316117,0.005247759
0.9627795,-0.1995427,-0.332831,-0.01582509,-0.006533063,0.007027574
0.9628008,-0.2010827,-0.3327858,-0.01879274,-0.00694036,0.006297899
0.9619756,-0.2029032,-0.3312007,-0.02051049,-0.008065171,0.005508492
0.9616942,-0.2032825,-0.3323373,-0.02172009,-0.0137816,0.007859009
0.9608172,-0.204421,-0.3348236,-0.02132383,-0.01595701,0.009546473
0.9595189,-0.2063773,-0.3373839,-0.02037108,-0.01076979,0.01325542
0.9580283,-0.2069862,-0.3417097,-0.0196611,-0.008046005,0.01775883
0.9561747,-0.2090818,-0.3428211,-0.01896635,-0.004164562,0.02005727
0.9567964,-0.2133562,-0.3467894,-0.01617684,0.001750086,0.02276868
0.9575158,-0.214511,-0.351275,-0.01289162,0.009331037,0.02541678
0.9564893,-0.2126578,-0.3484004,-0.01540958,0.01849078,0.02807701
0.9570434,-0.2108053,-0.3445825,-0.01721086,0.01413963,0.02309082
0.9569769,-0.2089059,-0.3401681,-0.0171254,-0.001311358,0.01307676
0.9560772,-0.2066566,-0.3356524,-0.02002836,-0.01583286,0.01518264
0.9571519,-0.2043036,-0.3329467,-0.02106444,-0.02205805,0.02248228
0.9579702,-0.2022823,-0.3301032,-0.01981639,-0.02152516,0.02342971
0.9580785,-0.2015813,-0.3324574,-0.01553727,-0.02816473,0.02410228
0.9594163,-0.2035484,-0.3366014,-0.00883016,-0.03008204,0.02560245
0.9620744,-0.2060113,-0.334996,-0.006350616,-0.02495479,0.0240123
0.9631503,-0.2066193,-0.3355711,-0.008450141,-0.02586101,0.02034661
