accx,accy,accz,gyrox,gyroy,gyroz
0.9951205,-0.1586884,0.214071,-0.1032803,-0.0322874,-0.02050129
0.9978499,-0.1609325,0.2128458,-0.1008926,-0.02633187,-0.02901469
0.9982275,-0.1632168,0.2099063,-0.1011613,-0.02122447,-0.03065264
0.9996505,-0.1668003,0.209367,-0.100249,-0.02194128,-0.03010126
1.000645,-0.1666641,0.2082911,-0.09834271,-0.02892548,-0.03039325
0.9990834,-0.1643807,0.2064374,-0.0975109,-0.03617563,-0.03157022
0.9973727,-0.1622207,0.2039295,-0.08729606,-0.03631243,-0.03865185
0.9951865,-0.158878,0.2004078,-0.07762255,-0.02819274,-0.04222994
0.9957934,-0.1570865,0.1989236,-0.08023864,-0.02093816,-0.0428361
0.9997113,-0.1563932,0.2014862,-0.08379468,-0.01746154,-0.04220831
1.002191,-0.1570584,0.2047429,-0.08611063,-0.01384784,-0.04165811
1.003499,-0.1573341,0.2038166,-0.09336544,-0.01675275,-0.03850476
1.002475,-0.1567389,0.2047116,-0.09695392,-0.02391096,-0.0321081
1.000424,-0.1596421,0.2084599,-0.09497011,-0.02344818,-0.03276167
0.9996571,-0.1629356,0.2099832,-0.09303568,-0.02365379,-0.03119172
0.9977821,-0.1640784,0.209346,-0.08616394,-0.02715353,-0.02805602
0.9969258,-0.1615527,0.2027879,-0.08043746,-0.02497821,-0.02742984
0.9975468,-0.1575909,0.1987837,-0.07717076,-0.02558074,-0.01855968
0.998964,-0.157249,0.2046034,-0.07167873,-0.02766881,-0.01302364
1.000774,-0.1562525,0.2088135,-0.07030054,-0.02662388,-0.01599859
0.9999575,-0.1589765,0.2072398,-0.06413936,-0.02937373,-0.01819212
0.9996783,-0.1647293,0.2070444,-0.05816339,-0.02912505,-0.01984276
1.000341,-0.1608999,0.2138589,-0.06074541,-0.02530095,-0.02113201
0.9997915,-0.154816,0.2186691,-0.05954256,-0.02465355,-0.01988793
1.000062,-0.1527773,0.2149304,-0.06058113,-0.03130847,-0.01552739
1.000043,-0.1509533,0.2104865,-0.06175873,-0.04213733,-0.01047178
1.000258,-0.1515752,0.2070719,-0.05895259,-0.03963541,-0.005996749
1.001902,-0.1513968,0.2074831,-0.05967441,-0.03270756,-0.005643716
1.003044,-0.150015,0.2135619,-0.05726947,-0.03293452,-0.005714429
1.001984,-0.1502128,0.2178043,-0.05452653,-0.02941109,-0.0003633438
0.9996117,-0.1502013,0.2138361,-0.05371153,-0.0233184,0.003206927
0.9985452,-0.1527743,0.2085136,-0.05276665,-0.01723562,0.00493185
0.9967978,-0.1550532,0.2114724,-0.05263555,-0.01981463,0.0003850759
0.9949822,-0.1529903,0.2116951,-0.05045606,-0.02894544,-0.008844975
0.9964799,-0.1508071,0.2070898,-0.05152543,-0.02978579,-0.00616465
0.9988094,-0.148524,0.2068842,-0.05327788,-0.03345265,-0.002688323
1.000143,-0.1464765,0.2077054,-0.05292087,-0.03574281,-0.002594467
0.9986919,-0.1466141,0.2123899,-0.05011148,-0.03129387,0.003097094
0.9962389,-0.1459084,0.2158541,-0.04394746,-0.03371755,0.002565393
0.998292,-0.1441032,0.2081631,-0.04405002,-0.03213447,0.001894074
1.000418,-0.1459795,0.2023011,-0.04525136,-0.02667072,0.006916222
0.9997673,-0.149601,0.2098596,-0.0463823,-0.02573593,0.006499185
1.000487,-0.1493932,0.2195682,-0.05024102,-0.02670635,0.008376078
1.001837,-0.1487733,0.2196092,-0.04770915,-0.03288004,0.01304072
1.003116,-0.1480214,0.218211,-0.0483085,-0.03148419,0.01146929
1.002881,-0.1468514,0.2174399,-0.05290585,-0.01931554,0.0111301
1.000233,-0.1505483,0.2129978,-0.05234914,-0.01155036,0.01312805
0.9984272,-0.1544471,0.2131833,-0.05289135,-0.01495707,0.01230994
0.9963535,-0.1554151,0.2142445,-0.05447794,-0.02286704,0.01209452
0.9943008,-0.1554958,0.2133425,-0.0537816,-0.02121101,0.01261796
0.9943123,-0.1532227,0.2159805,-0.0498391,-0.02188224,0.01299933
0.994255,-0.1504926,0.2154317,-0.04734252,-0.02590766,0.01427183
0.993644,-0.1493178,0.2126855,-0.04793617,-0.02163541,0.01537581
0.9927563,-0.1507565,0.2124416,-0.04188214,-0.02503806,0.02042737
0.992849,-0.1541443,0.2127781,-0.03551783,-0.02840119,0.02740418
0.9941549,-0.1576481,0.2157228,-0.03429028,-0.02629703,0.02805276
0.9963689,-0.160528,0.2193369,-0.02948315,-0.03011364,0.02276857
0.9993617,-0.1612745,0.220071,-0.02333009,-0.03046715,0.01153808
0.9974325,-0.1613872,0.2180271,-0.01992748,-0.03064669,0.00356836
0.9942053,-0.1610274,0.2127863,-0.01902242,-0.03131075,0.005760409
0.9962245,-0.1611737,0.2072152,-0.01812854,-0.03072368,0.006029694
0.996346,-0.163879,0.2089583,-0.0167936,-0.03425825,0.006294152
0.9956372,-0.1671871,0.2185535,-0.01891108,-0.03205476,0.005973062
0.9989821,-0.1704775,0.2242621,-0.01853797,-0.0251049,-0.004409375
1.000402,-0.1692772,0.2205845,-0.01259016,-0.02127029,-0.01427182
0.9977537,-0.1638622,0.2158829,-0.006231549,-0.02257888,-0.01672675
0.9937143,-0.1609819,0.2163675,-0.00289351,-0.02337733,-0.01312818
0.992432,-0.1583699,0.2173108,-0.005410801,-0.01995399,-0.005341368
0.9953194,-0.1550893,0.2161292,-0.01049285,-0.02133984,-0.000378862
0.9974302,-0.1532794,0.21683,-0.01496223,-0.02117627,-0.00283498
0.9967334,-0.1530137,0.21744,-0.01730935,-0.01930834,-0.008919641
0.9935191,-0.1527706,0.2183498,-0.02139112,-0.02291317,-0.01060318
0.9908648,-0.1504949,0.219399,-0.03187445,-0.02701246,-0.009375379
0.9933755,-0.1501497,0.2159764,-0.03936021,-0.03316787,-0.003933902
0.9967501,-0.1527263,0.2157963,-0.04515838,-0.03166673,0.005785571
0.9970174,-0.1549361,0.2191686,-0.05059849,-0.02284121,0.01009205
0.997992,-0.1546694,0.2195574,-0.04754268,-0.01955995,0.007893614
0.999312,-0.1533297,0.221101,-0.04699963,-0.01814679,0.004072446
0.9980625,-0.15385,0.2201794,-0.0492479,-0.02547552,0.005131916
0.9965949,-0.1506398,0.2165254,-0.04854242,-0.03440135,0.006234497
0.9961895,-0.1462165,0.2165114,-0.05486372,-0.03007493,0.005881716
0.9982135,-0.1483345,0.2165199,-0.06171429,-0.02646524,0.01032765
1.002185,-0.1514954,0.2162252,-0.06185225,-0.02226462,0.008990907
1.001907,-0.1536895,0.2173635,-0.06032491,-0.01381261,0.006885291
0.9998575,-0.1558918,0.2170429,-0.05783952,-0.01581088,0.007165809
0.998342,-0.1566256,0.2140755,-0.0543781,-0.0213908,0.001000698
0.9944926,-0.1562558,0.2116856,-0.04818527,-0.02255306,-0.0007337443
0.9942444,-0.1525246,0.212498,-0.04250401,-0.02545514,0.0001242299
0.9955664,-0.1486898,0.2113149,-0.04234939,-0.02335432,0.002098137
0.9945194,-0.1504435,0.2103303,-0.04250609,-0.0153399,0.006279693
0.9962634,-0.1524957,0.2134292,-0.03852353,-0.01151972,-0.001208969
0.9967333,-0.1500939,0.2128993,-0.03410387,-0.01327392,-0.009915498
0.9969518,-0.1498387,0.2116689,-0.03191124,-0.01955982,-0.008587533
1.000432,-0.1532763,0.2136447,-0.02872255,-0.02335086,-0.007991654
0.9991845,-0.1545301,0.2149992,-0.025298,-0.02198811,-0.008084466
0.9958921,-0.1535421,0.217327,-0.02181189,-0.02065364,-0.004135118
0.995664,-0.1523335,0.2160421,-0.01597067,-0.01951514,-0.003742293
0.9954667,-0.1535324,0.2095086,-0.01450921,-0.0217129,-0.008597101
0.9951751,-0.1550282,0.2055073,-0.01478583,-0.02164254,-0.01091125
0.9943287,-0.1532007,0.2073579,-0.01016284,-0.01725716,-0.01291994
0.9953756,-0.1514519,0.2133466,-0.009453343,-0.01639085,-0.01482189
0.9984037,-0.1495055,0.2166136,-0.0110436,-0.01746831,-0.01519866
0.998579,-0.1492797,0.2154218,-0.009838717,-0.02147055,-0.01800095
0.9968396,-0.1516416,0.2140876,-0.01292296,-0.02116067,-0.01783846
0.9952104,-0.1531511,0.2118093,-0.01606468,-0.01613603,-0.01680079
0.99573,-0.155372,0.2090666,-0.01520817,-0.01900674,-0.01863449
0.997345,-0.1506484,0.2098934,-0.01603137,-0.02443147,-0.01781137
0.9969066,-0.1413447,0.2115751,-0.01934154,-0.02947106,-0.01577824
0.9964399,-0.1413973,0.207426,-0.02929256,-0.03045875,-0.01070773
0.99619,-0.1436037,0.2041295,-0.04417081,-0.02407579,-0.004379823
0.9981267,-0.1467158,0.2082733,-0.05158917,-0.02094674,-0.001543688
1.00133,-0.1547281,0.2119591,-0.05499412,-0.01980158,0.0004998779
0.9998751,-0.1549877,0.2130029,-0.06074479,-0.01482582,0.001379554
0.9984011,-0.1491166,0.2131057,-0.06203476,-0.009727209,0.003800721
0.9989628,-0.1472058,0.213744,-0.06259076,-0.01199994,0.003301961
0.9982754,-0.1484239,0.216369,-0.06659795,-0.01789497,0.0002820222
0.9986911,-0.152651,0.2163674,-0.07018237,-0.01731057,0.006933142
0.9989754,-0.155562,0.2162656,-0.07353308,-0.01637313,0.01367681
0.9988495,-0.1543633,0.2176845,-0.06858295,-0.01667515,0.01542423
0.9987223,-0.1555088,0.2180581,-0.05749732,-0.01553784,0.01739243
0.9967074,-0.1587908,0.219958,-0.04964961,-0.01632381,0.01658729
0.9970744,-0.1614947,0.2203352,-0.04020308,-0.01624656,0.01716563
0.999698,-0.1643872,0.2209828,-0.0303067,-0.01785639,0.01771885
1.000037,-0.1621092,0.2253466,-0.01671844,-0.02007257,0.01869222
0.9992159,-0.1548564,0.224441,-0.005791237,-0.01827277,0.02154003
0.9982585,-0.1516333,0.2189772,-0.01025879,-0.01832803,0.01940648
0.9983927,-0.1510612,0.2173066,-0.0123761,-0.02121328,0.01820474
0.9988642,-0.1498262,0.2165713,-0.01012504,-0.02364034,0.01927929
0.9974396,-0.1520152,0.214616,-0.01139613,-0.02281957,0.01677027
0.9971125,-0.1556134,0.2149813,-0.008034149,-0.01912938,0.010817
0.9982462,-0.1569776,0.2158607,-0.007113352,-0.01573545,0.002417429
0.9988016,-0.1570938,0.2145978,-0.007481363,-0.0114499,-0.002046317
0.9993411,-0.1577492,0.2126988,-0.003490174,-0.008464705,-0.002126321
1.001022,-0.161442,0.2087066,-0.0003716467,-0.006548485,-0.0008549027
1.003329,-0.1634693,0.2053131,0.003599472,-0.006371183,0.003040779
1.001269,-0.1554598,0.2072621,0.003530006,-0.01228891,0.008949217
0.9976842,-0.146294,0.2087122,-0.001071551,-0.0155607,0.01544752
0.9986508,-0.1498964,0.2093258,-0.006662282,-0.0125543,0.01576468
0.9991412,-0.1550433,0.2132677,-0.01535746,-0.01034921,0.01388148
0.9990852,-0.1531598,0.2157841,-0.01601222,-0.009559111,0.0184448
1.00021,-0.153502,0.2161585,-0.01225146,-0.009901034,0.01728892
0.9982247,-0.151858,0.2152738,-0.01462109,-0.01158944,0.01077563
0.9967446,-0.1489595,0.2113949,-0.01276382,-0.01496003,0.01049084
0.9990754,-0.1500279,0.2085203,-0.01212321,-0.01709301,0.01225355
1.000642,-0.1488604,0.2098524,-0.01451273,-0.01507393,0.0153959
0.9991163,-0.1499479,0.2122349,-0.01008928,-0.0133446,0.01681672
0.9979186,-0.1515247,0.2126372,-0.007642364,-0.01288068,0.0157168
0.9990268,-0.1516056,0.212765,-0.003028797,-0.01468382,0.0155167
0.999835,-0.1555363,0.2137777,0.002389825,-0.0174703,0.01010337
1.000875,-0.1546106,0.2159125,-0.0004623772,-0.0147068,0.006627775
1.001639,-0.1531291,0.2184583,0.003422447,-0.01210449,0.006010313
0.9994243,-0.1560713,0.2182333,0.006716784,-0.0137765,0.002823052
0.9978985,-0.1549171,0.2170283,0.000573846,-0.01373579,0.004800589
0.9984959,-0.1527687,0.2147663,-0.0007715356,-0.01311794,0.005302554
0.9979287,-0.1508815,0.2112284,0.001133335,-0.01413542,0.004063467
0.9964498,-0.1506543,0.2130073,0.003600604,-0.01595222,0.005681346
0.9953074,-0.1532568,0.2186012,0.004655432,-0.01782718,0.004010537
0.9942199,-0.155389,0.223799,0.002891847,-0.01575491,0.003428068
0.9940343,-0.1593276,0.2264669,0.0007824667,-0.01269856,0.002776591
0.9953646,-0.1585544,0.2229392,-0.003920624,-0.01426914,0.004222913
0.9971068,-0.1550464,0.2181726,-0.00463718,-0.01417026,0.01078426
0.9989621,-0.1576647,0.2160189,-0.003976373,-0.01050142,0.009446759
0.9983862,-0.1573928,0.2168315,-0.006211789,-0.008949405,0.005014504
0.9961357,-0.1559712,0.2219559,-0.003500259,-0.009483608,0.004353494
0.997555,-0.1574248,0.2243076,-0.001236773,-0.01098418,4.787681e-05
0.9988471,-0.1548236,0.2204075,-0.002453148,-0.01023595,-0.001253688
0.999063,-0.1528962,0.2156156,-0.003423588,-0.006965717,0.00128975
1.000645,-0.1523054,0.21403,-0.006755928,-0.005982295,-0.0003662679
0.99899,-0.1517625,0.215055,-0.01191374,-0.006953055,0.0004021158
0.9977319,-0.1547688,0.2146352,-0.01492282,-0.009871796,0.002719428
0.9981967,-0.1550118,0.2150101,-0.0124703,-0.01208174,0.001136461
0.996738,-0.1532433,0.2160259,-0.009097514,-0.01030877,-0.0003821259
0.9974757,-0.1544758,0.2145468,-0.008027224,-0.009076927,-0.002228702
0.9993555,-0.1544222,0.2139062,-0.004957231,-0.00737174,-0.001709646
1.00023,-0.1537242,0.2112908,-0.003164251,-0.004879603,0.0009608357
1.00003,-0.1544603,0.208302,-0.004829574,-0.005914911,0.00208956
0.9977649,-0.1541504,0.2103392,-0.004821857,-0.008172074,0.003843521
0.9971794,-0.1534372,0.2115632,-0.002385061,-0.01046524,0.003527369
0.9991541,-0.1517321,0.2111214,-0.0007932627,-0.008302318,0.004667633
1.001525,-0.1495634,0.211105,0.0002853777,-0.002193331,0.009838382
1.001414,-0.1525364,0.2105798,0.003813357,-0.001879257,0.01244843
0.9982082,-0.156633,0.209925,0.006134824,-0.002339969,0.0126405
0.9965643,-0.1554851,0.2099749,0.006260743,-0.003751764,0.01141047
0.9972363,-0.1541584,0.2149538,0.01117248,-0.01067502,0.01067413
0.9984335,-0.1543003,0.2214088,0.01962658,-0.01296303,0.01288089
0.9988526,-0.1540994,0.2230333,0.02324354,-0.01291412,0.01979321
0.9989979,-0.1558987,0.222424,0.01975434,-0.01457156,0.02832959
1.001395,-0.1589382,0.2217813,0.01707575,-0.01228513,0.02810903
1.002832,-0.1594406,0.2219532,0.02010417,-0.007647192,0.02639473
0.9994841,-0.1565226,0.2209251,0.0248025,-0.005623432,0.0289759
0.9961738,-0.1558162,0.2181083,0.03059028,-0.007163677,0.02636176
0.9996125,-0.1579835,0.2152634,0.03479508,-0.006849886,0.02360392
1.002582,-0.1560806,0.2126118,0.03496171,-0.00818589,0.02000843
0.9973389,-0.1527683,0.2187176,0.03491294,-0.01208608,0.01217841
0.9941931,-0.1510924,0.2262589,0.03265654,-0.009884322,0.012691
0.9965667,-0.1508311,0.2182791,0.03039941,-0.00797232,0.01531596
0.9980945,-0.1539915,0.2119442,0.03185698,-0.005646157,0.01172199
0.9997449,-0.1547137,0.2172047,0.03065569,-0.0006122842,0.01111228
1.000909,-0.1535026,0.2176345,0.02815417,-0.002404535,0.01121245
1.00158,-0.1535328,0.2162243,0.02654501,-0.004370337,0.01029825
1.002861,-0.151312,0.2196206,0.02296879,-0.003790545,0.01171527
1.001386,-0.1512191,0.2207957,0.02157116,-0.005465557,0.01141062
0.9984238,-0.1526457,0.2190406,0.02060096,-0.004067914,0.01030522
0.9972518,-0.1523631,0.2180866,0.01742863,-0.0006218763,0.008327869
0.9956458,-0.151009,0.2181686,0.01700629,0.0008678596,0.004651624
0.9953223,-0.1471427,0.2181291,0.01559384,-0.000551102,0.003611739
0.9983905,-0.1454529,0.2188738,0.009232057,-0.002973623,0.002706697
0.9992579,-0.1451161,0.2199226,0.004165777,-0.001077769,0.001538574
0.9990221,-0.1438735,0.2193704,0.00346092,0.002485654,0.002274422
0.9994592,-0.1458616,0.2198133,0.002958842,0.004354444,-0.0003758706
0.9973326,-0.1507944,0.2228711,0.0002162355,0.004798606,-0.004179003
0.9967173,-0.1553491,0.22643,-0.001004138,0.001563607,-0.005363262
0.9977204,-0.1520656,0.2257464,-2.350333e-05,-0.00126944,-0.009893556
0.9981695,-0.1457961,0.2194909,2.487798e-05,-0.001423967,-0.0151548
0.9998185,-0.1471565,0.2161172,0.000800493,-0.0009909202,-0.01499181
1.00036,-0.1482586,0.2173041,0.002735114,0.003293204,-0.01509537
0.9998952,-0.1484439,0.2184438,0.006678618,0.006085215,-0.01705425
0.9999434,-0.1522612,0.2206712,0.01535444,0.003185922,-0.01548254
0.9995119,-0.1535942,0.221203,0.02635857,0.001962902,-0.01252707
0.9973612,-0.1541496,0.2212434,0.0370284,0.001790257,-0.009494403
0.9947312,-0.1542289,0.224516,0.04890142,0.000494785,-0.004588356
0.9947167,-0.1509305,0.2243095,0.06339397,-0.0004196409,0.0005312795
0.9945893,-0.1496926,0.2220166,0.07094088,-0.002987948,0.006324919
0.9934359,-0.1518794,0.2214917,0.0686637,-0.005771094,0.00908761
0.9947684,-0.1546173,0.2187307,0.07107639,-0.006855809,0.006739064
0.9967558,-0.1555695,0.2188082,0.07840079,-0.00457328,0.004617863
0.9977694,-0.1549162,0.2216444,0.08958423,0.0005303143,0.0004270914
0.9986725,-0.1541287,0.2214347,0.1096704,0.0005916516,-0.006688065
0.9978687,-0.1523019,0.2222508,0.1249479,-0.001399675,-0.01005388
0.9957371,-0.1532423,0.2214771,0.1331181,0.0006175671,-0.005089484
0.995131,-0.1543467,0.2180595,0.1459679,0.001652428,0.002073825
0.9943388,-0.149275,0.2192824,0.1531866,0.002583928,0.001139642
0.9922131,-0.1453289,0.225192,0.1461765,0.001338389,-0.0001578496
0.9920897,-0.1446368,0.2307766,0.1390023,-0.00395961,0.002240313
0.9930067,-0.1409433,0.2273869,0.1337472,-0.007454841,0.002007242
0.994487,-0.1372954,0.2211233,0.122671,-0.01203807,0.005067173
0.9986126,-0.1386771,0.2231846,0.1167447,-0.0125493,0.01333682
1.000568,-0.1399292,0.2227644,0.1140703,-0.005648672,0.02089913
0.9969915,-0.1373956,0.2201934,0.1003962,-0.003741152,0.01952517
0.9928066,-0.1350163,0.2197372,0.0860319,-0.006985378,0.01141039
0.9927748,-0.1302707,0.2163142,0.07688085,-0.01092605,0.009246685
0.9955108,-0.1253133,0.2219144,0.06280547,-0.01375123,0.008363023
0.9975179,-0.1249991,0.231804,0.04118303,-0.01419648,0.008697351
0.999858,-0.1255865,0.2311828,0.01923305,-0.01449299,0.01183778
1.003188,-0.1305225,0.2295526,0.003426763,-0.01059486,0.00930984
1.00409,-0.1346937,0.2285647,-0.01266815,-0.001981181,0.010786
0.9998636,-0.1293011,0.2240599,-0.03015116,0.005308047,0.01780902
0.9953144,-0.123698,0.2208681,-0.04420394,0.004787935,0.02124492
0.9970137,-0.1218414,0.2203242,-0.05552122,0.00233296,0.01856045
0.9983491,-0.1210701,0.2205265,-0.06302879,0.007202069,0.01244308
0.9961722,-0.1239823,0.2182189,-0.07361279,0.006011088,0.0152517
0.9964939,-0.1306179,0.2156531,-0.08552713,0.002547496,0.01627155
0.9959595,-0.1337545,0.2165317,-0.09029557,0.007087571,0.008677112
0.9956844,-0.1319569,0.2171852,-0.09180118,0.006214746,0.006755624
0.9994947,-0.1357063,0.2165507,-0.09233402,0.00555067,0.003471986
1.002401,-0.1448054,0.217137,-0.09626588,0.006702288,-0.004327839
1.003068,-0.1502261,0.2169768,-0.09747407,0.004018389,-0.01075032
1.000473,-0.1492702,0.2149815,-0.08812628,0.005684278,-0.0121222
0.9961046,-0.1473812,0.2144126,-0.07778118,0.005203992,-0.009845994
0.9944107,-0.149237,0.2147648,-0.06824054,0.002095883,-0.01097322
0.9942442,-0.1488313,0.2151496,-0.06115088,-0.0005232836,-0.004955871
0.9956773,-0.1479023,0.2161544,-0.05793542,-0.004796938,0.003651978
0.9971775,-0.1493044,0.2167374,-0.05479576,-0.004046534,0.006942283
0.9970702,-0.1482769,0.2188492,-0.05449558,-0.002495261,0.01322006
0.9965284,-0.1494005,0.2201182,-0.05313155,-0.003383081,0.01618444
0.9957113,-0.1534784,0.2190886,-0.04533027,-0.004998138,0.02134319
0.9975394,-0.1564541,0.2195919,-0.03418057,-0.008706352,0.02852516
0.9995387,-0.1562362,0.2194594,-0.02672002,-0.01152695,0.02852259
0.9982775,-0.1530056,0.2192682,-0.02126727,-0.01378648,0.03039348
0.9974776,-0.1514004,0.2206243,-0.0145589,-0.01352239,0.03112813
0.9971979,-0.1486639,0.2236239,-0.01340172,-0.01006045,0.02839886
0.9970104,-0.1479037,0.2270267,-0.01183967,-0.005717699,0.0257933
0.9974185,-0.1523891,0.2222992,-0.007522604,-0.001936185,0.02443146
0.9971635,-0.1532599,0.2159589,-0.003857774,-0.002697038,0.02576439
0.9975217,-0.1525194,0.2180257,0.002308254,-0.002293663,0.02570998
0.9991037,-0.1514814,0.219324,0.002892317,-0.001814858,0.02858144
1.000477,-0.1486018,0.2194192,0.004480669,-0.008220908,0.03090141
1.000055,-0.1497714,0.2235886,0.007512757,-0.009863734,0.02811517
0.9988848,-0.1536402,0.225832,0.0006611433,-0.007265221,0.0277747
0.999411,-0.1554619,0.2261199,-0.001350121,-0.009919319,0.03015011
1.000263,-0.1525281,0.227252,-0.0003808791,-0.009066103,0.03384511
1.000085,-0.1473406,0.2275435,-8.001472e-05,-0.006736518,0.03428427
0.9998792,-0.1443384,0.2300633,0.005985946,-0.008872436,0.03096777
1.000186,-0.1475367,0.2321879,0.003509829,-0.006826474,0.02440218
1.000972,-0.1535447,0.2306388,-0.000527824,-0.001236229,0.01567615
1.001051,-0.1479093,0.2320333,0.0006163362,0.001295604,0.01749675
0.9988268,-0.1418575,0.2328157,-0.004463007,-0.0005150035,0.02007143
0.9962519,-0.1456097,0.2299149,-0.008044971,-0.002505578,0.01592565
0.9972768,-0.144457,0.2270291,-0.007385689,-0.003098541,0.02072816
0.9997387,-0.1439178,0.2228731,-0.005479201,-0.006096058,0.0248529
1.000107,-0.1462435,0.2259705,-0.002133032,-0.00600269,0.01950705
0.9998005,-0.1453815,0.2313925,-0.001777341,-0.005432812,0.01628048
0.9981734,-0.1460944,0.2250588,-0.002662319,-0.008284077,0.0144042
0.996481,-0.1448197,0.2214333,-0.006260223,-0.006119087,0.01109493
0.9972981,-0.1438852,0.2245788,-0.01204542,-0.00426255,0.008624975
0.9972757,-0.1452284,0.2244925,-0.01400925,-0.004138217,0.006438678
0.9960993,-0.145921,0.2277319,-0.01339894,-0.001824301,0.003083715
0.9953235,-0.1483085,0.2317116,-0.01302259,-0.002983399,-0.001574243
0.9939115,-0.1492083,0.2282173,-0.01471272,-0.003306802,-0.002851818
0.9930612,-0.1508566,0.2246102,-0.01541492,-0.000231474,-0.002133478
0.9945506,-0.1551701,0.2256692,-0.01464646,0.002199101,-0.003550678
0.996725,-0.1575007,0.2227437,-0.01542698,0.003615212,-0.004075859
0.9956379,-0.1567554,0.2172227,-0.01366207,0.002871319,-0.006898107
0.9934023,-0.1548494,0.2192426,-0.0123987,0.001661289,-0.01265103
0.9933798,-0.1573273,0.2209117,-0.01382034,0.0005322788,-0.01393971
0.9945189,-0.1599928,0.2187299,-0.01366742,-0.001661228,-0.0103097
0.9970887,-0.1598739,0.2194573,-0.01422168,-0.0003960778,-0.005282277
0.998901,-0.1634199,0.2195077,-0.0126455,0.006859603,-0.004702875
0.999126,-0.1648171,0.2203937,-0.007513712,0.0141589,-0.008161469
0.9963964,-0.1616705,0.2194886,-0.005328412,0.01379286,-0.008806743
0.9913973,-0.1587483,0.2125601,-0.01042411,0.003871906,-0.007880673
0.9942384,-0.1555486,0.2112211,-0.02167971,-0.006474834,-0.00470806
0.9980414,-0.1550978,0.2175816,-0.03192838,-0.00564735,-0.001071981
0.9953637,-0.1562788,0.2235253,-0.03947736,0.0002217732,-0.002571348
0.9982821,-0.1576412,0.2221012,-0.03899823,0.001855358,-0.001006604
1.000957,-0.1620251,0.2150124,-0.03152411,0.005253527,0.009315512
0.9959065,-0.1646281,0.2100559,-0.03217584,0.008013629,0.01871252
0.9931807,-0.1616651,0.2017803,-0.03185102,0.003546895,0.01749492
0.9950538,-0.1564632,0.1978904,-0.02763482,0.002862739,0.01254133
0.9993424,-0.1550748,0.2058428,-0.02920937,0.01388454,0.009744303
1.004353,-0.1599461,0.2075958,-0.02776742,0.02399252,0.002717321
1.006155,-0.1651423,0.2020787,-0.02811237,0.01791994,0.003581862
1.001538,-0.1661891,0.1996468,-0.02661683,0.006045235,0.01132024
0.9953703,-0.1638903,0.2047095,-0.01200863,0.002711099,0.007728256
0.9960176,-0.159661,0.2106652,-0.001076772,0.001904399,0.005961604
0.9998034,-0.1557372,0.2045329,-0.003572549,0.007419795,0.00527856
1.00226,-0.1570977,0.2003077,-0.0066677,0.01743195,7.655863e-05
1.00181,-0.1642714,0.2041791,0.0007010802,0.01949287,0.006064133
0.9991541,-0.1700788,0.2055352,0.009043173,0.01861785,0.01527405
0.9984281,-0.1707974,0.2099219,0.01844443,0.01457247,0.02089005
0.9967857,-0.1646558,0.2137512,0.03161524,0.012406,0.018553
0.9960439,-0.1584983,0.2118489,0.03164625,0.01601891,0.008748981
0.9960242,-0.1622056,0.212756,0.03073265,0.01274723,0.00947091
0.9941725,-0.1649868,0.2149064,0.03498444,0.009481122,0.01230477
0.9969601,-0.1625362,0.2127661,0.03210912,0.007533211,0.0190625
0.9977171,-0.1610173,0.2113302,0.02917992,0.002954288,0.03497766
0.9949478,-0.1563573,0.212739,0.02367348,0.003835591,0.03589488
0.9961357,-0.1540111,0.216501,0.01802972,0.001489895,0.02360094
0.9939988,-0.1573507,0.2247539,0.01448389,-0.003158997,0.007674677
0.991921,-0.1609755,0.2276061,0.01158793,-0.006350793,-0.004780981
0.993851,-0.1642385,0.2264931,0.01081566,-0.01288085,-0.004933263
0.9937604,-0.1602465,0.2353762,0.0008984374,-0.01275428,-0.008423735
0.9944536,-0.1532722,0.2425779,-0.004601087,-0.0113767,-0.01285603
0.9939105,-0.1556986,0.2397726,-0.001932226,-0.01200024,-0.009118107
0.9924294,-0.1586449,0.2357655,-0.006174676,-0.003744327,-0.01070816
0.9944124,-0.1581072,0.2328023,-0.006937996,0.005963745,-0.01467459
0.9955186,-0.1607098,0.2320315,-0.00783829,0.01358895,-0.0146818
0.9949148,-0.1615702,0.23219,-0.01400453,0.01646364,-0.01543768
0.9933948,-0.1606936,0.2326385,-0.01887417,0.01275169,-0.01559309
0.9920646,-0.1604612,0.2337912,-0.02322261,0.01173349,-0.01856615
0.9914069,-0.1591762,0.2335108,-0.02652531,0.006648884,-0.02195146
0.9885081,-0.1601375,0.2340456,-0.03252401,-0.0003799871,-0.01506856
0.9867682,-0.162487,0.2351373,-0.03876956,0.0005491149,-0.004607032
0.9880606,-0.1667876,0.2346033,-0.04071609,-0.0001505643,-0.0006691571
0.9903302,-0.1723427,0.2330829,-0.03146122,-0.0009105743,-0.002515777
0.9928249,-0.1727272,0.2304782,-0.01406699,0.0008233772,-0.00500563
0.9927797,-0.1709933,0.2283172,-0.00941771,0.0002906674,-0.005958083
0.9903386,-0.1705921,0.2288907,-0.008333085,0.001216622,-0.008700925
0.9881183,-0.1707471,0.2298176,-0.005107894,-0.0002153789,-0.008654595
0.9891418,-0.1710953,0.2293342,-0.008341902,-0.004355845,-0.006807165
0.9932374,-0.170622,0.2317459,-0.00488346,-0.006264407,-0.008904838
0.9949944,-0.1703398,0.2347259,0.0006519461,-0.006918223,-0.008425356
0.9935998,-0.1682738,0.2345019,0.004203422,-0.005964515,-0.007233872
0.9915677,-0.1656508,0.2359964,0.01049477,-0.006660223,-0.006133405
0.9912311,-0.1661641,0.2365632,0.01390165,-0.008650103,-0.001851793
0.992475,-0.1654196,0.2328038,0.01834574,-0.009968408,-0.001141844
0.9934063,-0.163014,0.2303318,0.01687337,-0.01013831,-0.000656273
0.9958155,-0.1636506,0.2288875,0.01106436,-0.003386087,-0.001312091
0.9964261,-0.1638165,0.2269232,0.01199598,0.002738458,-0.01220438
0.994289,-0.1597224,0.2273071,0.01137901,-9.102979e-05,-0.02272541
0.9944081,-0.1561531,0.2265999,0.009390451,-0.002911676,-0.02231168
0.9944762,-0.1553121,0.223944,0.004433433,-0.003466181,-0.01968129
0.9943195,-0.1533243,0.2249009,-0.002022643,-0.006071884,-0.02185393
0.9946777,-0.1492667,0.2253114,-0.002028021,-0.005891964,-0.02409717
0.9941959,-0.1466552,0.2229609,-0.005195696,-0.001988035,-0.02691562
0.9947714,-0.147163,0.2238828,-0.01260838,-0.0004010468,-0.03137603
0.9955285,-0.1478119,0.2263524,-0.01969081,0.001922303,-0.03392203
0.9968458,-0.1491506,0.2266098,-0.02574279,0.004505844,-0.03848322
0.9978177,-0.1521093,0.2242326,-0.03223269,0.001488115,-0.0379846
0.9969375,-0.1517093,0.2215456,-0.0424793,0.00016327,-0.02794657
0.9972002,-0.1492122,0.2201924,-0.04755774,0.00499138,-0.02491466
0.9972222,-0.1509165,0.2178763,-0.05046829,0.008758094,-0.03071917
0.9961316,-0.1570288,0.2166444,-0.05295621,0.005760742,-0.0367213
0.9960544,-0.162252,0.2167871,-0.04635962,0.001287747,-0.03884966
0.9974615,-0.1618122,0.216774,-0.0406572,0.001533043,-0.0366565
0.9991638,-0.1584964,0.2189835,-0.03529859,0.0008450336,-0.03712363
0.9978967,-0.155571,0.2219614,-0.03052819,2.279135e-05,-0.03869438
0.9964122,-0.150747,0.2240777,-0.03600185,0.001891295,-0.04152909
0.9976793,-0.1485111,0.226561,-0.03877666,0.002422933,-0.04544664
0.9982719,-0.1520125,0.2311468,-0.0366148,0.002040371,-0.03964554
0.9985797,-0.1536978,0.2332548,-0.03397042,-0.0005978804,-0.03328102
0.9985921,-0.1544359,0.2245209,-0.02764354,-0.002928448,-0.03727226
0.9965448,-0.1568152,0.2161444,-0.02417802,-0.001418998,-0.0392721
0.9953259,-0.1577751,0.2208852,-0.018202,-0.0009533234,-0.0365189
0.9957858,-0.1589343,0.2247152,-0.01114143,-0.002491274,-0.03625342
0.996023,-0.1582145,0.2212634,-0.01147346,-0.004718267,-0.03342033
0.9957816,-0.156863,0.2227418,-0.005018097,-0.007359063,-0.02826311
0.9964435,-0.1573189,0.2249451,0.005075196,-0.007376748,-0.02789005
0.9995474,-0.1568456,0.2213985,0.003933327,-0.00477377,-0.02609915
1.002413,-0.1588646,0.2165336,0.002458197,-0.003132072,-0.02147289
1.001773,-0.1598433,0.2107456,0.006123095,-0.002081921,-0.01975328
1.000136,-0.1549488,0.2115934,0.007013374,-0.001896531,-0.01534995
0.9990016,-0.1486581,0.2174777,0.006719532,-0.004340679,-0.009782846
0.9966306,-0.1450824,0.2173926,0.006289123,-0.006306653,-0.01094382
0.9964516,-0.1458717,0.2174773,0.005373065,-0.007923339,-0.01121351
0.9980026,-0.145534,0.2152065,0.006169952,-0.008223937,-0.006658512
0.9963332,-0.1450282,0.2103534,0.004421276,-0.006364669,-0.00588728
0.9966507,-0.1468207,0.2133368,1.216474e-05,-0.006689588,-0.006274941
0.9982889,-0.1452727,0.21595,-0.004385217,-0.004933621,-0.006593467
0.99694,-0.1440704,0.2160088,-0.009014879,-0.001205854,-0.009548062
0.9985997,-0.1421928,0.214922,-0.01200158,-0.001144284,-0.004953973
0.9992706,-0.1399773,0.210884,-0.01410339,-0.002227248,0.001471519
0.9959538,-0.146683,0.2123225,-0.01267699,-0.005765074,0.001406805
0.995512,-0.1525667,0.2135741,-0.01015825,-0.0112938,0.003803169
0.9968253,-0.1505469,0.2115165,-0.01143415,-0.01248899,0.002356537
1.000225,-0.1516358,0.2129055,-0.01113962,-0.008994928,-0.002510988
1.003936,-0.1547868,0.2126687,-0.01174206,-0.006381864,0.000413712
1.001176,-0.1499001,0.2118488,-0.01266484,-0.006785508,0.002842806
0.997613,-0.1438267,0.2120758,-0.01222063,-0.006371279,0.004757883
0.9988481,-0.1461796,0.2103964,-0.0158731,-0.006556203,0.01028857
1.000247,-0.1490604,0.2097601,-0.01704934,-0.007937878,0.009901156
1.001635,-0.1513233,0.2080544,-0.01630946,-0.006430751,0.009431595
1.003649,-0.1560042,0.2071889,-0.01639549,-0.004000609,0.01379908
1.002647,-0.1560764,0.2133509,-0.009566548,-0.002647152,0.01099994
1.001356,-0.154285,0.2187425,0.002943176,-0.003064189,0.006158535
1.001607,-0.1523504,0.2159602,0.01199193,-0.003987748,0.006748435
1.001096,-0.1487402,0.2128355,0.009270951,-0.001107815,0.006777291
1.001476,-0.1495784,0.2139078,0.003968658,0.00393812,0.007852854
1.001391,-0.1509411,0.2123407,0.002720943,0.00690483,0.008157132
0.9998256,-0.1494238,0.2103605,-1.200975e-05,0.004357652,0.005588058
0.9982007,-0.1496411,0.2133644,0.005978516,-0.001757161,0.004058155
0.9966616,-0.1485688,0.2153814,0.01379322,-0.00389659,0.002308224
0.9981891,-0.1462983,0.214496,0.01133195,-0.00176627,0.001929336
1.000479,-0.1468347,0.2136035,0.01123628,0.002520779,0.0001606126
1.000815,-0.1459056,0.2139923,0.01025382,0.00662133,-0.004324963
1.001719,-0.1440291,0.2164255,0.003581632,0.007204678,-0.004404262
1.001341,-0.1477515,0.2189807,-0.0007315987,0.008445744,-0.002193439
0.9996239,-0.1535374,0.2210051,-0.001123594,0.009410289,0.001775744
0.9973291,-0.1549737,0.2210044,0.001536962,0.005237032,0.00637166
0.99516,-0.1530014,0.2195424,0.001933275,0.001805426,0.003165539
0.9974442,-0.1512443,0.2194194,0.001266182,0.002653161,-0.0006916777
0.9994737,-0.1511218,0.2187644,0.0024336,0.003392754,0.003738185
0.9965381,-0.1507667,0.2164759,0.00215547,0.002616563,0.007629997
0.9953104,-0.1507058,0.2131558,0.002379683,0.002800757,0.00974387
0.9978487,-0.1525319,0.2128093,0.002267108,0.003978675,0.01480402
0.9993295,-0.1533226,0.2152155,0.003708274,0.003586727,0.01268097
0.9986082,-0.1525563,0.2148654,0.008816466,0.003044093,0.004371653
0.9984582,-0.1523419,0.216622,0.01126989,0.00493942,0.00176989
0.999757,-0.1511676,0.2189703,0.01038997,0.006182649,0.00266754
1.000612,-0.1495171,0.2167513,0.009760567,0.00464628,0.004195349
1.001735,-0.1508623,0.2155199,0.01065324,0.00367371,0.004507978
1.002416,-0.1530458,0.2135801,0.01070062,0.003705059,0.0038031
0.9985167,-0.1528633,0.2135155,0.01093664,0.003412044,0.004451916
0.9940846,-0.1528237,0.2186508,0.01574799,0.003512989,0.003771405
0.9954869,-0.1538037,0.2199353,0.02109958,0.003855475,0.003907178
0.9969362,-0.1543296,0.2183718,0.0228909,0.004376973,0.002255276
0.9951383,-0.1543298,0.2169082,0.02156056,0.003166394,-0.001150815
0.9957784,-0.1534375,0.2157749,0.02057551,0.001296823,0.0002066461
0.9963743,-0.151517,0.2163359,0.02103646,0.001342565,0.000721276
0.9952577,-0.1493176,0.2150241,0.01902131,6.215336e-06,0.001284715
0.9961165,-0.1498434,0.2158161,0.01788425,-0.001946621,0.004531235
0.9962825,-0.1527223,0.2179885,0.01863683,-0.002342163,0.005180002
0.9969184,-0.1540734,0.2170886,0.01816399,-0.002100545,0.005086659
0.9979333,-0.1553305,0.2160767,0.0179938,-0.001279205,0.004626812
0.9961534,-0.1552939,0.2142761,0.01699488,-0.001178004,0.003588303
0.9972374,-0.1514826,0.2161983,0.01583713,-0.0008830014,0.004085967
0.9999173,-0.1481472,0.2188908,0.01549886,0.0002116771,0.004332042
0.9999445,-0.147779,0.2172097,0.01597817,0.001206083,0.001558864
0.9997038,-0.1479114,0.2199038,0.01941171,0.001637617,-0.0002986224
0.9972648,-0.1451825,0.2208339,0.0207113,0.002303801,0.002558494
0.9948018,-0.1433459,0.2186423,0.01225612,0.004766073,0.003200311
0.9958326,-0.1449337,0.2208338,0.0002644249,0.00522529,0.002545225
0.9967695,-0.1445174,0.2185572,-0.0035486,0.003423468,0.0003473398
0.9982289,-0.1442718,0.2168389,-0.006365073,0.0008373586,-0.005335797
1.000846,-0.1457171,0.2205814,-0.01233205,-0.002987752,-0.0008758908
1.000451,-0.1458491,0.2220033,-0.01259726,-0.002317293,0.003808561
0.9992397,-0.1460196,0.2241173,-0.01372185,-0.000538992,-0.003271799
1.000357,-0.1455279,0.2223414,-0.01564631,-0.001281692,-0.005638225
1.000169,-0.1450422,0.2154732,-0.01496643,0.001054866,-0.004618598
0.9993823,-0.1453033,0.2128654,-0.0183807,0.001617393,-0.009333071
0.9993102,-0.1459154,0.2137619,-0.0201498,0.0005834473,-0.01516895
0.9973194,-0.1471988,0.2163678,-0.02150123,0.003791509,-0.01557393
0.9966987,-0.1475454,0.2175227,-0.02340475,0.006411416,-0.01163952
0.9979712,-0.1490374,0.2180797,-0.02117803,0.006770912,-0.01216648
0.9988404,-0.1506911,0.2203155,-0.02082306,0.005575162,-0.01207954
1.000537,-0.1501116,0.2192571,-0.01842457,0.00348161,-0.009768953
1.000328,-0.1507287,0.2181405,-0.01486893,0.002526574,-0.01084102
0.9994278,-0.151605,0.2182271,-0.01607314,0.002065736,-0.009692363
1.000169,-0.1505692,0.2180054,-0.01697159,0.002074992,-0.008926962
0.9991009,-0.1495273,0.2201711,-0.0160865,0.0009536879,-0.007604922
0.9981213,-0.1501349,0.2218407,-0.01076675,0.00100911,-0.004298201
0.998403,-0.1508586,0.2235572,-0.004099936,0.003915454,-0.007070056
0.9968723,-0.1495876,0.2249771,-0.002896311,0.005055889,-0.006989895
0.9952073,-0.1482563,0.2216882,-0.002316109,0.005384747,-0.0008644584
0.9956619,-0.1484888,0.2179539,0.0003154603,0.005152616,0.004074249
0.9964226,-0.1501558,0.2190987,-5.25731e-05,0.003728002,0.008458827
0.9965165,-0.1522773,0.2204833,-0.00377058,0.001579824,0.008741398
0.9975868,-0.1538495,0.2186073,-0.004685327,0.0001180382,0.007706199
0.9984713,-0.153142,0.2184722,-9.986764e-06,0.003322543,0.003893115
0.9979172,-0.1482525,0.218373,0.006607859,0.002361235,-0.00376901
0.9962192,-0.1445142,0.2171148,0.008968852,-0.002234284,-0.001124489
0.9938952,-0.1456202,0.217555,0.01142063,-0.00225948,0.003894457
0.9957271,-0.1472161,0.2156298,0.01634907,-0.005734947,0.004190439
0.9987009,-0.1466518,0.2155585,0.01268487,-0.002498439,0.00850015
0.9970682,-0.1460208,0.218517,0.007879112,0.006608722,0.00851943
0.9976263,-0.1470687,0.2175572,0.007988367,0.001835597,0.005595355
0.999573,-0.1474423,0.2152662,0.005644135,-0.0002661206,0.003497871
0.9986208,-0.1482128,0.2144698,0.006976152,0.003511913,-0.002268979
1.000268,-0.1500439,0.2196123,0.0106996,0.001466852,-0.001407551
1.002074,-0.149873,0.2256602,0.01266556,0.00395498,0.0006739434
1.000244,-0.1486469,0.2192387,0.01063127,0.004112884,-0.005132216
0.9983937,-0.1456399,0.2100685,0.002375693,0.0008569245,-0.00609783
0.9977072,-0.1437197,0.210065,-0.001695613,0.002194812,-0.000585398
0.9981241,-0.1463969,0.2159675,-0.002960122,0.0007122386,0.004236593
0.9996595,-0.1480372,0.2214956,-0.003853786,-0.0009380517,0.004684808
1.000191,-0.1461142,0.2192161,-0.002992956,-0.001524251,0.002282826
0.9980713,-0.1415345,0.2161004,-0.005076556,0.0009727711,0.003408256
0.9968232,-0.1388994,0.2189874,-0.00407205,0.007609613,0.004196271
0.9991026,-0.1458172,0.2176514,-0.003301505,0.00665833,0.005717408
1.000946,-0.155131,0.2135266,-0.005428332,0.003514332,0.01007378
1.00037,-0.1545488,0.212828,-0.006066983,0.003554634,0.008446606
0.9991647,-0.1515476,0.2147376,-0.00975038,0.002736719,0.006004019
0.9990768,-0.1527461,0.2195469,-0.00862038,0.00402416,0.004980566
0.9999137,-0.1511136,0.2184858,-0.003149739,0.003981323,0.0004468099
0.9989117,-0.1516069,0.2133612,-0.001244281,0.003405314,0.001712165
0.9975391,-0.1532693,0.2117411,0.0008159176,0.003977964,0.005246217
0.9982874,-0.1474321,0.2076024,-0.0003259974,0.002776193,0.004962538
0.9981552,-0.1435077,0.2054477,-0.001770774,0.004479317,0.008686369
0.9981597,-0.1445616,0.2075935,-0.0003089091,0.00591907,0.009526459
0.9990114,-0.147181,0.2119393,0.002145409,0.003659738,0.005472384
0.9964874,-0.1519108,0.2189928,0.005045479,0.001224099,0.006495122
0.9951942,-0.1550295,0.216883,0.003297205,-0.001325477,0.007316231
0.9976627,-0.1545201,0.2127551,0.005695241,-7.710334e-05,0.006109689
0.9995066,-0.1509126,0.2172636,0.01134523,0.00161433,0.00746389
0.9998078,-0.150633,0.2191088,0.01091118,-0.001461253,0.007812172
0.9973473,-0.1527006,0.220831,0.01396949,-0.001335534,0.006684793
0.9969335,-0.1525817,0.2218047,0.01703414,0.002538271,0.004215283
0.9982853,-0.1547872,0.2167921,0.01811407,0.003437437,0.001499272
0.9964027,-0.1534653,0.2161378,0.02210078,0.003132884,0.005439484
0.9974138,-0.1469891,0.2168766,0.02082735,0.005693118,0.01156213
0.9991156,-0.1431874,0.2154925,0.01888296,0.006047169,0.01195117
0.9998679,-0.1442595,0.216761,0.01787124,0.002563952,0.01395536
1.002378,-0.1492199,0.2182933,0.01230535,0.00261609,0.0161331
1.000105,-0.1504387,0.2202745,0.008922959,0.002221726,0.009471614
0.9967362,-0.1478077,0.2197178,0.008911644,0.0008515815,0.005116681
0.9946479,-0.1461251,0.2183902,0.009039577,0.001001277,0.01034027
0.9921373,-0.1459554,0.2186284,0.007133535,-0.002076648,0.01402044
0.9948718,-0.1480499,0.2139119,0.003105322,-0.001137938,0.01229115
0.9970305,-0.1473289,0.2110649,-0.0001795596,0.001635918,0.01265247
0.9957423,-0.1460125,0.2130137,-0.001564266,0.001228019,0.01540632
0.9975293,-0.1452661,0.213554,-1.643616e-05,0.003910087,0.01303817
0.9997539,-0.1428932,0.2147667,0.0005196767,0.005572471,0.007295422
1.000448,-0.1480871,0.2176801,0.001529679,0.007296435,0.002134315
1.001561,-0.1539854,0.2213281,0.005064887,0.009522701,-0.0009197312
1.001655,-0.1507285,0.221646,0.003999505,0.008289251,-0.0007277975
1.000134,-0.1473551,0.2198,0.0008051103,0.006899695,-0.002493948
0.999697,-0.1454202,0.2202808,-0.002027377,0.004920797,-0.002743315
0.9996741,-0.1436214,0.2193304,-0.004083415,0.005599958,-0.0003796793
0.9971951,-0.1455753,0.2180547,-0.003374065,0.007342356,-0.001238282
0.9950544,-0.1475409,0.2155408,-0.003244667,0.005966461,0.000460927
0.9957491,-0.147242,0.2108623,0.0009195815,0.005740388,0.003141838
0.9973929,-0.1483658,0.2124327,0.005180856,0.003054041,0.003671042
0.9982389,-0.1498843,0.2159539,0.0007376664,-0.001690108,0.005472953
0.9985765,-0.1501274,0.2143678,-0.002458679,-0.002061003,0.007417598
0.9979866,-0.1501559,0.2135676,0.0004160775,7.389145e-05,0.01026308
0.996431,-0.1497703,0.2147365,0.003937346,0.003518954,0.01002566
0.9963405,-0.1500808,0.2152167,0.006063829,0.007517985,0.009050378
0.9959328,-0.1499517,0.216944,0.006914863,0.00719558,0.0115453
0.9953043,-0.148673,0.2215284,0.007267765,0.00342823,0.008940967
0.9968212,-0.1473252,0.2251689,0.00827032,0.001208681,0.004597256
0.998413,-0.1449496,0.223212,0.01200549,-0.001694143,0.003571248
1.000407,-0.143942,0.2206275,0.01700226,-0.002582208,0.003849169
0.999628,-0.1452269,0.2219447,0.01806385,0.0003100882,0.006058978
0.9965034,-0.1480839,0.2239813,0.01513134,0.0001875127,0.003962217
0.9970999,-0.1511083,0.2242966,0.0144346,0.001893726,8.577398e-05
0.9964529,-0.1503222,0.2225172,0.01482451,0.003715677,0.003170773
0.9940349,-0.1497942,0.2208479,0.01349289,0.001206089,0.009198695
0.9937466,-0.1530979,0.2197065,0.01370723,0.0007727274,0.01247182
0.9937663,-0.1548554,0.2212415,0.01149995,-0.001515544,0.01122217
0.995553,-0.1531172,0.225116,0.008443015,-0.002054915,0.00789174
0.9966883,-0.1512605,0.2227126,0.00966635,0.0001726583,0.006531291
0.9966731,-0.1512244,0.2195354,0.009453032,-0.002698376,0.007523691
0.9993577,-0.1513461,0.2199343,0.008145924,-0.003195822,0.01094495
1.000778,-0.1504267,0.2173591,0.008440542,-0.002454665,0.01325767
0.9996453,-0.1497446,0.2159529,0.007484218,-0.002445384,0.009983304
0.9989382,-0.1497323,0.2147211,0.003880405,-0.0008052372,0.005903587
0.9981552,-0.1491,0.2143102,-0.0002740606,-0.002273506,0.004266135
0.9966876,-0.1473804,0.2180534,-0.001459899,-0.001734073,0.002410054
0.9952292,-0.1471331,0.2192075,-0.0008201162,-0.0003247965,0.003095897
0.9945545,-0.149588,0.2211505,0.0008279482,-0.0009263867,0.005678459
0.993604,-0.152349,0.2209305,0.003719,-7.982361e-05,0.007038994
0.9934437,-0.1534051,0.2151782,0.005568493,-0.0009806207,0.009463058
0.9975317,-0.1527081,0.2170094,0.004657504,-0.0009459363,0.01153762
1.001103,-0.1524943,0.2230532,-0.0009516728,9.604424e-05,0.01245015
0.997423,-0.1528886,0.2235001,-0.008131363,2.138368e-07,0.01083173
0.9931517,-0.1517817,0.2218817,-0.009737809,0.001067482,0.006183137
0.9944682,-0.1513814,0.2247742,-0.006390713,0.0004199455,0.005017763
0.9951706,-0.153255,0.2288959,-0.004525632,-0.001117495,0.005745121
0.9947926,-0.1547556,0.2272195,-0.004776397,-0.003395131,0.006496579
0.9963573,-0.1547045,0.2274891,-0.00291525,-0.005548885,0.008953879
0.9960094,-0.1551759,0.2267574,-0.0004144286,-0.002154458,0.007872627
0.9955475,-0.1562748,0.2182148,-0.0006504146,0.001596932,0.005961443
0.9970992,-0.155365,0.2142876,-0.0003880061,0.0005910399,0.007427313
0.9973786,-0.1551479,0.2161351,0.001661926,-0.0004935882,0.009511976
0.9975726,-0.1566862,0.2179989,0.002125426,-0.0001667563,0.01075636
0.9990212,-0.157698,0.2200781,0.005590069,-0.001617037,0.00837992
1.000449,-0.1603075,0.219707,0.01442859,-0.00399457,0.006620906
1.000353,-0.1619708,0.2177936,0.01849763,-0.004628842,0.009302079
0.9987724,-0.1620073,0.2170239,0.0177095,-0.003659773,0.01022309
0.9964554,-0.1611029,0.2167701,0.01878859,-0.002131683,0.008361237
0.9926325,-0.1564684,0.217417,0.01916256,-0.002796094,0.005296958
0.9921684,-0.1543483,0.2195548,0.01815054,-0.005124382,0.002988232
0.9949916,-0.1543941,0.2197708,0.01666676,-0.005755308,0.004583332
0.9943985,-0.1534607,0.2181997,0.01571722,-0.004943196,0.006028225
0.9941823,-0.1554634,0.2161468,0.01539862,-0.002830671,0.005063886
0.9950711,-0.1576633,0.215454,0.01387264,-0.0008933083,0.005717042
0.9949106,-0.1602225,0.2202596,0.01456213,-0.001529758,0.008596914
0.9965011,-0.1598789,0.2211854,0.01571739,-0.003548778,0.01103102
0.9968976,-0.1567199,0.2179978,0.01527187,-0.004643311,0.01248162
0.9970097,-0.1588242,0.2219512,0.01453492,-0.004222225,0.011768
0.9975934,-0.1588661,0.2243164,0.01085178,-0.004028071,0.007982971
0.9957328,-0.1573822,0.2229943,0.008298976,-0.004438967,0.006952649
0.9947256,-0.1589391,0.2228723,0.008075452,-0.004436127,0.01099807
0.9943163,-0.1571374,0.2171678,0.00930643,-0.004479859,0.01263727
0.9943555,-0.1561264,0.2121437,0.009849572,-0.004972206,0.008952446
0.9955569,-0.1555322,0.215719,0.002906606,-0.005858712,0.005296065
0.9954972,-0.1534984,0.220907,-0.00170112,-0.00748957,0.004959613
0.9971313,-0.156497,0.2242012,-0.0005430286,-0.008803523,0.005568643
1.000216,-0.1632978,0.2272812,-0.001108614,-0.007202563,0.004482143
0.9999171,-0.1679658,0.2258657,-0.002419049,-0.005309174,0.003259489
0.9958744,-0.1636872,0.2179074,-0.00744013,-0.0067475,0.00314131
0.9925177,-0.1577168,0.2127367,-0.01078592,-0.008658139,0.002899189
0.99415,-0.1606006,0.2143594,-0.009047238,-0.008379542,0.003740483
0.9980192,-0.161774,0.2174632,-0.0100399,-0.005468759,0.004100074
1.000248,-0.1597923,0.2190737,-0.0130199,-0.003364083,0.0005955305
1.000336,-0.1603947,0.2205776,-0.01533214,-0.003632887,-0.001104561
0.9997009,-0.1570388,0.2234979,-0.01588315,-0.002652523,-0.0006470007
1.00008,-0.154534,0.2237551,-0.01638614,-0.00430389,-0.005024472
1.00009,-0.1561725,0.2212145,-0.01847014,-0.006894706,-0.007357064
0.9993193,-0.1544428,0.2160278,-0.02090164,-0.005097103,-0.005751808
0.9970769,-0.153894,0.2110159,-0.02282344,-0.005704611,-0.008109954
0.9931824,-0.156455,0.2166264,-0.02179503,-0.007205529,-0.00880131
0.9925306,-0.1575681,0.2222543,-0.02049546,-0.005819553,-0.008099904
0.9954809,-0.159884,0.2185102,-0.01934974,-0.004309569,-0.00937835
0.9975046,-0.1644639,0.2172479,-0.01540579,-0.002630747,-0.005850551
0.9983128,-0.1674839,0.2184399,-0.0105571,-0.004060794,-0.001955515
0.9988242,-0.1635414,0.2179592,-0.006371797,-0.005334304,-0.0002644649
0.9988156,-0.1588033,0.2180545,-0.00512856,-0.003835617,0.00165036
0.9997535,-0.1614893,0.217358,-0.005442819,-0.004035864,-0.001500821
1.00213,-0.1617893,0.2142861,-0.003425357,-0.004341251,-0.005472412
1.003423,-0.1591756,0.2098251,-0.0009973321,-0.007506751,-0.004361669
1.002576,-0.1602212,0.2071674,-0.001987622,-0.01166429,-0.003335028
1.001423,-0.1604973,0.2082486,-0.005411645,-0.008332439,-0.004729275
1.000277,-0.1612106,0.2148461,-0.006115846,-0.002909844,-0.005171311
0.9986895,-0.1615982,0.2214631,-0.004651798,-0.002075498,-0.00342341
0.9984984,-0.1605124,0.2165453,-0.004811415,-0.004807496,-0.0006119729
0.9996655,-0.1614394,0.2099033,-0.006607549,-0.007478987,-0.0005286111
1.000231,-0.1611612,0.2126137,-0.01132184,-0.00582604,-0.002679769
0.9995531,-0.1611533,0.2112529,-0.02047536,-0.003229832,-0.001587034
0.9971552,-0.1632727,0.2061889,-0.02514492,-0.003289663,-0.002567043
0.9950662,-0.1641753,0.2074818,-0.01733805,-0.002673388,-0.004995057
0.9956008,-0.1632719,0.2104633,-0.01238,-0.002334988,-0.002074508
0.9963115,-0.1591237,0.2152642,-0.01898997,-0.003747467,-0.000415345
0.9958104,-0.1562883,0.2184232,-0.02243706,-0.005894687,-0.0005561877
0.9969467,-0.1602676,0.2155957,-0.02070538,-0.008535092,-0.002678171
0.9999131,-0.1635696,0.2120518,-0.02080297,-0.006783007,-0.006052633
1.002246,-0.1590484,0.2041952,-0.02188887,-0.003512915,-0.001801701
1.002623,-0.155371,0.1980843,-0.02258584,-0.003854768,0.002385429
0.9992533,-0.1599834,0.2069329,-0.02126384,-0.003173849,-0.0002532853
0.9959415,-0.1625051,0.2177319,-0.01532864,-0.003157344,-0.003312922
0.9979978,-0.1596318,0.2175873,-0.008555439,-0.003489316,-0.004730462
0.9994701,-0.159494,0.216566,-0.009875485,-0.002127843,-0.003981013
0.9972606,-0.1608487,0.2205827,-0.01203602,-0.002459753,-0.0008955259
0.9970003,-0.1613436,0.2233155,-0.007319995,-0.001433058,0.0008985735
0.9983774,-0.1612095,0.2212349,-0.006387509,-0.0009339249,-0.0013144
0.9987953,-0.1608653,0.2153363,-0.007561665,-0.002098267,-0.001890151
0.9987003,-0.1616574,0.2108453,-0.00439694,-0.001536983,0.004068393
0.998465,-0.1628552,0.211632,0.0002021935,-0.002293001,0.009552377
0.9986484,-0.1643451,0.211723,0.005127968,-0.002298133,0.007796417
0.9986972,-0.1642544,0.2087813,0.005483499,-0.002483762,0.004089529
0.9984806,-0.1633337,0.2091959,0.006807401,-0.004283662,0.002172765
0.998342,-0.1632787,0.2105301,0.01370215,-0.002804952,-0.000759457
0.9968219,-0.1591471,0.2082574,0.01309212,-0.0006281231,0.001366326
0.9952176,-0.1538601,0.2079477,0.006686298,0.0007942322,0.005011669
0.9957159,-0.1553393,0.2086181,0.004748164,0.0004585342,-3.679834e-06
0.996177,-0.1601374,0.207036,0.005182328,-0.001249057,-0.002372164
0.9956472,-0.164053,0.2076065,0.007149398,-0.0007685254,0.001487629
0.9957861,-0.1679059,0.2106237,0.01148882,-0.001809377,0.004082439
0.9963559,-0.1683537,0.2144345,0.01293506,-0.002149915,0.006829511
0.9974824,-0.1660217,0.2146641,0.01185915,-0.0005330564,0.00737158
0.9993633,-0.1659843,0.211932,0.01445777,-0.00140606,0.006120467
0.9997948,-0.1652133,0.2133807,0.01463552,-0.001748798,0.006299426
0.9997353,-0.1646159,0.2162159,0.01209481,-0.001458876,0.006524428
1.000052,-0.1658651,0.2173053,0.01214771,0.000949564,0.006444929
0.9980589,-0.1640425,0.2118355,0.009282283,0.004735491,0.006866366
0.9959698,-0.1633983,0.203933,0.009380708,0.002592536,0.009807985
0.9946564,-0.1643544,0.2088891,0.01116664,0.0004997212,0.01154002
0.9929229,-0.1635125,0.2149888,0.006279542,0.002335844,0.006081424
0.9952834,-0.1641043,0.2132724,0.002811523,0.00204406,-0.001700642
0.9987025,-0.1638985,0.2145735,0.002205654,0.001553217,-0.003992781
0.9970678,-0.1636644,0.2158575,0.007154028,0.001820246,-0.004357548
0.9955805,-0.1636946,0.215555,0.01424875,0.0007665973,-0.007041299
0.9961863,-0.1608942,0.2121668,0.0117669,0.0001681205,-0.006769925
0.9955874,-0.1590715,0.2064323,0.009500449,-0.000171994,-0.004996905
1.006306,-0.146073,0.1497184,0.02172956,0.0113447,-0.0317325
1.011583,-0.1464427,0.1509049,0.01956457,0.003522209,-0.03099536
1.013118,-0.1462248,0.154676,0.01714117,0.003207146,-0.02540263
1.012845,-0.1483716,0.1545533,0.02093113,0.00960211,-0.0225136
1.011768,-0.1509736,0.1580128,0.02004053,0.01346485,-0.02510637
1.010531,-0.1502251,0.1604008,0.02450244,0.01621822,-0.02465782
1.009841,-0.1494547,0.1601966,0.02786742,0.01407689,-0.024594
1.008792,-0.1500267,0.1640258,0.02419053,0.008964892,-0.02454531
1.010862,-0.1489873,0.1602028,0.0193011,0.007587151,-0.02348923
1.011262,-0.1459484,0.155897,0.01110301,0.007445933,-0.0246487
1.011728,-0.1440544,0.1556786,0.009799556,0.01384668,-0.02734751
1.012806,-0.1414739,0.1519407,0.009963732,0.02081894,-0.03151793
1.011589,-0.1394137,0.1528674,0.00622432,0.01851247,-0.03564116
1.013212,-0.1404584,0.1542027,0.008743938,0.01996406,-0.03971659
1.011842,-0.141082,0.1532186,0.008516704,0.02476498,-0.04096948
1.008191,-0.1402082,0.1521936,0.005205539,0.02179246,-0.04025563
1.006785,-0.1391012,0.1493517,0.003606773,0.01801019,-0.04319669
1.006236,-0.1389818,0.1538896,-0.002702456,0.01692772,-0.03910089
1.00966,-0.1370916,0.160455,-0.008068451,0.01340881,-0.03122598
1.010255,-0.1330028,0.1608367,-0.01413875,0.01278821,-0.03377602
1.009134,-0.131969,0.1590962,-0.02673395,0.01526412,-0.03313728
1.0107,-0.1321927,0.1531834,-0.03873567,0.01473541,-0.0281621
1.011018,-0.1325662,0.1484406,-0.04604207,0.01864802,-0.02846359
1.013203,-0.1340541,0.1522628,-0.04896135,0.02240677,-0.02482824
1.012601,-0.1344049,0.1562081,-0.0512726,0.01819916,-0.01960427
1.009773,-0.1357807,0.1541961,-0.04852957,0.01706599,-0.01823177
1.009944,-0.1378478,0.1550885,-0.04305755,0.01853875,-0.01878844
1.009225,-0.1384279,0.158699,-0.04999686,0.01898638,-0.02292303
1.00995,-0.1382504,0.1575394,-0.05583302,0.02078953,-0.0249519
1.009977,-0.1345754,0.1567869,-0.05342858,0.02156662,-0.02193033
1.009154,-0.130638,0.1529708,-0.05440564,0.02354175,-0.01787823
1.010278,-0.1337534,0.1463073,-0.05334023,0.02402784,-0.01383671
1.009617,-0.1380832,0.1502476,-0.05062692,0.01846193,-0.01238066
1.010722,-0.1376159,0.1554224,-0.0480422,0.01243048,-0.01421508
1.012615,-0.1369044,0.1535448,-0.04429027,0.009990322,-0.01617203
1.012103,-0.1354308,0.1526971,-0.03677048,0.01181939,-0.01711072
1.010753,-0.1312964,0.150193,-0.02648787,0.01552773,-0.01440726
1.008066,-0.1297852,0.1484825,-0.02844607,0.01360208,-0.01044508
1.008065,-0.132311,0.1550577,-0.02982521,0.0111778,-0.0138341
1.009883,-0.1360628,0.1607125,-0.02025307,0.01591751,-0.01831646
1.01061,-0.1384698,0.158569,-0.01481659,0.01650507,-0.01834544
1.011384,-0.137726,0.1574773,-0.006911917,0.01059965,-0.02075318
1.010183,-0.1372768,0.1608821,0.00217324,0.006403278,-0.02134773
1.009573,-0.1395816,0.1612088,0.006949276,0.006357975,-0.01704736
1.011677,-0.140391,0.158038,0.01428081,0.01083395,-0.01117635
1.012724,-0.1369816,0.1568447,0.01474842,0.01141663,-0.004739446
1.010324,-0.1324332,0.1592683,0.01014292,0.007855456,-0.002271853
1.006108,-0.1314988,0.1619271,0.005713218,0.005454653,-0.002394534
1.005626,-0.1350609,0.15845,-0.004085807,0.004524136,-0.001766183
1.010197,-0.1386398,0.1542793,-0.008789568,0.007016881,-0.003504665
1.014029,-0.1398607,0.1557607,-0.005550211,0.008135723,-0.01099877
1.012894,-0.1389433,0.1551542,-0.002766191,0.01032262,-0.01795628
1.011273,-0.1344723,0.1511814,-0.002242229,0.01253009,-0.01461772
1.012041,-0.1315987,0.1478398,-0.006671393,0.008727392,-0.01073502
1.010068,-0.1338448,0.148739,-0.01209897,0.008189324,-0.01043677
1.008762,-0.1334915,0.1556423,-0.01297552,0.01053442,-0.004068846
1.010413,-0.1307554,0.1582923,-0.01766963,0.01096363,-0.001521492
1.009906,-0.1305038,0.1547227,-0.03114141,0.00849553,-0.004618835
1.011616,-0.1317556,0.1542333,-0.03674773,0.004529274,-0.002506229
1.01527,-0.1377822,0.1587305,-0.03011282,0.006810983,1.67146e-05
1.014934,-0.1440676,0.1619255,-0.02650815,0.008238863,0.003789568
1.011692,-0.142869,0.1568729,-0.01952294,0.00619866,0.008058782
1.008999,-0.1438494,0.1510751,-0.005774719,0.006622205,0.004959246
1.012049,-0.1485631,0.1507969,0.001268967,0.004861788,0.001431215
1.015478,-0.1451047,0.1488204,0.007120316,0.004089883,-0.0001189415
1.01267,-0.1407764,0.1496161,0.01509513,0.00508728,-0.001925551
1.011654,-0.1433505,0.1560905,0.01774331,0.001230689,-0.0002006743
1.013079,-0.1418851,0.1580449,0.02652247,-0.00189484,0.0035644
1.012353,-0.1382041,0.1572568,0.04229683,-0.0006622873,0.008395271
1.012364,-0.1378975,0.1572855,0.04514543,0.0006735413,0.01014518
1.012716,-0.1346826,0.1559623,0.04345294,0.003512535,0.008133933
1.012345,-0.1326998,0.1554375,0.04235792,0.004434587,0.009887904
1.012546,-0.1308593,0.1533424,0.02641643,0.001001155,0.01230011
1.012544,-0.1243181,0.1505226,0.01259081,0.001998613,0.0132621
1.012062,-0.1245693,0.149051,0.01207694,0.003260523,0.01411231
1.010603,-0.1307627,0.146883,0.01280133,0.002592431,0.01408408
1.008256,-0.1335256,0.149017,0.01317123,0.008159857,0.01447798
1.008187,-0.1358197,0.1537712,0.01022256,0.01104474,0.01115652
1.010473,-0.1379164,0.1553076,0.009066758,0.005475784,0.009687629
1.011792,-0.1363757,0.150532,0.0115784,5.474417e-05,0.01225019
1.012063,-0.1314487,0.1421377,0.01000164,0.001924432,0.008080403
1.012543,-0.1275196,0.1437146,0.006848209,0.008124203,0.004728852
1.012707,-0.1274176,0.1482359,0.002338789,0.01006781,0.005407766
1.01237,-0.1282715,0.147043,-0.00138505,0.008201839,0.003462526
1.012451,-0.1296243,0.1512839,-0.009730708,0.004337136,0.00365988
1.012647,-0.1319482,0.1581979,-0.02818389,0.002941358,0.003784772
1.012381,-0.1356976,0.161906,-0.03436939,0.005502003,0.002230153
1.012517,-0.1412798,0.1590972,-0.02414628,0.009403287,0.003017069
1.012402,-0.1429201,0.1513025,-0.020383,0.0174888,0.003735052
1.011487,-0.1401556,0.1495383,-0.02257043,0.01812959,0.003652763
1.010931,-0.1397587,0.1501014,-0.01824665,0.0107378,0.003507606
1.010979,-0.1409047,0.1546588,-0.01055206,0.009477743,0.00296348
1.011275,-0.1410017,0.1624448,-0.006163997,0.009508733,0.002439393
1.011093,-0.1418544,0.1564805,-0.003826815,0.008737721,0.002265916
1.011165,-0.1414536,0.1472834,-0.001323933,0.007028889,0.002614476
1.011812,-0.1385717,0.1470774,-0.001079444,0.004018629,0.00465303
1.011241,-0.1368874,0.1477107,-0.002400404,0.003274463,0.01000945
1.010708,-0.1372481,0.1492021,-0.001003369,0.001503134,0.01409309
1.011287,-0.1380629,0.1493109,-0.0003154454,0.000497164,0.01120156
1.011753,-0.138161,0.1495524,-0.001542172,-0.0001645753,0.007841298
1.013235,-0.1381757,0.1526498,-0.0001329896,0.0002174967,0.01022171
1.014775,-0.1387527,0.1526386,0.001850458,0.003689483,0.01030263
1.013213,-0.1399106,0.1569294,0.004221174,0.006462277,0.006493863
1.010734,-0.1426921,0.1632512,0.006344124,0.008699424,0.006018519
1.009478,-0.1436849,0.1574992,0.007250011,0.004458123,0.008361162
1.009488,-0.1420093,0.1484298,0.01150268,0.0006313066,0.01204521
1.011998,-0.1396103,0.1459937,0.01442394,0.003874453,0.01364727
1.013129,-0.1376383,0.1477163,0.01300201,0.001692639,0.012853
1.011835,-0.1432534,0.1519761,0.0126347,-1.232512e-05,0.01331706
1.010853,-0.1501212,0.1566416,0.01387065,-0.0003873695,0.01203184
1.009485,-0.1473632,0.1597519,0.0167369,-0.002832783,0.01193635
1.011231,-0.1454069,0.1598187,0.0200253,0.002254076,0.01278836
1.013292,-0.1463756,0.1576439,0.02064161,0.006282718,0.01083978
1.010292,-0.1428298,0.1564727,0.01907884,0.003464804,0.0114182
1.007997,-0.1413258,0.1560877,0.01855782,-0.001186814,0.01241936
1.008203,-0.1406583,0.1536544,0.01735669,-0.004497723,0.01331383
1.008441,-0.1368968,0.1502202,0.01148544,-0.002924406,0.01511516
1.008549,-0.1385262,0.1509816,0.005840035,-0.0003494164,0.01288477
1.009091,-0.1403642,0.1537092,0.004770217,0.001149381,0.01127838
1.010133,-0.1377534,0.1542783,0.005425245,0.003599627,0.01151692
1.009763,-0.1397995,0.155313,0.004337192,0.006570717,0.008089058
1.010018,-0.1433873,0.1526033,0.002955878,0.005931903,0.003016316
1.01261,-0.1465031,0.1479971,0.002695572,0.002096314,0.002236276
1.014619,-0.1480817,0.1506225,0.001460479,-0.000536533,0.006758607
1.014017,-0.1428752,0.1536071,0.001677404,-0.001862516,0.009880407
1.012433,-0.1406728,0.15352,0.002059353,0.002647364,0.008674558
1.012473,-0.143855,0.1522389,0.001741735,0.007794236,0.006314497
1.012555,-0.1451917,0.1495369,0.002464978,0.00540574,0.005344986
1.012346,-0.1455433,0.1540764,0.00134755,0.003360869,0.004485936
1.012702,-0.1454379,0.1587438,0.002416114,0.001890203,0.00206884
1.012363,-0.1451073,0.1524672,0.002906572,0.000486157,0.002446768
1.012321,-0.1430796,0.1467986,-0.0002446418,0.00299524,0.00316629
1.011378,-0.1416016,0.1475716,-0.0008565962,0.002151695,0.0005921959
1.008691,-0.143061,0.1509064,-0.003447253,-0.0003611072,0.0006869407
1.007113,-0.1438863,0.1541739,-0.005042919,0.001149777,0.001866039
1.007508,-0.1445451,0.153953,-0.001055923,0.0001586549,0.00233754
1.009116,-0.14263,0.153821,0.0001391272,-0.001174896,0.006407322
1.010668,-0.1396852,0.1556566,-0.002677208,0.0007125228,0.01150153
1.012856,-0.1406852,0.1558337,-0.005668694,-0.0003641577,0.01439183
1.014035,-0.1421244,0.1561226,-0.004895933,-0.0009336691,0.01328205
1.011996,-0.1440315,0.1558095,-0.002456868,0.0007696854,0.007431984
1.011839,-0.1457628,0.1516386,-0.001613346,0.00128831,0.001460821
1.01215,-0.1456192,0.1488388,0.0003901745,0.003300133,-0.00202576
1.009525,-0.1440902,0.1508494,-0.0002315073,0.004091286,-0.001969144
1.009324,-0.1405434,0.1524474,-0.002329574,0.004710212,0.0004547704
1.010492,-0.1381419,0.1519872,-0.002282803,0.007156745,0.0002467191
1.01125,-0.13725,0.1533407,-0.003000561,0.006345543,-0.0006299362
1.012775,-0.1397207,0.1559798,-0.001577576,0.005996651,-0.002251258
1.010977,-0.1451387,0.157286,0.002818242,0.007063808,-0.004150943
1.008633,-0.1465655,0.1568347,0.007965724,0.005225392,-0.0003733299
1.009854,-0.1457347,0.1540643,0.01154567,0.00274826,0.001234754
1.010119,-0.1445265,0.152781,0.01186121,0.0003023938,0.001238991
1.00932,-0.1421246,0.1550611,0.009107281,-0.001717824,0.005782293
1.009697,-0.1377009,0.157167,0.002449152,-0.0007717021,0.006975843
1.008919,-0.1327839,0.1582564,0.0009106063,0.002878549,0.008487355
1.007865,-0.134345,0.1561096,0.003173012,0.005596684,0.009100678
1.008743,-0.1367065,0.1527658,0.0004878927,0.005237081,0.005104093
1.010281,-0.1373727,0.1535405,0.0009707906,0.003847461,0.002332986
1.011314,-0.141533,0.1522577,0.001184681,0.001335653,-0.001998199
1.010507,-0.1411037,0.1490976,0.000132435,-0.001203808,-0.001468232
1.009222,-0.1385314,0.1528487,0.003592641,-0.0002180909,0.002306131
1.010839,-0.1392941,0.1576557,0.003632179,0.002585858,0.0007763411
1.012444,-0.1370197,0.1569485,0.005581006,0.007901946,0.001171893
1.011441,-0.1366742,0.1555902,0.008836318,0.01494297,0.0008278011
1.010013,-0.1387592,0.1546028,0.006422424,0.01291998,0.0005584767
1.009296,-0.1381834,0.1536511,0.006445166,0.004036334,0.004704094
1.01013,-0.1408254,0.1543304,0.007492651,0.0006853952,0.007135881
1.011205,-0.1426988,0.1542837,0.009713059,0.001993028,0.007495449
1.010448,-0.140179,0.1539487,0.01337392,0.005420194,0.005142602
1.00966,-0.1400334,0.1547046,0.01106919,0.006265941,0.002710605
1.010949,-0.1404346,0.1562277,0.008723286,0.0005036034,0.003321219
1.012186,-0.1401583,0.1592608,0.01000905,-0.001954361,0.003977626
1.011354,-0.1404331,0.1602035,0.008725019,-0.0001111651,0.005036948
1.011082,-0.1401054,0.1576369,0.007050673,0.0006281869,0.005628822
1.008919,-0.1403948,0.1562637,0.01024866,0.001930562,0.006404087
1.005269,-0.1400957,0.1566265,0.013,0.002993026,0.008326302
1.007775,-0.1387371,0.1554156,0.01071644,0.002507044,0.01075665
1.011373,-0.1361121,0.1537841,0.007173839,-0.002333768,0.0132068
1.012272,-0.1341688,0.15592,0.004001058,-0.007343619,0.01303385
1.011669,-0.1375553,0.1587549,0.0033334,-0.006421481,0.01365778
1.008376,-0.1416717,0.1575713,0.00434834,-0.004559107,0.01373337
1.009674,-0.1434621,0.1561779,0.003418185,-0.003944866,0.008909466
1.012085,-0.146478,0.1561956,0.004146508,-0.00364299,0.005423449
1.011928,-0.1474287,0.1553829,0.006041543,-0.001420491,0.00536416
1.014102,-0.1444458,0.1555018,0.006344037,0.001928592,0.006797947
1.012459,-0.141711,0.1565362,0.006320784,0.001997984,0.007428139
1.011441,-0.1389915,0.1560465,0.002065252,0.003457219,0.005948375
1.013093,-0.1381036,0.1544325,-0.00235969,0.006804588,0.003892533
1.009091,-0.1417546,0.1537049,0.003082089,0.005677943,-0.0005162599
1.006488,-0.1441209,0.1549917,0.008394654,-0.0002833379,-0.002668615
1.006914,-0.1432923,0.1579041,0.003818489,-0.006827732,-0.0005254989
1.007725,-0.1386665,0.159885,-0.0002920508,-0.008585552,0.001118366
1.011723,-0.1330006,0.1566867,-0.003137461,-0.006050373,0.004589236
1.014947,-0.137874,0.1526283,-0.009567741,-0.000458472,0.007641499
1.014348,-0.1443665,0.1559996,-0.01021292,0.007080564,0.006158085
1.011929,-0.1429243,0.1595022,-0.00807298,0.005981876,0.00188262
1.011352,-0.1442358,0.157699,-0.01029125,-0.001153581,-0.003492583
1.010366,-0.1446164,0.1570105,-0.008239255,-0.00152051,-0.006156622
1.00896,-0.1419529,0.1552727,-0.005441244,-0.0005523901,-0.003735008
1.011298,-0.1442082,0.153063,-0.006167547,0.001719947,0.001308477
1.012161,-0.1451886,0.1555382,-0.004416283,0.006541482,0.003266542
1.011709,-0.1440713,0.1597767,-0.004654322,0.004726843,0.001203521
1.011836,-0.1455731,0.1635546,-0.005409477,0.003062755,-0.0004497732
1.010539,-0.1459447,0.1625539,-0.003101033,0.003215138,-0.0007316934
1.010651,-0.1448869,0.1587501,-0.001810469,0.0007304676,0.0002565023
1.010951,-0.1438049,0.1580174,0.0005256792,-0.0004834402,0.0009883613
1.011339,-0.1424967,0.1546795,0.001947403,-0.002232433,0.002445108
1.010924,-0.1414424,0.1529394,0.001129289,-0.001203339,0.005730754
1.008819,-0.1414301,0.1564266,0.002076504,0.002373802,0.005643249
1.008282,-0.142778,0.1569892,0.003500334,0.00255957,0.005241286
1.00865,-0.1418782,0.1554167,0.00418106,-0.001518884,0.007021389
1.012116,-0.1385177,0.1481649,0.002993504,-0.006477269,0.004479096
1.015055,-0.1371016,0.1405979,0.001341407,-0.00131218,0.001544018
1.012871,-0.1392311,0.1471294,0.002238498,0.005895947,0.002550845
1.011542,-0.1420794,0.1540298,0.003257891,0.003477637,0.002264358
1.010828,-0.1410109,0.1537684,0.002588459,0.0006723183,0.001550123
1.009184,-0.1395128,0.1572416,-0.0006445544,-0.003743212,0.002684385
1.008481,-0.1404068,0.1569396,-0.004366052,-0.00794512,0.002456913
1.008387,-0.1394128,0.150932,-0.003151909,-0.003013298,0.00117558
1.008462,-0.13791,0.1528379,-0.00096941,0.001517155,0.0004874787
1.009264,-0.1362914,0.1586093,-0.001408465,0.000617355,0.0002302698
1.011136,-0.134676,0.1600233,0.001943104,0.000345122,-0.0002604247
1.011332,-0.1379592,0.1604868,0.006782876,0.0008449644,-0.002287062
1.010777,-0.1419333,0.1571648,0.007167947,0.001077984,-0.003820451
1.009823,-0.1404726,0.1522414,0.005902989,0.00143045,-0.005426991
1.006606,-0.1393002,0.1538544,0.004294001,0.0007789435,-0.006828544
1.005308,-0.1404453,0.1553048,0.003493775,-0.0002036054,-0.0001718966
1.008075,-0.1375637,0.1534231,0.003137011,0.0003576157,0.007659061
1.010981,-0.1348259,0.1541581,0.001434165,0.0003671178,0.004704761
1.010054,-0.1363632,0.1546564,-0.0008252804,-0.001708983,0.002233699
1.010313,-0.137103,0.1532944,-0.005897279,-0.003069061,0.00515011
1.014765,-0.1393674,0.1526048,-0.009136029,-0.002166811,0.003552894
1.016021,-0.1427474,0.1511505,-0.005726649,-0.0007285864,0.002535616
1.014387,-0.1409832,0.1522602,-0.003268159,0.0004310266,0.003497164
1.011676,-0.1382687,0.1564914,-0.004283376,0.00342659,-0.0008230104
1.008566,-0.1387511,0.15713,-0.003996634,0.004554143,-0.004839781
1.00947,-0.1382574,0.1549631,-0.001541959,-0.002000817,-0.00574702
1.010404,-0.1370624,0.1526555,0.0001508419,-0.006499543,-0.004098552
1.009321,-0.1386885,0.1523442,0.0002095629,0.001367031,0.0004007209
1.009708,-0.1402611,0.1546165,0.0006496073,0.009106192,0.002994063
1.009956,-0.1401856,0.1559928,0.001333635,0.005234745,0.004277952
1.009514,-0.1395064,0.1574512,-2.437754e-05,0.0007355387,0.004379634
1.009777,-0.1384243,0.1573184,-0.003133337,-0.0006906272,0.005433411
1.00999,-0.1388786,0.156071,-0.002350314,-0.00417356,0.009148013
1.010295,-0.1393341,0.1563498,0.0005379085,-0.0015285,0.008447843
1.010589,-0.139153,0.1541634,-0.0002878733,0.002925332,0.006629295
1.009552,-0.1392659,0.1525937,-0.0003793684,0.002098731,0.005741179
1.009325,-0.1381346,0.1532095,-0.0006037146,0.00435939,0.001859116
1.010151,-0.1367295,0.1533364,-0.002415761,0.003961488,3.15952e-05
1.009566,-0.1344951,0.1546248,-0.001142648,-0.0007936167,-0.0008784638
1.00924,-0.1336044,0.1538067,0.0001720703,-0.001204515,-0.0009775834
1.008191,-0.1359763,0.1511993,0.001315965,-0.0001601722,0.004093008
1.006358,-0.1368716,0.1502972,0.002480756,0.001011556,0.006850589
1.007889,-0.1393313,0.1502872,0.001611157,0.0008260016,0.004814195
1.009969,-0.1426957,0.1500255,0.003242006,-0.0001141863,0.005318195
1.00994,-0.1408138,0.1476206,0.005371766,-0.000428592,0.006545642
1.01093,-0.1387612,0.1459326,0.004347656,-0.002120285,0.00598636
1.013211,-0.1372302,0.146663,0.002459663,-0.001592821,0.00829123
1.014489,-0.1366068,0.1476735,0.0007584261,-0.002723638,0.01073262
1.013768,-0.1388218,0.1506205,0.0001169869,-0.004934982,0.009292356
1.012653,-0.1393369,0.1564925,-0.001637885,-0.005010613,0.007877411
1.012292,-0.1421992,0.161805,-0.004195926,-0.008047133,0.005957175
1.011851,-0.144571,0.1602169,-0.003406506,-0.004575206,0.001250002
1.012312,-0.1425618,0.1569894,-0.001614684,0.004102187,-0.0009993773
1.012452,-0.1448831,0.1582169,0.0001634982,0.005689132,0.002047123
1.009412,-0.1459578,0.1566362,0.00381684,0.00326456,0.005356704
1.006135,-0.1409719,0.1561974,0.004299043,-0.001356439,0.007089519
1.00593,-0.1382855,0.1573094,0.001724796,-0.00326805,0.008214253
1.008914,-0.1419504,0.1526494,0.002384525,-0.003362152,0.007523446
1.012433,-0.1463864,0.1503681,0.003089008,-0.005832094,0.007186232
1.011749,-0.1435044,0.1510801,0.002851727,-0.004289713,0.006409525
1.010944,-0.1416363,0.149744,0.003344382,-0.001985375,0.003194867
1.013405,-0.1442833,0.1482152,0.001842474,0.0004482619,0.00157189
1.012701,-0.1431154,0.1487282,0.002593263,0.002359024,0.003053348
1.011727,-0.1417292,0.1529175,0.004849896,0.0005979197,0.008739585
1.012845,-0.1401399,0.1550297,0.004027084,0.001923879,0.01319991
1.010447,-0.1395878,0.1535093,0.004069522,0.001720339,0.004700306
1.008984,-0.1432402,0.1504332,0.005429012,9.904235e-05,-0.004693233
1.009958,-0.1442446,0.1473559,0.005321606,0.0004460629,0.0009016859
1.009697,-0.1430396,0.1485567,0.00404578,-0.003989771,0.005025441
1.009757,-0.1377358,0.1493578,0.003622295,-0.007130268,0.0006231933
1.010021,-0.1305678,0.1493983,0.001363995,-0.005802815,0.001392184
1.011513,-0.13319,0.1522448,-0.00274195,-0.00349274,0.0006105228
1.013142,-0.1371801,0.1536158,-0.002416438,-0.001991352,-0.002505462
1.012542,-0.1372676,0.1541415,-0.003455693,-0.003243222,0.002335411
1.01154,-0.1408443,0.1568691,-0.007596773,-0.003289902,0.004312233
1.008862,-0.1442854,0.1589197,-0.009770596,-0.003394772,7.968886e-05
1.005197,-0.1461305,0.1548967,-0.01333628,-0.003449962,-0.001790785
1.005637,-0.1447275,0.1481565,-0.0119893,-0.00190218,-0.0001059352
1.008165,-0.1397856,0.1461323,-0.006612326,-0.001450497,0.001584054
1.007807,-0.1383786,0.1471634,-0.006959054,-0.0009729557,-0.002079244
1.007998,-0.1375477,0.147356,-0.005449218,-0.001589982,-0.004165885
1.009445,-0.1385119,0.1452004,-0.001328193,-0.001191706,-5.549948e-05
1.009614,-0.1415514,0.1444247,-0.001056449,0.000405297,0.002789483
1.011631,-0.1377521,0.1482106,-0.002330474,-0.000288443,0.0029956
1.011943,-0.1345681,0.1511726,-0.004358529,-0.0005630708,0.002888556
1.011224,-0.1352702,0.1504856,-0.004327785,-0.002353612,0.003507064
1.014053,-0.136485,0.1503275,-0.002068937,-0.005572296,0.0001931151
1.013235,-0.1414077,0.1528935,-0.0002753166,-0.005714252,-0.006652187
1.010765,-0.1434921,0.1530398,0.003810814,-0.003340531,-0.00818624
1.011374,-0.1427151,0.1503578,0.007570087,-0.0005505233,-0.006920739
1.011859,-0.1417042,0.1497902,0.007365441,0.001616272,-0.006926985
1.013063,-0.1378492,0.1503488,0.007084266,0.003186989,-0.006743106
1.013003,-0.1369355,0.152804,0.007723153,0.001754832,-0.006126805
1.011079,-0.1391968,0.1551584,0.007971179,-0.002232217,-0.005033445
1.009374,-0.1403408,0.1539355,0.009265909,-0.005229986,-0.004770001
1.009204,-0.1417446,0.1529808,0.01084621,-0.003869147,-0.00437622
1.011837,-0.144491,0.1527096,0.01241274,-8.578008e-05,-0.002587987
1.013972,-0.1434685,0.152633,0.01429545,-0.002579021,-0.0004687207
1.015756,-0.1393811,0.1531393,0.01492295,-0.006272366,-2.647001e-05
1.015996,-0.1384172,0.1535528,0.01339666,-0.00619133,-0.0005611348
1.013998,-0.1350782,0.1537638,0.004006207,-0.004073294,7.293491e-05
1.013873,-0.1321103,0.150721,-0.007783046,0.002191475,-0.0009931414
1.012243,-0.1323027,0.1476138,-0.005878857,0.003864716,-0.002149823
1.011453,-0.129518,0.1504997,-0.002684147,0.003572883,-0.0009470846
1.012628,-0.1303377,0.1547038,-0.008370841,0.005541626,0.0002727948
1.010541,-0.1318091,0.1555246,-0.008646451,0.0008348346,0.001904698
1.01169,-0.1319731,0.1562539,-0.0119864,-0.002406321,0.001402213
1.013605,-0.1370636,0.1562827,-0.01935276,-0.002477073,-0.0004307254
1.011859,-0.1381681,0.1532781,-0.01299503,-0.00260509,-0.000123887
1.012082,-0.1352536,0.153096,-0.008221106,0.0004442177,-0.001220065
1.010053,-0.1339084,0.1583779,-0.01249849,-0.0007082483,-0.004824875
1.007143,-0.1330369,0.162821,-0.01209309,-0.00148504,-0.00598061
1.008708,-0.1337099,0.1612936,-0.01237245,0.0005191011,-0.002293788
1.010545,-0.1359824,0.1570195,-0.01450829,-0.0006893464,-0.001568521
1.011377,-0.1415475,0.1530892,-0.01334959,0.001944517,-0.004073051
1.011494,-0.1451809,0.1483655,-0.01212017,0.007378296,-0.002955264
1.011926,-0.1404436,0.1494041,-0.01185209,0.009739558,-0.001922136
1.013571,-0.1352686,0.1537072,-0.01009062,0.007975437,0.001537924
1.013443,-0.1371952,0.1539282,-0.003974177,0.005068613,0.005674807
1.012027,-0.1389531,0.1580528,0.001924858,0.00626554,0.00381897
1.012328,-0.1364296,0.1602025,0.004134198,0.004064661,0.001273707
1.012885,-0.136657,0.1525055,0.007083835,-0.0005310157,-0.0006496541
1.012078,-0.1337981,0.1462381,0.008105383,0.0008381266,0.002301923
1.011596,-0.1283945,0.14655,0.004822543,0.0009521768,0.007220979
1.010851,-0.1317264,0.1503389,0.003317272,-0.00157725,0.005041058
1.009883,-0.1341107,0.1524541,0.004058762,-0.002366948,0.005261463
1.010517,-0.1332653,0.1546143,0.004016993,-0.002092684,0.007643592
1.013073,-0.1363927,0.1595833,0.003835364,0.0002505609,0.005884314
1.015901,-0.1378633,0.1613171,0.002960165,0.002635376,0.006070368
1.013189,-0.1355519,0.1577396,0.002264496,0.002432688,0.007759104
1.009544,-0.1319972,0.1492993,0.002256304,0.001741371,0.00777725
1.013379,-0.1317998,0.1452095,-2.497392e-06,0.003680413,0.006237799
1.01607,-0.1351075,0.1501454,-0.002045018,0.006073024,0.005684312
1.014517,-0.136729,0.1536061,0.0007081109,0.005458299,0.006899179
1.013315,-0.1362517,0.1538065,0.002936049,0.002706195,0.005907807
1.010189,-0.1347149,0.1498957,-0.003028389,-0.000739755,0.006152454
1.009144,-0.1345809,0.1460335,-0.01164666,-0.0006990508,0.009463255
1.012307,-0.1349127,0.1507216,-0.01369665,-0.0003143217,0.01152428
1.014844,-0.1346376,0.1543668,-0.009653514,-0.003526661,0.01404731
1.015662,-0.1363953,0.1508182,-0.00380608,-0.0009927091,0.01406188
1.014185,-0.1389631,0.1484928,-0.001134565,0.00276187,0.009049854
1.01242,-0.1411065,0.149592,-0.00335697,0.001074414,0.007735436
1.012419,-0.140455,0.149702,-0.004633735,0.002274596,0.00997585
1.012481,-0.1385911,0.1532711,-0.0007963983,0.002094751,0.009430343
1.012365,-0.139146,0.1592598,0.00268603,-0.001297639,0.00961789
1.011441,-0.1376946,0.1573392,0.002766093,-0.0008725521,0.01126367
1.010048,-0.1333659,0.1547693,0.006292784,-0.0006494519,0.01041456
1.010151,-0.1292951,0.1544458,0.01022708,-0.001418674,0.009228708
1.01053,-0.129712,0.1499292,0.007388077,-0.0002807669,0.008726025
1.009668,-0.1328975,0.1499544,0.004532035,3.533223e-05,0.008532835
1.009307,-0.1320061,0.1526396,0.002084374,0.0008327172,0.00905122
1.010043,-0.1340678,0.1509346,-0.002999343,0.002612092,0.006669644
1.009732,-0.139804,0.1517598,-0.001910137,0.001447692,0.003250491
1.009827,-0.1415647,0.1541577,0.003017345,0.001454911,0.002732174
1.01179,-0.1411993,0.1545022,0.003716189,0.002936691,0.00160403
1.012903,-0.1382412,0.1540705,0.004937586,0.001416164,0.0003642376
1.012845,-0.1355861,0.1521889,0.005506648,0.002038081,0.003963848
1.013155,-0.1349791,0.1492162,0.002133678,0.002509441,0.008122143
1.014165,-0.1360532,0.1464095,-0.001634343,0.001203486,0.006426652
1.01403,-0.1405843,0.1484753,-0.004388883,0.001910982,0.005753003
1.012185,-0.1409449,0.1522141,-0.002108834,-0.0003127565,0.01038226
1.010658,-0.1393568,0.1523449,0.002137273,-0.004190035,0.0136914
1.009361,-0.1397679,0.1554402,0.002417615,-0.007776878,0.01402739
1.010294,-0.1372581,0.1562121,0.001309295,-0.007069218,0.01139214
1.012015,-0.1362121,0.1504896,-0.001463999,0.001107704,0.00850297
1.010808,-0.1363803,0.1471001,-0.003161234,0.004455852,0.00911282
1.010719,-0.1371545,0.1448196,-0.003370656,0.002170418,0.009297469
1.010285,-0.1408683,0.1445835,-0.002959674,0.0006636046,0.009042466
1.007297,-0.1423688,0.1485396,0.001381347,-0.000477368,0.009515963
1.006816,-0.1412076,0.15179,0.002588717,4.382512e-05,0.008686445
1.008769,-0.138694,0.152181,0.001371993,-9.881807e-06,0.00687531
1.0104,-0.1367395,0.1515865,0.002145246,-0.0007404702,0.005513167
1.009728,-0.1377715,0.1557209,-0.0001018959,-0.001580178,0.008690659
1.008284,-0.1395734,0.1594812,-0.002159149,-0.001770207,0.01297915
1.008814,-0.1412691,0.1572868,-0.002370506,0.0002325394,0.0120818
1.009967,-0.1430606,0.1569622,-0.001486359,-0.0002330926,0.01185495
1.011808,-0.144981,0.1575001,3.615227e-06,-0.003358016,0.01320395
1.012264,-0.1449569,0.1564022,-0.0007790496,-0.005156345,0.0108793
1.011358,-0.1437724,0.1570893,-0.0001419036,-0.003333303,0.008968333
1.01223,-0.1447133,0.1571463,0.001223966,0.0009705004,0.009389932
1.01253,-0.1444476,0.156825,0.001625834,0.002345698,0.008764819
1.012361,-0.1431588,0.1580207,0.003055964,0.0006456865,0.008875496
1.011753,-0.1431172,0.1568234,0.003561911,-0.000659591,0.009384059
1.010538,-0.1428222,0.1493769,0.002857986,-0.0001306049,0.006431567
1.011263,-0.1428213,0.1420176,0.001034755,-0.0004241363,0.005699159
1.01126,-0.1413702,0.145534,0.0002547593,-0.003283876,0.0112814
1.010487,-0.1396669,0.1516686,0.001039603,-0.002746252,0.01297859
1.009929,-0.141901,0.1496985,0.0005251043,0.001654946,0.008038304
1.009248,-0.1460087,0.148851,0.001024216,0.002057505,0.004331724
1.010569,-0.1488701,0.1483068,0.001505131,-0.002177744,0.003621681
1.01017,-0.1481143,0.1444127,0.0007111975,-0.004094409,0.004415307
1.008841,-0.1454858,0.1466279,0.00120081,-0.002740868,0.005295495
1.010206,-0.1448945,0.1490002,0.001538623,-0.002330587,0.006869226
1.010013,-0.142567,0.1485134,0.002373425,-0.002173945,0.006337895
1.010158,-0.1391475,0.1503404,0.003081929,-0.001991976,0.002049523
1.01165,-0.1411821,0.1495546,0.0010952,-0.002343573,0.001906335
1.010127,-0.1445964,0.1509057,0.001056482,-0.002251694,0.006080318
1.009512,-0.1447582,0.1524813,0.004017327,-0.003145294,0.009693624
1.011764,-0.145294,0.1476297,0.004890844,-0.004044047,0.00931431
1.013025,-0.1460028,0.1465296,0.005136572,-0.003694783,0.007083718
1.01265,-0.1449001,0.1487949,0.008325327,-0.003537061,0.008998075
1.012149,-0.1441062,0.1496709,0.01102018,-0.004186594,0.007062452
1.012656,-0.1443892,0.1514549,0.007499593,-0.006081141,0.003366833
1.012622,-0.1444491,0.1511508,0.002164275,-0.00793751,0.004156697
1.012234,-0.1434719,0.1494908,0.002967093,-0.007377043,0.003569296
1.012549,-0.1428858,0.149133,0.002441398,-0.004932083,0.006799752
1.011536,-0.1443494,0.152631,-0.005690049,-0.002718924,0.008558766
1.010566,-0.146952,0.1564602,-0.01390592,-0.00128172,0.002016484
1.010299,-0.1495767,0.1504641,-0.0170328,-0.001024401,-0.002720996
1.009477,-0.1507677,0.1443627,-0.01430705,-0.0001342897,-0.004924029
1.009609,-0.1507846,0.1478887,-0.01103142,0.002482427,-0.005511118
1.010261,-0.1518523,0.1500474,-0.009053882,0.002801494,-0.004659094
1.01142,-0.1527342,0.1491883,-0.004284591,0.00111065,-0.002524671
1.01268,-0.1512403,0.1487644,-0.002279379,-0.001123682,0.00319735
1.010969,-0.1495752,0.1465233,-0.002312452,-0.002872154,0.005965833
1.009097,-0.1513769,0.1463668,0.001104434,-0.00231396,0.005534455
1.011485,-0.1533911,0.1463,0.00410674,-0.003159187,0.006061411
1.01322,-0.1518461,0.1446317,0.003786003,-0.002834484,0.003303594
1.01029,-0.1496779,0.1504305,0.001835297,-0.0007011379,-0.0008132106
1.00816,-0.1464644,0.1569362,0.002741543,-0.00213378,0.0001322669
1.008965,-0.1440919,0.1542076,0.003925573,-0.002741915,0.001554368
1.009528,-0.1445436,0.1529187,0.004782428,-0.002050642,-0.0006184962
1.010157,-0.1420012,0.1554926,0.007564784,-0.001808614,-0.0004147415
1.012175,-0.1415682,0.1557765,0.005219657,-0.0006923121,0.0003827516
1.013324,-0.1453743,0.1569092,0.001674074,-0.0004123068,-0.001134231
1.011806,-0.1459334,0.1560787,0.0001496117,0.0007337674,-0.00065662
1.010477,-0.1484073,0.150985,-0.002134848,0.0005868966,-6.300976e-05
1.009302,-0.1510318,0.1489924,-0.0008257166,-0.0006163033,0.0005417123
1.007347,-0.1479391,0.1501042,-8.142105e-05,0.001435935,0.0006029223
1.007613,-0.1463564,0.1494976,-0.0001227516,0.002253459,-0.002579537
1.010289,-0.1473754,0.1463563,-0.0004996456,0.001160089,-0.003295012
1.013606,-0.1476317,0.1435899,-0.004558328,0.0004969416,8.868513e-05
1.013411,-0.1486451,0.1459517,-0.006265062,0.0007827179,0.001607535
1.012151,-0.1524147,0.1485738,-0.007723605,0.00286261,-0.003602561
1.014638,-0.1552175,0.1469007,-0.008409633,0.001563835,-0.009228663
1.012962,-0.152383,0.1480877,-0.005908835,-0.001591889,-0.005693279
1.009472,-0.1502051,0.1539903,-0.006196623,-0.001213474,-0.001705251
1.009952,-0.1513419,0.1582037,-0.005349646,-0.0002637577,-0.002306063
1.009352,-0.1497037,0.1559107,-0.003802021,0.0008923728,-0.001828823
1.010012,-0.1469841,0.152338,-0.001778428,0.0009782796,-0.003650845
1.010917,-0.1479701,0.1539379,0.003693257,-0.0009437745,-0.004468838
1.011015,-0.1501573,0.1521272,0.003680072,-0.001020182,0.0001793766
1.012249,-0.1494871,0.1470909,0.00197483,-0.001110719,0.002675842
1.010744,-0.1462897,0.1478537,0.002347878,-0.001191312,0.001229106
1.009974,-0.1434056,0.1482774,-0.001310691,-0.0007561483,-0.001465857
1.010651,-0.1439899,0.1476063,-0.002355319,-0.002269689,-0.00329975
1.010621,-0.1453087,0.1496157,-0.00233898,-0.00222016,-0.003118007
1.012183,-0.1445405,0.1511199,-0.00466146,-0.0009044702,-0.004637596
1.012895,-0.1471437,0.1528816,-0.003096594,-4.799665e-05,-0.006901631
1.012132,-0.150815,0.1521723,-0.002338079,0.0007469371,-0.006674616
1.010553,-0.1501336,0.1478996,-0.001901849,0.0007356319,-0.006436065
1.009236,-0.1496738,0.1452129,0.0008242746,0.00413577,-0.008936632
1.009823,-0.1502124,0.1468711,0.0003003083,0.005970502,-0.01136704
1.010786,-0.1499277,0.1508756,0.0008041017,0.0004874797,-0.01080743
1.01138,-0.1500028,0.1521338,0.002887473,-0.001862572,-0.009713474
1.011091,-0.1500072,0.1544785,0.003506373,-0.0004808715,-0.005035598
1.011005,-0.1500006,0.1565483,0.006610593,-0.001760145,0.001374169
1.011422,-0.1500027,0.1541005,0.009076818,-0.001053678,-5.55766e-05
1.011887,-0.1499793,0.1541496,0.008356871,0.003138479,-0.0002965932
1.012856,-0.1500406,0.1527841,0.007682378,0.01042204,0.004784308
1.011862,-0.1499525,0.1511594,0.007839168,0.0156772,0.003074548
1.008689,-0.1500349,0.1523149,0.007066375,0.009360269,-0.001110425
1.006397,-0.1498141,0.1490933,0.003999749,0.001818931,-0.002897547
1.00859,-0.1490839,0.1502931,0.001727618,0.001927354,-0.005312989
1.01287,-0.1483814,0.1530105,0.002145148,0.002151121,-0.004910779
1.01272,-0.1481016,0.1498254,0.003892438,0.003605589,-0.006566254
1.011195,-0.1468853,0.1489276,0.005586291,0.004888365,-0.0101217
1.01112,-0.1442856,0.1469707,0.006543782,0.002848422,-0.007109383
1.010868,-0.1438983,0.1473189,0.006504687,0.003511427,-0.005835646
1.011319,-0.1445472,0.151362,0.004844378,0.00357857,-0.008259897
1.011116,-0.142523,0.1520456,0.00288431,0.001290844,-0.008810666
1.010734,-0.1409953,0.1558079,0.0002217399,0.001139618,-0.01227159
1.010474,-0.1416737,0.1580921,-0.001174527,0.001517317,-0.01346218
1.009453,-0.1419096,0.1545466,-0.0004254103,0.004238669,-0.009841081
1.010887,-0.1415198,0.1528449,-0.001430001,0.007172815,-0.008925353
1.013495,-0.1419908,0.1506711,-0.0004138988,0.005913164,-0.009703097
1.013723,-0.1437579,0.1475107,0.0004150005,0.004928631,-0.01043247
1.011331,-0.1457812,0.14721,-0.001401065,0.005236404,-0.009445954
1.008813,-0.1463333,0.148381,5.870665e-05,0.00493382,-0.006013293
1.010588,-0.1454151,0.1505035,0.001244809,0.003245118,-0.003622176
1.013006,-0.1448354,0.1537204,0.005292234,0.001437463,-0.003823577
1.012174,-0.1444335,0.1534488,0.01149831,0.00247886,-0.004936431
1.011573,-0.144128,0.1501529,0.009150872,0.004391175,-0.004698131
1.010834,-0.1447001,0.1494618,0.007526864,0.00536429,-0.008157758
1.009884,-0.1440919,0.1495399,0.009687431,0.004668995,-0.01286544
1.009831,-0.1424378,0.1525082,0.006839764,0.002205095,-0.009935583
1.009816,-0.1408564,0.1564135,0.004491482,2.077895e-05,-0.007828722
1.011608,-0.1386052,0.1547833,0.003497947,-0.0006081297,-0.009941149
1.013373,-0.137632,0.1547324,1.531648e-05,0.001948583,-0.009555925
1.013511,-0.1399737,0.1548533,-0.001828945,0.00554437,-0.009518272
1.014862,-0.1439039,0.1549105,-0.002468703,0.006649188,-0.01007728
1.015624,-0.1451582,0.1584452,-0.002687402,0.005993519,-0.00966109
1.014079,-0.1464935,0.1568511,-0.0003559508,0.004874109,-0.0108519
1.012584,-0.1492925,0.1543372,0.001238689,0.004087911,-0.01281312
1.011926,-0.1452608,0.1490235,0.000384762,0.002773916,-0.01439075
1.010763,-0.1407796,0.1401772,-0.00307266,0.0003174498,-0.01616177
1.009399,-0.1429716,0.1448293,-0.006240066,-0.0003232908,-0.0163731
1.010361,-0.1433477,0.151125,-0.001674372,0.002092714,-0.01304895
1.011451,-0.1427951,0.1499272,0.003061333,0.003094655,-0.009637361
1.009235,-0.1435192,0.1551201,-0.001211104,0.001881954,-0.009972094
1.007854,-0.143323,0.1582343,-0.003539551,0.001954994,-0.008368036
1.010224,-0.1434387,0.1563929,0.0009619247,-0.001011124,-0.0009290758
1.012115,-0.142684,0.1589377,0.004408147,-0.005625568,0.002416283
1.011947,-0.1429613,0.1574589,0.0053541,-0.004261495,-0.002130574
1.012447,-0.1435197,0.1547947,0.004557462,-0.001484532,-0.005469057
1.012884,-0.1418615,0.1564899,0.004301481,0.002325624,-0.006428527
1.011882,-0.1395129,0.1542073,0.007738989,0.007603499,-0.00801602
1.010689,-0.1356496,0.1568651,0.01042551,0.006349182,-0.008318186
1.009392,-0.1352345,0.1630613,0.0104359,0.003621325,-0.008516669
1.009285,-0.1380998,0.1599493,0.01003552,0.003322593,-0.009764432
1.009883,-0.137714,0.1585819,0.008055679,0.002037466,-0.009840824
1.007601,-0.1391152,0.1596059,0.005497774,0.003700425,-0.008263279
1.005279,-0.1412323,0.1576239,0.004951456,0.002508389,-0.005932991
1.005452,-0.1398586,0.1573143,0.005162718,-0.002814506,-0.004906532
1.005932,-0.1390826,0.15322,0.001992616,-0.002832485,-0.004878098
1.007407,-0.1379044,0.148092,-0.002455038,-0.005375228,-0.001167567
1.008848,-0.1366306,0.1495509,-0.002394492,-0.008762528,0.003467125
1.008124,-0.1355504,0.1513157,-0.001362354,-0.005044234,0.002739654
1.006268,-0.1324179,0.1503331,-0.002422299,-0.002576937,0.0007767529
1.005617,-0.13146,0.1517576,-0.003664582,0.0001911354,-0.0001523857
1.008522,-0.1339837,0.1539542,-0.005280576,-0.0003940795,-0.002455313
1.012549,-0.1354635,0.1539534,-0.005568845,-0.004594342,-0.002695861
1.013254,-0.1346602,0.1546044,-0.004653431,-0.0008158806,-0.003131327
1.012069,-0.1347819,0.1544521,-0.005368194,0.0003864681,-0.005203116
1.012457,-0.1371469,0.1555356,-0.007029006,-0.002152528,-0.001142373
1.012442,-0.1397352,0.1586437,-0.007823973,-0.002453876,0.003448038
1.01042,-0.1409639,0.1593995,-0.00611989,-0.005789124,0.003081525
1.009305,-0.1402229,0.1603039,-0.002668339,-0.005633109,0.004410624
1.00957,-0.1399385,0.15572,-0.001993484,-0.003737452,0.003974208
1.009956,-0.1400887,0.1482496,-0.003468195,-0.001978598,0.0004387573
1.009715,-0.1374615,0.1502546,-0.003473769,0.00471279,-0.001356417
1.009871,-0.1357416,0.151334,-0.00376357,0.007049448,-0.001895728
1.011755,-0.138672,0.1489979,-0.003706969,0.002237443,-0.00147344
1.012568,-0.1415324,0.1522626,-0.0009720156,-0.003032126,-0.002494167
1.010686,-0.1403822,0.1538867,0.001726764,-0.004555647,-0.004643511
1.008061,-0.1397301,0.1531492,0.002768987,-5.146765e-05,-0.007069345
1.007835,-0.1417285,0.1545927,0.003500391,0.004507712,-0.009859191
1.009041,-0.1415171,0.1543328,0.004209717,0.002968291,-0.00967458
1.008989,-0.1394794,0.153798,0.003472471,-0.0002399807,-0.007517229
1.009729,-0.1376818,0.1540982,0.001340997,-0.0005391987,-0.004124837
1.009222,-0.136821,0.1520937,-0.0003101714,0.0002907363,-0.002033904
1.007544,-0.1378861,0.1499019,-0.0004254138,0.001919433,-0.00162649
1.0087,-0.1377536,0.1496426,0.0009481224,0.002152883,0.0003173297
1.009636,-0.1376693,0.1501742,0.002626163,0.0007530885,0.001114401
1.010717,-0.138127,0.1500939,0.003615994,0.001141104,0.004159696
1.012469,-0.1374138,0.1492528,0.003151408,-2.544779e-05,0.005942281
1.011677,-0.1398895,0.1474807,0.003079414,-0.0004991211,0.002821916
1.01062,-0.1414867,0.1460624,0.005423717,0.0009088255,0.003439061
1.010165,-0.1389994,0.1507689,0.007325835,-0.001722374,0.002209087
1.009557,-0.1376093,0.1565859,0.008404971,-0.003720906,5.240438e-05
1.009629,-0.1366239,0.154549,0.008627533,-0.003668544,0.001955024
1.009809,-0.1397662,0.1537351,0.006924137,-0.003871117,0.003024112
1.010103,-0.1453182,0.1568348,0.005911799,-0.002256785,0.007326405
1.011066,-0.1425793,0.1551464,0.004578954,-0.001428619,0.008730758
1.011139,-0.1381081,0.1537874,0.003498489,-0.0009578395,0.005957489
1.008517,-0.1378878,0.1565615,0.004301041,-0.0008313141,0.00618187
1.007343,-0.1385759,0.1588291,0.002769827,-0.002750284,0.004462818
1.008952,-0.1412219,0.1585646,0.0006733179,-0.002994461,0.005581032
1.008887,-0.1406066,0.1549863,0.0004451868,-0.0003052221,0.008255468
1.010775,-0.1386133,0.1534424,0.0004673272,0.001571232,0.007638626
1.014667,-0.1410653,0.1555691,0.001572608,0.0008255652,0.006759503
1.014239,-0.1410768,0.1571947,-9.697044e-05,0.001436987,-0.001174912
1.012804,-0.1394131,0.159996,-0.004991966,0.00177492,-0.006805586
1.011532,-0.1376911,0.161008,-0.01080754,-1.369606e-05,-0.0009814625
1.009219,-0.1349174,0.1566917,-0.01755422,0.000800442,0.00345025
1.011065,-0.1353621,0.1523786,-0.01667771,0.0003576223,0.005798806
1.013464,-0.1370396,0.1529381,-0.01191149,-0.001504117,0.006594094
1.010525,-0.1421445,0.1555356,-0.01027528,-0.001079823,0.003445486
1.008654,-0.1477104,0.1580689,-0.002908362,-0.0009784785,0.004412967
1.010098,-0.1435499,0.1629843,0.002505732,-0.001040916,0.00517064
1.009864,-0.1390725,0.1626262,0.0001198189,-0.00248082,0.0002370034
1.009424,-0.1399438,0.1565763,-0.001766624,-0.003821421,-0.002002617
1.010124,-0.136299,0.1542913,-0.005721739,-0.004003087,-0.0009979467
1.010719,-0.1334958,0.1536503,-0.006746795,-0.005132685,-0.0002153959
1.012056,-0.139076,0.1538756,-0.005064514,-0.004958339,0.001587976
1.011905,-0.1425737,0.1531656,-0.008447456,-0.002482433,0.003284184
1.009752,-0.1408087,0.1549725,-0.007079899,0.001230662,0.002005673
1.009291,-0.1409663,0.1616991,-0.002589888,0.0008023721,-0.002030854
1.010314,-0.1429559,0.1612831,-0.001269793,-0.001754605,-0.003680804
1.011516,-0.1445506,0.157981,0.002081371,-0.001075064,-0.002882039
1.012926,-0.1445298,0.1552275,0.002669592,-0.002356555,-0.0001770426
1.012109,-0.14359,0.1526379,0.002363779,-0.003704304,0.00523988
1.008472,-0.1409027,0.1564952,0.005080953,-0.004822912,0.005003165
1.006564,-0.1366914,0.1565466,0.004029524,-0.006102583,-0.0001092814
1.009519,-0.1369095,0.1557177,0.0006232567,-0.003821492,-0.0008326759
1.013369,-0.1391706,0.1607529,-0.00570191,-0.003991622,0.006042408
1.013267,-0.142288,0.1619972,-0.01162745,-0.003709417,0.01481405
1.013548,-0.1493503,0.1618659,-0.009340135,-0.002221507,0.01286042
1.015923,-0.1515153,0.1614346,-0.006172071,-0.004626432,0.007902085
1.013533,-0.1473579,0.1561416,-0.003673537,-0.004596723,0.008044407
1.010307,-0.1457633,0.1501712,-0.001387843,-0.004356766,0.003138939
1.011064,-0.1438833,0.1510729,-0.00317696,-0.004934728,-0.0006264602
1.010341,-0.1396002,0.1564172,-0.00333767,-0.003318293,0.000620785
1.009248,-0.1395014,0.1611909,-0.0029742,-0.002844316,0.0001760812
1.009813,-0.1412957,0.1676524,-0.002302499,-0.001154635,0.001090402
1.01014,-0.1410484,0.1634743,0.003130275,6.843492e-05,0.001755139
1.011477,-0.142631,0.1536159,0.005985556,-0.000451012,0.001209148
1.01248,-0.1436551,0.1580321,0.001701464,-0.001604042,0.0007595621
1.010076,-0.1415751,0.157797,-0.004180609,-0.005520932,-0.00040084
1.007992,-0.1404778,0.149959,-0.005384966,-0.005838852,0.0005421033
1.012625,-0.140696,0.1501977,-0.00399353,-0.000372866,0.002099687
1.01726,-0.1427757,0.1503134,-0.004684157,0.004031225,0.002397672
1.014125,-0.1453525,0.1544353,-0.004363593,0.002741173,0.000285593
1.011609,-0.1437251,0.1588209,-0.003237639,-0.0006802042,-0.001180848
1.012054,-0.1419399,0.1541471,-0.002798692,-0.000968066,0.00154495
1.01087,-0.1423531,0.1516169,-0.00188488,-0.002595483,0.002387055
1.011756,-0.1408235,0.1505346,-0.002552323,-0.003899944,0.004036553
1.013084,-0.1404541,0.1484974,-0.004787065,-0.003142411,0.005861527
1.011369,-0.1430158,0.1469699,-0.009208465,-0.004157122,0.002620861
1.010862,-0.1453788,0.1477534,-0.01360391,-0.001435922,0.00172769
1.012178,-0.1485852,0.1542473,-0.009760249,0.001159294,-0.000803047
1.012413,-0.1515615,0.1548686,-8.817651e-05,-0.002024456,-0.004740741
1.010428,-0.1520627,0.1487918,0.004587605,-0.003323846,-0.002145281
1.007199,-0.1490221,0.1498937,0.001723447,-0.0008342936,0.000224989
1.006285,-0.1440043,0.1585437,-0.001979647,0.0008353825,0.003674537
1.007376,-0.1449081,0.1634685,-0.001827602,-0.001523863,0.009425848
1.008086,-0.146607,0.1609476,-0.003891619,-0.002565053,0.009859327
1.009881,-0.1431041,0.1568137,-0.01278917,0.006596882,0.0002184537
1.012875,-0.1446466,0.1500939,-0.02088325,0.02567907,-0.01219836
1.014597,-0.1476436,0.1454981,-0.01893166,0.04166254,-0.009536097
1.01389,-0.1484506,0.148435,-0.006341141,0.04196896,-0.007348462
1.012191,-0.1509768,0.1521109,0.006430653,0.04222463,-0.01859205
1.010132,-0.1473987,0.1550218,0.007483777,0.04894556,-0.0246824
1.006124,-0.1417805,0.1563997,-0.008719486,0.04549327,-0.03635978
1.002689,-0.1383096,0.1618605,-0.03726903,0.04725744,-0.05793463
1.002446,-0.1342357,0.1759101,-0.06383187,0.06496343,-0.07955102
1.004655,-0.1340531,0.1808468,-0.08455033,0.08311318,-0.09937779
1.011772,-0.1314196,0.173803,-0.1035594,0.08779118,-0.09388992
1.016856,-0.1248886,0.1725552,-0.1198723,0.05968348,-0.08116785
1.021848,-0.1638644,0.06945717,-0.03796916,-0.02069937,0.006708734
1.025287,-0.1645142,0.07047916,-0.04093536,-0.01160555,0.005446634
1.028801,-0.1645305,0.06693401,-0.05243217,-0.007192126,0.005072395
1.025565,-0.1655668,0.066556,-0.06868236,-0.008387237,0.0002834679
1.019034,-0.1642375,0.0653072,-0.07280972,-0.007363194,-0.007295468
1.017122,-0.1640283,0.06684731,-0.07424194,-0.00514859,-0.009879914
1.019196,-0.1656987,0.07368488,-0.07582209,-0.002428038,-0.008418865
1.020934,-0.1699191,0.0754436,-0.07466505,0.003019111,-0.008480442
1.019979,-0.1769372,0.07806502,-0.07528256,0.007595426,-0.006174772
1.015274,-0.1842537,0.07916726,-0.07327778,0.006205147,0.003921952
1.010954,-0.1851692,0.07439999,-0.06863177,0.001996731,0.01065372
1.011889,-0.1814302,0.07105613,-0.06179045,-0.005892841,0.006983908
1.01399,-0.1824557,0.07175418,-0.05424424,-0.01993505,0.00730795
1.013808,-0.1806915,0.075294,-0.05036792,-0.02577456,0.01293303
1.015661,-0.177326,0.07503476,-0.04001394,-0.01768965,0.01376019
1.017097,-0.1799927,0.07541415,-0.02440865,-0.01049788,0.01383062
1.015972,-0.1793415,0.0792282,-0.01602482,-0.01106498,0.01328471
1.016547,-0.1784539,0.08124295,-0.006395679,-0.01301013,0.008775914
1.014178,-0.1802871,0.08325365,0.006989886,-0.01453664,0.005127884
1.011407,-0.1801095,0.08164297,0.01162353,-0.01780025,0.004288874
1.014804,-0.1806173,0.07632102,0.01416493,-0.01855274,0.002880478
1.017185,-0.1781828,0.07102301,0.02105018,-0.016153,-0.002206846
1.017628,-0.176467,0.0731964,0.02322668,-0.01242308,-0.005824134
1.018514,-0.1785009,0.07961681,0.02543669,-0.009164558,-0.006016098
1.0187,-0.1762077,0.07637395,0.03201169,-0.0131917,-0.00833916
1.01904,-0.1730329,0.07863824,0.03467045,-0.01834052,-0.008922882
1.018361,-0.1716786,0.08430002,0.03117169,-0.01659143,-0.008789562
1.016943,-0.1711642,0.07629476,0.02457266,-0.01606731,-0.01185076
1.013013,-0.1726401,0.06945381,0.01965834,-0.01846712,-0.01340932
1.009927,-0.1720348,0.06667565,0.01506663,-0.02137427,-0.01515215
1.013912,-0.1704567,0.06550867,0.01595576,-0.02699396,-0.01765123
1.016836,-0.1707604,0.06720931,0.02866737,-0.02809981,-0.02155428
1.014898,-0.1719028,0.06950236,0.03284373,-0.02395091,-0.02735587
1.014892,-0.1720965,0.0762241,0.021513,-0.02124248,-0.02668602
1.015951,-0.1690052,0.07739357,0.01057098,-0.01549327,-0.02498601
1.015759,-0.1654259,0.07656139,0.007406154,-0.01256986,-0.02652753
1.015973,-0.1647438,0.08085912,0.005386899,-0.01666284,-0.02223571
1.015349,-0.1663782,0.08042608,-0.007759209,-0.01566006,-0.02204493
1.014917,-0.1677576,0.08152817,-0.0152728,-0.0129464,-0.02930158
1.01658,-0.1692195,0.0801886,-0.01141514,-0.01189397,-0.03260467
1.016747,-0.17275,0.07349039,-0.01594627,-0.007835873,-0.03847299
1.015581,-0.1738632,0.0740306,-0.01741081,-0.003628257,-0.04345821
1.01517,-0.172608,0.07375193,-0.01336452,-0.001214314,-0.03858645
1.015038,-0.1713354,0.07133635,-0.01439162,-0.006267463,-0.03206629
1.015537,-0.1685359,0.07048105,-0.01462536,-0.0132427,-0.02644474
1.015235,-0.1687353,0.06843969,-0.01923185,-0.01238649,-0.02219951
1.01509,-0.1696862,0.07124868,-0.03065629,-0.01199329,-0.01891578
1.01556,-0.1677467,0.07125205,-0.03737021,-0.01335544,-0.01514763
1.01524,-0.1677922,0.06577811,-0.03412313,-0.01368738,-0.01306965
1.016225,-0.1665086,0.0641121,-0.03208084,-0.0130213,-0.01048003
1.017048,-0.1638693,0.06510464,-0.03546857,-0.007941712,-0.01068169
1.016575,-0.1646421,0.07034433,-0.03505551,-0.004419983,-0.01237836
1.016828,-0.1663062,0.07517077,-0.03562492,-0.005964178,-0.01058778
1.017379,-0.1687744,0.0748369,-0.03702475,-0.006965629,-0.01140572
1.017467,-0.1690046,0.07631867,-0.03448197,-0.006777658,-0.0133939
1.016488,-0.1678221,0.0769218,-0.0323935,-0.00808634,-0.01313393
1.017024,-0.1704643,0.07401994,-0.02713572,-0.007996121,-0.01113039
1.020641,-0.1704809,0.07214122,-0.02245689,-0.005436495,-0.007130133
1.023153,-0.1693032,0.06947814,-0.02243738,-0.005104681,-0.009574602
1.022556,-0.1693875,0.06576011,-0.0212905,-0.004952732,-0.01889535
1.021606,-0.1646782,0.06532151,-0.02130404,-0.003833531,-0.02511497
1.022439,-0.1602485,0.06610476,-0.02303866,-0.003915029,-0.02295464
1.022473,-0.1594499,0.06649804,-0.02786446,-0.003356332,-0.01421655
1.02143,-0.1622233,0.06880241,-0.0338348,-0.002295739,-0.008318463
1.020386,-0.1654766,0.06852176,-0.03198759,-0.001563459,-0.006139836
1.01655,-0.1637361,0.06714848,-0.02503073,-0.004268512,-0.006028814
1.013008,-0.164285,0.06868861,-0.0159327,-0.009800494,-0.0107899
1.012735,-0.1660682,0.06726554,-0.01034657,-0.01478674,-0.01281856
1.01518,-0.1639913,0.06410417,-0.009014725,-0.01804023,-0.008870223
1.019688,-0.1635843,0.06320066,-0.00284401,-0.01238241,-0.003795398
1.020249,-0.1638059,0.06790132,-0.002196092,-0.00314816,-0.002155335
1.018735,-0.1629931,0.0751107,-0.003880509,-0.001416148,-0.003651428
1.019403,-0.162461,0.07216246,0.003018117,-0.003050105,-0.002572781
1.017868,-0.1631466,0.06743042,0.005687122,-0.005819687,-0.003131657
1.01679,-0.1645327,0.06767916,0.01040415,-0.009032677,-0.005918468
1.018556,-0.163613,0.06484119,0.02073869,-0.01067204,-0.007216306
1.019279,-0.1625597,0.06524661,0.02363598,-0.01077317,-0.008015535
1.019022,-0.1616627,0.06837197,0.02746808,-0.007995366,-0.006724419
1.017823,-0.1599768,0.07087248,0.03553328,-0.005248886,-0.009040755
1.016255,-0.1585891,0.07511857,0.03836491,-0.004852022,-0.01307282
1.017255,-0.1559474,0.07369124,0.03806754,-0.004993945,-0.01538233
1.018861,-0.1545604,0.07053766,0.03847794,-0.005013303,-0.02182211
1.017918,-0.1544479,0.06983673,0.03548086,-0.005000465,-0.02344076
1.017701,-0.1535797,0.06750654,0.02973866,-0.003409623,-0.01902799
1.018511,-0.1544099,0.06869208,0.02657971,-0.0005894247,-0.01838893
1.017788,-0.154414,0.07129201,0.02553497,0.0007882657,-0.02014364
1.017685,-0.1536796,0.071023,0.02604706,0.001872795,-0.02364813
1.016671,-0.1545581,0.07162013,0.0246865,0.0004116559,-0.02832942
1.015341,-0.1544244,0.07257692,0.02232105,-0.006975125,-0.03118802
1.017111,-0.1557641,0.0723045,0.02295741,-0.01276957,-0.02775657
1.018207,-0.1572869,0.0711027,0.01850229,-0.009503596,-0.0178582
1.018715,-0.1541842,0.06842023,0.00790605,-0.004221499,-0.008376495
1.019844,-0.1516737,0.06663541,-0.004741354,-0.00529302,-0.001673948
1.018189,-0.1537935,0.06957089,-0.01770226,-0.005942736,0.0006897657
1.015678,-0.1586521,0.07079903,-0.02212806,-0.005359782,0.0007250933
1.01511,-0.1618935,0.06731137,-0.0197803,-0.007982873,0.001384949
1.016408,-0.1582857,0.0678842,-0.02221632,-0.006580149,0.001093032
1.01896,-0.1514407,0.06927429,-0.02797711,-0.002211273,0.004010334
1.020378,-0.1493981,0.07049719,-0.02826587,0.000838866,0.009328764
1.021126,-0.1502805,0.07637973,-0.0288183,0.001304863,0.01255692
1.022455,-0.1505472,0.07930151,-0.03465758,-0.001027004,0.0124737
1.02167,-0.153615,0.08183145,-0.03595265,0.0001581797,0.008654671
1.01993,-0.1565842,0.08445052,-0.03462541,-5.643495e-05,0.008839548
1.02001,-0.1548597,0.07522359,-0.03683596,-0.003719446,0.01127275
1.019498,-0.1532969,0.06543859,-0.03789909,-0.00442576,0.008667571
1.018991,-0.154517,0.06891328,-0.03579659,-0.003477257,0.005358154
1.01998,-0.1554077,0.07117269,-0.03208899,-0.0004585874,0.002324376
1.020304,-0.1554194,0.06528895,-0.02953027,0.001296808,0.003073025
1.01981,-0.156174,0.06472423,-0.02573205,0.0003197506,0.006619735
1.01587,-0.1578219,0.06787211,-0.01899304,-0.001883005,0.003519009
1.010832,-0.1613426,0.06801388,-0.01488747,-0.007396634,-0.000627577
1.014817,-0.1631459,0.06873378,-0.01317584,-0.008873563,-0.002658931
1.022622,-0.1582463,0.068617,-0.01399949,-0.0008818944,-0.004031577
1.023638,-0.1536562,0.07058936,-0.01728931,0.006771526,-0.003140212
1.019199,-0.1537786,0.07553061,-0.01661905,0.0003113371,-0.00582608
1.013982,-0.1547487,0.07818091,-0.01408544,-0.007932605,-0.005128922
1.014635,-0.1560508,0.07674686,-0.01343359,-0.002896682,0.002351506
1.017531,-0.1576226,0.07153777,-0.01301304,-0.003457154,0.003923584
1.016156,-0.1590793,0.07152517,-0.01269368,-0.009183049,-0.001257483
1.017036,-0.1598992,0.07280117,-0.009885284,-0.006857443,-0.007694844
1.018928,-0.1601298,0.0684069,-0.007281907,-0.001717852,-0.008470034
1.019319,-0.1605023,0.06696121,-0.008596465,0.006472273,-0.008045979
1.020166,-0.1612135,0.06696209,-0.006976809,0.005733604,-0.01190729
1.018903,-0.1609804,0.06768955,-0.0005889099,-0.00381881,-0.009460043
1.019393,-0.157674,0.06839769,0.004677916,-0.008065294,-0.007441879
1.019992,-0.1542265,0.06621694,0.002594043,-0.0111615,-0.006345327
1.019127,-0.1526815,0.06546093,-0.007368424,-0.004882013,0.003423689
1.021673,-0.1532194,0.06557969,-0.013377,0.002994207,0.007528366
1.022729,-0.1566621,0.07084688,-0.008199421,-0.003165007,0.003579965
1.021941,-0.1590547,0.07534313,-0.002496807,-0.005750054,0.002042547
1.02139,-0.1576864,0.07055981,-0.007552225,-0.003258333,0.004666456
1.01964,-0.1551263,0.06849234,-0.01569067,-0.002246445,0.008721775
1.017424,-0.1554995,0.07176058,-0.01859886,-0.0001889006,0.01023102
1.014237,-0.1578353,0.07492764,-0.01779642,-0.0007709743,0.01128959
1.014684,-0.161226,0.07556056,-0.01098695,3.524129e-05,0.01137766
1.016864,-0.1655647,0.07457163,-0.004585718,0.0003678267,0.01099371
1.017515,-0.1637961,0.07526409,-0.003101294,-0.0002540885,0.01029066
1.021136,-0.1599225,0.0736432,-0.003385139,0.001912561,0.007379164
1.021858,-0.1598575,0.06867662,-0.006880636,0.001335526,0.005636597
1.019646,-0.1592181,0.06396395,-0.007602825,-0.0004096905,0.003096692
1.020339,-0.1600946,0.06616438,-0.00699288,-0.002262201,0.003223703
1.019546,-0.1609511,0.07160618,-0.007122279,-0.001185672,0.005231824
1.01975,-0.1611203,0.07084692,-0.003992442,0.001346504,-0.0001184291
1.021215,-0.1626348,0.07212637,-0.003510465,-0.004686862,-0.004425192
1.017782,-0.1599448,0.07309955,-0.004490427,-0.007493762,-0.001804148
1.014639,-0.1574815,0.06920635,-0.006119313,-0.003846017,0.0061403
1.015668,-0.1599542,0.0692196,-0.009192393,-0.001542383,0.01381003
1.018163,-0.1619051,0.06864352,-0.0125412,0.003613174,0.008734682
1.020596,-0.1631907,0.06744303,-0.01585758,0.003811315,0.001477183
1.021092,-0.1667906,0.06848597,-0.01237041,0.002022662,0.00172063
1.020628,-0.1686055,0.0679596,-0.008525548,0.004953773,-0.002607398
1.020141,-0.1657771,0.0688632,-0.006527248,0.004154489,-0.007692127
1.019603,-0.1652759,0.06911943,-0.002608629,0.003276587,-0.00815525
1.01969,-0.1657216,0.06831988,-0.003235133,0.001725904,-0.008059479
1.019392,-0.1629131,0.06813197,-0.0014044,-0.001816476,-0.0002870668
1.020246,-0.1604096,0.06437399,0.00269059,-0.001112263,0.007125822
1.02126,-0.1581891,0.06324982,0.00113431,-0.0001927671,0.003089159
1.019729,-0.1620776,0.07305871,-0.001297104,0.0001299957,-0.0003760714
1.018715,-0.1673747,0.08265508,-0.002308431,0.001209892,-0.001405976
1.017787,-0.1623531,0.07732624,-0.002066073,0.00183919,-0.00246897
1.016101,-0.1595802,0.07137352,-0.002537282,0.002461388,-0.001579251
1.016308,-0.1636884,0.07514837,-0.002617684,0.002240555,-0.005670476
1.016132,-0.1645424,0.07184468,0.00119123,0.001500941,-0.01195812
1.015369,-0.1636924,0.0668733,0.009129503,-0.001713343,-0.01516462
1.017977,-0.1634218,0.0687669,0.01569574,-0.006390669,-0.01587137
1.021506,-0.1620472,0.06771602,0.008371746,-0.006298331,-0.008953366
1.021053,-0.159679,0.06822126,-0.004372417,-0.001454735,0.0005495936
1.019369,-0.1591142,0.07116551,-0.005789628,0.00189522,0.001187407
1.0193,-0.1601779,0.07353993,-0.0003834061,0.0009575789,-0.001124887
1.018467,-0.1596379,0.07422167,0.00497902,0.0006877664,-0.0004632445
1.01777,-0.1600655,0.06791439,0.007111146,0.004185538,-0.002424706
1.018272,-0.1626777,0.06578838,0.01065874,0.00510484,-0.005783568
1.018964,-0.1645056,0.06804092,0.02005539,-0.001863029,-0.007088634
1.019746,-0.1628419,0.06513668,0.02470328,-0.007898369,-0.003932966
1.019322,-0.1560066,0.06648149,0.01991129,-0.004365917,0.004146023
1.018357,-0.1498804,0.06886394,0.008819467,-0.001525859,0.009728787
1.018828,-0.151753,0.06673367,-0.001351432,-0.005563015,0.01168671
1.022362,-0.1587915,0.06576666,-0.002724782,-0.006759765,0.01126655
1.025834,-0.1627019,0.06343026,-0.001090899,-0.003556829,0.009922063
1.021739,-0.1608557,0.06462043,-0.001580939,0.001940816,0.01102822
1.016322,-0.157667,0.07031886,-0.002205662,0.007378411,0.009109267
1.01802,-0.156616,0.0719513,0.0001598857,0.0006040093,0.005091685
1.018873,-0.1588072,0.07303314,0.01068185,-0.009078355,0.0007711176
1.017301,-0.1641971,0.07340841,0.02995118,-0.004550716,-0.004610863
1.018707,-0.1670754,0.0717257,0.04128478,0.0006933541,3.700942e-06
1.020003,-0.160437,0.07272944,0.02754439,0.006306208,0.01013877
1.020273,-0.1512912,0.07224358,0.005939717,0.01630135,0.01379529
1.017842,-0.1490308,0.06886033,-0.004017666,0.009448556,0.01422174
1.013593,-0.1482802,0.06744359,-0.001497639,-0.003199623,0.01050331
1.015364,-0.1511894,0.06850498,0.009180909,-0.002718649,0.007284533
1.018363,-0.1581244,0.07118901,0.01280998,-0.0001175553,0.01351606
1.018608,-0.1552564,0.07399092,0.01443609,0.005452535,0.02026636
1.019788,-0.1527484,0.07485327,0.02131611,0.008570254,0.01959531
1.017697,-0.1601011,0.07382139,0.02473417,-0.0004130232,0.0152298
1.016275,-0.1614744,0.07255414,0.02912087,-0.00588607,0.01037313
1.020646,-0.1558064,0.07187542,0.02354097,-0.001151427,0.009425009
1.02268,-0.1501508,0.07180826,0.005936207,0.002791678,0.01414195
1.018825,-0.1491492,0.0701769,-0.002163947,-2.523769e-05,0.01714841
1.015873,-0.1548161,0.06599365,-0.00136058,-0.001135769,0.01701034
1.020959,-0.1572587,0.0644583,-0.000221425,0.003376017,0.01736962
1.02533,-0.1563271,0.06658533,-0.002729308,0.006557228,0.01499652
1.01952,-0.1566248,0.0682224,-0.002758741,0.01013823,0.01322803
1.015398,-0.1588495,0.06945611,0.001811106,0.009309873,0.01287297
1.017963,-0.1628176,0.07217764,0.002890591,0.005068058,0.007477724
1.019511,-0.1625773,0.07642005,0.005567406,0.00494737,0.003580316
1.0199,-0.1607559,0.0785563,0.004854543,0.001261085,0.003878689
1.021214,-0.1587207,0.07607508,-0.0004658336,0.001127581,0.004201668
1.022554,-0.1565067,0.07353479,-0.001373356,0.004963142,0.005331427
1.021407,-0.1589559,0.07335671,-0.002528151,0.001802297,0.005587688
1.019213,-0.1598175,0.07213934,-0.001910415,0.00214876,0.004972815
1.019306,-0.1592168,0.0720445,-0.0007689509,0.006100585,0.003654767
1.019596,-0.1604773,0.0755234,-0.001212557,0.008983738,0.003521196
1.019693,-0.1603318,0.07694581,0.000388321,0.0117686,0.004649931
1.021297,-0.1613068,0.07490216,0.0005499571,0.007906841,0.003858484
1.022387,-0.1609768,0.07175433,0.002802835,0.00335867,0.004717893
1.020636,-0.157729,0.06881215,0.00497092,0.004776445,0.005548795
1.01852,-0.1557136,0.06848533,0.003406184,0.00532337,0.004689997
1.019215,-0.1556775,0.06952445,0.002627709,0.003619221,0.004779471
1.019081,-0.1568181,0.07228477,-0.00206823,0.004862575,0.004120033
1.017336,-0.1564275,0.07570342,-0.006877339,0.005945908,0.003435716
1.018237,-0.1574029,0.07527807,-0.0035992,0.005948699,0.001750797
1.019345,-0.1623547,0.07452255,-0.0004930785,0.009673788,-0.001035123
1.019133,-0.1657495,0.07600981,0.0001894623,0.01025434,-0.004574329
1.018852,-0.1653879,0.07852481,0.004326605,0.007001463,-0.007925553
1.017621,-0.1618053,0.08047078,0.005585515,0.003419417,-0.00362324
1.018036,-0.1581472,0.07575867,0.002057749,-0.0007457686,0.003792203
1.018877,-0.1571065,0.06966987,-0.0008990458,0.00303943,0.00416545
1.017216,-0.1566363,0.07199948,-0.003528873,0.006895284,0.003397796
1.016796,-0.1577472,0.07385829,-0.001785415,0.003488253,0.007378014
1.017741,-0.1608486,0.07197888,0.001662573,0.003029431,0.007972341
1.018115,-0.1649189,0.07586312,0.003244986,0.002068422,0.003748636
1.020331,-0.1684216,0.0832149,0.00677089,-0.0007851619,0.003891425
1.022931,-0.1696814,0.08922396,0.006214322,6.884341e-05,0.006370319
1.021657,-0.168965,0.0876235,0.00419361,0.0007636073,0.006929734
1.018892,-0.1636875,0.07731309,0.004721216,2.568674e-06,0.005023237
1.01694,-0.1592485,0.07280962,-3.745473e-05,0.0002762985,0.001098496
1.015559,-0.1610934,0.07394378,-0.005134847,-8.791341e-05,0.001633915
1.016204,-0.1616201,0.07552741,-0.005150142,-0.002714566,0.002192852
1.015317,-0.1594188,0.07889093,-0.002894778,-0.005089663,-0.001155136
1.014994,-0.1576749,0.07752901,-0.000941656,-0.005144229,-0.0008708465
1.018967,-0.1566626,0.07440842,-0.003666552,0.0008594686,0.001345669
1.021021,-0.1584124,0.07382705,-0.007865025,0.008422223,0.003192637
1.022035,-0.1624574,0.0757593,-0.01167611,0.004866575,0.005674591
1.022074,-0.1649946,0.07925405,-0.01624482,-0.0001988498,0.00685478
1.019132,-0.1641721,0.07676196,-0.01309472,0.002114797,0.006308734
1.017582,-0.1642248,0.07158599,-0.007460265,0.001621034,0.00467898
1.017585,-0.1652081,0.06895105,-0.01119838,0.001948469,0.002611359
1.018205,-0.1616151,0.0702378,-0.01512647,0.005143752,-0.001882559
1.016297,-0.1573341,0.07394053,-0.01617484,0.005857692,-0.003351583
1.014207,-0.158117,0.07087581,-0.01798997,0.008458358,0.003348306
1.016065,-0.1606208,0.06498721,-0.01656497,0.008990285,0.00729372
1.017097,-0.1632094,0.06169338,-0.0176253,0.006170939,0.001501693
1.018526,-0.1664131,0.06241953,-0.01991074,0.00492734,-0.006949386
1.019487,-0.1665137,0.07012397,-0.01822275,0.001185309,-0.00907345
1.018998,-0.1678155,0.07394302,-0.01725743,-0.002006703,-0.007342188
1.019435,-0.1721709,0.07189178,-0.01305718,-0.00291534,-0.007094579
1.016386,-0.1693822,0.07108431,-0.005926952,-0.005387383,-0.00618956
1.013182,-0.1652543,0.07068184,0.0006802551,-0.004982397,-0.007773645
1.012836,-0.1666249,0.07209742,0.006822664,-0.003225904,-0.0110283
1.013045,-0.164329,0.07376003,0.01080043,-0.005210029,-0.01093577
1.016259,-0.1620751,0.07554208,0.0158146,-0.008620849,-0.009095583
1.020055,-0.1643555,0.07631264,0.01580825,-0.01018991,-0.004576892
1.020137,-0.163779,0.07168182,0.01432512,-0.008496959,-0.0003090566
1.018759,-0.1603596,0.06869535,0.01823128,-0.006054547,-0.0009784128
1.019552,-0.1571179,0.07357462,0.01330523,-0.004051893,-0.001642307
1.019839,-0.1549275,0.08139803,0.00345229,0.001693948,0.000706195
1.018915,-0.1540845,0.08215357,-0.005178009,0.0088617,0.0003550151
1.019594,-0.1542955,0.07468702,-0.01462601,0.009464443,-0.00296286
1.018387,-0.1570492,0.06891203,-0.0163965,0.00549973,-0.006381678
1.016597,-0.1605776,0.07011687,-0.01426282,0.001174617,-0.01046158
1.017211,-0.1645688,0.0741772,-0.006774167,-0.00434882,-0.006950515
1.019152,-0.1699212,0.07373595,0.006917504,-0.006406952,-0.000154225
1.021668,-0.1689553,0.07286251,0.01279972,-0.004226903,-0.001969468
1.020239,-0.1603611,0.0738622,0.0103359,-0.00364318,-0.001311866
1.018192,-0.1542983,0.07277717,0.006592516,-0.004645723,0.00421638
1.018671,-0.1535945,0.07340655,0.001194386,-0.004712727,0.006902346
1.016449,-0.1534472,0.06982224,-0.01218682,-0.003203159,0.006355446
1.016236,-0.1532543,0.06391171,-0.02327812,-0.00131268,0.002078669
1.019819,-0.1568415,0.06623342,-0.02223399,0.0006525431,1.082214e-05
1.02008,-0.16106,0.0689534,-0.02230301,0.002308743,-0.0008281722
1.01888,-0.1620991,0.06840044,-0.01919316,0.001743314,-0.00179735
1.019768,-0.1629386,0.06794591,-0.01035261,0.0006541028,-0.0002481933
1.020699,-0.1613735,0.07030268,-0.007195863,0.0007927666,-0.001287408
1.021729,-0.1587147,0.07461629,-0.007419159,0.002224057,-0.0004868146
1.022771,-0.1562873,0.07488384,-0.01231592,0.006212522,0.001498776
1.022123,-0.1518236,0.07196797,-0.01727059,0.01021417,-0.0002356969
1.021985,-0.1530878,0.06692515,-0.01657356,0.00955541,0.0003722763
1.022536,-0.1582119,0.06450537,-0.01531446,0.008358144,-0.0008004456
1.022028,-0.1604003,0.06612979,-0.01238784,0.01035715,-0.004866083
1.022232,-0.1606489,0.06729807,-0.009535883,0.009430713,-0.005795667
1.022356,-0.1597375,0.07079104,-0.009403705,0.006940022,-0.005472605
1.021325,-0.1615549,0.070437,-0.008788923,0.006368719,-0.004434465
1.018792,-0.1617638,0.06497021,-0.005070492,0.004511675,-0.003052673
1.015704,-0.1600982,0.06437921,-0.0009696465,0.002842508,-0.0009120352
1.017265,-0.1619715,0.06583892,0.0029978,0.001302973,0.002115319
1.02016,-0.1617612,0.06529585,0.009298816,0.001097351,0.003196418
1.019121,-0.1616123,0.06534248,0.01180027,0.002956318,0.0001924965
1.018362,-0.1622999,0.06746108,0.01230088,0.001963318,-0.005532517
1.018125,-0.1610524,0.06933531,0.01316442,0.0003750516,-0.004300095
1.018001,-0.16145,0.06899779,0.01176924,0.0003827302,0.001062559
1.020186,-0.1608743,0.06881308,0.01277956,0.001414629,-0.0003639537
1.0208,-0.1607343,0.07051045,0.0124834,0.002245846,-0.003734275
1.018141,-0.1607593,0.07267317,0.01230799,0.001438256,-0.009211774
1.016108,-0.1590719,0.0731517,0.01395229,0.001557816,-0.01427131
1.018285,-0.1609646,0.07370549,0.01180156,-9.60895e-05,-0.008570438
1.021459,-0.1625872,0.07363916,0.01255167,-0.001262528,-0.003317401
1.020189,-0.1620383,0.07206113,0.01309447,0.001249222,-0.00658096
1.019271,-0.160667,0.07374379,0.008047315,0.001402463,-0.007789799
1.019677,-0.1570798,0.07592854,0.004437378,0.002563146,-0.00708503
1.017183,-0.1555906,0.07555744,0.002914801,0.00587553,-0.009649732
1.015777,-0.1536909,0.07692648,0.001727502,0.005284606,-0.01178326
1.015386,-0.1502391,0.07878918,0.0017624,0.003248992,-0.01158143
1.015281,-0.1509569,0.07607269,0.005490905,0.001534158,-0.00756418
1.018493,-0.1521941,0.06878086,0.007568001,-0.0005531514,-0.002267264
1.021197,-0.1513814,0.06169872,0.002886302,3.712082e-05,-0.003528659
1.020943,-0.1531759,0.06073527,-0.001091095,0.001920233,-0.003750095
1.019744,-0.1560201,0.06570394,-0.004125589,0.001358995,0.0004221535
1.019113,-0.1557358,0.07145249,-0.006280669,0.002433781,-0.0009655976
1.019521,-0.1554512,0.07786355,-0.00676092,0.005183881,-0.001806113
1.019519,-0.156665,0.07776213,-0.01130777,0.004392737,8.901383e-05
1.018985,-0.1576305,0.0720591,-0.01409035,0.003170392,-0.001099579
1.017552,-0.1597662,0.07568215,-0.01186115,0.003402761,-0.0004160456
1.015018,-0.1610475,0.07535401,-0.004036725,0.002327838,0.0002827773
1.013896,-0.157689,0.06747803,0.006962451,0.0006757689,-0.0003668844
1.014304,-0.1531031,0.06711319,0.003299324,-9.61145e-05,0.002392505
1.015898,-0.1535591,0.06843555,-0.003767027,2.670711e-05,0.006052004
1.019052,-0.1551691,0.07218905,0.001620893,0.001041642,0.007024191
1.020449,-0.1534131,0.07285888,0.001477909,0.002485527,0.002163472
1.019837,-0.1528568,0.07038142,-0.0008439974,0.003951581,-0.003451775
1.020089,-0.1512011,0.07389753,0.001137406,0.003838663,-0.002216001
1.019558,-0.1495092,0.07229061,-0.002407639,0.001232375,-0.00266989
1.018918,-0.1539078,0.07406523,-0.003915291,0.0006322438,-0.006552619
1.019994,-0.1569403,0.07783845,-0.002648543,0.002405747,-0.005493827
1.020167,-0.1556738,0.07085451,-0.001769667,0.002140695,-0.005027236
1.020107,-0.1559977,0.06811853,0.00135922,-0.002056908,-0.007616534
1.020324,-0.1571113,0.06979644,0.003166873,-0.00593477,-0.006160713
1.019706,-0.1553858,0.07135236,0.005449706,0.001147769,-0.00298119
1.019578,-0.1531108,0.07206446,0.006216655,0.00878596,-0.003175542
1.019233,-0.1544545,0.07008076,0.002620919,0.002645027,-0.00368178
1.019563,-0.1560571,0.07195255,-0.0003122491,-0.0009035141,-0.001740964
1.020653,-0.157979,0.07535965,0.001335054,0.004068085,-0.002523993
1.020944,-0.160948,0.07854373,0.003205873,0.007235125,-0.007660528
1.021987,-0.1594692,0.07655038,-0.003513898,0.008864466,-0.01026219
1.022389,-0.1572168,0.07118823,-0.01050477,0.00460873,-0.008502783
1.021799,-0.1561204,0.072335,-0.01037854,-0.001983694,-0.005195318
1.020565,-0.151702,0.07319366,-0.009670809,0.001125566,-0.002000336
1.018708,-0.1471147,0.07531596,-0.008201379,0.004027049,0.001892325
1.01937,-0.1467709,0.07887344,-0.005120283,0.001927269,0.006099555
1.019512,-0.1507534,0.07511193,-0.001948725,0.004268888,0.005913815
1.01729,-0.1542306,0.07212038,-0.0002750537,0.003793992,0.006475894
1.016275,-0.1542857,0.07380905,0.0007638497,0.0009836177,0.01121556
1.016486,-0.1533018,0.07375478,0.0007615621,0.003850083,0.01051127
1.016779,-0.1519651,0.07138169,-0.001630506,0.004736281,0.006498871
1.015523,-0.1509549,0.07050841,0.001237785,0.002379292,0.004929617
1.013938,-0.1497931,0.07198564,0.005153898,-0.004013747,0.0034402
1.014315,-0.1494375,0.07325005,0.005254479,-0.0104448,0.0042874
1.01665,-0.1509434,0.07258101,0.008251085,-0.003235552,0.005759797
1.019731,-0.1519874,0.06911235,0.008960923,0.005104124,0.005404395
1.018581,-0.1548285,0.06702799,0.00682101,0.003070203,0.005587226
1.01447,-0.1564241,0.06871475,0.005977836,0.002310726,0.003694183
1.013961,-0.1531966,0.07049278,0.00494313,0.002283214,0.0009919079
1.017425,-0.1526694,0.07013457,0.007878712,-0.0001300169,-0.001660656
1.020798,-0.1556773,0.06721205,0.0145093,-0.0002959694,-0.007858508
1.019778,-0.1577375,0.06543743,0.01854671,-0.001689088,-0.01180026
1.018469,-0.1567838,0.06717835,0.01573382,-0.002240703,-0.009935306
1.019561,-0.1528133,0.07290765,0.008618539,0.002881559,-0.00870564
1.016759,-0.1491413,0.07992385,0.004375303,0.002958674,-0.01067807
1.014364,-0.1473738,0.07692195,0.006242685,-0.003384727,-0.01020641
1.017459,-0.1484853,0.07019471,0.009174702,-0.004952755,-0.004712555
1.019796,-0.1479007,0.07173752,0.004299666,-0.003789529,0.0002748126
1.019802,-0.1458004,0.07081363,-0.002526197,-0.0007524665,0.00176968
1.020155,-0.1483399,0.06767953,-0.007137934,0.002419207,0.00174946
1.021117,-0.1493131,0.06775225,-0.01568345,-0.0001979672,0.002482227
1.020363,-0.1506594,0.06643663,-0.01786886,-0.0002803381,0.001729776
1.016877,-0.1565121,0.07022859,-0.007805491,0.0008061621,-0.001701467
1.014936,-0.1582243,0.07517337,0.002428836,-0.001301321,-0.003155852
1.017572,-0.1545345,0.07596138,0.002337075,0.002335588,-0.001261199
1.020523,-0.1494538,0.07609335,-0.007806224,0.009597279,0.002715809
1.017813,-0.1503885,0.06891863,-0.01726209,0.01338607,0.00422328
1.015534,-0.1520763,0.06522161,-0.02100819,0.004227325,0.003107956
1.019028,-0.1465866,0.07142768,-0.01877062,-0.008253754,0.003554417
1.020045,-0.1478897,0.07355486,-0.01419894,-0.001198743,0.001356897
1.018193,-0.1544339,0.07613069,-0.00815802,0.003485972,-0.003529532
1.018588,-0.1578793,0.07876108,0.008791063,-0.00570981,-0.00637956
1.021488,-0.1580216,0.07490198,0.02236185,-0.005135268,-0.002179985
1.024767,-0.1526196,0.07096794,0.01424327,0.001354958,0.006080917
1.021261,-0.1495537,0.06753436,-0.00225898,0.005940415,0.007793902
1.012062,-0.1465729,0.07054879,-0.01176333,0.00654029,0.006936844
1.006352,-0.1456199,0.0777515,-0.008075861,0.001646281,0.006678201
1.009337,-0.1497453,0.07717779,0.003978101,-0.00039826,0.00653372
1.017368,-0.1493544,0.0804002,0.008958484,-0.002556693,0.006693717
1.020951,-0.1534889,0.08645627,0.006212078,0.0004749023,0.004658464
1.021223,-0.1564012,0.08297681,0.005297921,0.008383662,0.006472429
1.020306,-0.1525433,0.07896942,0.008106031,0.005970931,0.006576398
1.016646,-0.1558964,0.0765866,0.01377377,0.003039382,0.00182579
1.01505,-0.1571288,0.07485304,0.02005586,-0.0004725978,0.0006004202
1.01659,-0.1557894,0.07518602,0.02170699,-0.00815506,0.001510537
1.019027,-0.1552034,0.07497055,0.01577587,-0.003120375,0.00901043
1.018634,-0.1511866,0.07708175,0.008835516,0.002786164,0.01645214
1.0179,-0.1529021,0.07746033,0.009569178,-0.001185279,0.01407947
1.020523,-0.1549308,0.07317273,0.01481348,-9.302726e-05,0.01329765
1.019261,-0.1553012,0.07043286,0.0210491,0.002900913,0.01370161
1.017467,-0.1577669,0.07511886,0.02351527,0.001836274,0.01163468
1.016879,-0.1550875,0.08307179,0.01552517,0.001204068,0.01132822
1.014039,-0.153613,0.0818165,0.0112567,-0.002100361,0.007990409
1.015909,-0.1572209,0.07641451,0.02340287,-0.006309566,0.003316805
1.018594,-0.1583428,0.07440436,0.03344491,-0.007051684,0.005506484
1.019484,-0.1536693,0.07414718,0.02276279,-0.00705797,0.01085156
1.019758,-0.1476679,0.07560078,0.007818931,-0.005508633,0.01255215
1.015996,-0.1480679,0.07286026,0.006458816,-0.005874772,0.01185951
1.015125,-0.1503851,0.06998474,0.007608565,-0.009327384,0.01101286
1.018104,-0.1496635,0.07054444,0.005394864,-0.008357005,0.01189854
1.01984,-0.1488132,0.07078227,0.001593273,-0.003038948,0.01322273
1.018199,-0.1469899,0.07648897,-0.004936511,0.003255568,0.01110212
1.015037,-0.1471363,0.08059262,-0.01267824,0.00230377,0.00780584
1.016012,-0.1529095,0.07549854,-0.01741115,-0.004804682,0.003325717
1.015643,-0.161301,0.07233151,-0.002583019,-0.00885581,-0.002695782
1.015036,-0.1666358,0.07633514,0.01685445,-0.01409669,-0.005352379
1.019627,-0.1600366,0.0785982,0.008262362,-0.0121094,0.001047257
1.021536,-0.1462334,0.07287571,-0.0102867,-0.0007401937,0.01075376
1.019339,-0.1426986,0.06895148,-0.02513884,0.004151307,0.006484204
1.015325,-0.1493489,0.07142976,-0.0351697,-0.0002457382,-0.0002981083
1.013321,-0.156228,0.0736613,-0.0256029,-0.008662758,-0.0002166346
1.017639,-0.1592824,0.07644347,-0.01655053,-0.006220441,-0.008038865
