accx,accy,accz,gyrox,gyroy,gyroz
1.004751,-0.0716398,0.178729,0.03953244,-0.03252393,0.1127737
1.006818,-0.07466681,0.1878601,0.05517742,-0.02436556,0.103973
1.00635,-0.07714866,0.1907658,0.04877647,-0.03721112,0.1019189
1.005014,-0.07522348,0.1917122,0.0713664,-0.03740355,0.1062492
1.001548,-0.07184157,0.1920671,0.0661088,-0.05646601,0.1004117
1.00566,-0.07606967,0.1907726,0.06450266,-0.0565051,0.1079668
1.008564,-0.07925773,0.1919188,0.07745415,-0.05138947,0.1071606
1.006583,-0.0818243,0.1867327,0.06839558,-0.06217212,0.1039431
1.009224,-0.0838549,0.1802515,0.08695691,-0.05873196,0.1068099
1.012262,-0.08360367,0.1784566,0.09137568,-0.06157827,0.10612
1.013929,-0.08872386,0.1794965,0.09210122,-0.05842127,0.109906
1.012448,-0.09120313,0.1834019,0.1153206,-0.06028591,0.1101273
1.008351,-0.09132669,0.1833584,0.1216027,-0.06929427,0.1165255
1.005928,-0.09373431,0.1849127,0.1322659,-0.07203657,0.1274494
1.005516,-0.09289701,0.185651,0.1376825,-0.07882049,0.1250651
1.006175,-0.09525824,0.182409,0.1417527,-0.07641466,0.1202447
1.005046,-0.09864199,0.1835802,0.1564576,-0.07566366,0.1166378
1.006375,-0.09774871,0.1826762,0.1642959,-0.07060107,0.1089332
1.010776,-0.09399913,0.1850779,0.1727798,-0.06072667,0.09877437
1.014068,-0.0872116,0.1892385,0.1683935,-0.05997074,0.09253837
1.014588,-0.08586351,0.1839912,0.1628258,-0.05296602,0.08464976
1.010101,-0.08656707,0.1828859,0.1633173,-0.05345821,0.07416789
1.008127,-0.08271798,0.1853653,0.1548398,-0.05935271,0.07691803
1.009275,-0.08025341,0.182348,0.1550356,-0.06007298,0.07683732
1.008839,-0.073347,0.1812325,0.1523463,-0.06258728,0.06811438
1.009884,-0.06194852,0.1827464,0.1313807,-0.05959166,0.06815475
1.011274,-0.0591311,0.1842764,0.09369211,-0.05933179,0.06701014
1.012369,-0.06024136,0.1892963,0.04992795,-0.06218578,0.06606494
1.008107,-0.05656262,0.1939881,0.02747693,-0.07093399,0.06597204
1.00141,-0.05451959,0.1912169,0.001034739,-0.08807894,0.05632598
1.003558,-0.05356496,0.1836361,-0.04847659,-0.08593384,0.04785348
1.008785,-0.05061339,0.1786052,-0.07696866,-0.07527254,0.04164261
1.01171,-0.05375239,0.1815069,-0.08600788,-0.08331354,0.03742441
1.009353,-0.05688074,0.1857501,-0.1118365,-0.09106521,0.03979471
1.00547,-0.05233944,0.1831196,-0.1406566,-0.08882887,0.04381776
1.010832,-0.05216794,0.1794335,-0.1561,-0.08978073,0.05107391
1.014519,-0.06291618,0.179095,-0.1738277,-0.0861039,0.05571691
1.01109,-0.07880433,0.1828222,-0.1844359,-0.0819426,0.05702338
1.008739,-0.09186116,0.1857834,-0.1584204,-0.09535143,0.06471046
1.006613,-0.1043385,0.181895,-0.1155243,-0.1141905,0.07137581
1.008218,-0.1190696,0.1795179,-0.08332267,-0.1223372,0.07086939
1.012066,-0.1242448,0.182582,-0.04775254,-0.1120299,0.0684334
1.011217,-0.1233263,0.1842631,-0.002057874,-0.09774518,0.06844858
1.010421,-0.1237879,0.1831935,0.04898673,-0.1001962,0.06816695
1.01086,-0.1152388,0.1827834,0.08492268,-0.1025793,0.06707652
1.009968,-0.1052328,0.1808843,0.09823007,-0.1040775,0.06941868
1.010305,-0.1053978,0.1716826,0.1130245,-0.107147,0.06939019
1.009997,-0.1004929,0.1634472,0.1151351,-0.09668903,0.06836049
1.00907,-0.08838577,0.1670286,0.1078149,-0.08710656,0.0698083
1.010652,-0.08754107,0.1743274,0.1088852,-0.08499321,0.06765766
1.012475,-0.08799485,0.177368,0.0936524,-0.08433016,0.06322619
1.014322,-0.08082584,0.1781341,0.07221497,-0.08679253,0.05653334
1.014623,-0.08029751,0.1747313,0.05844289,-0.08997747,0.05138473
1.013042,-0.07634571,0.1702945,0.03950492,-0.09215651,0.05373087
1.013982,-0.07255695,0.1696359,0.01468415,-0.09015159,0.05614369
1.013345,-0.0822566,0.1656327,-0.00671372,-0.08966444,0.05421381
1.0116,-0.08583792,0.1606532,-0.01191471,-0.09076329,0.05295865
1.013435,-0.08617,0.1614428,-0.0108471,-0.08886453,0.05370777
1.015233,-0.08842971,0.1597004,-0.009927506,-0.09002942,0.05134889
1.016646,-0.08837522,0.1543239,-0.008929716,-0.0889492,0.0491584
1.014487,-0.09675992,0.1528827,-0.0117307,-0.08471225,0.04839832
1.010072,-0.102739,0.1506018,-0.008831732,-0.08260063,0.0444287
1.011828,-0.1038875,0.1450792,-0.002341548,-0.07776777,0.04437979
1.013647,-0.1077392,0.1456858,0.01005618,-0.06934352,0.04305364
1.012885,-0.1095489,0.1472361,0.02224097,-0.06157886,0.03406992
1.014411,-0.1106449,0.1445173,0.02002481,-0.058681,0.0270246
1.014684,-0.1086186,0.1463741,0.01745355,-0.05873744,0.02386169
1.013003,-0.106644,0.1474992,0.01355496,-0.05809,0.0263197
1.010524,-0.1046791,0.1473669,0.003855099,-0.05563375,0.02944135
1.008902,-0.1026071,0.1496588,-0.001289463,-0.05240405,0.02950696
1.010992,-0.1053104,0.1473095,-0.004960724,-0.05120754,0.0314842
1.013018,-0.1041977,0.1462232,-0.008880331,-0.04977283,0.02524892
1.01454,-0.1043555,0.146083,-0.009440321,-0.0505395,0.01516674
1.017768,-0.1059835,0.1428613,-0.009288394,-0.05324426,0.01560722
1.018568,-0.1003336,0.1418295,-0.01331453,-0.05125076,0.0172747
1.016698,-0.09810745,0.1398629,-0.01641461,-0.04333666,0.01493085
1.015468,-0.1019496,0.1397049,-0.015629,-0.03292418,0.01401615
1.015378,-0.1054153,0.1420728,-0.01236235,-0.03415936,0.01335535
1.017086,-0.1024742,0.1415135,-0.005230161,-0.04359243,0.01155006
1.018009,-0.09764302,0.1414837,-0.005726503,-0.0457017,0.01139368
1.014567,-0.09896554,0.1409614,-0.01189606,-0.04841654,0.01277893
1.011236,-0.09877371,0.1393634,-0.01442878,-0.04964064,0.01659799
1.013889,-0.09912896,0.1386269,-0.01891955,-0.04520479,0.02158759
1.018605,-0.1010889,0.1367028,-0.01895621,-0.04356554,0.01806932
1.020051,-0.100028,0.1353462,-0.01622626,-0.03968708,0.01238067
1.019312,-0.1003544,0.1347005,-0.01863157,-0.03848024,0.01164018
1.017155,-0.1001226,0.1342562,-0.01930152,-0.04401704,0.006839971
1.015031,-0.1017117,0.1345275,-0.02026048,-0.04547202,0.005271981
1.014212,-0.1051841,0.1320804,-0.02244163,-0.0456361,0.008013234
1.013769,-0.1051319,0.129436,-0.02025656,-0.04214985,0.004499395
1.014807,-0.1042341,0.1312627,-0.01533914,-0.03454574,0.0032243
1.015705,-0.1019017,0.134612,-0.01239879,-0.03508359,0.003632296
1.015183,-0.1013015,0.137177,-0.01513395,-0.03690505,0.003266642
1.015759,-0.1025147,0.1385918,-0.01750414,-0.03431756,0.006950172
1.018001,-0.1023706,0.1396218,-0.01391694,-0.03004062,0.002837098
1.019729,-0.1042454,0.1413529,-0.01173115,-0.0231133,-0.00258114
1.016543,-0.100832,0.1413179,-0.01513643,-0.02239167,0.0008285462
1.011305,-0.09444634,0.1395497,-0.02238181,-0.02333142,-0.0009960222
1.011242,-0.094768,0.1367999,-0.03057171,-0.01407758,-0.000560972
1.01312,-0.09463913,0.134257,-0.03322977,-0.003250829,0.005682405
1.013161,-0.09572655,0.1336829,-0.03459033,0.002007821,0.006020649
1.01485,-0.1042019,0.1324408,-0.03907634,0.004799062,0.007415771
1.017474,-0.1126015,0.1332844,-0.03412445,0.008822472,0.00518457
1.016153,-0.1118418,0.1373003,-0.0235342,0.01047642,-0.002482204
1.01403,-0.1045695,0.1413902,-0.0221374,0.006419691,-0.005115407
1.01473,-0.1014246,0.1447701,-0.02365215,0.003879962,-0.004165014
1.013911,-0.1010937,0.1425777,-0.0217706,0.000335908,0.001948718
1.013082,-0.1014038,0.1409994,-0.01695635,-0.004874737,0.005571812
1.013592,-0.1035153,0.1437523,-0.01328613,-0.00457888,0.003029083
1.011674,-0.1024326,0.1424616,-0.01627306,-0.007695966,0.003369105
1.010754,-0.1010356,0.1389401,-0.01975211,-0.01392427,0.003485985
1.011577,-0.1010576,0.1345418,-0.02260048,-0.01156853,0.003706285
1.012372,-0.1004819,0.1326953,-0.02658674,-0.001383712,0.003631022
1.013243,-0.1000719,0.1345299,-0.02900276,0.01324908,0.002391849
1.012069,-0.1005389,0.1367768,-0.0311406,0.02067076,0.002219521
1.012476,-0.1057601,0.1446767,-0.02681004,0.01125473,0.0001600831
1.013813,-0.1096812,0.1493724,-0.0186435,-0.0002533786,0.0003521001
1.012878,-0.1061775,0.1439979,-0.01807791,-0.006118214,0.0007549745
1.013641,-0.101665,0.1378684,-0.01979624,-0.01235744,-0.0002162662
1.0149,-0.1005894,0.1348182,-0.02055889,-0.006664173,0.0004942625
1.015558,-0.1017535,0.1358387,-0.0214629,0.006216878,-0.003149053
1.015368,-0.1015952,0.1375818,-0.01977061,0.003937089,-0.007939391
1.013862,-0.1022221,0.1394395,-0.01893226,0.000263018,-0.01035071
1.014164,-0.1044296,0.143599,-0.01868535,0.001058355,-0.0124064
1.01467,-0.1051709,0.1438585,-0.01818122,-0.002425717,-0.01343492
1.015619,-0.1056973,0.141033,-0.02084735,-0.0005265422,-0.0139815
1.016619,-0.1046768,0.1407372,-0.02722182,-0.0005984164,-0.01274455
1.016522,-0.103491,0.1402903,-0.0343691,-0.002692188,-0.01338668
1.017998,-0.1027201,0.1403252,-0.03278638,0.003771808,-0.01673466
1.017837,-0.09876196,0.1434491,-0.02848942,0.007222755,-0.01852328
1.015751,-0.09511271,0.1458227,-0.03308746,0.004338886,-0.01819773
1.013223,-0.09604317,0.1481139,-0.03438535,-0.001430258,-0.01476794
1.011418,-0.1000349,0.1505296,-0.03266124,-0.007289979,-0.01187812
1.01327,-0.102278,0.1469749,-0.03284209,-0.007691673,-0.01212641
1.014508,-0.1015739,0.1380716,-0.02675972,-0.004294654,-0.0148168
1.015314,-0.1009855,0.1325885,-0.02435351,-0.0008990711,-0.01801982
1.015963,-0.1018213,0.1361432,-0.02805739,-0.0009415392,-0.01837965
1.014613,-0.1034257,0.1394646,-0.03068054,-0.0002003352,-0.01994681
1.015292,-0.1044069,0.1367939,-0.03393706,0.001679282,-0.02142886
1.014492,-0.1045007,0.1379609,-0.03269068,0.000917264,-0.01994065
1.012215,-0.1035253,0.1429646,-0.03158085,0.0009243515,-0.02004913
1.012912,-0.1022974,0.1464703,-0.03593519,-0.001146935,-0.01861421
1.014207,-0.1012041,0.1485472,-0.0381349,-0.001078687,-0.01592217
1.015833,-0.1017001,0.1479448,-0.03690531,0.00212566,-0.01738997
1.015622,-0.1064217,0.145702,-0.03401126,0.0006359882,-0.02015158
1.014632,-0.1096192,0.142029,-0.03114604,0.002205161,-0.0214103
1.014813,-0.1082979,0.141091,-0.02728935,0.003649883,-0.02165955
1.010776,-0.1062415,0.1460181,-0.02054584,-0.002061887,-0.02110443
1.006713,-0.1032162,0.1483313,-0.01528521,-0.01003664,-0.01842561
1.009209,-0.1004599,0.1462181,-0.01458035,-0.01671277,-0.01679021
1.01449,-0.1006559,0.1425585,-0.01933703,-0.007041514,-0.02131924
1.017855,-0.1013397,0.1389236,-0.02692935,0.01091048,-0.0243809
1.017023,-0.09945713,0.1399431,-0.03026597,0.01283647,-0.01982846
1.014921,-0.09948996,0.1404109,-0.02782626,0.009594842,-0.01630781
1.015286,-0.1008958,0.1361966,-0.02518215,0.007511621,-0.01813412
1.01549,-0.09938765,0.133634,-0.02438951,0.002007792,-0.02035999
1.014973,-0.09932005,0.1345673,-0.0239862,0.0003778943,-0.02267564
1.015491,-0.0968804,0.1352912,-0.02460288,0.0005839805,-0.02722371
1.015271,-0.09325613,0.1349474,-0.0242029,-0.000495049,-0.03058844
1.015097,-0.0973639,0.1372989,-0.0234031,-0.003867716,-0.03007385
1.015706,-0.1008231,0.140041,-0.02381968,-0.009583353,-0.02819301
1.016344,-0.09909888,0.137832,-0.02293923,-0.01025737,-0.02718373
1.018762,-0.09805721,0.133023,-0.02337825,-0.005028735,-0.02662716
1.020209,-0.0986515,0.1305645,-0.02443156,0.001785864,-0.02760615
1.019259,-0.09890474,0.1366156,-0.02368649,0.004712469,-0.03009572
1.019131,-0.09829885,0.1459791,-0.02348647,-0.0003459692,-0.03002125
1.018705,-0.09838357,0.1443342,-0.02317891,-0.005355061,-0.02852465
1.017194,-0.09691616,0.1366966,-0.02477868,-0.003761664,-0.02765584
1.015782,-0.09541313,0.1336033,-0.02587437,-0.003581275,-0.02714493
1.015988,-0.09782971,0.1340327,-0.02368924,-0.005890032,-0.02823787
1.018458,-0.1003127,0.1361436,-0.02364359,-0.003577302,-0.02826926
1.01856,-0.1004749,0.1373197,-0.02311564,-0.002326012,-0.02914753
1.015501,-0.1004301,0.1397523,-0.02266067,-0.003467261,-0.03127714
1.014972,-0.1006506,0.1429025,-0.02509624,-0.002218008,-0.03095783
1.016622,-0.09836648,0.1407042,-0.02639476,-0.001654093,-0.03052172
1.017684,-0.0942346,0.1375192,-0.03059099,0.0007496966,-0.02631835
1.018503,-0.09233518,0.1369918,-0.03403297,0.004451054,-0.02176776
1.017993,-0.09343942,0.1399736,-0.03160025,0.004840886,-0.02439046
1.017446,-0.09713126,0.1441888,-0.03149907,0.004852929,-0.02734577
1.016609,-0.09942997,0.1445964,-0.03076799,0.005619006,-0.02945246
1.014501,-0.09764204,0.1447813,-0.02554975,0.007043234,-0.03071507
1.015094,-0.09549012,0.1446298,-0.02197927,0.008126195,-0.02761079
1.015844,-0.09470312,0.1458926,-0.02105769,0.008551947,-0.02480446
1.014836,-0.09458151,0.1484489,-0.0203539,0.008113615,-0.0246096
1.015229,-0.09585842,0.1461094,-0.01870039,0.003216334,-0.02513185
1.014155,-0.09980981,0.1434437,-0.01825252,-0.002658731,-0.02586694
1.011599,-0.1015944,0.1410533,-0.0195504,-0.004408902,-0.02660301
1.011013,-0.09602286,0.140553,-0.02136211,-0.001916315,-0.02680764
1.012799,-0.09072819,0.1419899,-0.02205747,0.004729163,-0.02674117
1.014913,-0.09188899,0.1394197,-0.02068883,0.0117043,-0.02668434
1.014831,-0.09260748,0.1403089,-0.02272545,0.01176561,-0.02461737
1.015071,-0.09095367,0.1427957,-0.0246568,0.006097419,-0.01990012
1.015792,-0.09287074,0.1418751,-0.0222737,0.003681209,-0.01655605
1.014954,-0.09512044,0.1416381,-0.02160902,0.002123048,-0.0193258
1.014883,-0.0955303,0.1389184,-0.02058845,-3.209258e-05,-0.02571831
1.013774,-0.09632247,0.1356743,-0.01946314,0.003088945,-0.02967813
1.011648,-0.09403886,0.1341316,-0.01826002,0.004869454,-0.02999529
1.012094,-0.09336808,0.1347551,-0.01452344,0.00178232,-0.02749488
1.011158,-0.09463021,0.1387745,-0.01527183,-0.005271221,-0.02391009
1.009698,-0.09243412,0.1419368,-0.01642401,-0.01507457,-0.01879287
1.014092,-0.09369239,0.1427882,-0.01426414,-0.01799927,-0.01243018
1.01854,-0.09512656,0.136349,-0.01497879,-0.01704954,-0.01034524
1.016823,-0.09171185,0.1269296,-0.01516655,-0.01828475,-0.01217616
1.015859,-0.08944052,0.1281427,-0.0133623,-0.0177084,-0.01407173
1.018436,-0.08778901,0.1357535,-0.009275286,-0.01749553,-0.01403216
1.01919,-0.08611115,0.1404667,-0.005129625,-0.01854507,-0.01207845
1.019386,-0.08438087,0.1378912,-0.01171825,-0.01688665,-0.01177258
1.019858,-0.08413409,0.1341695,-0.02179351,-0.01071908,-0.01121873
1.019051,-0.08642426,0.1376138,-0.02236748,-0.003313926,-0.009492509
1.019552,-0.08617014,0.137741,-0.0203677,-0.003083285,-0.01077948
1.019642,-0.08619579,0.1329398,-0.02092804,-0.005630648,-0.01353333
1.019098,-0.08830432,0.1314182,-0.02147565,-0.003014267,-0.01359626
1.019208,-0.08870923,0.1312845,-0.02162546,-0.002696352,-0.01290602
1.016289,-0.08748229,0.1315647,-0.01985678,-0.00312168,-0.01433238
1.012589,-0.08523955,0.1303291,-0.01783629,-0.0009221813,-0.01419172
1.012207,-0.0858275,0.1304439,-0.0181456,-0.002863832,-0.01240285
1.014639,-0.08674706,0.1335383,-0.01836697,-0.002916574,-0.009449777
1.016982,-0.08456281,0.1327674,-0.01808213,-6.169929e-05,-0.006057133
1.016619,-0.08461534,0.1313718,-0.02016751,-5.854318e-05,-0.006985094
1.015637,-0.08489974,0.131658,-0.02421123,0.0001147094,-0.00594154
1.015086,-0.08444049,0.1293258,-0.02738987,-0.0009717537,-0.002598293
1.015102,-0.08575854,0.1238569,-0.02785303,-0.003311461,-0.003196148
1.015565,-0.08806561,0.1195787,-0.02294563,-0.005924057,-0.003984173
1.015283,-0.09158428,0.1233895,-0.01485226,-0.009196886,-0.00502875
1.016157,-0.09175931,0.1296289,-0.01213419,-0.01047865,-0.005495285
1.01709,-0.09083401,0.1324731,-0.01656368,-0.01061298,-0.004937489
1.016587,-0.0922664,0.1349039,-0.02308434,-0.009509885,-0.005328354
1.016592,-0.09058433,0.1319964,-0.02802957,-0.005395709,-0.003889323
1.016731,-0.0896311,0.1269754,-0.02946347,-0.0003740164,-0.001667414
1.017012,-0.09094126,0.1293074,-0.02839236,-0.0004247018,0.0002269396
1.018441,-0.09110436,0.1316251,-0.02549396,-0.003835795,-6.453585e-05
1.019986,-0.09303666,0.1315224,-0.02055818,-0.003587028,-0.005269974
1.019693,-0.09446844,0.1341377,-0.01912655,-0.002157218,-0.009263501
1.018798,-0.09474881,0.1319561,-0.02147961,-0.0004980297,-0.005905307
1.018797,-0.09644825,0.1261612,-0.0207521,0.001060431,-0.0007341183
1.017679,-0.09757099,0.1247437,-0.02003249,0.001055569,-0.002326368
1.016615,-0.09783516,0.1262028,-0.02076411,0.002254136,-0.006225715
1.015966,-0.09870908,0.1289414,-0.01974003,0.0009982709,-0.006145148
1.014674,-0.100558,0.1280494,-0.02056533,-0.0004615066,-0.005253001
1.015118,-0.1002866,0.1267052,-0.02233225,0.004095617,-0.00407783
1.014756,-0.09837975,0.1283935,-0.02363844,0.007896463,-0.00371935
1.01338,-0.09943462,0.1260069,-0.02322094,0.007373294,-0.006336096
1.014896,-0.1021924,0.1257332,-0.01717091,0.007070018,-0.007524592
1.015791,-0.1037888,0.127918,-0.01214042,0.006562222,-0.006185635
1.015254,-0.09868566,0.1255319,-0.01291842,0.002582262,-0.004964383
1.016347,-0.09195354,0.1233438,-0.0141019,0.0001486006,-0.003111452
1.018059,-0.09722587,0.1223174,-0.0130938,0.004424534,-0.002144431
1.019307,-0.1026214,0.1251427,-0.01295493,0.009403638,-0.005588948
1.018903,-0.0993678,0.1314073,-0.01400339,0.01026357,-0.009872703
1.015864,-0.0998339,0.1326932,-0.01447781,0.006528503,-0.009412207
1.013123,-0.1021323,0.1299019,-0.0171808,0.001926793,-0.007779754
1.01576,-0.101479,0.1283422,-0.01885347,0.003704226,-0.007760595
1.020799,-0.1008288,0.1290695,-0.01755748,0.008824897,-0.006236866
1.020851,-0.09992716,0.1286321,-0.01791951,0.01197552,-0.006264445
1.017909,-0.1000576,0.127314,-0.0165275,0.01353342,-0.008199784
1.015764,-0.1015514,0.1287217,-0.01365828,0.01192773,-0.006946009
1.015347,-0.1020105,0.1295311,-0.01207758,0.008868822,-0.006177597
1.01592,-0.100773,0.1277461,-0.01090597,0.008635676,-0.008417307
1.015715,-0.1001888,0.1251025,-0.0111663,0.0100183,-0.01019846
1.016772,-0.09951407,0.1217964,-0.009404026,0.01135612,-0.01054388
1.016287,-0.09864772,0.1213728,-0.007032271,0.01251545,-0.009192791
1.014279,-0.1007159,0.1279579,-0.007527009,0.01133094,-0.007507659
1.015595,-0.1013067,0.1349142,-0.007036326,0.006870737,-0.007601695
1.01554,-0.1007158,0.1333792,-0.00534024,0.0003153113,-0.007663913
1.014946,-0.1010046,0.1296794,-0.004402801,-0.00285925,-0.007459907
1.016625,-0.09847237,0.1303453,-0.004578631,0.001672246,-0.01262489
1.016717,-0.09756528,0.1318837,-0.005879885,0.006626552,-0.01779058
1.016735,-0.096497,0.1325535,-0.009063006,0.009357725,-0.01132092
1.016503,-0.09375841,0.1295734,-0.0141305,0.01237978,-0.003097074
1.015593,-0.09697147,0.1233134,-0.01594489,0.009888315,-0.001825498
1.015271,-0.1001116,0.1185324,-0.01310043,0.005861109,-0.0005253787
1.015494,-0.0984109,0.1174589,-0.009693544,0.006488329,-0.004774456
1.018225,-0.09812771,0.120164,-0.007188337,0.006829336,-0.01598705
1.020265,-0.09905321,0.1217561,-0.007212058,0.01026237,-0.01833398
1.019521,-0.09852586,0.1255535,-0.008804649,0.0155502,-0.01207162
1.018606,-0.09786434,0.134572,-0.008563273,0.01265691,-0.00773996
1.016668,-0.09675085,0.1383368,-0.00730674,0.009113724,-0.00521521
1.013731,-0.09578903,0.1337919,-0.003501591,0.009588624,-0.004556381
1.013791,-0.09728266,0.1273733,-0.0008325015,0.00606723,-0.00435873
1.018069,-0.09642492,0.1265194,-0.006205512,0.005447727,-0.0009176933
1.020531,-0.09445661,0.1258761,-0.009710318,0.01093115,0.002337332
1.019433,-0.09659151,0.1236361,-0.006908082,0.01155315,0.0003315378
1.019127,-0.09589756,0.129794,-0.004466062,0.01134448,-0.006264564
1.019565,-0.09445732,0.1320501,-0.003044285,0.01365226,-0.009790364
1.019389,-0.09677063,0.1289276,-0.008878042,0.00875929,-0.005193377
1.018382,-0.09747987,0.1279394,-0.0183065,0.002015822,-0.0003952244
1.017285,-0.09836339,0.1211877,-0.01812834,0.002177017,-0.00452057
1.015402,-0.0990556,0.1176279,-0.01368168,0.003459697,-0.008869824
1.013418,-0.09904987,0.1181983,-0.01122203,0.004734864,-0.006384182
1.015427,-0.09970265,0.1175803,-0.008904256,0.008399449,-0.007025102
1.017755,-0.09819793,0.118692,-0.009253536,0.009920104,-0.007463388
1.016584,-0.09850303,0.117257,-0.01118118,0.008901367,-0.003870056
1.016929,-0.1002137,0.1161143,-0.01267378,0.009624285,-0.005719976
1.020643,-0.100562,0.1142237,-0.01547739,0.0104775,-0.009340283
1.022872,-0.1012335,0.1128043,-0.01559998,0.009442226,-0.01139074
1.020316,-0.1002158,0.1152822,-0.01398469,0.009201006,-0.0111722
1.01691,-0.0994644,0.1171723,-0.01541053,0.008060196,-0.006998576
1.017574,-0.09876236,0.1232905,-0.0148519,0.00552428,-0.006230163
1.018564,-0.09782014,0.1282639,-0.01368816,0.006428502,-0.008202071
1.016061,-0.09899098,0.126944,-0.01297754,0.008895491,-0.009125706
1.015052,-0.09774959,0.1274079,-0.007915088,0.01072454,-0.009200544
1.015801,-0.09648391,0.1264471,-0.00487071,0.01159622,-0.008413615
1.014882,-0.09765293,0.1233413,-0.005102721,0.00950634,-0.009651966
1.015265,-0.09711517,0.1213608,-0.004329628,0.007169121,-0.01129077
1.015617,-0.09746617,0.1191771,-0.002607218,0.005057904,-0.01219313
1.01541,-0.09922681,0.1204876,0.0008942209,0.004411775,-0.0118194
1.018199,-0.1006795,0.123941,0.00170076,0.005099475,-0.008711615
1.020269,-0.1021545,0.1240524,-0.001961412,0.003964369,-0.006557353
1.019034,-0.1019672,0.1248867,-0.007990211,0.009596642,-0.004462825
1.016396,-0.0986751,0.126893,-0.01380783,0.01652475,-0.001970896
1.014578,-0.09514837,0.1258072,-0.01164322,0.01091373,-0.002491275
1.016027,-0.09960529,0.1253461,-0.002117662,0.006458616,-0.00489044
1.0201,-0.1055643,0.1235496,0.003337812,0.009763473,-0.009614325
1.023071,-0.1022914,0.1190323,-0.00360078,0.01096935,-0.01476348
1.020367,-0.1007287,0.1184182,-0.01256572,0.01250321,-0.01387801
1.015318,-0.102376,0.1221263,-0.009177853,0.01509208,-0.009806489
1.014689,-0.1006708,0.1269272,-0.004543261,0.01307211,-0.00850202
1.016071,-0.1014729,0.1264085,-0.001907441,0.00778159,-0.008136741
1.017908,-0.1018405,0.1241345,0.005030212,0.003350456,-0.01035919
1.020105,-0.1007562,0.1257762,0.001025708,0.003158434,-0.01394213
1.018839,-0.1009653,0.1237351,-0.00643535,0.006792589,-0.01224747
1.01717,-0.0967945,0.1228785,-0.003979216,0.007939713,-0.0109929
1.018294,-0.09324518,0.1246309,-0.005663636,0.007027484,-0.012085
1.01831,-0.09605554,0.1236636,-0.004946321,0.007601733,-0.01127686
1.017862,-0.09882556,0.124295,8.541364e-05,0.007719963,-0.01074164
1.019172,-0.09836047,0.1218345,-0.003037401,0.008268403,-0.008883578
1.019719,-0.0979669,0.1194728,-0.004186708,0.008325796,-0.008104807
1.019395,-0.09907059,0.1218692,-0.002754526,0.007817486,-0.01133172
1.019425,-0.1001022,0.123089,-0.001444701,0.009262531,-0.01541667
1.019427,-0.1005159,0.1271246,0.002709362,0.009458757,-0.01850426
1.019496,-0.09933673,0.1318187,0.0008227653,0.008124667,-0.01612787
1.019409,-0.09834641,0.1314887,-0.002121202,0.006897643,-0.01204438
1.019429,-0.09811821,0.127571,-0.0009251538,0.007339097,-0.01248068
1.019685,-0.09628144,0.1231431,-0.002436458,0.01037334,-0.009163766
1.020084,-0.09638151,0.1237443,-0.003355872,0.01192728,-0.003814106
1.020263,-0.0983137,0.1244685,-0.002025913,0.01188663,-0.008119149
1.019098,-0.0987564,0.1230842,-0.0006249127,0.01198101,-0.01234891
1.018192,-0.09914348,0.1258538,0.0006891716,0.01188142,-0.009131584
1.018161,-0.1003877,0.1281485,-0.000971044,0.0101713,-0.008759369
1.017826,-0.1002593,0.1277071,-0.002923914,0.006007659,-0.009072953
1.018494,-0.09806455,0.1269992,-0.001661067,0.003276319,-0.007907368
1.019966,-0.09689007,0.1232042,-7.332642e-05,0.002314755,-0.009982178
1.020805,-0.09557512,0.1200031,0.0008621955,6.23511e-05,-0.01058153
1.019427,-0.09612973,0.1231051,0.001408181,-0.004412362,-0.009992669
1.016882,-0.09841723,0.1263204,0.0007266713,-0.007540317,-0.0109225
1.017061,-0.09676515,0.1231633,0.0001647273,-0.004536472,-0.01224562
1.017044,-0.09695592,0.121164,-0.001601617,-0.0007157414,-0.0136507
1.015991,-0.09751249,0.1247928,-0.007991807,0.001170352,-0.01070714
1.016875,-0.09478615,0.1267804,-0.01363428,0.006005176,-0.004657071
1.015864,-0.09464383,0.1272545,-0.01140602,0.01279672,0.0003849867
1.014776,-0.09616328,0.1282244,-0.005258444,0.01589083,0.003775223
1.016501,-0.09881356,0.1276395,0.001260969,0.008132319,0.0003616934
1.016728,-0.09858514,0.1277217,0.007374143,-0.00367353,-0.004853915
1.01575,-0.09427098,0.1271981,0.007791923,-0.003427373,-0.002881177
1.015522,-0.09240898,0.1244115,0.005958853,0.006291888,-0.003410801
1.017776,-0.09277997,0.1226946,0.00474122,0.01866775,-0.01109174
1.02063,-0.09449239,0.123595,-0.0005677432,0.02702394,-0.01517044
1.019513,-0.09454116,0.1240084,-0.004332273,0.02013913,-0.01127959
1.018654,-0.09296491,0.1213205,-0.004720526,0.008727385,-0.005395855
1.019222,-0.09178078,0.1179245,-0.003407942,0.005748739,-0.005638421
1.018546,-0.08887119,0.1155544,-0.001683698,0.008098398,-0.008430645
1.019812,-0.0894571,0.1167236,-0.008693056,0.0126124,-0.009379908
1.021791,-0.09325011,0.1194696,-0.01524324,0.01169825,-0.01290876
1.021569,-0.09565244,0.1202789,-0.01092879,0.008843525,-0.01485913
1.018965,-0.09778705,0.1250927,-0.002719003,0.008065006,-0.01493498
1.015386,-0.09770848,0.1295445,0.005442308,0.003162691,-0.01593832
1.016113,-0.09670791,0.1278605,0.007176425,0.005393671,-0.01422796
1.018167,-0.09729747,0.1262812,0.004655949,0.01156738,-0.01346437
1.01778,-0.09764451,0.1235659,0.005454413,0.01006901,-0.01352439
1.01989,-0.09769129,0.1205212,0.005280513,0.00921528,-0.01228246
1.019728,-0.09767267,0.1245164,0.003943913,0.007390675,-0.01046275
1.015695,-0.09526496,0.1296972,0.00448266,0.007815352,-0.006912805
1.015196,-0.09244005,0.1253303,0.003374292,0.01172085,-0.00521143
1.016345,-0.09322612,0.1213891,-0.003293824,0.01138727,-0.005111234
1.018764,-0.09437899,0.1255358,-0.009462568,0.0136198,-0.006879546
1.02043,-0.09511515,0.1253719,-0.006956115,0.01327383,-0.009955428
1.018587,-0.09576327,0.1229541,-0.002380403,0.006319714,-0.009119522
1.017701,-0.09482822,0.1222282,-0.002015711,-0.001305717,-0.007457802
1.016357,-0.09623007,0.1197893,6.862492e-06,-0.007451706,-0.007054524
1.016462,-0.09786869,0.1212429,0.004490041,-0.002947814,-0.009200697
1.019196,-0.09660306,0.1228016,0.008183763,0.002983842,-0.01177216
1.019578,-0.09429896,0.1224543,0.01062264,0.002929564,-0.005525063
1.01908,-0.09099235,0.1244945,0.008817947,0.003906576,0.005576436
1.016698,-0.08931731,0.1279721,0.007174725,-0.008280493,0.01255793
1.014248,-0.08852582,0.1335826,0.005484419,-0.02731496,0.01365623
1.015329,-0.08739275,0.1371156,-0.00346938,-0.02861464,0.01196134
1.016129,-0.08948605,0.1349342,-0.00657744,-0.02405118,0.0117993
1.017739,-0.09287504,0.1292906,0.002771476,-0.0234984,0.01038786
1.020287,-0.0929937,0.1253377,0.009561456,-0.01134504,0.007377996
1.019294,-0.08888667,0.1236356,0.006952677,0.006110459,0.003313782
1.016111,-0.08447443,0.1199642,-3.90493e-06,0.008368978,-0.001789257
1.014716,-0.08474267,0.1209693,-0.009240612,0.005303932,-0.00184965
1.015177,-0.08871025,0.1245311,-0.01906611,0.008077892,-0.004671712
1.016013,-0.09159402,0.1222477,-0.01593796,0.008788727,-0.01339299
1.01832,-0.09133278,0.1208234,-0.006861624,0.01430007,-0.0141658
1.021891,-0.09131724,0.1209268,-0.007896341,0.01897391,-0.01656121
1.024466,-0.09251905,0.1196018,-0.006177417,-0.001993458,-0.02750336
1.028087,-0.09540553,0.1167091,-0.001465693,-0.02853605,-0.04031733
1.031443,-0.1055508,0.1129191,0.001755931,-0.02366209,-0.06666331
1.021255,-0.1136524,0.1159381,0.003791777,0.00673336,-0.08220481
1.003899,-0.1038935,0.1196177,-0.001992377,0.04231166,-0.05274977
1.003148,-0.08900784,0.1149411,-0.003974932,0.05826142,-0.01790575
1.009075,-0.08622988,0.1123814,-0.007502705,0.0356281,-0.007424566
1.012106,-0.08868707,0.1144523,-0.01608315,0.009044389,-0.002002996
1.023249,-0.09197383,0.1142024,-0.01306734,0.006849669,-0.002485014
1.027509,-0.09555564,0.1147985,-0.009752002,0.00956568,-0.004740764
1.018715,-0.09263704,0.1177624,-0.008782324,0.01385954,0.003229844
1.014613,-0.08840487,0.1197027,-0.003403732,0.0164233,0.008478925
1.015674,-0.08855148,0.1203947,0.0002159696,0.01009448,0.007584899
1.018036,-0.08744105,0.1202674,0.004425547,0.004121221,0.003505091
1.02041,-0.08356005,0.1201448,0.006263545,-0.0008251162,-0.0022601
1.018636,-0.08080569,0.1210648,0.0004959052,0.003704635,0.0002553837
1.014511,-0.08222035,0.1218829,-0.007208707,0.00990756,0.005507934
1.012338,-0.08537554,0.1204729,-0.006382252,0.004746257,0.005909447
1.016419,-0.0864742,0.1161616,-0.004939163,0.005405197,0.0007545019
1.02115,-0.08673251,0.1140334,-0.01332372,0.009620851,-0.005382109
1.01695,-0.08764729,0.1214953,-0.01833432,0.01345631,0.00446186
1.013692,-0.08828826,0.1290033,-0.02197704,0.0192059,0.01935719
1.018673,-0.08315505,0.1221209,-0.02471002,0.01646521,0.01792491
1.020697,-0.073754,0.1151519,-0.02006464,0.009592892,0.009570637
1.020558,-0.07314017,0.1187801,-0.01943781,-0.00799151,0.003890632
1.029245,-0.08329955,0.1187698,-0.01625448,-0.04023932,0.001284275
1.043482,-0.097687,0.1169564,-0.009332681,-0.05195121,-0.01268886
1.044078,-0.1070125,0.1188162,-0.004238663,-0.02176067,-0.04591418
1.017188,-0.1006569,0.1166337,0.003700099,0.01853925,-0.05747743
0.9894488,-0.0878924,0.1115008,0.001748996,0.03355355,-0.02785766
0.9938446,-0.08145346,0.1069211,-0.00761941,0.02985883,0.001418495
1.009518,-0.08413819,0.10627,-0.01843277,0.02006461,0.006774165
1.015111,-0.09498628,0.105514,-0.02892445,0.009026962,0.006332018
1.021635,-0.09956866,0.09937063,-0.02156092,0.003612229,0.01298841
1.021791,-0.09664851,0.1019363,-0.0002444711,-0.01645266,0.02209596
1.021037,-0.0976317,0.1115624,0.0377511,-0.05715042,0.03222304
1.036003,-0.09998684,0.1149074,0.08205724,-0.06752777,0.03494773
1.041679,-0.1038139,0.1146044,0.09605584,-0.02554872,0.01971074
1.031574,-0.1098707,0.1095203,0.09961361,0.02601022,-0.002629812
1.022529,-0.1136024,0.1022655,0.09746214,0.06393687,-0.02160301
1.016765,-0.1050484,0.09714584,0.06945875,0.0892805,-0.0301023
1.020412,-0.08717357,0.09701292,0.05024712,0.08880904,-0.03007072
1.02221,-0.08511418,0.1040112,0.04623221,0.07769244,-0.03321396
1.017109,-0.0922435,0.1123312,0.05742469,0.07252377,-0.02759725
1.015423,-0.09174838,0.1259638,0.09562219,0.04675193,-0.01244089
1.013666,-0.09222638,0.1294581,0.1165685,0.01283975,-0.006538148
1.017085,-0.09367612,0.1149349,0.1127481,0.008350065,-0.007256343
1.021338,-0.09652449,0.1126477,0.1086997,0.02195435,-0.006231435
1.017777,-0.09821192,0.1189514,0.1026807,0.03496105,-0.002297348
1.01481,-0.09353523,0.1258582,0.09182778,0.03173068,0.002282887
1.011398,-0.08691149,0.1390113,0.06120308,0.01590864,0.01205023
1.007511,-0.07511132,0.1449615,0.03038345,0.007653953,0.02926318
1.008442,-0.0660695,0.1425746,0.01491285,-0.005918908,0.04095284
1.011604,-0.06805002,0.1384008,-0.007261295,-0.01396715,0.04485307
1.013828,-0.07150844,0.1418682,-0.01930114,-0.004979132,0.03805351
1.016896,-0.07582827,0.1452404,-0.01784302,-0.005728766,0.0154026
1.023903,-0.08197369,0.1379116,-0.02349181,-0.007444492,-0.01333402
1.032307,-0.08608314,0.1331711,-0.02421332,0.001493847,-0.04800525
1.03487,-0.08901201,0.1289041,-0.01906594,0.0151401,-0.08004097
1.023041,-0.08802899,0.134425,-0.02860157,0.03039448,-0.08261198
1.001827,-0.07938741,0.1443168,-0.05188826,0.03124092,-0.05454727
0.9927332,-0.0720989,0.133088,-0.07274956,0.02620533,-0.01564693
1.002175,-0.07666245,0.1237711,-0.07790967,0.02519571,0.01191005
1.014951,-0.0876512,0.1230808,-0.06104694,0.01727803,0.005372173
1.023152,-0.095813,0.1189645,-0.0336627,0.01435075,-0.01920419
1.027549,-0.09615402,0.1187672,-0.009233072,0.01917895,-0.02993528
1.024392,-0.09158475,0.1187366,-0.008738129,0.02083465,-0.03310675
1.015867,-0.08804432,0.1209672,-0.02193068,0.0261506,-0.02822963
1.009526,-0.08066486,0.1244827,-0.01564098,0.02682701,-0.01592933
1.012067,-0.07330853,0.1254131,-0.02770049,0.01729664,-0.007598524
1.018724,-0.07214209,0.1276276,-0.04624062,0.01080386,0.005388589
1.016389,-0.07164852,0.1295211,-0.02900133,0.003181167,0.008650912
1.01526,-0.07508499,0.1341521,-0.01994862,-0.006001068,0.005902598
1.017923,-0.07981009,0.1369316,-0.0114467,-0.01611407,0.0128995
1.015165,-0.08067473,0.1320598,0.001692001,-0.02734164,0.01154574
1.017565,-0.0808934,0.1276554,0.0001348303,-0.02140651,0.01269375
1.018909,-0.07700182,0.1284399,0.01182812,-0.01322908,0.01579022
1.016619,-0.0736115,0.1298238,0.01503778,-0.01343818,0.01362262
1.017756,-0.07084437,0.1264171,0.001611262,0.003044009,0.02040167
1.014927,-0.0661733,0.1263793,-0.009745022,0.01377369,0.02366189
1.01419,-0.06854886,0.1337025,-0.01818759,-0.00160552,0.02536709
1.01299,-0.07289683,0.1351823,-0.006694207,-0.01788152,0.02798585
1.013374,-0.07967879,0.1240628,0.006922221,-0.02335383,0.02629973
1.022291,-0.09195463,0.1121443,0.0109488,-0.009412423,0.02441834
1.024003,-0.09898794,0.1164391,0.01750337,0.0160707,0.01289063
1.022855,-0.09947566,0.1246519,0.0265318,0.02548375,0.002387238
1.020856,-0.09043945,0.1281418,0.03971753,0.01957559,-0.0014763
1.01409,-0.07528784,0.1410974,0.04085961,0.006202438,-0.002788698
1.013834,-0.0705032,0.1441313,0.0333972,-0.01558853,0.007285296
1.016668,-0.07452247,0.1350218,0.02778736,-0.02884827,0.01610921
1.019925,-0.07572393,0.1332161,0.01179274,-0.01921454,0.01699311
1.020477,-0.07675687,0.1244496,-0.001842485,-0.009139731,0.01732647
1.019163,-0.0825663,0.1214855,-0.006514366,-0.009072621,0.01403524
1.021905,-0.0859684,0.1286695,-0.01005886,-0.000141533,0.004273656
1.020261,-0.08629658,0.1247011,-0.009676138,0.004868759,-0.002769136
1.017337,-0.08771503,0.1267283,-0.01074611,-0.001547101,0.0008316936
1.01577,-0.0859165,0.1303037,-0.01160136,-0.005368229,0.005579343
1.014064,-0.08373762,0.1268841,-0.006741758,-0.01330077,0.009817606
1.016047,-0.08534847,0.1311689,-0.0003706008,-0.0157404,0.01090832
1.016003,-0.08773531,0.1312482,0.004313073,-0.008006779,0.004577187
1.018276,-0.08943762,0.1296042,0.004357731,-0.005906111,0.003517986
1.022646,-0.08905553,0.132502,0.004514479,-0.003684474,0.005659807
1.020391,-0.0875221,0.1313773,0.007340422,-0.0006069521,0.007454216
1.017997,-0.08701217,0.1313006,0.00633785,-0.002980046,0.01178667
1.016335,-0.08579093,0.1312839,0.004481187,-0.01072208,0.01287468
1.014477,-0.08464196,0.13444,0.005390197,-0.01812799,0.01103157
1.016645,-0.08724356,0.1384512,0.008485514,-0.01565081,0.007882737
1.019116,-0.08994217,0.1306419,0.01436468,-0.0138398,0.002382803
1.019697,-0.08680311,0.1222899,0.01475024,-0.01554731,-0.008600654
1.0196,-0.08017776,0.1228385,0.001496421,-0.01315538,-0.0117777
1.018516,-0.07534066,0.1248106,-0.01499744,-0.0138972,0.006347834
1.015555,-0.07568209,0.1253776,-0.01395346,-0.01753551,0.03006859
1.011139,-0.08026652,0.1274664,0.006246991,-0.02837152,0.04753076
1.010328,-0.08779636,0.1280817,0.02499791,-0.04629723,0.04730069
1.014674,-0.09660572,0.1233694,0.02943869,-0.04475834,0.03315767
1.019835,-0.09599821,0.1202434,0.02674956,-0.01938562,0.02016678
1.023405,-0.08871616,0.1211315,0.02424119,0.005263727,0.003818103
1.021889,-0.0847683,0.1236575,0.01439884,0.01302489,0.005167041
1.018193,-0.07750113,0.126195,0.002742081,0.007925673,0.01806593
1.01826,-0.07419673,0.1260441,0.001150173,0.006928332,0.01470779
1.015511,-0.07737013,0.1269679,-0.008245969,0.003761333,0.01756066
1.012245,-0.07662298,0.1274565,-0.02674755,-0.0110077,0.01813138
1.014927,-0.08203811,0.1244126,-0.0323621,-0.01739526,0.00820476
1.017037,-0.08687082,0.1218512,-0.03228698,-0.01558623,0.009484607
1.019223,-0.08762238,0.1203118,-0.03627041,-0.01676471,0.01041241
1.020672,-0.09439081,0.1204818,-0.03635098,-0.01508456,0.01261661
1.019581,-0.09369956,0.1211761,-0.0293165,-0.01268729,0.01962995
1.020518,-0.0952832,0.1197223,-0.01684562,-0.008686246,0.02297125
1.017715,-0.1034968,0.1197582,-0.0006625504,-0.00552927,0.02577271
1.013482,-0.09998055,0.1233629,0.01289099,-0.01062003,0.02429393
1.015326,-0.09444753,0.1275193,0.01837583,-0.01494461,0.02320157
1.016205,-0.09067823,0.1297083,0.01834478,-0.01324616,0.02183564
1.016253,-0.09011973,0.1305323,0.01332852,-0.01253155,0.01793461
1.02068,-0.09361009,0.1301441,0.008300631,-0.01390839,0.01654297
1.022905,-0.09083231,0.1289075,0.00821171,-0.009871226,0.009654364
1.018567,-0.08957236,0.1307419,0.006542241,-0.007856529,0.00381094
1.015216,-0.08482517,0.1330848,0.002430524,-0.02023293,0.007975416
1.017757,-0.07558922,0.1301025,-0.008748439,-0.03057909,0.01374129
1.020146,-0.07927094,0.1226485,-0.0297202,-0.0237062,0.01678415
1.020116,-0.08441525,0.1115959,-0.04521366,-0.01549481,0.01819572
1.021101,-0.08546522,0.1026886,-0.04943986,-0.01630889,0.01446464
1.021136,-0.08987702,0.1022342,-0.05172728,-0.01082335,0.003544457
1.019298,-0.08798571,0.1111344,-0.05566464,-0.00358161,-0.0003713441
1.015747,-0.08072533,0.1285186,-0.05645069,-0.01292323,0.007227287
1.010896,-0.07743556,0.1336454,-0.06181497,-0.03374873,0.01708932
1.011607,-0.08206503,0.1154855,-0.07869668,-0.05540502,0.02737241
1.015294,-0.09146584,0.1026573,-0.08537663,-0.05517256,0.03240126
1.01795,-0.09909976,0.1072612,-0.07104719,-0.03825345,0.03127555
1.023897,-0.1117851,0.1072837,-0.05530354,-0.03404097,0.02635302
1.023808,-0.1208344,0.09911124,-0.04919367,-0.02049124,0.01798334
1.019052,-0.1155135,0.103059,-0.04115957,-0.006329557,0.01352318
1.018502,-0.1116486,0.1170293,-0.02434223,-0.02009041,0.01674866
1.012556,-0.1040554,0.1239414,-0.01598442,-0.03205027,0.02573619
1.010832,-0.09355335,0.120353,-0.0256251,-0.03870919,0.03675734
1.018161,-0.09471428,0.111408,-0.03596835,-0.04326245,0.04394101
1.01863,-0.09472369,0.109183,-0.0364556,-0.03308118,0.04030567
1.018764,-0.09773745,0.1065154,-0.03411628,-0.02595257,0.03156097
1.020122,-0.1060069,0.1003477,-0.03210652,-0.02424458,0.02639105
1.018843,-0.1071828,0.1033642,-0.02939064,-0.01773295,0.02114492
1.019932,-0.1057939,0.101788,-0.02631998,-0.01362355,0.01853279
1.018875,-0.1019003,0.102296,-0.02364122,-0.0188221,0.01638888
1.018025,-0.1021484,0.1078705,-0.02538155,-0.02561648,0.01757636
1.019285,-0.104159,0.09977498,-0.02752266,-0.03031162,0.02476798
1.020853,-0.1028861,0.09681092,-0.02543925,-0.0366007,0.01996924
1.020938,-0.1105884,0.1000379,-0.02218593,-0.02748796,0.01587475
1.014516,-0.1164281,0.100734,-0.0110929,-0.01475319,0.02056188
1.012316,-0.1153571,0.1038718,0.004917655,-0.02474772,0.01760489
1.019772,-0.1175856,0.0989437,0.01462918,-0.02786743,0.01714314
1.025874,-0.1204048,0.09010094,0.02220828,-0.01043649,0.01669214
1.023629,-0.120167,0.08400929,0.02705851,-0.000738726,0.012876
1.019943,-0.1182462,0.08603983,0.03494045,-0.006616464,0.01441023
1.023215,-0.1198245,0.0926922,0.04980005,-0.01082676,0.0128183
1.022804,-0.1173576,0.09343872,0.04922168,-0.001620138,0.01032185
1.020816,-0.1085331,0.09855499,0.04190739,0.003064491,0.008609082
1.023501,-0.1027719,0.1003177,0.04556889,-0.006068161,0.006977392
1.021687,-0.1004728,0.09594146,0.03873194,-0.009643018,0.009937298
1.02191,-0.1002106,0.09833449,0.02089751,-0.001878434,0.008711815
1.023079,-0.09579955,0.1002777,0.001061347,0.008309732,0.003516257
1.020935,-0.09358627,0.103111,-0.01400976,0.01216429,0.0004608912
1.020681,-0.09606388,0.1043654,-0.01742137,0.01143788,-0.001230064
1.017026,-0.09299869,0.1019161,-0.0369153,0.01122304,-0.001743596
1.015711,-0.09416733,0.1064911,-0.05822342,0.003556102,-0.003596662
1.018373,-0.09890588,0.1078269,-0.05957712,-0.003306081,-0.005050252
1.017789,-0.1009212,0.1021325,-0.06772302,0.005708636,-0.006888647
1.017127,-0.1025849,0.09966137,-0.06723546,0.01501347,-0.01033198
1.015448,-0.1031062,0.09937477,-0.05892252,0.009164396,-0.007400764
1.014752,-0.1079579,0.09943862,-0.06047556,-0.0004088165,0.0008279091
1.016044,-0.1120887,0.09842839,-0.05166076,-0.005792255,0.005650456
1.016836,-0.1147579,0.09812543,-0.04375683,-0.006026617,0.003218804
1.019032,-0.1189266,0.09920748,-0.03481856,0.003183478,-0.002901818
1.020105,-0.1171594,0.09778445,-0.01999354,0.005885496,-0.004847769
1.020824,-0.1141326,0.09582567,-0.02147632,-0.0001233586,-0.00537772
1.021077,-0.1107938,0.0936237,-0.01862285,6.558554e-05,-0.006816379
1.018545,-0.1068686,0.09196154,-0.007036261,-0.005105738,-0.004482879
1.018122,-0.1080268,0.09214434,-0.00710516,-0.01001279,-0.001745835
1.020796,-0.1089542,0.09221461,-0.003773642,-0.005242238,-0.00155357
1.022726,-0.1067101,0.09416499,0.007460741,-0.002223086,-0.002408604
1.020805,-0.1046995,0.0950254,0.009717336,0.001386653,-0.002636404
1.017971,-0.1041072,0.09513773,0.003087425,0.000523936,-0.002075498
1.018745,-0.1047845,0.0972234,-0.00371072,-0.002826089,-0.001931607
1.0185,-0.106093,0.0943606,-0.008737448,-0.0002816951,0.0003387558
1.01819,-0.1057237,0.09282019,-0.006677402,-0.002036944,0.002331442
1.020289,-0.1053678,0.095867,-0.002534153,-0.003357691,0.0007529068
1.019647,-0.1078113,0.09500671,-0.003584988,0.0008459528,-0.002081655
1.019807,-0.1087488,0.09829879,-0.0005290214,0.002830684,-0.005103251
1.021132,-0.1085048,0.1036821,0.002025359,0.001691553,-0.005254116
1.017784,-0.1092185,0.1000056,0.00232486,0.001095509,-0.002197615
1.01472,-0.1098195,0.09423792,0.00751796,0.005974911,0.0005544607
1.015034,-0.1101049,0.0909485,0.006984211,0.01006741,0.001318051
1.016248,-0.1087916,0.09273719,0.002813161,0.007336164,-0.0004276166
1.018853,-0.1074768,0.0981109,0.003352321,0.005621981,-0.001878463
1.021379,-0.1064358,0.09757001,0.003123631,0.007089262,-0.002442477
1.019669,-0.1066972,0.09611867,0.003159719,0.007647686,-0.005142394
1.016788,-0.1078158,0.09613493,0.00494399,0.009276975,-0.0084104
1.01906,-0.1069162,0.0940568,0.005940363,0.01478813,-0.008645327
1.020119,-0.1072626,0.09777273,0.008529203,0.01830757,-0.007512399
1.016922,-0.1071099,0.1046506,0.01125161,0.01292597,-0.005674186
1.016508,-0.1073227,0.1055248,0.009236762,0.003049211,-0.001173629
1.01792,-0.1093302,0.1003572,0.007923147,-0.0004670714,0.0006877999
1.020116,-0.1079657,0.09497956,0.01147511,0.005041119,-0.0001996067
1.02167,-0.1080983,0.09688447,0.01310756,0.00872337,0.001450776
1.020542,-0.1085482,0.09849156,0.01146026,0.004820479,0.001503205
1.020748,-0.1059507,0.09504838,0.00858582,0.003124086,0.001490124
1.020695,-0.105388,0.09450421,0.004357153,0.008266679,0.00271344
1.018834,-0.1051113,0.09316396,0.001803546,0.01085587,0.0003213224
1.017667,-0.1048398,0.09314615,0.00169901,0.006553295,-0.0004478624
1.017932,-0.1040805,0.09988959,0.001401271,0.0032957,-0.001023202
1.019561,-0.103247,0.1027552,0.001093525,0.004903667,-0.004395521
1.020453,-0.1030396,0.09917079,0.003726191,0.005684406,-0.004002977
1.020858,-0.100886,0.09632662,0.007319046,0.004103221,-0.00322683
1.020181,-0.1028147,0.09533758,0.008199011,0.004190758,-0.002789694
1.018594,-0.1055831,0.09476579,0.007239774,0.004798398,-0.001179943
1.018698,-0.1036777,0.0969663,0.004718935,0.005222355,-0.00438944
1.018184,-0.1039833,0.1017534,0.0005151596,0.006156436,-0.007995728
1.018512,-0.1049277,0.1017797,-0.005602289,0.003361027,-0.006615636
1.019641,-0.1059763,0.0988873,-0.009775008,0.0002952564,-0.002767557
1.016672,-0.109443,0.09860701,-0.007469065,0.002841521,-0.0001350707
1.014699,-0.1102815,0.09926368,-0.005082955,0.00806394,-0.0003909418
1.017985,-0.108567,0.1019312,-0.00621624,0.01104438,-0.0005968126
1.020504,-0.1079333,0.1062397,-0.007047616,0.005693154,-0.002371005
1.018587,-0.1089741,0.1074118,-0.00680499,-0.001210281,-0.004723447
1.017313,-0.1114819,0.1019325,-0.004789162,0.002163986,-0.003136285
1.019364,-0.1149434,0.09724856,-0.0008823558,0.005088226,-0.0008433331
1.020021,-0.1164267,0.09831299,0.003600093,0.002395877,0.001457751
1.019883,-0.115386,0.09641126,0.006939791,0.004233978,0.002537327
1.020356,-0.1146394,0.09522089,0.007185131,0.006676864,0.0009467811
1.019225,-0.1120673,0.09195776,0.003770427,0.006875216,0.0002664885
1.019113,-0.1101673,0.08417376,-0.001440989,0.005214521,2.134522e-06
1.01983,-0.1134931,0.08842689,-0.002385903,-0.0006845298,0.00259279
1.019095,-0.1156773,0.09123198,0.001775034,-0.00147845,0.007533459
1.018498,-0.1155155,0.08694595,0.005669383,0.001146622,0.006201846
1.017939,-0.1171956,0.09181443,0.008012088,0.00123957,0.001682523
1.017634,-0.1186735,0.09687573,0.007497873,0.003975722,0.0002842992
1.017602,-0.1191625,0.102919,0.006804782,0.004443998,-0.001275402
1.017034,-0.1187055,0.1057789,0.009604347,0.00317638,-0.001833158
1.01704,-0.1156501,0.09709496,0.0102888,0.003777187,0.0005999925
1.015996,-0.1108566,0.09336222,0.008675983,0.002038365,0.000560884
1.014991,-0.109232,0.09438127,0.008930737,0.002590107,-0.0004953577
1.018146,-0.1111661,0.0947078,0.01147447,0.006361545,0.001069075
1.020596,-0.1112093,0.09640635,0.01499871,0.007279021,0.0008532861
1.019291,-0.1109584,0.09942315,0.01393736,0.003793833,0.000320804
1.019124,-0.1113883,0.1048405,0.008935669,0.00147483,0.0007314284
1.019735,-0.1107953,0.1041706,0.001610877,0.005247436,-0.002746357
1.019359,-0.1113047,0.0991653,-0.005482602,0.007945905,-0.008011577
1.019382,-0.1111389,0.0954643,-0.001687845,0.006781622,-0.01161847
1.019533,-0.1110634,0.09293332,0.005855074,0.006912154,-0.01216763
1.019409,-0.1123102,0.09491428,0.007143386,0.007821412,-0.0103614
1.019416,-0.1125294,0.0949027,0.007978294,0.008785936,-0.00893673
1.019499,-0.1126916,0.09364688,0.006757232,0.01080458,-0.007021026
1.019586,-0.1123813,0.09507786,0.00476083,0.01203367,-0.007132926
1.020333,-0.1118624,0.09456535,0.003520564,0.01156728,-0.008886597
1.021148,-0.1100849,0.09608717,-0.0005072393,0.01207578,-0.008400284
1.020885,-0.1076029,0.0981267,-0.0004871217,0.0126034,-0.008653627
1.020666,-0.1099345,0.0967038,0.001669264,0.01086356,-0.007922269
1.02075,-0.1123286,0.09526273,0.003081733,0.006462694,-0.004710125
1.019955,-0.1108313,0.09440916,0.006406521,0.0006529742,-0.001643768
1.019102,-0.1107973,0.09598525,0.005326342,0.0002136906,0.002489683
1.019572,-0.1118541,0.09850909,0.005415747,0.0005256198,0.005185121
1.02054,-0.1127251,0.09831456,0.009942503,-0.005380429,0.00403687
1.020786,-0.1143718,0.09669895,0.01194809,-0.008358164,-0.0002800368
1.02006,-0.1142769,0.09463666,0.0149125,-0.008653352,-0.003877018
1.019043,-0.1133269,0.09431636,0.01562723,-0.008152384,-0.004585615
1.01934,-0.1141325,0.09513775,0.01164103,-0.001410619,-0.006804306
1.019759,-0.1136833,0.09474355,0.009776596,0.003085324,-0.004912765
1.019217,-0.1115698,0.09798102,0.01030109,0.000684336,-0.0002575567
1.019648,-0.1098046,0.1023898,0.01063471,-0.002691948,-0.002847282
1.020652,-0.1084077,0.09962868,0.006515939,-0.003887811,-0.003840386
1.021637,-0.1096963,0.09375788,0.0005602801,-0.001189386,-0.003333623
1.021302,-0.1128007,0.09039952,-0.0004062973,0.00225519,-0.008552172
1.017753,-0.1146055,0.09121543,0.001128404,0.006238045,-0.0100758
1.015927,-0.1138674,0.09457029,0.003597384,0.01393173,-0.003206336
1.018595,-0.1114532,0.09728071,0.007774613,0.01852256,0.005145112
1.02016,-0.1108838,0.1004609,0.01368714,0.01160842,0.005391314
1.018451,-0.1116062,0.097125,0.01993945,-0.002905737,0.003091521
1.017795,-0.1144585,0.08997292,0.0246792,-0.01238413,0.005665592
1.020239,-0.1199032,0.09150702,0.02965868,-0.008439553,0.002437592
1.022221,-0.1212562,0.09255593,0.03366999,0.003676264,-0.004710658
1.021391,-0.1161221,0.09038765,0.03367473,0.01431791,-0.01025451
1.019364,-0.1080418,0.08973931,0.02606594,0.01961598,-0.01316277
1.018298,-0.103185,0.08466246,0.01285733,0.01225808,-0.006499559
1.018716,-0.1032047,0.08193639,0.005918204,0.000782304,-0.0002750746
1.018754,-0.1047526,0.08484221,0.008866688,0.003374067,0.0002130861
1.017933,-0.1096394,0.08628127,0.01307914,0.007818098,0.0006989129
1.0178,-0.1141901,0.08747584,0.01372816,0.007424059,-0.001683124
1.018422,-0.1116396,0.09024434,0.01585756,0.004414003,-0.004582581
1.019348,-0.107374,0.09446977,0.01708213,-0.003792847,-0.006306639
1.021322,-0.1061818,0.09646586,0.01192919,-0.001379404,-0.005508716
1.022853,-0.1061837,0.09317159,0.00416458,0.005148095,-0.003101927
1.021129,-0.1086979,0.0903624,-0.003680513,0.004383129,-0.003531834
1.019428,-0.1106861,0.09218356,-0.002495589,0.002793656,-0.002403361
1.020546,-0.110672,0.09502628,0.00439961,-0.001989876,-0.001371735
1.021935,-0.1160679,0.09501991,0.005778179,0.002430052,-0.001600728
1.022618,-0.1195255,0.09088567,0.01040199,0.01413332,-0.0007863959
1.022205,-0.1144746,0.08697903,0.01125222,0.02030633,-0.002899181
1.021967,-0.1102955,0.09386489,0.001636033,0.02752367,-0.007187058
1.022504,-0.1069147,0.1021298,-0.007272343,0.02888551,-0.01309264
1.021728,-0.103684,0.095942,-0.01391067,0.02449275,-0.01536309
1.020389,-0.1037439,0.08992553,-0.01642226,0.01870571,-0.01192306
1.019068,-0.1049971,0.0901567,-0.01782379,0.0103212,-0.01050349
1.01904,-0.1071484,0.08691647,-0.01698492,0.008132409,-0.008792375
1.020166,-0.1107724,0.08449358,-0.01123698,0.004671734,-0.008918111
1.020111,-0.1159245,0.08078827,-0.007409813,-0.00295077,-0.01126039
1.02113,-0.1206256,0.07784203,0.0002170421,-0.005718913,-0.009095017
1.022187,-0.125672,0.08638424,0.009657649,-0.002911365,-0.008575196
1.021968,-0.1292555,0.09616868,0.01650779,0.005551607,-0.008828526
1.02221,-0.1223907,0.09675853,0.02139895,0.008673853,-0.007437982
1.020339,-0.1120132,0.0972378,0.01805377,0.003571938,-0.007411711
1.018685,-0.1124988,0.09748753,0.01788933,-0.002763574,-0.004053541
1.019769,-0.1157533,0.09097578,0.02414838,-0.009749091,-0.0009057563
1.020466,-0.1142608,0.09012185,0.02756844,-0.009216396,9.8156e-05
1.020805,-0.1198148,0.09388928,0.03277434,-0.005311438,0.002544245
1.020094,-0.1261692,0.09202356,0.04095991,-0.002005461,0.003734601
1.01895,-0.1210636,0.09261637,0.0499795,0.006214313,0.00396072
1.019472,-0.1165997,0.08954997,0.05200993,0.005727431,0.002098763
1.019635,-0.1165485,0.08578987,0.0461263,0.002969303,-0.002640526
1.019283,-0.1160564,0.09311856,0.04108176,0.01256224,-0.006387618
1.019484,-0.1150309,0.09660839,0.03327593,0.01631416,-0.005981632
1.019673,-0.1117526,0.09613092,0.02741564,0.01381919,-0.004800594
1.020272,-0.1089305,0.0962103,0.0248302,0.0176449,-0.008823165
1.021133,-0.1060348,0.0911263,0.01502535,0.02161397,-0.01107507
1.020965,-0.1034184,0.08974816,0.003700217,0.02189915,-0.01097437
1.020394,-0.1032025,0.09506509,-0.003353569,0.01687538,-0.01237155
1.020089,-0.1017303,0.09903232,-0.007300563,0.009225916,-0.004923993
1.019199,-0.1011518,0.09729584,-0.01335863,0.006829106,0.00423433
1.019197,-0.1040059,0.09621915,-0.02566481,0.01457077,-0.0001186688
1.019803,-0.1081128,0.09775515,-0.02994734,0.02418944,-0.01138418
1.019258,-0.1127853,0.0958444,-0.02134327,0.02077834,-0.01773194
1.019396,-0.1152176,0.09687211,-0.01564817,0.01756935,-0.01818756
1.019102,-0.116318,0.09959842,-0.01221548,0.01905958,-0.01924906
1.016563,-0.1231394,0.09704765,0.005554183,0.007052758,-0.01871002
1.014571,-0.1315951,0.09568802,0.03429385,-0.004968134,-0.01502596
1.015143,-0.1329514,0.09529453,0.06109068,-0.003006492,-0.01509898
1.016701,-0.134124,0.09223222,0.09372216,0.004001379,-0.01525341
1.016754,-0.1346791,0.09224725,0.1213404,0.01107743,-0.01353611
1.016558,-0.123254,0.09435111,0.1185498,0.01422815,-0.01314023
1.016838,-0.1085599,0.09347536,0.1040162,0.01088905,-0.007229699
1.016672,-0.1006525,0.09545667,0.08642933,0.004418191,0.003089
1.017815,-0.09841509,0.1008463,0.05806829,-0.0004157561,0.00852843
1.019288,-0.1003791,0.1044256,0.04244413,-0.004831762,0.007746165
1.019653,-0.09925875,0.1043703,0.02712164,-0.006243473,0.002553677
1.020065,-0.09678217,0.09738178,-0.001173429,0.000575658,-0.00167004
1.021904,-0.09829963,0.09130665,-0.01198851,0.00928791,-0.003675207
1.023858,-0.1015279,0.09242713,-0.01219589,0.01533619,-0.00819718
1.020388,-0.1052196,0.097847,-0.01259494,0.01537149,-0.01025009
1.016353,-0.103054,0.1034145,-0.007245098,0.01140891,-0.005872566
1.019563,-0.09951969,0.09931048,-0.007183405,0.009450777,-0.002573462
1.023223,-0.1021719,0.09272726,-0.0115462,0.005647831,-0.004013298
1.023611,-0.1028816,0.09227288,-0.01899222,0.002230898,-0.004972434
1.023068,-0.1037185,0.09266934,-0.02372442,-0.001450613,-0.00575175
1.021641,-0.1079744,0.09699478,-0.01753394,-0.004312219,-0.009702741
1.022079,-0.1095907,0.1002363,-0.01038621,0.003477825,-0.01150373
1.022555,-0.1089796,0.09821387,-0.004863316,0.01377666,-0.01074653
1.020722,-0.1070991,0.09816558,-0.005470157,0.01828055,-0.01157307
1.019424,-0.1064986,0.09803773,-0.01110431,0.0164435,-0.01222495
1.01782,-0.1082779,0.09681587,-0.01036284,0.01102213,-0.01216715
1.018048,-0.1088568,0.09674539,-0.009552848,0.0106025,-0.009007102
1.021933,-0.1100746,0.09567908,-0.006773162,0.01112783,-0.003821406
1.022265,-0.1109946,0.09399719,0.000190143,0.01084218,-0.003866136
1.01734,-0.1076274,0.0951802,-0.0001893267,0.01139622,-0.004158042
1.014008,-0.1041991,0.09762016,-0.001408965,0.008461218,0.0009153517
1.015883,-0.1052398,0.09725494,0.001198814,0.003726225,0.003969197
1.017827,-0.1062777,0.09703894,0.003095038,-0.0003829546,0.003715331
1.016248,-0.1037733,0.09676518,0.00717323,0.003476997,0.003703365
1.016369,-0.1019976,0.0934033,0.008609462,0.009969396,0.001146942
1.017412,-0.1014298,0.09089942,0.007884953,0.007072439,-0.002724798
1.017668,-0.1021092,0.09302529,0.01075274,0.007522513,-0.002739067
1.021111,-0.1057537,0.09814271,0.0129341,0.01023411,-0.002038501
1.022798,-0.1080306,0.09981595,0.01554648,0.006415269,-0.005010114
1.019343,-0.1094718,0.09828758,0.01616879,0.005407871,-0.005977565
1.01716,-0.1104041,0.09921516,0.01431029,0.004925622,-0.002979777
1.018864,-0.1094234,0.09986173,0.01675868,0.004018062,-0.001412148
1.020294,-0.1110694,0.09912473,0.01871656,0.004838117,-0.00144644
1.018806,-0.1133876,0.1003663,0.02159974,0.002939524,-0.0008725696
1.017233,-0.1136458,0.1027918,0.02517874,0.001431902,0.002824344
1.015669,-0.111362,0.1060215,0.02519868,-0.002909559,0.006625893
1.014993,-0.1069916,0.1093833,0.02580992,-0.008676785,0.004659896
1.018708,-0.105284,0.1079443,0.02047272,-0.005468789,0.001282507
1.022198,-0.1040044,0.1019779,0.01434558,0.0004048046,-0.0005093814
1.022646,-0.1035614,0.0987496,0.0127004,0.002414153,-0.0001350859
1.022237,-0.1056479,0.09966465,0.006473022,0.002051664,0.004700788
1.02173,-0.1050887,0.1008184,0.005738466,-0.0006474276,0.006471768
1.021421,-0.1056325,0.1007568,0.007709261,-0.001712056,0.001548912
1.019461,-0.1086098,0.101294,0.003742378,-0.0009230505,-0.001157664
1.017966,-0.1081801,0.1012603,0.002333559,0.0005634102,0.0007796675
1.018361,-0.1053992,0.09737522,-0.001131244,0.003244294,0.002481325
1.018894,-0.1038889,0.09471863,-0.003630857,0.002732399,0.00219859
1.02092,-0.1066205,0.09581174,-0.00603955,0.002304487,0.0006489006
1.022183,-0.1097334,0.09617007,-0.01792407,0.005248309,0.0003975939
1.022161,-0.1082877,0.0964435,-0.02426627,0.006765209,0.001131065
1.022479,-0.1077018,0.09925048,-0.02728143,0.008138447,-0.0007155519
1.021644,-0.1088928,0.1039172,-0.03569813,0.00900306,-0.002511524
1.020467,-0.1078156,0.1080459,-0.03656109,0.009890763,-0.0008149291
1.019054,-0.1063621,0.1120108,-0.03730999,0.01157075,0.00296682
1.01846,-0.1051396,0.1121869,-0.0451687,0.006755161,0.0069498
1.017373,-0.1042225,0.1078136,-0.05014539,0.0001278215,0.007946941
1.014538,-0.104894,0.1072055,-0.0507294,-0.002129627,0.006433105
1.016605,-0.1068214,0.1044704,-0.04856981,-0.002301213,0.005430228
1.019419,-0.1103504,0.0996184,-0.04246143,-0.002409813,0.005142103
1.016712,-0.1130946,0.1037668,-0.0273657,-0.008612003,0.008653246
1.016025,-0.115797,0.1082785,-0.009986596,-0.01291823,0.01501782
1.017699,-0.1206744,0.1085394,0.0004082659,-0.007839974,0.0165072
1.019487,-0.1237324,0.1077269,0.01433202,-0.0002579203,0.008610655
1.023439,-0.1261399,0.1029246,0.0263127,0.01470117,-0.005179497
1.024234,-0.1238681,0.09753435,0.02641791,0.03355346,-0.01229381
1.020915,-0.1155774,0.09615287,0.02526574,0.03897412,-0.01028425
1.018508,-0.1145726,0.09890501,0.02127822,0.02926278,-0.008978203
1.017921,-0.1123638,0.1014399,0.01439352,0.01662297,-0.006875458
1.019781,-0.1038872,0.1031274,0.006204633,0.009363867,0.001269359
1.021884,-0.1047157,0.1046656,-0.005094017,0.005064706,0.01024753
1.021515,-0.1072237,0.1007987,-0.003977479,0.001181046,0.01280899
1.02139,-0.1066866,0.09602414,0.001939842,-0.001090183,0.01232859
1.021737,-0.1099796,0.0956694,0.003637964,0.0001772635,0.01330692
1.020993,-0.1104065,0.09751749,0.01250465,0.0007833616,0.01113917
1.019984,-0.1092678,0.1007925,0.01250827,-0.002605046,0.00735371
1.018984,-0.1114095,0.1048516,0.007647371,-0.005224921,0.004379578
1.019339,-0.1142963,0.1093683,0.01445279,-0.005912426,0.002265969
1.019861,-0.1169198,0.107655,0.01554459,0.005241411,0.003326365
1.018917,-0.1164791,0.1025645,0.01353105,0.01907068,0.002284849
1.018626,-0.1122823,0.1054384,0.01408463,0.009388516,0.001337651
1.017971,-0.1083291,0.1077248,0.00731511,0.0002649283,0.003425347
1.017289,-0.1075425,0.1073153,-0.002208337,0.006784633,0.003227437
1.016903,-0.1081657,0.1099431,-0.01255615,0.001454024,0.004563604
1.015438,-0.1058096,0.1084557,-0.01770873,-0.01379445,0.00516269
1.016952,-0.1042377,0.1034153,-0.01983073,-0.02233352,0.003642104
1.01929,-0.112134,0.09563851,-0.03246361,-0.01576306,0.00425008
1.019089,-0.1253443,0.08996182,-0.04010685,0.003408705,-0.0007038215
1.018772,-0.1291614,0.09929147,-0.04096375,0.01123661,-0.007733934
1.01659,-0.1180325,0.1128977,-0.04938655,0.001899023,-0.006695185
1.015114,-0.1041469,0.1153896,-0.05437679,-0.008515637,0.0007714377
1.015573,-0.09990526,0.11002,-0.0629971,-0.01524007,0.009255784
1.015449,-0.09988277,0.1036058,-0.08153911,-0.02417007,0.01233189
1.018464,-0.09934077,0.1003997,-0.0950561,-0.03158014,0.01189002
1.022389,-0.1049304,0.0988354,-0.104759,-0.02712526,0.009122103
1.023626,-0.1125017,0.0956764,-0.1115654,-0.02330938,0.003447939
1.023285,-0.1118021,0.09338641,-0.1149063,-0.02509395,0.003265569
1.020397,-0.1080403,0.09435662,-0.1162266,-0.02410582,0.005318428
1.016913,-0.1091712,0.09595975,-0.1160005,-0.03261872,0.005568649
1.01585,-0.1134428,0.09861664,-0.1098606,-0.04054756,0.01003871
1.017108,-0.1194238,0.1036858,-0.0934232,-0.03697255,0.01153901
1.017851,-0.1246991,0.1028205,-0.07775736,-0.04008772,0.009079862
1.017858,-0.1309312,0.09590724,-0.04609644,-0.04539379,0.0109234
1.019188,-0.140548,0.09052158,-0.004292607,-0.04181558,0.01174052
1.022121,-0.1427322,0.0825908,0.01335152,-0.03020019,0.009050555
1.028143,-0.1412456,0.07521521,0.03314069,-0.01273123,0.001322002
1.030518,-0.1426623,0.07754682,0.05324175,-0.001608056,-0.006294468
1.025709,-0.1363651,0.08302144,0.06358074,-0.002254758,0.001447953
1.024129,-0.130315,0.08381075,0.08710482,0.0002466289,0.009685908
1.0262,-0.1276145,0.08374242,0.09229985,0.01035391,0.004722204
1.026394,-0.1202081,0.08614183,0.0845967,0.01406417,0.001414155
1.024455,-0.1113736,0.08865537,0.08472673,0.01657382,-0.0009224046
1.021898,-0.1010835,0.0913226,0.06455681,0.02421393,-0.004651863
1.021789,-0.1010587,0.09553753,0.04254528,0.03353615,-0.006547272
1.021078,-0.1046651,0.09759338,0.03098698,0.04239627,-0.01163283
1.017709,-0.09722836,0.092086,0.01200451,0.03771656,-0.01103135
1.016707,-0.09866098,0.0881853,-0.01381325,0.03088893,-0.006308745
1.021005,-0.1039843,0.09885595,-0.03732205,0.03264064,-0.0080348
1.025478,-0.1044306,0.1083613,-0.05142311,0.02930732,-0.007790816
1.023307,-0.1084421,0.1041718,-0.06770027,0.02546074,-0.00897324
1.019282,-0.1103799,0.102371,-0.07172714,0.02191898,-0.01221776
1.016778,-0.1168293,0.105481,-0.05567254,0.01821185,-0.008522771
1.013838,-0.1195922,0.1040793,-0.04654396,0.01292796,-0.00661031
1.014269,-0.1161481,0.1028893,-0.04101966,-0.0003771673,-0.004723469
1.014675,-0.1219194,0.1021273,-0.03362159,-0.004838018,0.001013451
1.014045,-0.1218067,0.09810542,-0.01985682,-0.004086606,0.007072368
1.016933,-0.1191704,0.09870211,-0.007802623,-0.008238406,0.01574062
1.017553,-0.1222282,0.1013443,-0.01106634,-0.006611519,0.01691036
1.018147,-0.1192834,0.09874384,-0.007906583,-0.0112536,0.01090405
1.02226,-0.116072,0.09626533,-0.009797654,-0.01960812,0.008722291
1.022628,-0.1122708,0.09439121,-0.019113,-0.01724351,0.009907038
1.020827,-0.1108967,0.09618282,-0.01147009,-0.01901526,0.01276994
1.019761,-0.1142383,0.1005881,-0.007630665,-0.02296548,0.01136699
1.019019,-0.1128211,0.09826836,-0.008687156,-0.01819992,0.007490899
1.019623,-0.1137417,0.09679171,-0.005243993,-0.0149927,0.002873112
1.01947,-0.1147306,0.09797279,-0.008921934,-0.01720944,-0.003533074
1.018967,-0.1119425,0.09675464,-0.010125,-0.01926192,-0.002623802
1.017797,-0.1131089,0.09774889,-0.008709704,-0.02189815,-0.0002114158
1.016005,-0.1142912,0.09650618,-0.01140175,-0.02684231,0.001504094
1.016524,-0.1155039,0.09304328,-0.009011305,-0.02678554,0.007092136
1.017423,-0.1161746,0.09326842,-0.004934587,-0.02414331,0.007081428
1.018215,-0.1154803,0.09245496,-0.003460996,-0.02690662,0.005110884
1.020331,-0.1182485,0.09037189,0.004655068,-0.02551065,0.004881792
1.021602,-0.1186037,0.08912509,0.01300462,-0.01834789,0.001693509
1.022027,-0.1168873,0.08695149,0.01069787,-0.01360869,0.0004119318
1.021615,-0.1163637,0.08597677,0.007271177,-0.0140459,0.001103525
1.019571,-0.1155695,0.08378616,0.006093624,-0.01824942,0.0001498053
1.019823,-0.1188328,0.08092392,0.003405045,-0.01952922,-0.002002372
1.021761,-0.1213927,0.08954357,0.004702046,-0.0197365,-0.004122677
1.021435,-0.1219366,0.1003773,0.009594492,-0.01335031,-0.004370069
1.020803,-0.1247842,0.09578811,0.01564032,-0.002172269,-0.004689023
1.018329,-0.1236111,0.09140299,0.02095662,-0.006307337,-0.004990364
1.015294,-0.1216171,0.09304152,0.01930549,-0.01106547,0.001514152
1.016914,-0.1219116,0.08736932,0.01818567,-0.007883994,0.01011016
1.018183,-0.1206595,0.08259219,0.02475959,-0.01069524,0.01065442
1.017724,-0.1233933,0.08175578,0.03067887,-0.007021076,0.009972754
1.018765,-0.1264417,0.08108575,0.03448973,0.0007762165,0.009285557
1.019559,-0.1241467,0.08285052,0.03644748,0.001820696,0.002007116
1.020675,-0.1216639,0.08279753,0.03935918,0.001391901,-0.003259485
1.021104,-0.1186035,0.08696252,0.04653447,-0.003334824,-0.002385189
1.020224,-0.1167954,0.09347478,0.04440214,-0.00967763,-0.0005152915
1.019604,-0.1178057,0.0904766,0.03569083,-0.01208503,0.002098562
1.01887,-0.1172415,0.08638832,0.03039341,-0.005766698,0.005661332
1.019276,-0.1162506,0.08623035,0.02056672,0.004161144,0.007820526
1.018008,-0.1134249,0.08793218,0.01108263,0.001220693,0.005119607
1.015555,-0.1102232,0.09199611,0.006619753,-0.006378185,0.0004794125
1.017196,-0.1144537,0.09404366,0.001905,-0.009212091,-0.0001286607
1.018865,-0.1187834,0.09466665,-0.001870677,-0.00784822,-8.474321e-05
1.019636,-0.1163144,0.0940047,-0.006949162,-0.001458928,-0.003845049
1.020917,-0.1164915,0.09030881,-0.01518409,-0.0003101477,-0.003585411
1.020583,-0.12016,0.08709601,-0.017966,-0.000274564,0.003541546
1.020857,-0.1216134,0.08667686,-0.00877243,0.001139329,0.005698549
1.020039,-0.1228629,0.08695922,0.0008645006,-0.003733094,0.003928777
1.018455,-0.1238757,0.08475596,0.002228257,-0.004329479,0.004332489
1.017949,-0.1234222,0.08308481,0.001182395,-0.0006613886,0.003041387
1.015926,-0.121369,0.08357159,-0.000543695,0.0006723473,1.165987e-05
1.015421,-0.1181883,0.08330339,-0.0007273982,0.001293655,-0.004138982
1.015981,-0.1168149,0.08422913,-0.0004707791,0.0001200585,-0.004863631
1.016556,-0.117175,0.08556716,-0.001989708,0.001051346,-0.002913356
1.019042,-0.1176609,0.08631784,-0.001647419,0.002405314,-0.004917714
1.019249,-0.1175242,0.08805431,-0.002096428,0.002517664,-0.005757976
1.019003,-0.1181762,0.08777553,-0.0038287,0.003721761,-0.005611757
1.020062,-0.1200428,0.08681771,-0.007261216,0.003218237,-0.006292153
1.018974,-0.1194779,0.08726775,-0.01212973,0.003584027,-0.004975433
1.018233,-0.1177608,0.08761442,-0.01229546,0.004949874,-0.003695747
1.017095,-0.1166312,0.08915592,-0.009271074,0.004875715,-0.001565876
1.015211,-0.1168945,0.08915105,-0.006309733,0.004339407,0.0008968931
1.016696,-0.1211904,0.08646553,-0.006322184,0.003857395,0.002520944
1.019689,-0.1242181,0.08574188,-0.008511665,0.005790613,0.001946164
1.021782,-0.1241218,0.08597911,-0.006929385,0.009559142,-0.0003773678
1.022051,-0.1254265,0.085217,-0.001634503,0.01236257,-0.0003762951
1.021796,-0.1248008,0.08454258,0.005363472,0.01172041,-0.002304745
1.022386,-0.1213353,0.08537471,0.007481297,0.009267894,-0.003132169
1.019947,-0.1175735,0.09017637,0.005647683,0.004183948,0.001324977
1.01681,-0.1118335,0.09673156,0.007385639,-0.006373777,0.006182862
1.016746,-0.109238,0.09956134,0.006777038,-0.01176558,0.01425736
1.018292,-0.1151353,0.09782114,0.006225135,-0.01168549,0.01787631
1.02028,-0.1217792,0.09463897,0.01043146,-0.01004138,0.01496713
1.019568,-0.1227033,0.09239544,0.01417824,0.0003543411,0.01396262
1.019019,-0.1219153,0.0924412,0.0166208,0.01186144,0.002104349
1.020877,-0.1183965,0.09378005,0.01091338,0.02025186,-0.01574187
1.020904,-0.1115071,0.09275324,0.0009234087,0.02243523,-0.02002387
1.020629,-0.1127499,0.09170809,-0.0007976724,0.01186388,-0.01556916
1.020045,-0.1167231,0.09201358,-0.001017186,0.003382054,-0.01127587
1.018964,-0.1155087,0.09082265,-0.004856062,0.003390746,-0.006351045
1.019558,-0.1205534,0.0898767,-0.00834577,0.008384793,-0.0005995782
1.019529,-0.1228678,0.08771407,-0.007022934,0.01567998,-0.001970975
1.018781,-0.1190706,0.08632096,-0.0004100205,0.01495513,-0.003816479
1.016872,-0.1215462,0.08737801,0.008844243,0.008318375,-4.921006e-05
1.014917,-0.1211463,0.08547615,0.02011731,0.002342326,-0.002876357
1.018044,-0.1199329,0.08514238,0.0222513,0.003027655,-0.003906253
1.022653,-0.1217898,0.08664018,0.0185634,0.01097413,-0.002730214
1.022591,-0.119865,0.08556282,0.02087599,0.01340093,-0.006786058
1.020837,-0.119149,0.08479105,0.0172524,0.008531792,-0.003886242
1.020562,-0.1178488,0.08541316,0.01334625,0.004190482,-0.001391576
1.019913,-0.1169233,0.09118649,0.01657311,0.007696486,-0.003842737
1.019181,-0.1166799,0.09635569,0.01322039,0.01321328,-0.006306743
1.019243,-0.1115402,0.09277013,0.006489889,0.01272401,-0.01226552
1.018801,-0.1100083,0.09051472,-0.001157903,0.01539113,-0.01336755
1.018677,-0.1127433,0.09403815,-0.006700675,0.01320739,-0.01206373
1.019559,-0.1163372,0.09611646,-0.002257828,0.005619328,-0.01393281
1.019792,-0.1210753,0.09400491,0.004656183,0.00993371,-0.01243441
1.018627,-0.1204524,0.08959178,0.00861705,0.01526868,-0.01047369
1.016746,-0.1197893,0.08729226,0.006047287,0.01626081,-0.009036426
1.015239,-0.1225489,0.09233489,0.00402412,0.01619198,-0.007457666
1.017371,-0.1203737,0.09852822,0.01081532,0.0108068,-0.00825171
1.02101,-0.1170654,0.09628996,0.01301093,0.008277488,-0.007744294
1.019526,-0.1165974,0.09614373,0.007675303,0.008279024,-0.005600953
1.017962,-0.1152501,0.1004497,0.001047091,0.00749137,-0.00451455
1.017637,-0.1151931,0.0978888,-0.00245162,0.007328477,-0.004247892
1.01468,-0.1158801,0.09510223,-0.000630241,0.00428073,-0.003585704
1.017393,-0.1168507,0.0944165,-0.001457082,0.001255757,-0.001555166
1.021416,-0.1196518,0.09231113,-0.00173191,-0.0008607313,-0.001028598
1.018967,-0.1193112,0.09164985,0.0007585593,-0.001403109,-0.002936616
1.018938,-0.1186933,0.08983883,-0.00048784,0.000314984,-0.004817267
1.020157,-0.1198629,0.09059154,-0.003080175,0.004295301,-0.006021365
1.01864,-0.1177627,0.09293676,-0.006134464,0.01297249,-0.005952141
1.017735,-0.1172989,0.09217881,-0.007648236,0.01488707,-0.00713342
1.016299,-0.1187983,0.09685823,-0.005500381,0.01033245,-0.009107444
1.016379,-0.1172902,0.1021944,-0.003254504,0.008731239,-0.00762406
1.01852,-0.1151617,0.09989113,-0.001211603,0.002434774,-0.002462135
1.019847,-0.1136016,0.0973007,0.0005392859,-0.0009419865,0.003606277
1.021357,-0.1144088,0.09518018,0.0008485179,0.004594762,0.0009416328
1.02046,-0.1170834,0.09379199,0.001378352,0.007314703,-0.0059478
1.016642,-0.116884,0.09761203,0.003067587,0.007621129,-0.005338525
1.014917,-0.1162595,0.09892949,0.003817868,0.004885392,-0.006046864
1.016672,-0.1170207,0.09575407,0.003414472,0.000886426,-0.004694802
1.019117,-0.1166882,0.09736275,0.001886744,0.003517478,0.000300784
1.018402,-0.1173096,0.09780261,-0.0004560391,0.005430698,-0.003592872
1.018147,-0.117841,0.09426393,-3.45719e-05,0.003425227,-0.00500789
1.020391,-0.1171393,0.09457439,0.00277597,0.002847748,-0.0005678615
1.019396,-0.1181771,0.09521272,0.005692674,0.0001762155,0.0002794001
1.018726,-0.1184595,0.09865649,0.005359357,-0.003307545,0.00157511
1.019374,-0.1178422,0.1024838,0.003218889,-0.001733473,0.006220785
1.018275,-0.1189054,0.09679596,0.004826044,0.001149944,0.01178355
1.01965,-0.1187331,0.09256424,0.004202659,0.002096656,0.007786513
1.020367,-0.1164762,0.09543722,0.002669163,0.002652519,-0.001176536
1.020194,-0.1144076,0.09686212,0.005129484,0.00378597,-0.001425365
1.021712,-0.1144169,0.09527186,0.005065424,0.005542419,-0.0006878941
1.020916,-0.1182408,0.09458933,0.004150684,0.002812166,0.000970167
1.021867,-0.1224181,0.09463122,0.002355326,-0.002830372,0.003210643
1.022851,-0.1213035,0.09281546,-0.0008638266,-0.002791519,0.0001438189
1.018771,-0.1193246,0.09140951,-0.00128396,-0.001367188,0.0003211174
1.017198,-0.1197289,0.08796692,-0.003310522,-0.001930426,3.660193e-05
1.018505,-0.1177897,0.0843888,-0.003861928,-0.0009047395,-0.001692543
1.018919,-0.1181401,0.08542518,0.000285812,0.0008841517,0.001235323
1.019936,-0.120753,0.08631652,0.0007328462,0.004632306,0.001550298
1.020384,-0.1190382,0.09131739,-0.001505534,0.006606759,0.0007434336
1.020897,-0.1192435,0.09879933,-0.0008177522,0.001428285,-0.001428679
1.021148,-0.1210326,0.09797765,0.0001707184,-0.004669251,-0.004487977
1.020319,-0.1201745,0.09563785,0.003623058,-0.005012334,-0.002049021
1.01972,-0.1193777,0.09645712,0.008519022,-0.0002556274,-0.002453496
1.017112,-0.1174367,0.09524655,0.001899682,0.004735576,-0.002724884
1.014379,-0.1177715,0.09522116,-0.00682809,0.00565552,0.002383745
1.015327,-0.1197814,0.09735021,-0.003546351,0.001875854,0.004297109
1.017733,-0.1189737,0.09802353,-0.001457769,-0.001397429,0.003385548
1.020089,-0.1187211,0.09850719,-0.001395228,6.461714e-05,-0.001183563
1.022936,-0.1179073,0.09838508,0.001982402,0.0005199968,-0.006221633
1.024255,-0.1175824,0.09809173,0.001370184,-0.0007084598,-0.006502694
1.02148,-0.1188456,0.09509261,0.002438707,0.001041923,-0.006463283
1.018907,-0.1186036,0.08680642,0.006707959,0.001836579,-0.003187902
1.019369,-0.1194921,0.08406967,0.00702354,5.959999e-06,0.001982825
1.018572,-0.1189866,0.09096379,0.007252599,-0.001362959,0.003118758
1.017675,-0.117177,0.09702714,0.005975564,-0.001276253,0.00030416
1.017775,-0.1186851,0.09457224,0.001835745,0.0002234639,-0.004869335
1.016276,-0.1196713,0.09050379,0.002794524,0.001085851,-0.004814421
1.014769,-0.1195957,0.09062186,0.00441373,6.137241e-06,-0.00253294
1.015355,-0.1196346,0.08896377,0.002259362,-0.001751243,-0.003390273
1.017684,-0.1197021,0.09265086,0.001606742,-0.002563228,-0.001761032
1.019346,-0.1198306,0.09821921,-0.0003697286,-0.002094973,-0.002266643
1.019727,-0.1180035,0.09350417,-0.002325453,-0.0008415855,-0.004919765
1.019318,-0.1177484,0.09173384,-2.098944e-05,0.001160722,-0.004033088
1.018446,-0.1184777,0.09386565,0.004103278,0.002154989,-0.001754039
1.018745,-0.1176565,0.0926028,0.008951612,0.002040554,0.001179035
1.01868,-0.118271,0.09218992,0.007971517,0.004327692,-0.003063509
1.017921,-0.1181095,0.09177592,0.004607366,0.005873109,-0.009123972
1.01809,-0.1174221,0.09330978,0.006912332,-0.0006982113,-0.003924094
1.018994,-0.1166215,0.09527821,0.00497307,-0.009620316,-0.0001121539
1.020027,-0.1148241,0.09405464,0.00193353,-0.0114521,-0.001238408
1.020272,-0.1171033,0.09238173,0.005325458,-0.01210331,0.0004063338
1.02078,-0.1207469,0.09146438,0.007421342,-0.01282751,0.0004805367
1.020254,-0.123057,0.09257567,0.009183303,-0.006990928,-0.0005687687
1.018794,-0.1254114,0.09448136,0.009592654,-0.003999016,0.0007357651
1.019526,-0.1228234,0.09436964,0.006818053,-0.008942238,0.002351697
1.019522,-0.1188205,0.09249981,0.005988815,-0.01252309,0.0002085309
1.018251,-0.1187667,0.09110502,0.004220188,-0.01379292,-0.0004453399
1.017964,-0.1165013,0.09103585,0.002202054,-0.01549603,0.003973738
1.01845,-0.1136117,0.0892728,0.001965483,-0.01454955,0.00659719
1.020878,-0.1149911,0.08655226,-0.001855435,-0.006684497,0.007617401
1.022679,-0.1147992,0.08763713,-0.009068513,0.002108202,0.003322748
1.020458,-0.1134408,0.09149854,-0.01394265,0.00209644,-0.002180164
1.017358,-0.1126723,0.09475711,-0.01621643,-0.002166661,0.001840115
1.016879,-0.1102339,0.09664874,-0.0188123,-0.004324313,0.003575099
1.017019,-0.1119607,0.09474569,-0.01769678,-0.003463586,0.001073486
1.017171,-0.1145709,0.09162411,-0.01545988,-0.001665509,0.001828177
1.018561,-0.1136186,0.09163315,-0.01723905,-0.001808636,0.001679412
1.018052,-0.1157171,0.09155093,-0.01540523,-0.000187622,0.0006489117
1.016855,-0.1197675,0.0916297,-0.008594595,2.964721e-05,-0.002473115
1.018044,-0.124335,0.09195171,0.003543671,-0.004307279,-0.006811866
1.020068,-0.1263084,0.09128582,0.01684797,-0.004374805,-0.00788109
1.02244,-0.1230243,0.09227956,0.01805826,0.001668678,-0.007497364
1.022676,-0.1212691,0.09345136,0.01954143,0.008606651,-0.00676823
1.021365,-0.1198132,0.093865,0.027272,0.01126735,-0.004651132
1.020714,-0.1184472,0.09052875,0.02365144,0.008653855,-0.003992185
1.019252,-0.1190758,0.08526066,0.01812872,0.007964447,-0.005726518
1.020822,-0.1177058,0.08638867,0.01852909,0.01022891,-0.005065437
1.02327,-0.1173516,0.0865097,0.01102967,0.01012403,-0.005263367
1.020948,-0.1168242,0.08235875,-0.000797504,0.007033216,-0.007363116
1.019254,-0.1148842,0.08265488,-0.01113931,0.00336371,-0.005683153
1.019551,-0.1181843,0.08721167,-0.01420748,0.004169412,-0.005120818
1.019284,-0.1224388,0.09178691,-0.005033784,0.01028214,-0.005333012
1.019013,-0.1219255,0.09023684,-0.00201731,0.01468681,-0.004625818
1.016779,-0.1213428,0.08755457,-0.004805437,0.01537249,-0.007532224
1.014536,-0.1233117,0.09233073,-0.0003322164,0.01269447,-0.009690272
1.016148,-0.1239459,0.09448845,0.004471991,0.007649064,-0.01031344
1.01856,-0.1211608,0.09237973,0.01177559,0.006060004,-0.009981545
1.01903,-0.1183897,0.09137654,0.0187823,0.003106974,-0.006308369
1.019715,-0.1177677,0.09087994,0.01825477,-0.002857028,-0.00328838
1.020446,-0.1189074,0.09582923,0.01691873,-0.001106682,-0.002593413
1.019893,-0.1198308,0.0980178,0.01542778,0.002567984,-0.00364927
1.019391,-0.1182679,0.09397015,0.0139141,0.003090638,-0.005550235
1.019251,-0.116498,0.09533366,0.01413721,0.006622855,-0.006777521
1.019517,-0.1156681,0.09666839,0.01550115,0.005609753,-0.006925527
1.019946,-0.1144056,0.09842672,0.01519909,-0.001092628,-0.005639226
1.020997,-0.1126057,0.1031566,0.009215026,-0.00170638,-0.004727272
1.022563,-0.1104626,0.09914034,-0.0003336422,0.006888904,-0.003005728
1.020667,-0.1109766,0.09413251,-0.011841,0.01887618,-0.00180308
1.01832,-0.1144982,0.09535176,-0.02176282,0.02193294,-0.004357414
1.019467,-0.1189571,0.09791832,-0.02370102,0.01697454,-0.004904969
1.019256,-0.1245489,0.1027666,-0.01315663,0.01735525,-0.005165089
1.019341,-0.1282657,0.1021694,0.002090607,0.02365013,-0.01032988
1.022374,-0.1320851,0.09742383,0.01013222,0.03838733,-0.01430827
1.022751,-0.1367062,0.09565931,0.01574179,0.06083397,-0.01674097
1.020784,-0.1335068,0.09131533,0.01426634,0.07330222,-0.01999388
1.020476,-0.1250425,0.09109094,0.007863658,0.07330711,-0.02087724
1.020239,-0.1155557,0.09749,0.01285479,0.07086904,-0.02020758
1.020156,-0.1040252,0.09849524,0.01559377,0.06381213,-0.01946216
1.021963,-0.09167916,0.09282081,0.01116318,0.04545583,-0.01864006
1.022603,-0.08059375,0.08548809,0.004241354,0.01496854,-0.01885715
1.021093,-0.08755503,0.08298344,-0.0137539,-0.01868015,-0.02905408
1.020852,-0.1061548,0.08217743,-0.02550359,-0.04914292,-0.06888555
1.022682,-0.1198252,0.07831724,-0.01991432,-0.06340464,-0.1311579
1.024424,-0.15146,0.08333586,0.005655208,-0.02672684,-0.1682113
1.023566,-0.1792592,0.09604709,0.05709089,0.05181056,-0.1656438
1.019503,-0.1659285,0.1112544,0.09299898,0.1042408,-0.1560557
1.011832,-0.1263945,0.1329894,0.09595417,0.09822303,-0.1247768
0.9979528,-0.06409201,0.1406213,0.09032109,0.06917712,-0.03551396
0.987825,-0.01978411,0.1231087,0.02738112,0.04629509,0.06449116
1.002974,-0.02740827,0.1080875,-0.1155004,0.01420395,0.107642
1.025369,-0.04683767,0.1099735,-0.2202203,-0.0092839,0.105846
1.021662,-0.07701336,0.1108045,-0.2158605,-0.0007944855,0.09100945
1.021169,-0.1090876,0.09947329,-0.1726878,0.007662229,0.04923219
1.034621,-0.1139035,0.09311161,-0.1324035,0.0259836,-0.01008824
1.027458,-0.1120783,0.1046903,-0.07140652,0.05097915,-0.03491589
1.020776,-0.109648,0.1160921,0.0005079302,0.03658442,-0.02914119
1.023887,-0.1094661,0.1118911,0.04275058,0.02241956,-0.02790622
1.01718,-0.106981,0.1109212,0.04795746,0.03619491,-0.01969822
1.015973,-0.09766395,0.1217921,0.05633804,0.03754169,-0.0007029989
1.01551,-0.1044867,0.1257585,0.08402771,0.02624529,0.008363711
1.013956,-0.1083547,0.1257463,0.1100563,0.0175662,0.007710555
1.018306,-0.1033989,0.1239554,0.1251017,0.006627279,0.00104009
1.017686,-0.1059502,0.1146802,0.1169851,0.003840804,-0.008826827
1.020336,-0.10068,0.1124083,0.08605704,0.01547055,-0.01428737
1.022285,-0.09316017,0.1142608,0.0496006,0.02180476,-0.01906017
1.020729,-0.09125181,0.1127805,0.02727307,0.01859376,-0.01749888
1.021955,-0.09670838,0.112579,0.03245016,0.01494078,-0.008660727
1.018083,-0.1077825,0.1126708,0.03791083,0.009787207,-0.008399465
1.018946,-0.1096267,0.1165127,0.03673356,0.006136639,-0.009521542
1.020938,-0.108208,0.1195652,0.03646641,0.01332259,-0.009364032
1.017827,-0.1075471,0.1197187,0.0267517,0.02753524,-0.01428201
1.019112,-0.105523,0.121279,0.02956931,0.02747784,-0.01208211
1.016805,-0.1039452,0.1201976,0.03476248,0.01709045,-0.005110436
1.014713,-0.1031453,0.1171379,0.02893793,0.009377738,0.0007425209
1.016857,-0.1051857,0.1142255,0.0279495,0.002695191,0.003362201
1.019077,-0.1041395,0.1149671,0.01375099,0.005172503,0.002950216
1.022488,-0.1063855,0.1200394,0.001644345,0.007452726,0.006733633
1.015732,-0.116662,0.1305482,0.006275972,0.003133405,-0.003793237
1.007261,-0.1202689,0.1420118,0.009153454,-0.004287098,-0.01668571
1.010408,-0.1077871,0.1325542,0.007986314,-0.01865343,-0.0001655756
1.013073,-0.09360141,0.1162963,-0.01607034,-0.01781902,0.01574921
1.019057,-0.1036765,0.117092,-0.04296041,-0.0005750702,0.01167652
1.02965,-0.1133408,0.1138161,-0.0343012,0.01142807,-0.0006055912
1.024647,-0.09903839,0.1071124,-0.02561514,0.01659823,-0.01272023
1.014413,-0.09305883,0.1128491,-0.03479633,0.013585,-0.009777804
1.01616,-0.09531178,0.1156916,-0.02890075,0.01038062,-0.004105155
1.016116,-0.09345831,0.1131114,-0.01765033,0.005775592,-0.009215537
1.016684,-0.09527157,0.115103,-0.01793488,-0.001251874,-0.01520214
1.021638,-0.09486878,0.1204106,-0.01256596,0.01013719,-0.02154759
1.018867,-0.09767171,0.1250045,-0.007589582,0.02687224,-0.02230911
1.017738,-0.1009629,0.1223955,-0.003195896,0.0265295,-0.01849317
1.018944,-0.09479782,0.1181706,0.004794883,0.01287429,-0.02184251
1.017237,-0.08958641,0.1207422,0.002674019,-0.004695957,-0.01816783
1.019507,-0.08990227,0.1225207,0.003773353,-0.007041687,-0.008512212
1.01925,-0.09289429,0.1219108,0.008730838,0.003757316,-0.009450526
1.016156,-0.09447866,0.1225572,0.01058453,0.0100293,-0.01269906
1.014042,-0.09370571,0.1227966,0.01166509,0.01047119,-0.02030283
1.012873,-0.09103038,0.125666,0.005313304,-0.0006020405,-0.02708674
1.015177,-0.08648477,0.128804,0.001926804,-0.01148943,-0.0187878
1.016499,-0.0873574,0.126143,-0.006077643,-0.0008714517,-0.01081965
1.018205,-0.0903341,0.1237452,-0.0209587,0.0111072,-0.008098164
1.018166,-0.09146908,0.1257957,-0.02227733,0.006799242,-0.003373714
1.015068,-0.09430452,0.1280698,-0.01352752,0.0009947389,-0.002139362
1.016146,-0.09569716,0.1293486,0.001531763,-0.002687177,-0.007673949
1.015515,-0.09517172,0.1284269,0.01070232,-0.006928697,-0.01242836
1.014513,-0.09130402,0.1252023,0.005506017,-0.00736833,-0.01047832
1.017046,-0.08574973,0.1244017,0.002846349,-0.005184107,-0.01172296
1.016412,-0.08415723,0.1255125,0.005084844,-0.0005801309,-0.01634505
1.015674,-0.08260751,0.1256118,0.002736869,0.0003284136,-0.01820215
1.015317,-0.081486,0.1259188,-0.002568643,-0.001961425,-0.02241124
1.014749,-0.08226192,0.1258333,-0.002893375,0.003791846,-0.02438931
1.015653,-0.08031442,0.1261992,-0.001113746,0.00392723,-0.0213402
1.014155,-0.07984023,0.1269493,0.002630541,-0.01276681,-0.01784176
1.014169,-0.08268914,0.1253182,0.00978049,-0.02956941,-0.01202788
1.017931,-0.08376553,0.1224045,0.01059673,-0.03106008,-0.008063271
1.021231,-0.08463624,0.1186548,0.01158566,-0.02405779,-0.008497148
1.02149,-0.08338149,0.1184873,0.01825375,-0.02149587,-0.005488246
1.018636,-0.07955527,0.122397,0.02358079,-0.01622383,-0.002524662
1.017155,-0.0791572,0.1217789,0.02500854,-0.01480093,-0.004584806
1.017469,-0.07763139,0.1199106,0.02236039,-0.02246164,-0.004511378
1.019527,-0.07519964,0.117935,0.02086661,-0.02318313,-0.002004169
1.020196,-0.07743787,0.1155425,0.01810386,-0.0259852,-0.001338209
1.015705,-0.08020646,0.1247621,0.01512224,-0.03006328,-0.005266852
1.015055,-0.08173163,0.1348014,0.01473273,-0.02873048,-0.009968181
1.018405,-0.07822931,0.1300202,0.00420186,-0.02976624,-0.006505092
1.01991,-0.07300816,0.1249487,-0.0111028,-0.02474991,-0.0008630687
1.019903,-0.07719835,0.125424,-0.01658454,-0.02121239,0.001964985
1.017776,-0.08265715,0.1243807,-0.01501065,-0.02443301,0.005039494
1.018149,-0.0840184,0.1250776,-0.01011635,-0.02748072,0.0052121
1.019321,-0.08727286,0.1258762,-0.0008189919,-0.03343161,0.002775224
1.019147,-0.08821057,0.1261026,0.007021135,-0.03555421,-0.001945345
1.019533,-0.08634264,0.1280085,0.001458659,-0.03646932,-0.007845898
1.016338,-0.08356051,0.123239,-0.009505496,-0.03800974,-0.007602651
1.014396,-0.07817269,0.1140358,-0.01296181,-0.03347637,-0.0009817793
1.015443,-0.07661569,0.1124831,-0.0126772,-0.02643113,0.006940154
1.015284,-0.07932485,0.1203734,-0.007201593,-0.02202728,0.011867
1.015415,-0.07951023,0.1286538,0.001532309,-0.02863292,0.01394136
1.015235,-0.07872249,0.1269606,0.005373908,-0.04083731,0.01654632
1.016456,-0.0785578,0.124036,0.0001976274,-0.04914826,0.01408766
1.018136,-0.07839375,0.1239358,-0.007985973,-0.05324641,0.006888099
1.019012,-0.08001367,0.1176136,-0.004723159,-0.04692527,0.005147657
1.019972,-0.08308805,0.1141143,9.3283e-05,-0.04099941,0.006245026
1.019217,-0.08512413,0.1150929,0.002520656,-0.04782617,0.005772417
1.019746,-0.08307932,0.1173374,0.009954929,-0.05750064,0.004747101
1.021456,-0.07893108,0.1230215,0.006348715,-0.06717451,0.004210181
1.022491,-0.07895932,0.1204163,0.0005429837,-0.07401806,0.008793208
1.022311,-0.08145631,0.1132451,0.003330072,-0.06766971,0.0138208
1.019899,-0.08223633,0.1068123,0.002127943,-0.0526368,0.01571406
1.019091,-0.08110281,0.1001054,0.001690491,-0.03617149,0.02366022
1.019616,-0.07631715,0.1054277,-0.003778809,-0.02280337,0.03270203
1.020343,-0.07196697,0.1106407,-0.0124921,-0.01242237,0.03041162
1.021092,-0.07340919,0.1074751,-0.00823566,0.005307916,0.02627662
1.01962,-0.07544206,0.1102685,-0.004756051,0.01646258,0.02724099
1.018233,-0.07482433,0.1122047,-0.007215169,0.01172333,0.02323269
1.01798,-0.07491221,0.1105523,-0.007137099,0.01163784,0.02121131
1.018899,-0.07509191,0.1109536,-0.009678062,0.01200347,0.02443568
1.019964,-0.0738564,0.1092655,-0.01514482,0.008588094,0.0222357
1.019487,-0.07305149,0.10778,-0.02145715,0.01143845,0.02463404
1.020413,-0.07185009,0.1087374,-0.02563495,0.01206403,0.02867778
1.022162,-0.07097294,0.111271,-0.02372307,0.00809437,0.0240493
1.022474,-0.07429215,0.1133061,-0.023678,0.002748593,0.02046487
1.021836,-0.07778653,0.1122232,-0.02671292,-0.003009157,0.01926063
1.020303,-0.07682311,0.1105644,-0.02510924,-0.006216237,0.02600587
1.019395,-0.07680061,0.1098651,-0.02358089,-0.00523033,0.03524352
1.020968,-0.08122153,0.1092631,-0.02176966,0.005721397,0.02978372
1.022772,-0.08578454,0.1073042,-0.01572721,0.01784671,0.02399407
1.020381,-0.08839407,0.1060741,-0.01275615,0.01564256,0.02552804
1.017394,-0.08853914,0.1073612,-0.01189077,0.005351563,0.0255073
1.018248,-0.08848553,0.106008,-0.01103273,0.0008289409,0.02748928
1.019319,-0.091877,0.1011851,-0.01244383,0.00541497,0.02965134
1.020391,-0.09203347,0.09911229,-0.01452116,0.01553538,0.02871807
1.020852,-0.09072339,0.1076538,-0.01936257,0.02128462,0.02810983
1.017954,-0.09409149,0.1208673,-0.02117091,0.01237014,0.02869535
1.015759,-0.09297767,0.1205663,-0.01470216,0.0007273763,0.02885965
1.016899,-0.08936504,0.1126297,-0.01157578,-0.0003690718,0.02720098
1.019092,-0.08921574,0.1101447,-0.01838075,-0.001690403,0.0262618
1.020652,-0.09027061,0.1093091,-0.02421059,-0.004394022,0.02264288
1.021204,-0.09371269,0.1115033,-0.01807466,-0.00494137,0.01451556
1.020816,-0.09454504,0.1133661,-0.007600086,-0.01173791,0.01268641
1.020591,-0.09370618,0.1101398,-0.001063461,-0.01504744,0.01479536
1.021072,-0.09405698,0.1091822,0.002950557,-0.00966796,0.01417061
1.020594,-0.09135733,0.1091011,0.0007725186,-0.009823723,0.01457262
1.019809,-0.09045085,0.1059869,-0.002157398,-0.01285291,0.0146742
1.019395,-0.09126544,0.1024964,-0.001215899,-0.01539696,0.01446432
1.019329,-0.09037418,0.1026979,-0.002573176,-0.01805983,0.01378873
1.020611,-0.08959217,0.1055846,-0.00327045,-0.01511234,0.01278131
1.020895,-0.08824358,0.105976,-0.005328467,-0.01379591,0.01409073
1.019672,-0.08921622,0.1105555,-0.01039263,-0.01596654,0.01656524
1.018349,-0.09171795,0.1160922,-0.01348109,-0.01693211,0.02213155
1.018287,-0.09432842,0.1120016,-0.01593201,-0.01787614,0.02607111
1.021995,-0.0969938,0.1105624,-0.01378757,-0.01516537,0.02140728
1.025693,-0.09488818,0.1172243,-0.009140424,-0.01129065,0.0130959
1.024579,-0.09327473,0.1202616,-0.007783721,-0.009426301,0.008324083
1.019844,-0.09420481,0.114693,-0.009781534,-0.00679293,0.01173437
1.015888,-0.09261208,0.1075086,-0.0141967,-0.006490499,0.0205554
1.016117,-0.09313568,0.1075326,-0.01123026,-0.01180196,0.02441643
1.017277,-0.09535774,0.1091834,-0.008106982,-0.01674795,0.01631828
1.016341,-0.09599451,0.1079068,-0.01378156,-0.013813,0.00689914
1.015542,-0.0961709,0.1087016,-0.01644354,-0.009082625,0.01142578
1.01531,-0.09515025,0.1107035,-0.01868479,-0.007810515,0.01907278
1.015204,-0.09406627,0.1128108,-0.02129837,-0.006339721,0.01988172
1.016664,-0.0929427,0.1130556,-0.01977426,-0.007174486,0.01924106
1.018826,-0.09340638,0.1103032,-0.01944782,-0.008893731,0.01303041
1.019861,-0.09552585,0.1102702,-0.01778975,-0.00925044,0.008168588
1.019651,-0.09504505,0.1101513,-0.01564191,-0.013496,0.01328316
1.019082,-0.09495007,0.10731,-0.0150131,-0.0172199,0.01676769
1.019578,-0.09608138,0.1084396,-0.01580041,-0.0131037,0.01639779
1.019431,-0.09723661,0.1108979,-0.02204893,-0.004836864,0.01550692
1.018241,-0.09959812,0.1110546,-0.02717135,-0.001039656,0.01305687
1.018034,-0.09877617,0.1109308,-0.0251575,-0.005630792,0.01130799
1.018596,-0.09783239,0.1079016,-0.02160322,-0.01112882,0.0117305
1.021711,-0.09967552,0.1041581,-0.02002166,-0.010735,0.01379361
1.024652,-0.1001362,0.1033266,-0.01759279,-0.008847341,0.0126976
1.02271,-0.1017356,0.1029965,-0.01526691,-0.006734046,0.009209119
1.020272,-0.1020508,0.1037367,-0.0126504,-0.0001246591,0.005548806
1.019894,-0.1005387,0.1066805,-0.00568368,0.004227964,0.003228639
1.019341,-0.1014704,0.1100408,-0.001820811,-0.001879884,0.005529481
1.019541,-0.09970747,0.112448,-0.0006769832,-0.007945629,0.004706049
1.021494,-0.09761696,0.1121251,0.0008066315,-0.005150136,0.002705772
1.022727,-0.09888495,0.1069147,-0.005821521,-0.003067119,0.002631779
1.021907,-0.09819852,0.1021867,-0.00823738,-0.003692124,-0.0005233968
1.020259,-0.09609829,0.1045628,-0.002571918,-0.001622944,0.001198391
1.018594,-0.0951816,0.1078379,-0.003574779,-0.001947341,0.0033162
1.017519,-0.09559354,0.1085844,-0.00397063,-0.002808929,0.00327526
1.016631,-0.09478587,0.1095198,-0.002756242,-0.0008045877,0.007820934
1.017322,-0.0934577,0.1087537,-0.004920342,-0.002667045,0.006471769
1.019646,-0.09497954,0.1072012,-0.004090311,-0.00785808,0.003671266
1.019725,-0.09448866,0.1037477,-0.004519093,-0.01275514,0.005457828
1.019145,-0.09288875,0.09887149,-0.006558634,-0.01390752,0.003669699
1.019635,-0.09339693,0.09843312,-0.007034714,-0.01123853,0.003893288
1.01938,-0.09324112,0.1000647,-0.008973908,-0.007201798,0.006592458
1.019229,-0.09594705,0.1026553,-0.008655419,-0.0005018861,0.008375214
1.018645,-0.09925554,0.1069414,-0.006398247,-0.002560127,0.009733397
1.017504,-0.09855654,0.1063579,-0.004557958,-0.009235484,0.008384502
1.016945,-0.09737861,0.1040341,-0.001754952,-0.006892154,0.009954722
1.015869,-0.09607077,0.1062117,-0.001625555,-0.00970589,0.01138195
1.016018,-0.09567077,0.1082696,-0.003082293,-0.01243438,0.009626815
1.01884,-0.09721372,0.1098106,-0.002475585,-0.007341653,0.01028661
1.020444,-0.09979343,0.109239,-0.001984186,-0.00863548,0.008569661
1.019953,-0.1033599,0.1066957,0.0002869446,-0.01010446,0.007459633
1.020003,-0.1047643,0.108487,0.005965234,-0.009846953,0.00762079
1.019023,-0.1031286,0.1067932,0.008870844,-0.009321212,0.004389698
1.016302,-0.101267,0.1047667,0.007157488,-0.005780043,0.00719397
1.015112,-0.1011895,0.1100674,0.003860093,-0.008797465,0.01331144
1.016971,-0.1016001,0.1098528,-0.003366943,-0.009830017,0.01590288
1.019665,-0.101227,0.1084305,-0.01102973,-0.002247608,0.01619734
1.018837,-0.1014696,0.1100005,-0.008001194,0.003111734,0.01482395
1.016321,-0.101054,0.1073106,-0.001582999,0.002165483,0.01539202
1.016937,-0.09931139,0.106856,-0.004862979,-0.006087865,0.01123099
1.018967,-0.09750489,0.1056333,-0.01089464,-0.01743226,0.005622288
1.021599,-0.09749735,0.1028117,-0.01548569,-0.02354233,0.009455932
1.023159,-0.09960816,0.1050516,-0.01709141,-0.01533487,0.01153827
1.021893,-0.1005398,0.1071816,-0.007255623,-0.003805535,0.009320765
1.022041,-0.10144,0.1077514,0.002439727,-0.006490483,0.01012182
1.022585,-0.1016647,0.1034723,-0.004135006,-0.006177886,0.01019298
1.02193,-0.09903961,0.09393104,-0.01162346,0.0004316425,0.008133739
1.022341,-0.09816205,0.09111589,-0.005386283,0.0003821242,0.005475856
1.021908,-0.09871414,0.09586714,-0.00045883,0.002225397,0.003601724
1.020301,-0.09857526,0.1040401,0.001652133,0.003528102,0.003559627
1.019046,-0.09908228,0.1119952,0.006834524,0.001864604,0.004144716
1.018949,-0.1002561,0.1082204,0.004644737,0.002213732,0.004257833
1.019181,-0.1016375,0.1004686,0.004167248,0.001879699,0.004148497
1.018499,-0.09989026,0.1028098,0.00621201,0.002785049,0.004777257
1.019818,-0.09747636,0.102043,0.002467542,0.004280776,0.00530378
1.021853,-0.09949847,0.09619801,0.005251134,0.005632156,0.004448897
1.022197,-0.1025778,0.09919683,0.009002276,0.005853026,0.001845497
1.022589,-0.1037375,0.1068224,0.008851377,0.004576144,-0.0008630413
1.022404,-0.0994683,0.1095199,0.01057449,0.007172579,-0.001039807
1.023813,-0.09373119,0.1025575,0.01094505,0.01006924,-0.0002021129
1.025232,-0.09723767,0.09638596,0.009911079,0.0110064,-0.001023249
1.021308,-0.1010942,0.1001818,0.006114332,0.0106954,-0.002711267
1.018025,-0.09996587,0.101688,0.004900045,0.008813768,-0.003974629
1.019387,-0.1040146,0.1011724,0.007018504,0.009797551,-0.004359592
1.020061,-0.1056183,0.1031627,0.007460138,0.01032462,-0.003997533
1.019432,-0.1008522,0.1045701,0.007527219,0.01009641,-0.004606248
1.021141,-0.09979161,0.1071236,0.001121081,0.01211613,-0.005278821
1.023117,-0.09890637,0.1067736,-0.006748562,0.01225666,-0.004945148
1.02124,-0.09846595,0.1069174,-0.007129896,0.01022628,-0.005118027
1.017409,-0.1011023,0.1109732,-0.004337141,0.001740688,-0.004499172
1.014827,-0.1000016,0.1114857,-0.0002351449,-0.008964162,-0.003229093
1.017215,-0.09931387,0.1087091,0.005138341,-0.006690221,-0.0005289206
1.02132,-0.1007365,0.1051458,0.009846029,-0.002522888,0.003365203
1.019005,-0.09926742,0.1014219,0.01078296,-0.00620614,0.003321108
1.016676,-0.09814416,0.09925934,0.006352292,-0.003030383,0.003083702
1.017139,-0.09721464,0.1008716,-0.001269386,0.002746525,0.006365239
1.016172,-0.09749215,0.1047709,-0.003389546,0.003348855,0.009736136
1.017988,-0.0999212,0.1067005,-0.0008508715,0.004481261,0.01106398
1.019368,-0.1002631,0.1076232,-0.0003590407,0.0006894524,0.009714943
1.018481,-0.1014852,0.1077883,0.005684495,-0.004289231,0.008273012
1.01894,-0.1021866,0.110495,0.008506708,-0.00475197,0.004877373
1.018231,-0.1005887,0.1137666,0.00344786,-0.002594225,0.001119908
1.017175,-0.101835,0.1084674,0.002811607,0.00332839,0.002674838
1.016839,-0.1025642,0.1040438,0.0007343077,0.00149472,0.002970809
1.019081,-0.1023296,0.1057989,0.001760158,-0.003267135,0.001994053
1.022229,-0.1024616,0.1049278,0.005045826,-0.002070445,0.004712404
1.020537,-0.1007145,0.1043745,-0.0005452119,-0.004150989,0.004808597
1.019368,-0.1010975,0.1052439,-0.00348397,-0.005604493,0.003582298
1.019433,-0.1010435,0.1052593,-0.003693277,-0.01092493,0.007557391
1.017205,-0.09936364,0.1073408,-0.006461344,-0.01886958,0.0110636
1.016726,-0.1010571,0.1095453,-0.00772251,-0.02003221,0.01340232
1.018294,-0.102631,0.1101596,-0.007060611,-0.02323053,0.0193926
1.020146,-0.1047071,0.1115362,-0.001519286,-0.02090554,0.0174994
1.019754,-0.1080942,0.1131209,0.003796653,-0.01553396,0.01204621
1.018206,-0.1066593,0.1118615,0.001599566,-0.01990055,0.01807544
1.017252,-0.1020028,0.1074975,-0.0015571,-0.02110907,0.01987675
1.014959,-0.09803371,0.1004371,-0.0003131639,-0.01881122,0.01763628
1.017316,-0.09682218,0.09535888,-0.003257826,-0.01954744,0.02362356
1.021318,-0.1009068,0.0986438,-0.007046743,-0.02147381,0.02739199
1.019145,-0.1045924,0.1018159,0.002230639,-0.02575461,0.02990575
1.018776,-0.1035496,0.09940761,0.01309411,-0.0269405,0.03135187
1.021309,-0.1037804,0.09939834,0.01367523,-0.02394743,0.02523816
1.024372,-0.1049,0.09981374,0.00875829,-0.01702612,0.01631301
1.029226,-0.1030164,0.09807481,0.001412276,-0.005049032,0.01019785
1.027637,-0.1005527,0.09958763,-0.004878922,-0.0002196896,0.007188586
1.023277,-0.09787148,0.1018397,-0.009595987,-0.001854343,0.004093406
1.023315,-0.097794,0.1023947,-0.01302674,-0.002318072,0.00531094
1.020197,-0.1005607,0.1040046,-0.01445591,-0.006766985,0.006213268
1.017986,-0.102671,0.1042093,-0.01308784,-0.003949325,0.003237573
1.020288,-0.1067567,0.1012548,-0.009405627,0.004120443,0.005232528
1.019374,-0.1076828,0.09645526,-0.006824386,0.001981192,0.004040865
1.018488,-0.1057634,0.09340447,-0.003540573,0.002406478,0.00161767
1.017314,-0.1090205,0.09714203,-0.0003135682,0.001106962,0.004603964
1.014056,-0.1102304,0.1015827,0.001016231,-0.004191379,0.007239264
1.015445,-0.1088936,0.1024185,0.001686754,0.00379706,0.01135449
1.017458,-0.1076956,0.106656,0.001250463,0.00997002,0.009370983
1.016587,-0.1045468,0.1107879,0.001179144,0.006233984,0.003661883
1.017076,-0.1048518,0.1076474,0.001627165,0.001674672,0.004358544
1.019023,-0.1043095,0.1012646,0.005448482,-0.0061925,0.005472903
1.020286,-0.1038054,0.09704263,0.00994274,-0.01097216,0.004581264
1.01939,-0.1081642,0.09739063,0.008047038,-0.003681939,0.0001111698
1.019957,-0.1104694,0.09699598,0.006852219,0.007493761,-0.002926414
1.021675,-0.1119768,0.09219003,0.009480553,0.008595898,-0.002106955
1.020578,-0.1122233,0.09317842,0.01039019,0.006650707,-0.003892967
1.020801,-0.1117665,0.1000749,0.009807068,0.008254138,-0.004518323
1.022122,-0.1121707,0.1040684,0.009369948,0.009375231,-0.004403533
1.021797,-0.1088435,0.1053044,0.01016401,0.01537913,-0.003237545
1.020703,-0.1097282,0.1022999,0.01332031,0.01928172,-0.00142679
1.018726,-0.1140463,0.09650527,0.0144724,0.01652132,-0.002839757
1.019164,-0.1143988,0.0925136,0.005644718,0.01196148,-0.002010989
1.02011,-0.1153822,0.09526054,-0.003981344,0.006536552,-0.001975023
1.018962,-0.1177733,0.102548,-0.0002442127,0.008911556,-0.001983328
1.019528,-0.1196117,0.1012086,0.003599231,0.01170527,0.0009348961
1.019681,-0.1175273,0.09992244,-0.0004921376,0.009123178,-0.0005207119
1.019095,-0.1141803,0.1032089,0.001076818,0.01031967,-0.001872922
1.019179,-0.1127796,0.1002125,0.003914049,0.009768699,-0.001463786
1.016671,-0.1097993,0.1003005,0.001590973,0.006134979,-0.001008657
1.015273,-0.1093726,0.1007709,0.0009841513,0.004096852,0.002728743
1.019601,-0.1100463,0.09884263,0.0002561137,0.004729241,0.003470111
1.023494,-0.1089776,0.1021053,0.0007698372,0.007257549,0.0006390053
1.019882,-0.1081367,0.1023105,0.002440887,0.007278487,0.0002336922
1.016235,-0.105305,0.1026416,0.002330388,0.008040304,1.242324e-05
1.019423,-0.1048101,0.1030447,0.00400367,0.008768018,-0.002253343
1.019993,-0.1051117,0.09897999,0.00317533,0.00738188,-0.001115533
1.016877,-0.1027809,0.09730047,0.0009103721,0.008252593,0.005047657
1.016648,-0.103412,0.09572271,5.093666e-05,0.007703203,0.008748573
1.017397,-0.1053504,0.09651075,0.0006411312,0.005868414,0.007080922
1.018285,-0.107738,0.1012855,0.006904733,0.005777504,0.002361167
1.017389,-0.1105169,0.1062469,0.01197606,0.004093074,-0.0009217883
1.015871,-0.1092585,0.1085821,0.01309362,-0.0003755843,-9.121243e-05
1.017151,-0.1071795,0.1051847,0.01068504,-0.006568829,0.002668631
1.017852,-0.1075895,0.1049531,0.005998131,-0.006501958,0.006090361
1.018916,-0.1071129,0.1064223,0.005081278,0.00237132,0.005757288
1.019948,-0.1065072,0.1042852,-6.052163e-05,0.009629355,0.001535659
1.018265,-0.1082623,0.1032469,-0.007068786,0.01159205,-0.000833042
1.017892,-0.108648,0.1006276,-0.008012359,0.01063919,-0.000134824
1.019249,-0.1082222,0.1010375,-0.00922513,0.0101231,0.001373456
1.020596,-0.1094784,0.1043163,-0.01025902,0.00891757,0.0001381467
1.021241,-0.1100086,0.1039748,-0.009403364,0.006282816,-0.0005240473
1.020487,-0.1107358,0.1040964,-0.004589729,0.008962544,0.0002707651
1.019364,-0.1113235,0.1023846,0.003107148,0.01077478,-0.001249303
1.016617,-0.1114341,0.1002937,0.005069858,0.008529316,-0.002815115
1.014769,-0.1133188,0.1008032,0.003809113,0.009053457,-0.004327004
1.017917,-0.1160835,0.09975364,0.005318028,0.008227589,-0.001385814
1.020765,-0.117367,0.09977907,0.007073991,0.00801509,0.004195525
1.019399,-0.1153891,0.1003274,0.005759549,0.01002218,0.00199976
1.018849,-0.1134102,0.1003064,0.003912965,0.01124227,-0.001325141
1.019425,-0.1125754,0.1027737,0.003382267,0.01348156,-0.0005768817
1.016467,-0.11212,0.1049842,0.003266511,0.01084144,0.0001467861
1.013343,-0.114375,0.1044448,0.003578159,0.007353781,0.001550344
1.013814,-0.1151009,0.1041335,0.0007957354,0.01111156,0.002672645
1.015413,-0.1157277,0.1078103,-0.001562836,0.01397935,0.002233438
1.017285,-0.1181963,0.1121894,0.002012469,0.01289438,0.001119516
1.018789,-0.1131397,0.1109774,0.004920695,0.01009427,-0.0009885174
1.019053,-0.1072443,0.1054129,0.004194969,0.007547972,-0.005344434
1.019394,-0.1108358,0.1021681,0.004072182,0.01168421,-0.009135632
1.01972,-0.1134727,0.1000885,0.004571268,0.01943415,-0.01252349
1.01931,-0.111868,0.09405493,0.001796648,0.02101496,-0.01765614
1.019702,-0.112824,0.09349818,-0.002330033,0.01603763,-0.01689159
1.021442,-0.1140323,0.100107,-0.002892686,0.008795011,-0.01257993
1.022254,-0.1154991,0.1034019,-0.001683715,0.004352819,-0.01015804
1.02066,-0.1176604,0.1060637,-0.0006435308,0.005237472,-0.004333922
1.018606,-0.1167656,0.1076319,-0.001479663,0.003799908,-0.001202385
1.019082,-0.1174445,0.1091652,-0.005763897,0.001214987,-0.002733256
1.019184,-0.1206412,0.1137463,-0.008875841,0.00522096,-0.001794038
1.017311,-0.120487,0.1134826,-0.004064652,0.006842643,-0.001508339
1.017645,-0.1168963,0.1123181,0.005231744,0.007092828,-0.00256405
1.016769,-0.1122991,0.111815,0.005549043,0.01139098,-0.002498968
1.014404,-0.1125787,0.1079563,-0.003631942,0.005706388,-0.002287067
1.016387,-0.1186402,0.1062667,-0.008793694,-0.001016891,-0.001705857
1.0183,-0.1219218,0.1058741,-0.0001822996,0.003872487,-0.001160509
1.01798,-0.1194332,0.1089004,0.01254884,0.005448651,-0.001791005
1.017986,-0.11613,0.1136354,0.01166698,0.007331656,-0.002780922
1.017084,-0.1154667,0.1114411,0.00746008,0.01379268,-0.00228235
1.016389,-0.1138419,0.1078661,0.007608359,0.0131606,-0.0009735162
1.016815,-0.1134587,0.106031,0.003584019,0.00870163,-0.0007249374
1.017845,-0.118438,0.105314,0.003698444,0.005404751,-0.003256656
1.019199,-0.1202527,0.1064035,0.006096658,0.006600091,-0.007173233
1.019751,-0.1179705,0.1040131,0.006495373,0.01109947,-0.007705836
1.019445,-0.1160376,0.1019362,0.01217527,0.01217986,-0.007173357
1.019102,-0.1144512,0.1034964,0.01583511,0.01081497,-0.007599491
1.018323,-0.1156714,0.1030227,0.01628198,0.004258916,-0.005794379
1.015994,-0.1164233,0.1040786,0.01669407,-0.002217358,-0.004451606
1.014523,-0.1166806,0.1071262,0.01474311,0.002092305,-0.004369784
1.015401,-0.1180639,0.1073162,0.0141464,0.0101824,-0.00479322
1.015509,-0.1178958,0.1093328,0.01442785,0.01354533,-0.006547466
1.014499,-0.1180965,0.1109709,0.01770471,0.01021657,-0.005664098
1.012697,-0.1171647,0.1099024,0.02317303,0.005560753,-0.004814759
1.01033,-0.116119,0.111492,0.02328185,0.006597801,-0.007215997
1.011231,-0.1171298,0.112078,0.01958526,0.006931931,-0.008745749
1.014493,-0.1174673,0.1140132,0.01443154,0.005886188,-0.01008606
1.015762,-0.1183042,0.1210224,0.01216629,0.008266103,-0.01100505
1.015277,-0.1173802,0.1229199,0.01247777,0.006989374,-0.009109381
1.014148,-0.1132113,0.1174708,0.009905257,0.002020806,-0.005570408
1.014121,-0.1100334,0.113135,0.008262099,-0.00243938,-0.004373705
1.016877,-0.1111913,0.1133287,0.004035412,-0.005179631,-0.006525632
1.01957,-0.115839,0.1131574,1.546372e-05,-0.000505034,-0.006384248
1.019101,-0.1182886,0.1127704,0.004731991,0.00373566,-0.007025585
1.017353,-0.1183937,0.1160876,0.006784221,0.0009539027,-0.009574339
1.017763,-0.1178401,0.1157762,0.003308266,-0.00188312,-0.008103948
1.017685,-0.11646,0.1123267,-0.0006696768,-0.007377946,-0.007256771
1.016305,-0.1150198,0.1120087,-0.004281579,-0.01539761,-0.004080464
1.018463,-0.1130624,0.1100926,-0.001729867,-0.01750045,0.001255903
1.020397,-0.113724,0.1077502,0.002701911,-0.01120332,-0.00171654
1.018855,-0.1145799,0.1054229,0.004968674,-0.005786111,-0.005189774
1.017495,-0.1130809,0.1024015,0.006919574,-0.01073018,-0.005426314
1.016324,-0.1132372,0.1054843,0.004556516,-0.0159246,-0.0084037
1.016177,-0.1123967,0.1072266,0.001311885,-0.01624423,-0.009970006
1.016199,-0.1118079,0.1025426,0.001649693,-0.01744082,-0.007556409
1.015346,-0.1122295,0.1004047,-0.002469305,-0.01515712,-0.002939562
1.017781,-0.1103099,0.09884175,-0.009620838,-0.007179319,-0.0007177952
1.020309,-0.1100831,0.1007237,-0.0109875,0.002466895,-0.00199625
1.017528,-0.1101328,0.1084868,-0.01513292,0.003106824,-0.001380089
1.014625,-0.1103922,0.1093837,-0.01969556,-0.008466177,0.0003046161
1.015255,-0.1136105,0.1069771,-0.01102383,-0.01592264,0.0007896675
1.015518,-0.1144667,0.1061751,-0.003537704,-0.01474631,0.001800239
1.014691,-0.1140182,0.1030564,-0.005645039,-0.01330181,0.001585158
1.013615,-0.1157076,0.1046071,-0.003673974,-0.01117878,-0.002548186
1.012486,-0.1170098,0.1085732,0.002923597,-0.003174594,-0.005966746
1.015244,-0.1151578,0.108332,0.008709149,0.004010829,-0.005916071
1.019795,-0.1100653,0.1015072,0.01072662,-0.004020657,-0.006710275
1.020199,-0.1074238,0.09430986,0.01003742,-0.01211588,-0.004408339
1.019879,-0.1099453,0.1047318,0.01320916,-0.00357761,0.0001289026
1.021069,-0.1126129,0.1159397,0.01446203,0.001291834,-0.002404657
1.02012,-0.1130339,0.1064769,0.009747035,-0.003068846,-0.004781667
1.018825,-0.1147105,0.09957568,0.006698356,-0.004715723,-0.003838032
1.019544,-0.116176,0.1023265,0.003886253,-0.009572356,-0.005378578
1.01966,-0.1138992,0.1016185,0.001100459,-0.01482266,-0.003419537
1.018845,-0.1133663,0.1037733,0.002666925,-0.01036327,-0.001089962
1.017769,-0.1144114,0.1070054,0.004615232,-0.004252494,-0.005207404
1.016158,-0.1135302,0.1052849,0.003835538,-0.0025295,-0.007766234
1.016335,-0.1143688,0.104673,0.001223665,-0.002451512,-0.005407737
1.017376,-0.11579,0.1032849,-0.0003142432,-0.008520846,-0.003916883
1.017476,-0.1169358,0.1003369,-0.002449709,-0.01553406,-0.004567443
1.021726,-0.1191844,0.08496881,0.0342322,0.06422249,-0.0981753
1.019983,-0.1201943,0.08540004,0.04369419,0.06018462,-0.1004752
1.019632,-0.1209681,0.08470181,0.05229569,0.05580213,-0.1025803
1.017671,-0.1230954,0.08419841,0.05987237,0.05376882,-0.09627487
1.015897,-0.1243257,0.08528372,0.06594606,0.05088002,-0.09161829
1.017874,-0.1240513,0.08393154,0.06862772,0.06193437,-0.09194279
1.019559,-0.1238444,0.08193456,0.06534839,0.07405322,-0.08947595
1.019103,-0.1197648,0.07934899,0.0605619,0.06629063,-0.08590173
1.017719,-0.1169749,0.07632575,0.05401311,0.05768715,-0.08497379
1.016242,-0.120451,0.07597156,0.05391768,0.05841773,-0.08347447
1.017871,-0.1249108,0.08052876,0.0591534,0.05182783,-0.08054335
1.021493,-0.1274873,0.08628107,0.0602909,0.04644192,-0.07904311
1.022864,-0.1278322,0.08116799,0.06658993,0.05537122,-0.08006144
1.022298,-0.1260314,0.07483854,0.06797203,0.06320638,-0.08505274
1.021935,-0.1242264,0.08128346,0.06229126,0.06419492,-0.09118795
1.022329,-0.1245376,0.08348199,0.06428103,0.0640542,-0.08937458
1.021991,-0.1237369,0.07840137,0.06170937,0.06807335,-0.0881649
1.020227,-0.1207057,0.07633152,0.05560624,0.07580194,-0.09426808
1.01903,-0.1194434,0.0741033,0.05051693,0.07419067,-0.09180422
1.019247,-0.1178336,0.07473799,0.04157462,0.06886385,-0.08675564
1.020442,-0.1173938,0.0761559,0.04014737,0.06319223,-0.08782019
1.022975,-0.1201228,0.07610582,0.0430875,0.05267322,-0.08388569
1.025543,-0.1216581,0.07786853,0.04402312,0.05423954,-0.08115213
1.023529,-0.1242929,0.07313435,0.04425351,0.06138998,-0.08258231
1.018928,-0.1261257,0.06321152,0.04302736,0.06142581,-0.08544777
1.019048,-0.1243001,0.05995788,0.04624306,0.06595012,-0.09164185
1.019989,-0.1236747,0.06541776,0.051308,0.06705842,-0.09088863
1.01899,-0.1219235,0.07029805,0.05603076,0.06283545,-0.08839555
1.019692,-0.1197965,0.06703019,0.05603438,0.06460221,-0.0902486
1.019275,-0.1210577,0.06577007,0.04914119,0.06552982,-0.08830122
1.018151,-0.1211154,0.07144209,0.04595124,0.06816343,-0.08763225
1.017386,-0.1204649,0.07697648,0.04027707,0.06942902,-0.0865894
1.017085,-0.1210557,0.08144206,0.03395549,0.05485214,-0.08038293
1.019627,-0.121509,0.08037484,0.03126469,0.03808736,-0.07371144
1.021055,-0.1245062,0.07670695,0.02455616,0.03735834,-0.06755237
1.021568,-0.1284809,0.07825822,0.02937637,0.04926499,-0.06594555
1.022801,-0.1287588,0.07962891,0.04009408,0.05780379,-0.06743751
1.0221,-0.1288643,0.08175404,0.04015825,0.05678778,-0.06762724
1.022042,-0.1309605,0.08253628,0.03985276,0.05784849,-0.07011733
1.022297,-0.1283287,0.07619857,0.03622077,0.06007723,-0.07187057
1.021147,-0.1219493,0.07449331,0.03225279,0.05551744,-0.06996865
1.020628,-0.1202801,0.07683632,0.03511176,0.05242125,-0.07109907
1.020572,-0.1234362,0.07566353,0.03791033,0.05694316,-0.07308557
1.019545,-0.1257171,0.08071043,0.04460049,0.05974864,-0.07140568
1.01646,-0.1225038,0.08747513,0.05041409,0.05619137,-0.0728327
1.014797,-0.1196783,0.08494833,0.0476564,0.05346805,-0.07285804
1.017982,-0.1242344,0.08328389,0.04574012,0.05098928,-0.06917835
1.020686,-0.1281277,0.08523905,0.04817368,0.04719841,-0.07143922
1.019434,-0.1279373,0.08156273,0.05064596,0.04755409,-0.07223966
1.018691,-0.1274607,0.07740011,0.05486218,0.04855357,-0.07028272
1.019192,-0.126162,0.07813634,0.05938834,0.046574,-0.0691189
1.01843,-0.1260146,0.08063617,0.05711206,0.04730393,-0.0614781
1.018648,-0.1267125,0.08375443,0.05399921,0.04976725,-0.05570628
1.019145,-0.126699,0.08392471,0.05295402,0.04952873,-0.05657083
1.01837,-0.1276996,0.08266315,0.04918402,0.04688098,-0.0574974
1.019067,-0.1278485,0.08348198,0.04935682,0.04303573,-0.0583594
1.019608,-0.1244603,0.08249081,0.04955584,0.04504136,-0.06042368
1.019568,-0.1207815,0.08140149,0.04549371,0.05016703,-0.062347
1.02031,-0.1204034,0.08213455,0.04435429,0.04890172,-0.05987237
1.019999,-0.1211348,0.0819632,0.04390031,0.04504513,-0.05436057
1.019406,-0.1225151,0.08187702,0.04446208,0.03838659,-0.0485068
1.019185,-0.1260357,0.08270771,0.04534464,0.03509317,-0.04814918
1.019541,-0.1288766,0.08441574,0.04467659,0.04416918,-0.05370157
1.019644,-0.1278073,0.08308287,0.04774411,0.05084123,-0.05521887
1.019107,-0.1246086,0.07703089,0.04920148,0.0472461,-0.05678135
1.019688,-0.1220387,0.07605763,0.04671523,0.04311046,-0.05426302
1.019434,-0.1189101,0.08003697,0.04565077,0.03925202,-0.04802546
1.018878,-0.1180022,0.08109056,0.04462942,0.03172264,-0.05061333
1.017964,-0.1202303,0.08364498,0.04553362,0.02841158,-0.04928594
1.016226,-0.1227712,0.08496669,0.04940931,0.02657384,-0.04603643
1.018332,-0.1259271,0.08278451,0.0515723,0.02046064,-0.04708495
1.020492,-0.1232646,0.08535891,0.04823359,0.0294296,-0.04149892
1.019247,-0.1175237,0.08517721,0.04100571,0.03983992,-0.03680075
1.019173,-0.1170327,0.08159089,0.03378398,0.02952054,-0.03294129
1.019904,-0.1167523,0.08255208,0.02709823,0.02490004,-0.02485269
1.020252,-0.1184,0.08351386,0.02609356,0.02846748,-0.0212186
1.020488,-0.1214508,0.0888535,0.03010012,0.02508641,-0.02613836
1.01821,-0.1207703,0.09387314,0.03240905,0.02066885,-0.03169098
1.014682,-0.1204311,0.08932926,0.03301238,0.01688902,-0.02878341
1.015466,-0.1189587,0.08404442,0.02914703,0.01785031,-0.02710353
1.019513,-0.1166343,0.08080889,0.02387988,0.02094036,-0.02852699
1.02142,-0.1174674,0.0806959,0.02185513,0.01966023,-0.0255644
1.01977,-0.1196852,0.08080384,0.02188475,0.01992163,-0.02437763
1.015943,-0.121727,0.07811238,0.02821506,0.02391989,-0.02354041
1.015001,-0.1228545,0.08084668,0.03719027,0.02650948,-0.02401218
1.018179,-0.1236439,0.08283207,0.04042591,0.02202442,-0.02732833
1.020318,-0.1221514,0.08093275,0.03952227,0.01549388,-0.02603632
1.019702,-0.1174868,0.0831508,0.03825403,0.01411542,-0.02387074
1.019019,-0.115723,0.08575126,0.03363106,0.01011158,-0.02016507
1.020615,-0.1190608,0.08721601,0.026789,0.003189238,-0.01243285
1.021132,-0.122634,0.08498276,0.02772334,0.002569933,-0.01086328
1.019585,-0.124204,0.0797455,0.03157136,0.006523467,-0.01584399
1.019183,-0.1250049,0.08178866,0.03668175,0.01189694,-0.02007291
1.018244,-0.1223604,0.0828065,0.04989476,0.01436445,-0.02561556
1.01679,-0.1183938,0.07796531,0.05375041,0.01130303,-0.03002561
1.015516,-0.1183726,0.07799075,0.04542648,0.008520157,-0.02750462
1.01555,-0.1191205,0.08081981,0.04055968,0.006096719,-0.02775879
1.019111,-0.1220871,0.0844121,0.03439868,0.003198317,-0.02891102
1.021874,-0.1266974,0.08583403,0.02973525,-0.001089821,-0.01873711
1.021336,-0.1254512,0.0825553,0.03084717,-0.00509267,-0.01160465
1.020546,-0.12384,0.08146139,0.03390858,-0.002487108,-0.01665219
1.020028,-0.1264203,0.08029867,0.04159313,-6.027705e-05,-0.02169874
1.01765,-0.1286241,0.07937507,0.04225049,0.001598247,-0.02239357
1.017196,-0.1304148,0.07874297,0.0353992,0.007307284,-0.02226981
1.020028,-0.1279451,0.07488333,0.03076781,0.01046976,-0.02113227
1.019439,-0.1228318,0.07531515,0.02302936,0.009898728,-0.01511491
1.019023,-0.1254086,0.07740175,0.01921091,0.007918406,-0.008251708
1.019737,-0.1291882,0.07926119,0.01606658,0.007823252,-0.005157505
1.017457,-0.1296528,0.08310256,0.01320215,0.006082424,-0.005645714
1.018477,-0.1315944,0.07960583,0.02155472,0.0009989259,-0.008833075
1.021756,-0.1301989,0.07590674,0.0245155,0.001683572,-0.0104212
1.022936,-0.1288432,0.07933692,0.02460178,0.002826606,-0.01197782
1.022132,-0.1289174,0.08050918,0.02567189,0.004855655,-0.01108604
1.020897,-0.1267491,0.08130378,0.02093743,0.01017089,-0.008569908
1.022008,-0.1278132,0.08213124,0.02520866,0.008506675,-0.01092602
1.022255,-0.1270073,0.0784415,0.02873846,0.007385531,-0.01008154
1.021871,-0.1232257,0.07610207,0.02887501,0.009058536,-0.008076294
1.020659,-0.121778,0.07477481,0.02986873,0.00737797,-0.006600241
1.018489,-0.1202244,0.07355754,0.01814627,0.007420662,-0.000395123
1.019772,-0.1216759,0.07603928,0.008583081,0.007141448,0.001103411
1.020646,-0.1230617,0.07565006,0.007850025,0.006425593,-0.0006159699
1.020704,-0.1217196,0.07578705,0.008606914,0.006947485,-0.002897201
1.02125,-0.122365,0.08104768,0.01074544,0.004946943,-0.007325482
1.020462,-0.1223093,0.08248342,0.009559651,0.003073906,-0.007315996
1.020963,-0.1222079,0.0832741,0.007835473,0.004639779,-0.007866423
1.020953,-0.1235051,0.08219973,0.006640538,0.008625321,-0.010493
1.020574,-0.1249617,0.07754315,0.008920436,0.01204132,-0.009470488
1.02074,-0.1272654,0.07800994,0.0126025,0.01280272,-0.009429986
1.018523,-0.127852,0.07854366,0.01135649,0.01290529,-0.01293589
1.015755,-0.1260371,0.08179605,0.009303354,0.01586741,-0.01544847
1.014603,-0.1242901,0.08698391,0.005637321,0.01856077,-0.01492901
1.015512,-0.1255153,0.08405632,0.004531152,0.01316075,-0.01345066
1.016884,-0.1291428,0.08063466,0.009142484,0.004147176,-0.01153903
1.018345,-0.1312437,0.07415038,0.01461748,0.001640386,-0.008495007
1.020268,-0.1310129,0.06717062,0.01792067,0.005687745,-0.004664309
1.019524,-0.1299846,0.07390252,0.01513295,0.01083653,-0.002860853
1.018911,-0.1306206,0.08123172,0.01032492,0.01240003,-0.003995233
1.01992,-0.1302493,0.07893991,0.006519849,0.01110217,-0.003897881
1.019096,-0.1264647,0.07711121,0.005307707,0.008223575,-0.003307301
1.018427,-0.1241995,0.07631278,0.005652881,0.004550784,-0.002969341
1.01805,-0.1246359,0.07298307,0.002929452,0.00472471,-0.00213591
1.017702,-0.1258593,0.07222318,0.004673652,0.007092273,-0.003785685
1.018564,-0.1264152,0.07282402,0.006476566,0.007030312,-0.006172433
1.018869,-0.1264586,0.07269029,0.004376086,0.004914642,-0.006330716
1.019732,-0.1269662,0.0758406,0.01024677,0.002571693,-0.003715312
1.02071,-0.1276236,0.07903592,0.01658928,0.002679103,-0.002418861
1.020685,-0.1293766,0.08042137,0.01791911,0.00261747,-0.004351742
1.021115,-0.1285828,0.07779353,0.01880794,0.001021436,-0.003307313
1.021095,-0.1249756,0.07306471,0.01572009,0.003587941,-0.00277641
1.022452,-0.1216739,0.07603874,0.0132767,0.005695819,-0.004343658
1.024098,-0.1184289,0.07944697,0.01354151,0.0009520935,-0.004301057
1.021796,-0.1181635,0.08095105,0.0138987,-0.002781828,-0.005985158
1.020119,-0.1187893,0.08659348,0.01532556,-0.001001296,-0.003499999
1.021829,-0.1195262,0.08699101,0.01534996,0.00176802,0.0003523694
1.022427,-0.1204906,0.08382994,0.01469024,0.005618424,-0.004087618
1.020304,-0.1204178,0.08295975,0.01249409,0.01043896,-0.006558603
1.018708,-0.1231177,0.08044289,0.006772684,0.009796875,-0.00439353
1.019479,-0.1227199,0.07996292,0.002071444,0.005388921,-0.004013999
1.019739,-0.1211061,0.08074088,0.002091194,0.003381686,-0.002616926
1.019192,-0.1235088,0.07799039,0.001887372,0.0006254041,0.000268651
1.019517,-0.1236775,0.07451918,-0.002763508,-0.002965868,0.001898548
1.019512,-0.1250984,0.07365119,-0.004102479,-0.003578535,0.002446141
1.019337,-0.1247554,0.07797942,-0.004163163,-0.0003611934,0.003791885
1.019695,-0.1212192,0.08299453,-0.007072331,0.003817598,0.003641359
1.020327,-0.1215508,0.0824689,-0.007003426,0.001661505,0.001287483
1.020895,-0.1206867,0.08061347,-0.0103841,-0.003760712,0.0004187329
1.020091,-0.12072,0.07981784,-0.01354578,-0.006372288,0.001464632
1.019294,-0.1234535,0.07969019,-0.01042606,-0.007861761,0.007630796
1.021226,-0.1245865,0.07994156,-0.009689554,-0.007022773,0.01527801
1.022682,-0.1252479,0.07876084,-0.007223374,-0.00411534,0.01320419
1.020404,-0.1229057,0.08118727,-0.005087774,-0.001772675,0.00841058
1.018562,-0.1204561,0.08509789,-0.007166898,-0.001502331,0.007886468
1.019516,-0.1213701,0.08427868,-0.006209655,-0.001942552,0.004899798
1.019792,-0.1234606,0.08306671,-0.006064275,-0.0003823701,0.004378862
1.019136,-0.1259154,0.08148612,-0.005941915,7.802608e-05,0.005478481
1.019515,-0.125292,0.08133603,-0.001832141,-0.002383882,0.002326783
1.019576,-0.1242811,0.08288203,0.004103766,-0.004967499,0.00707849
1.019072,-0.1253112,0.08065294,0.009086664,-0.004341646,0.01303339
1.018681,-0.1238699,0.07833256,0.007317687,-0.003555511,0.00952299
1.017772,-0.122197,0.07581399,0.004332327,-0.007038193,0.009996225
1.018037,-0.1228782,0.0751224,0.005444021,-0.008883368,0.0132247
1.019642,-0.1256821,0.07681262,0.00837008,-0.007005866,0.01321466
1.021301,-0.1279442,0.07418286,0.01439966,-0.002543375,0.01181249
1.022688,-0.1228024,0.07451838,0.01652384,0.001278182,0.01024984
1.021489,-0.1168939,0.07608363,0.01318701,-0.005439494,0.01586618
1.020063,-0.119355,0.0740723,0.008848462,-0.01380865,0.0215234
1.020914,-0.1210973,0.07500144,0.002719022,-0.01181445,0.01775107
1.020097,-0.1201909,0.07415514,0.00430204,-0.01060806,0.01517603
1.018693,-0.1229705,0.07468111,0.009631595,-0.01412227,0.0174666
1.018856,-0.123442,0.07924256,0.007407381,-0.01562681,0.0163517
1.018448,-0.1238156,0.07826244,0.007667014,-0.01960624,0.01351929
1.017662,-0.1276887,0.07606228,0.008695521,-0.02360025,0.01433376
1.016524,-0.1258374,0.07476579,0.006176883,-0.01877508,0.01501652
1.016846,-0.1235993,0.07117224,0.007036949,-0.01400915,0.01309696
1.020689,-0.1258101,0.07144226,0.006547852,-0.01467048,0.01152175
1.022936,-0.1242209,0.07283314,0.005676399,-0.01294243,0.01175046
1.020554,-0.1210245,0.06904493,0.00516895,-0.01241478,0.01313446
1.018428,-0.1194024,0.06694227,-0.0002071953,-0.01741489,0.01495667
1.01945,-0.1215072,0.06841788,-0.00388911,-0.01937748,0.01429976
1.019979,-0.1262727,0.06864312,-0.001704376,-0.0173204,0.007906787
1.018985,-0.1252899,0.07059389,0.003692963,-0.01794203,0.003690265
1.019531,-0.1235545,0.0731657,0.00544252,-0.01816965,0.006483622
1.019691,-0.1227587,0.07242537,0.0005943934,-0.01697864,0.008906003
1.019261,-0.1179,0.07243162,-0.00474226,-0.01813128,0.01142928
1.020597,-0.1174019,0.07600669,-0.009636257,-0.01968347,0.01429746
1.021596,-0.1217375,0.07902317,-0.01187162,-0.02211308,0.01340725
1.02347,-0.1264165,0.07791452,-0.00533453,-0.0248471,0.01349694
1.025675,-0.1309483,0.07640918,0.004278623,-0.02433227,0.01557387
1.024317,-0.1291028,0.07466031,0.003824966,-0.01881287,0.01502971
1.022316,-0.1250143,0.07072068,0.00161699,-0.01004462,0.01444652
1.021057,-0.1239692,0.06979528,0.008678977,-0.007564186,0.01314711
1.018921,-0.1220888,0.06998848,0.009820936,-0.01076971,0.008099382
1.018803,-0.1224708,0.06866919,0.00546108,-0.01310098,0.006964561
1.019641,-0.1255033,0.07113165,0.004612869,-0.01700383,0.009468051
1.016583,-0.1277121,0.07693875,0.002976372,-0.01692133,0.00936531
1.014814,-0.128216,0.08106675,0.003864678,-0.01300483,0.0119415
1.019251,-0.1255235,0.07613694,0.00499291,-0.01158201,0.01629952
1.023079,-0.1243086,0.06741939,0.00635503,-0.007786537,0.01827334
1.022273,-0.125317,0.07024157,0.0079022,-0.007222144,0.01946041
1.019689,-0.124887,0.07311184,0.003787498,-0.009238526,0.01854092
1.018165,-0.1250407,0.06890459,0.0006171521,-0.005372166,0.01750829
1.018189,-0.1250264,0.06993313,-0.001044699,-0.005175832,0.01743627
1.019739,-0.1250602,0.06853779,-0.000869658,-0.004706932,0.01685108
1.02148,-0.1260834,0.06714039,0.00215783,0.0006334602,0.01641971
1.019967,-0.1264696,0.07392709,0.00225635,0.0001941818,0.01355678
1.01871,-0.1267879,0.07575975,0.002259881,-0.001931414,0.01104087
1.019783,-0.1270846,0.07250657,0.0006425,-0.003399222,0.01287318
1.019802,-0.1280286,0.06897999,-0.001861441,-0.003969301,0.01446741
1.021087,-0.128107,0.06677683,-0.001639635,-0.001684596,0.01414536
1.022919,-0.1276479,0.06857204,-0.00182065,-0.00222323,0.01210828
1.022153,-0.1298528,0.06800264,-0.0006346632,-0.00291424,0.008933325
1.02079,-0.1302337,0.06745119,-0.000748006,-0.004664641,0.009555396
1.019495,-0.126049,0.07059859,-0.001413469,-0.008447373,0.01248118
1.017356,-0.1223236,0.07395499,0.00124139,-0.009090938,0.0130473
1.016549,-0.1239506,0.07554124,0.001018154,-0.009364895,0.01460868
1.019582,-0.1264561,0.07504003,-0.003534115,-0.005217485,0.017836
1.022795,-0.1248125,0.07740046,-0.0081,-9.476193e-05,0.01778826
1.022572,-0.1263965,0.07860848,-0.007121644,-0.006899085,0.01611582
1.02181,-0.1291178,0.07536979,-0.00387384,-0.0137969,0.01583682
1.022346,-0.1271603,0.07511658,-0.004270626,-0.01041743,0.01532792
1.022184,-0.1266858,0.07536239,-0.001452533,-0.009518157,0.01346342
1.021107,-0.1265392,0.07454044,0.001778057,-0.01119455,0.01133514
1.020878,-0.1257289,0.07433918,0.001380855,-0.005544595,0.01242326
1.021631,-0.1262734,0.07037971,0.002819533,-0.0001269031,0.01355579
