accx,accy,accz,gyrox,gyroy,gyroz
0.9713168,-0.1783644,-0.2230989,0.06850787,-0.04031283,0.002162764
0.990553,-0.1864927,-0.2424162,0.04625341,0.02194559,0.03052243
0.9941755,-0.1941821,-0.2531869,0.04559108,0.1383428,-0.002194181
0.9944562,-0.1866227,-0.2477501,0.04907677,0.1300091,-0.002104224
0.991143,-0.1722808,-0.2445772,0.02638592,0.1475048,0.0119341
0.9808535,-0.1788016,-0.2472688,0.03947669,0.1166449,0.002279288
0.9819491,-0.1817326,-0.2501806,0.04420008,0.09310132,0.01633441
0.9861384,-0.1806772,-0.2495606,0.02385775,0.1209013,0.01823565
0.9808944,-0.1877021,-0.2508363,0.04185173,0.08880199,0.008275168
0.9831906,-0.181522,-0.2518716,0.03452504,0.1032538,0.007029071
0.9824286,-0.1753604,-0.2525977,0.02374159,0.09888551,0.006538147
0.9807465,-0.1759066,-0.2539454,0.03469733,0.06408509,0.0112856
0.9864883,-0.1755577,-0.2511704,0.02242087,0.08303125,0.01516711
0.9854546,-0.1816255,-0.2499937,0.02810666,0.06851579,0.0185679
0.9846939,-0.1831529,-0.2466199,0.02774514,0.07569168,0.01912629
0.9829931,-0.1826185,-0.2439198,0.02032756,0.07924737,0.01718252
0.9822104,-0.1850292,-0.2478791,0.02864067,0.05904865,0.01682891
0.9851226,-0.1838999,-0.2498258,0.02220899,0.0731885,0.01608114
0.9831192,-0.1859663,-0.2555162,0.03114251,0.05496019,0.01632172
0.9851457,-0.1852567,-0.2593687,0.03704378,0.05151926,0.01504599
0.9855215,-0.1830553,-0.2555409,0.03167316,0.05726997,0.01419892
0.9836137,-0.1847239,-0.255358,0.04123987,0.04036283,0.01425124
0.9866706,-0.1808764,-0.2522993,0.04220833,0.04499681,0.01468549
0.9863071,-0.1794753,-0.2477764,0.04197752,0.03662579,0.01678248
0.9877937,-0.181396,-0.2482751,0.0400925,0.03635604,0.01829265
0.9896716,-0.1797199,-0.2459799,0.039553,0.03786025,0.02279943
0.9874247,-0.1787635,-0.2434121,0.04243962,0.02932447,0.02533622
0.9864722,-0.176412,-0.2459876,0.03756282,0.03559967,0.01965783
0.9858272,-0.175651,-0.252574,0.03880497,0.0287924,0.01565991
0.9871278,-0.1770315,-0.2577032,0.03503531,0.03356039,0.01760192
0.9879833,-0.1766251,-0.2552472,0.03288815,0.04569362,0.0177213
0.9870446,-0.1790598,-0.2513469,0.03591926,0.04914069,0.01337956
0.9869496,-0.1810232,-0.2538512,0.03033163,0.05631552,0.01051541
0.9867901,-0.1779664,-0.259723,0.03044217,0.05219473,0.01074395
0.9886152,-0.1756678,-0.264665,0.02443993,0.0584959,0.01114483
0.9888135,-0.1794895,-0.2661709,0.01592812,0.06150028,0.0122244
0.9849526,-0.1851719,-0.2642899,0.01935669,0.0487854,0.01298406
0.9823104,-0.1870458,-0.2616374,0.01977812,0.04759608,0.01188818
0.983156,-0.1878354,-0.2587832,0.02221636,0.05021928,0.0107749
0.9847951,-0.1873763,-0.2589552,0.02718376,0.05651113,0.009055161
0.983566,-0.1856031,-0.2598245,0.02522444,0.05571043,0.00670709
0.982081,-0.1862994,-0.2580443,0.02155981,0.0500967,0.007402924
0.9818484,-0.1877807,-0.2608128,0.0201608,0.05350467,0.007499656
0.9817039,-0.1874076,-0.2640261,0.01795381,0.04906477,0.00591965
0.9822665,-0.1844773,-0.2630673,0.01587285,0.04503548,0.006492397
0.9814521,-0.1824135,-0.266621,0.01686271,0.04282699,0.003408061
0.9800279,-0.1834137,-0.2706858,0.01499192,0.04014366,0.0006806885
0.9792764,-0.1835783,-0.2665591,0.01265321,0.04326271,0.00322152
0.9809778,-0.1827949,-0.2607381,0.01074759,0.03961444,0.004347991
0.9852083,-0.181944,-0.2614648,0.005378472,0.03800815,0.006820133
0.9842899,-0.181815,-0.2660197,0.003857889,0.03674027,0.008462669
0.9805922,-0.1838507,-0.2689815,0.007293621,0.02903678,0.004616799
0.9807698,-0.1848052,-0.2676399,0.01242137,0.02773894,0.0008959515
0.9809187,-0.1847901,-0.2644653,0.01309161,0.02772005,0.000844568
0.9803404,-0.1867183,-0.2652875,0.01175426,0.02973352,0.003318283
0.9815211,-0.1881104,-0.2656031,0.01423891,0.03103136,0.004321792
0.9824136,-0.1874692,-0.2644299,0.01174564,0.02259746,0.005720478
0.98182,-0.1867658,-0.2678487,0.0111564,0.01550191,0.006892947
0.9818193,-0.1849751,-0.2712276,0.01265745,0.01442769,0.006209474
0.9821496,-0.1830095,-0.2712878,0.009036261,0.01455011,0.009301882
0.9817833,-0.1856619,-0.2688639,0.01020468,0.01232265,0.01167412
0.9818257,-0.188807,-0.2653341,0.009349698,0.01187384,0.01179243
0.9809166,-0.1862388,-0.2634657,0.006688395,0.01588603,0.01289879
0.9792785,-0.1829525,-0.2640905,0.008112285,0.02002511,0.01153099
0.9790908,-0.1815495,-0.2663502,0.005846562,0.02240734,0.01123426
0.9800701,-0.1801856,-0.266154,0.006268962,0.01451129,0.01282792
0.980606,-0.1821832,-0.2689713,0.008897997,0.006083492,0.01480198
0.978767,-0.1844769,-0.2748455,0.009451109,0.01005911,0.01860505
0.9772005,-0.1830463,-0.2736825,0.008849201,0.01171963,0.01934646
0.9786596,-0.1834098,-0.2722845,0.003307792,0.009099205,0.02007755
0.9797669,-0.1855336,-0.2711354,0.0006200481,0.004509959,0.02325583
0.979044,-0.187085,-0.2678234,0.002615168,-0.00325972,0.02108205
0.97914,-0.1899855,-0.2699308,0.002199745,-0.001241103,0.0202637
0.9803065,-0.1924056,-0.2711811,-0.003483432,0.007096728,0.02635852
0.9801853,-0.1921688,-0.271461,-0.0105933,0.009853374,0.02828066
0.977745,-0.1910408,-0.2749693,-0.00982658,0.01009452,0.02429799
0.9746232,-0.1914111,-0.275355,-0.008153796,0.01271485,0.02009259
0.9748949,-0.1902684,-0.2748216,-0.006773384,0.0193452,0.01899828
0.9783126,-0.1876574,-0.2751469,-0.0006386105,0.02410671,0.0193797
0.9797903,-0.1887799,-0.2744439,-0.002294232,0.02370381,0.01358037
0.9794526,-0.1912835,-0.2734037,-0.005736396,0.02568993,0.00682736
0.979816,-0.193505,-0.2715955,-0.002889856,0.0266164,0.00678263
0.980831,-0.1941785,-0.2721156,-0.004542744,0.02425681,0.00777217
0.9808855,-0.1931626,-0.2738939,-0.006111918,0.02744863,0.006908382
0.9799258,-0.1959898,-0.274368,-0.00507194,0.03029415,0.005880995
0.9794956,-0.1976275,-0.2750743,-0.005418076,0.02891241,0.002480435
0.9769036,-0.196624,-0.272437,-0.001978935,0.02847621,-0.003890177
0.9736009,-0.1977695,-0.266806,0.001815336,0.0260927,-0.006211852
0.9737424,-0.1970647,-0.2649559,0.003524608,0.02294199,-0.005498151
0.9753542,-0.1971167,-0.2701973,0.00666593,0.01919993,-0.008376217
0.9768482,-0.1986366,-0.277908,0.01128767,0.01518813,-0.009007629
0.9757684,-0.1984111,-0.2792018,0.01677107,0.01755904,-0.0071937
0.9739203,-0.1980452,-0.2773338,0.01937753,0.01867642,-0.006651305
0.9744446,-0.1940218,-0.2769391,0.02344659,0.01228542,-0.004559919
0.9734958,-0.1904619,-0.2737515,0.02938568,0.003712798,-0.003169891
0.9731358,-0.1933135,-0.2706262,0.0268499,-0.008869799,0.00149426
0.973617,-0.1947682,-0.2692998,0.02284112,-0.01783507,0.0111519
0.9706587,-0.1894948,-0.2693467,0.01981353,-0.02277214,0.01489613
0.968756,-0.1836242,-0.274344,0.01139943,-0.03705115,0.01767047
0.970617,-0.1832795,-0.2797542,0.007996573,-0.04179046,0.02960699
0.9736077,-0.1844755,-0.2821974,0.005778118,-0.03425252,0.03834397
0.9760866,-0.1867793,-0.2848794,-0.00415295,-0.03608497,0.03871955
0.977865,-0.191836,-0.2891687,-0.007862358,-0.03282925,0.04258982
0.979638,-0.1917923,-0.291794,-0.004780897,-0.02679929,0.04522559
0.9822442,-0.1891558,-0.2882599,-0.005498987,-0.02818638,0.04073922
0.9859935,-0.1904251,-0.2841594,-0.006851702,-0.02117892,0.03522282
0.9861002,-0.1906822,-0.2824287,-0.008596266,-0.01119641,0.02796428
0.981099,-0.1894788,-0.2815324,-0.01287141,-0.000919295,0.02326695
0.9778732,-0.1886943,-0.2835217,-0.01599732,0.006265124,0.01805687
0.979203,-0.1868351,-0.2829157,-0.0193215,0.002980605,0.006779798
0.9817184,-0.1861943,-0.2824887,-0.02807304,0.009078396,0.007377424
0.9816364,-0.1864444,-0.2834935,-0.04249857,0.0212209,0.01233589
0.9792081,-0.1857136,-0.2772959,-0.05711787,0.02442952,0.006926291
0.977078,-0.1867352,-0.2731898,-0.06176641,0.02551694,0.007188876
0.9772557,-0.1895721,-0.2752945,-0.05660852,0.02466333,0.004679522
0.9785502,-0.193404,-0.2762956,-0.0528369,0.02483049,-0.005466488
0.9771347,-0.1962045,-0.2765687,-0.04563034,0.02980028,-0.007041557
0.9751412,-0.1958935,-0.2763972,-0.03813006,0.03361345,-0.007425642
0.9723828,-0.1972752,-0.2773905,-0.04297385,0.03283001,-0.008877573
0.9700107,-0.1981371,-0.2777399,-0.04460285,0.03205355,-0.008092116
0.9746543,-0.1963533,-0.2758708,-0.04322104,0.03409465,-0.006965927
0.9781175,-0.197479,-0.2745709,-0.0480625,0.02948007,-0.003721578
0.975642,-0.197566,-0.2755047,-0.04603717,0.02290508,-0.003372959
0.9742915,-0.1971489,-0.2809199,-0.04518715,0.02424117,-0.004237196
0.973398,-0.2004086,-0.2875612,-0.04718655,0.02129164,-0.00541452
0.9732928,-0.2020174,-0.2896534,-0.04089853,0.01029702,-0.009706522
0.9734383,-0.2010336,-0.2828069,-0.03638203,-0.003470965,-0.01726911
0.9706023,-0.1984228,-0.2715564,-0.03223824,-0.01658305,-0.02793758
0.9676879,-0.1960039,-0.2673776,-0.02222222,-0.02395542,-0.02944781
0.9679318,-0.1952756,-0.2696062,-0.01309953,-0.03715035,-0.02470486
0.9704609,-0.1932627,-0.2725632,-0.010171,-0.05173687,-0.02358645
0.9723621,-0.1927751,-0.2757319,-0.01164556,-0.0466576,-0.01931174
0.9737614,-0.196045,-0.283399,-0.008460115,-0.04101898,-0.01695291
0.975644,-0.2008826,-0.2905431,-0.0002890473,-0.0417123,-0.01685365
0.9768415,-0.204196,-0.2874735,0.008682775,-0.03074333,-0.01458861
0.9767969,-0.2029944,-0.2852747,0.01710307,-0.02673955,-0.01600855
0.9774095,-0.2015998,-0.287929,0.0207,-0.02088247,-0.01713499
0.9810855,-0.2015084,-0.2873597,0.02356473,0.008006906,-0.02057115
0.9839013,-0.1980658,-0.2867322,0.02729455,0.02572297,-0.02621575
0.9827001,-0.1920808,-0.2841841,0.02457434,0.02436162,-0.02809646
0.9792555,-0.1866139,-0.2805173,0.0188831,0.02206629,-0.03241596
0.9749457,-0.1854687,-0.2817685,0.015339,0.01856786,-0.02999742
0.9743988,-0.1862006,-0.2827022,0.01497071,0.01580354,-0.02314221
0.9774101,-0.1827389,-0.2809078,0.02124265,0.01073089,-0.02660513
0.9780932,-0.1839179,-0.2792745,0.0263321,0.009354988,-0.02755112
0.9768164,-0.1885418,-0.2770846,0.02463127,0.01171028,-0.02590491
0.9756561,-0.1859597,-0.2765936,0.02420962,0.007448454,-0.02583109
0.9745371,-0.1858509,-0.2788571,0.02295938,0.004481904,-0.01915993
0.9733409,-0.1876423,-0.2804343,0.01254628,0.003298149,-0.01632437
0.9731867,-0.1854231,-0.28182,-0.002589821,0.002894173,-0.01723307
0.9744104,-0.1842408,-0.2830755,-0.008769594,0.004580975,-0.01292953
0.9753197,-0.1821939,-0.2851594,-0.007189903,0.003433469,-0.01141753
0.9764976,-0.1833302,-0.2885931,-0.01055396,0.002722367,-0.01410773
0.9760682,-0.1847267,-0.2870727,-0.01191381,-0.001917544,-0.01537534
0.9744355,-0.1835032,-0.2847877,-0.008546942,-0.008530805,-0.01477075
0.9770702,-0.1859575,-0.2867037,-0.01134779,-0.007750553,-0.01223459
0.979687,-0.1845306,-0.286253,-0.0159181,-0.008396035,-0.007356675
0.9787149,-0.1833084,-0.285447,-0.02099754,-0.01307924,-0.001796057
0.9772442,-0.1836904,-0.2858489,-0.0265135,-0.01749938,0.0008619751
0.9747588,-0.1798465,-0.2853008,-0.0250875,-0.02541068,0.003947908
0.9737309,-0.1805649,-0.2871413,-0.02334976,-0.03216443,0.009939566
0.9750494,-0.1796266,-0.2877357,-0.02129016,-0.03094324,0.01037891
0.9771337,-0.1785417,-0.2840476,-0.01640043,-0.02807296,0.007852455
0.980726,-0.1822685,-0.2807267,-0.01864833,-0.02567466,0.006683596
0.9829548,-0.180298,-0.2795532,-0.02100215,-0.0171951,-0.001266069
0.9835721,-0.1808185,-0.278771,-0.01976938,-0.006144929,-0.009121986
0.9830669,-0.1834539,-0.2765682,-0.02390296,0.001967262,-0.01178345
0.9802701,-0.1820551,-0.2757588,-0.02841136,0.007115526,-0.0188742
0.9785178,-0.1837872,-0.2781264,-0.03055674,0.01214597,-0.02573911
0.9789568,-0.1836856,-0.2800485,-0.03097601,0.01991268,-0.02763808
0.9791661,-0.1826768,-0.281747,-0.02872455,0.02212563,-0.02895797
0.977325,-0.1838855,-0.2826051,-0.02542897,0.01868417,-0.0299994
0.9752455,-0.1832468,-0.2815331,-0.02082634,0.01840049,-0.03427342
0.9750493,-0.1847406,-0.2828449,-0.01968542,0.01824858,-0.03788621
0.9747612,-0.1880603,-0.2870342,-0.02335373,0.01985777,-0.03438154
0.9748298,-0.1904417,-0.2913519,-0.02787983,0.02266156,-0.03387975
0.9747445,-0.1905265,-0.2908302,-0.03154127,0.02196564,-0.03494769
0.9744097,-0.187604,-0.2851458,-0.0315521,0.02232856,-0.02748794
0.9754215,-0.1849516,-0.2830146,-0.02556652,0.02214076,-0.0203548
0.9740777,-0.1823742,-0.2833623,-0.01616927,0.02015603,-0.01888857
0.9730365,-0.181447,-0.2826893,-0.01138627,0.01297283,-0.0170327
0.9751695,-0.183286,-0.2810861,-0.006941883,0.0007807917,-0.0120096
0.9760312,-0.1845205,-0.2749288,-0.0009052721,-0.002587788,-0.008975583
0.9766207,-0.1848086,-0.2712246,-0.003329785,-0.003992887,-0.009923545
0.9769447,-0.1831205,-0.2766237,-0.004565778,-0.007479502,-0.007555727
0.9777636,-0.1793057,-0.2852594,-0.003013147,-0.002663609,-0.006336804
0.9798727,-0.1765981,-0.289972,-0.007565484,0.001858771,-0.008236455
0.9783842,-0.17709,-0.2896224,-0.01104981,0.005233446,-0.007701375
0.9773084,-0.179526,-0.2883712,-0.01539567,0.009667465,-0.008851797
0.9799345,-0.1808951,-0.2828928,-0.01701259,0.007409454,-0.006363439
0.9809469,-0.180929,-0.2754884,-0.01338245,0.006372277,-0.001306046
0.9796944,-0.1802777,-0.2775592,-0.01472608,0.01438458,-0.003386229
0.9788197,-0.1804092,-0.2838839,-0.01345925,0.02281064,-0.005178974
0.9800785,-0.1809576,-0.2855408,-0.01135829,0.02383308,-0.004315037
0.9809486,-0.1802238,-0.2838419,-0.01371357,0.02384842,-0.00532806
0.9792794,-0.1797163,-0.2807462,-0.01354541,0.02525511,-0.008293993
0.9781115,-0.1761371,-0.2793524,-0.01863816,0.0230485,-0.01177282
0.97845,-0.1710015,-0.2810733,-0.02517824,0.02290945,-0.01303018
0.9794076,-0.1717022,-0.2809882,-0.02387743,0.02562422,-0.01534139
0.9790908,-0.1732394,-0.2804474,-0.02220502,0.03131128,-0.01874533
0.977017,-0.1734094,-0.284334,-0.02154994,0.0429774,-0.02012815
0.9761768,-0.1773963,-0.2854251,-0.02050482,0.04720217,-0.02090545
0.9771585,-0.1806451,-0.282725,-0.01933001,0.04045822,-0.02129024
0.9780718,-0.1788004,-0.2818598,-0.01936055,0.03686494,-0.02134424
0.9769834,-0.1766993,-0.2783438,-0.01901366,0.03735278,-0.01834751
0.9757399,-0.1764025,-0.2742964,-0.01272754,0.03267202,-0.01536689
0.9767561,-0.1760637,-0.2785554,-0.007143292,0.02510959,-0.01708412
0.9770894,-0.1763719,-0.2847311,-0.008644071,0.02298253,-0.01477251
0.9758055,-0.175482,-0.2803535,-0.01205494,0.02109466,-0.008233371
0.9738872,-0.1734895,-0.2723003,-0.01395721,0.01238282,-0.003890025
0.9737249,-0.1735173,-0.268551,-0.01611416,0.001033497,-0.001345407
0.9784465,-0.1736386,-0.2678766,-0.01571808,-0.00662271,-0.0001400225
0.9822573,-0.1732139,-0.2709003,-0.01231243,-0.008669271,0.003092416
0.9820949,-0.1719425,-0.2703916,-0.01242868,-0.008969131,0.002185359
0.984588,-0.1701239,-0.2725905,-0.008284968,-0.00692413,-0.00400159
0.9891942,-0.1712821,-0.2793001,0.00117334,-0.0009460131,-0.006656265
0.9896474,-0.1740824,-0.2751849,0.003662906,0.0052716,-0.01546529
0.9878915,-0.1764208,-0.270685,0.006050536,0.009877412,-0.026569
0.9869384,-0.176696,-0.2697571,0.01016629,0.009455379,-0.02605209
0.9839639,-0.1730974,-0.2688135,0.008706803,0.006715369,-0.02521936
0.9820493,-0.1676856,-0.2725874,0.00602053,0.001466761,-0.02681212
0.9825825,-0.163908,-0.2716468,0.001682815,-0.007593985,-0.02260238
0.9799745,-0.1659823,-0.2716381,-0.006293765,-0.006613921,-0.01627797
0.9781556,-0.1699329,-0.2745264,-0.01020997,-0.006592198,-0.007287608
0.9795082,-0.1694298,-0.2724398,-0.007917743,-0.02162342,0.002890437
0.9792898,-0.1692781,-0.2720232,-0.008851884,-0.02964891,0.001285151
0.9791116,-0.1694453,-0.2686006,-0.01223482,-0.02544091,-0.003358353
0.9805619,-0.1672461,-0.2639237,-0.01280872,-0.02341923,0.001138888
0.9829458,-0.1663822,-0.2659512,-0.01551839,-0.02595123,0.001033475
0.9857356,-0.1664602,-0.2704714,-0.01699315,-0.02594445,0.0004250891
0.9866981,-0.1668389,-0.2738754,-0.01584951,-0.02008992,0.004118899
0.9860086,-0.1662655,-0.2731046,-0.01705267,-0.01507158,0.001023416
0.9859153,-0.163634,-0.2736838,-0.01770184,-0.008137413,-0.00153977
0.9856,-0.1620081,-0.274364,-0.02109494,-0.001276798,-0.001106278
0.9824762,-0.1620715,-0.2717691,-0.02603657,-0.005921067,0.001959588
0.9793897,-0.1627956,-0.2708202,-0.02455778,-0.01498151,0.005782349
0.9802579,-0.1616077,-0.2669564,-0.02388149,-0.01931465,0.004741612
0.9811091,-0.1605866,-0.2665672,-0.02715102,-0.02352144,0.007786206
0.9792788,-0.1624156,-0.2679204,-0.0278091,-0.0322939,0.01420769
0.9787736,-0.1628748,-0.2626341,-0.02872272,-0.04038635,0.02405632
0.9794432,-0.1633226,-0.2635028,-0.03020571,-0.04557798,0.03143307
0.9792208,-0.1642636,-0.2651487,-0.02975366,-0.05165928,0.02916402
0.9800553,-0.1641453,-0.2642382,-0.03191055,-0.05159753,0.0305315
0.9814627,-0.1657071,-0.2696129,-0.03532308,-0.04552414,0.02705814
0.982666,-0.1677034,-0.2739907,-0.03838706,-0.04306178,0.0215376
0.983488,-0.1699343,-0.2767833,-0.0440428,-0.03909911,0.02379145
0.9838592,-0.173622,-0.2771066,-0.04847882,-0.03125467,0.01710391
0.987159,-0.1772153,-0.2767375,-0.048147,-0.02427791,0.007930762
0.9889364,-0.1784406,-0.28318,-0.04453005,-0.01054316,0.00130227
0.9856801,-0.1774581,-0.2874468,-0.0381166,0.008406604,-0.005565949
0.9843764,-0.176453,-0.2838522,-0.02640921,0.02043679,-0.006314183
0.9806043,-0.1743928,-0.279768,-0.01773163,0.02439359,-0.007048542
0.9738999,-0.1725718,-0.2796482,-0.02083472,0.02030065,-0.008192095
0.9761797,-0.1718729,-0.2770235,-0.0215394,0.01731761,-0.00773679
0.9794929,-0.1704979,-0.2728914,-0.01895957,0.02113735,-0.008720129
0.9767676,-0.1703139,-0.2763864,-0.02170517,0.01999924,-0.01041963
0.9761924,-0.1703168,-0.2807675,-0.02158011,0.01606263,-0.008666262
0.9767067,-0.1690815,-0.2848444,-0.02174087,0.01444345,-0.002406931
0.9780409,-0.1697219,-0.2877533,-0.02100542,0.01529725,0.001510991
0.9800753,-0.1725273,-0.282497,-0.01466845,0.01916617,0.0004328229
0.9790073,-0.1738876,-0.2799758,-0.01024556,0.01819954,-0.003238125
0.9787293,-0.1720379,-0.2791545,-0.007109585,0.01537167,-0.004459311
0.9787876,-0.1699302,-0.2745582,-0.006386461,0.01170898,-0.004262669
0.9781564,-0.1706892,-0.2736132,-0.00182913,0.003827451,-0.004391857
0.9796197,-0.1714559,-0.2710658,0.008320337,0.001564628,-0.002094435
0.9803783,-0.1703718,-0.2690035,0.007784895,0.003135962,-0.003095696
0.9799066,-0.1701458,-0.2705505,0.00433836,0.002234973,-0.003020534
0.9781524,-0.1675871,-0.2645936,0.005861817,0.001149393,0.002037379
0.9766628,-0.1642972,-0.2596323,0.005377934,0.001493627,0.006722538
0.9822815,-0.1679902,-0.264744,0.009262542,0.005116007,0.01023959
0.9884364,-0.171964,-0.2667973,0.01431879,0.007598559,0.007158465
0.9846337,-0.1702802,-0.2662386,0.01584188,0.007162449,0.004423341
0.9808926,-0.1677713,-0.2697804,0.01994698,0.007017662,0.006303842
0.9824455,-0.165802,-0.2712052,0.02358004,0.00622526,0.004304827
0.9805021,-0.1644853,-0.2717062,0.02753761,0.002255627,0.001744936
0.9805649,-0.1638576,-0.2704739,0.03001139,-0.008867022,-0.001476524
0.9842536,-0.1635252,-0.2661727,0.02606942,-0.01936005,-0.003122402
0.9832392,-0.1639126,-0.2660895,0.02452168,-0.01750464,-0.0003114542
0.9829614,-0.1634759,-0.2701444,0.02419169,-0.01238478,0.001597026
0.9835401,-0.1633725,-0.2754652,0.02216709,-0.01223753,0.004485748
0.981058,-0.1646752,-0.2745302,0.01945599,-0.01141766,0.00503648
0.9804188,-0.1646912,-0.2704641,0.01431388,-0.01518018,0.003650015
0.981485,-0.1649728,-0.2723294,0.01819108,-0.02442616,0.00534708
0.9832408,-0.1653712,-0.2702164,0.02221751,-0.02596485,0.004950752
0.9838525,-0.1645376,-0.2680289,0.01702676,-0.02493047,0.006332465
0.9828954,-0.1657219,-0.2691191,0.01800321,-0.02723067,0.01014885
0.9835397,-0.1662762,-0.2677368,0.0189061,-0.02744153,0.01009159
0.9842606,-0.1679351,-0.2703014,0.0172885,-0.02621305,0.009560841
0.9875907,-0.1718673,-0.2700973,0.01754172,-0.01950387,0.007179961
0.991023,-0.1701082,-0.2691292,0.01323648,-0.01398744,0.003052572
0.9852296,-0.1686248,-0.2726087,0.009203274,-0.01947337,0.002885159
0.9765597,-0.1686815,-0.2723503,0.004973172,-0.022999,0.007142532
0.9752291,-0.1653296,-0.2748656,0.004807181,-0.02010955,0.01285513
0.9780195,-0.1661683,-0.2771335,0.009290521,-0.01841865,0.01232026
0.979613,-0.1658387,-0.2756126,0.007252747,-0.0157518,0.006041629
0.9818712,-0.1629364,-0.2767728,0.006806445,-0.01276723,0.003092487
0.9843119,-0.1671567,-0.2753904,0.007665007,-0.01338672,0.005718081
0.9829399,-0.1719022,-0.2740438,0.00550275,-0.01279994,0.01119943
0.9801004,-0.1746149,-0.2736416,0.007503703,-0.01167111,0.0142153
0.9785356,-0.1774855,-0.2714046,0.01166234,-0.01585541,0.01537926
0.9777627,-0.1759088,-0.2717946,0.01921502,-0.02087212,0.01788751
0.9770258,-0.1721564,-0.2708452,0.02748273,-0.02585688,0.01889583
0.9762806,-0.1701323,-0.2699944,0.03207045,-0.03118313,0.01907014
0.9784143,-0.170436,-0.2765104,0.03456037,-0.03043743,0.01888469
0.9819007,-0.1714051,-0.2831598,0.03164816,-0.02658724,0.01840666
0.9825684,-0.1708397,-0.2797341,0.02851169,-0.02431127,0.01922072
0.9826845,-0.1714924,-0.2716835,0.02805029,-0.02424605,0.01821253
0.9835752,-0.1728585,-0.2683222,0.03059737,-0.03078975,0.01375411
0.9831118,-0.1724567,-0.2692379,0.0378324,-0.03955632,0.009042452
0.9813761,-0.174149,-0.2730994,0.04135576,-0.03960346,0.01062332
0.9800477,-0.1776245,-0.2754267,0.04376042,-0.03455608,0.0169294
0.9805921,-0.1781657,-0.2755033,0.04479157,-0.03121789,0.01973203
0.9817819,-0.1765398,-0.2795885,0.04177617,-0.02743013,0.0199513
0.981677,-0.1752805,-0.2843056,0.04390704,-0.02914651,0.01870884
0.9802326,-0.1760128,-0.2832409,0.04416119,-0.03887465,0.01760674
0.9782055,-0.178527,-0.2758801,0.04228969,-0.04475506,0.01733931
0.9771281,-0.1805465,-0.2725717,0.04473002,-0.04437957,0.01523184
0.9763601,-0.1827267,-0.2761405,0.04527388,-0.04449987,0.01706051
0.9762375,-0.1854971,-0.2740091,0.04668029,-0.04490392,0.0196733
0.9785385,-0.1852264,-0.2715629,0.04429598,-0.04334419,0.01788981
0.9797749,-0.1829691,-0.2728211,0.03814711,-0.04486394,0.01761296
0.9790243,-0.183848,-0.272608,0.0384398,-0.04814092,0.01527686
0.9794725,-0.1862789,-0.2775936,0.03920279,-0.04595259,0.01121231
0.9811762,-0.1879266,-0.284294,0.04367961,-0.04335756,0.01038414
0.983373,-0.1879575,-0.2850115,0.05154774,-0.03915862,0.007866011
0.9838425,-0.1860783,-0.2801196,0.05057839,-0.02989017,0.004699103
0.9824262,-0.1875834,-0.2766734,0.0515367,-0.02391388,0.002273265
0.9805571,-0.1916754,-0.2823799,0.0581164,-0.01957533,-0.003436176
0.977398,-0.1938186,-0.2860007,0.05729476,-0.01406998,-0.007004037
0.9761061,-0.1936269,-0.2800144,0.05638402,-0.01052506,-0.006549913
0.9767785,-0.191867,-0.2767716,0.06029803,-0.009109872,-0.01350736
0.9761218,-0.1915366,-0.2831983,0.05926433,-0.008200643,-0.02291349
0.9765309,-0.1901445,-0.2887261,0.05772619,-0.0050795,-0.02196105
0.9775527,-0.1889783,-0.2860853,0.05800543,-0.005852943,-0.02203031
0.9777439,-0.1894933,-0.2859335,0.05596106,-0.01246973,-0.02679113
0.9777019,-0.1865878,-0.2884444,0.0557782,-0.01816772,-0.0248966
0.9758008,-0.1867491,-0.2854394,0.05223743,-0.02330311,-0.02217317
0.9745743,-0.1881328,-0.2837439,0.04804392,-0.02627741,-0.02367115
0.9759217,-0.186538,-0.2854561,0.05405516,-0.02424583,-0.02411707
0.9759275,-0.18869,-0.2865521,0.05772108,-0.02066769,-0.02270143
0.9719579,-0.1879916,-0.2878868,0.05096446,-0.01961516,-0.02012041
0.9683639,-0.1862381,-0.2878224,0.04218543,-0.02153338,-0.01740739
0.972115,-0.1884609,-0.2868762,0.03446748,-0.02310794,-0.01569066
0.9772943,-0.187285,-0.2867965,0.02751667,-0.02030439,-0.01422089
0.9763744,-0.1865601,-0.2859401,0.01968605,-0.01559658,-0.01114477
0.9747307,-0.1851029,-0.2861245,0.01129226,-0.01515299,-0.00712669
0.9733011,-0.1802158,-0.2883009,0.006658902,-0.01433949,-0.003324359
0.9720733,-0.1804199,-0.2894521,0.007991345,-0.01001547,-0.0008382324
0.9758332,-0.183766,-0.2902366,0.009503337,-0.005463204,-0.004064505
0.9792683,-0.1853451,-0.2921778,0.002842817,0.0006974042,-0.006741548
0.9778133,-0.1844985,-0.2931508,-0.007690175,0.00547056,-0.004475565
0.9765786,-0.1814795,-0.2905529,-0.01714289,0.006607032,-0.00442547
0.9753854,-0.1794729,-0.2874098,-0.02694534,0.004224967,-0.002150835
0.9720729,-0.1776836,-0.2879667,-0.03205008,0.0006424497,0.003154699
0.9722205,-0.1763836,-0.2879162,-0.03251347,-0.0006186765,0.006088258
0.974727,-0.1794727,-0.2869564,-0.03167296,-0.006303449,0.007925303
0.9734704,-0.1854929,-0.2893417,-0.02944389,-0.01100141,0.006827594
0.9731028,-0.1883832,-0.2919153,-0.029287,-0.005513473,0.005964551
0.9745916,-0.1877038,-0.2926985,-0.0287949,-0.001005982,0.006925344
0.975206,-0.1883967,-0.2885885,-0.02806788,-0.001113371,0.006999017
0.9778349,-0.1875046,-0.2813067,-0.02976972,-0.001678517,0.008442129
0.9785274,-0.1836394,-0.2809266,-0.02966656,-0.005093446,0.007461235
0.9769411,-0.1839824,-0.282876,-0.02982095,-0.008510579,0.002633834
0.9771462,-0.1861208,-0.2819009,-0.02893052,-0.007277585,0.002609697
0.9762135,-0.1857373,-0.2842266,-0.02503342,-0.003646237,0.008048581
0.9760018,-0.1863428,-0.2883755,-0.02355916,-0.002283216,0.009110325
0.9768808,-0.1867347,-0.2905506,-0.02203698,-0.004314619,0.004222366
0.9759358,-0.1869984,-0.2906256,-0.02084331,-0.007544834,0.000528873
0.9754809,-0.1884054,-0.2897368,-0.02102774,-0.008747024,0.0009776266
0.9743977,-0.1871969,-0.2884515,-0.01871149,-0.007660681,0.0005499851
0.9719686,-0.1865002,-0.2833411,-0.01765544,-0.005889129,-0.005224352
0.9707453,-0.1856127,-0.2795096,-0.01576031,-0.004159927,-0.008031505
0.9721583,-0.1824696,-0.28477,-0.009323077,-0.005565265,-0.006208575
0.9746699,-0.1857669,-0.2892056,-0.004586259,-0.005518328,-0.005544257
0.973756,-0.1888014,-0.2837899,-0.001401589,0.0005563204,-0.003868462
0.9732118,-0.1842353,-0.2795918,0.002201452,0.002368369,-0.007083061
0.9765848,-0.1826154,-0.2816213,0.001717354,-0.001695992,-0.01127849
0.9794273,-0.1852744,-0.2808283,-0.0001721171,-0.004056821,-0.006163058
0.9809766,-0.1867589,-0.2798446,0.001495648,-0.00318577,-0.002147098
0.979129,-0.1847287,-0.2828423,0.001980804,-0.001881221,-0.003147381
0.976245,-0.1810472,-0.2858339,0.0008569613,-0.005530738,-0.004098013
0.9772187,-0.1794242,-0.2894611,0.001579578,-0.007319288,-0.004777982
0.9765201,-0.1798522,-0.2905569,-0.0004725854,-0.002196819,-0.004531262
0.9753162,-0.182865,-0.2890436,-0.007057059,0.001136278,-0.004908641
0.9752487,-0.1836612,-0.2905009,-0.01375274,0.001120124,-0.006142456
0.9728325,-0.1802088,-0.2905618,-0.01362293,0.001253215,-0.006117566
0.9734023,-0.1789626,-0.2892005,-0.009088085,0.004492057,-0.004242943
0.9752992,-0.1818046,-0.2903444,-0.01039757,0.008222612,-0.004048691
0.9747123,-0.1855105,-0.2904747,-0.01116708,0.008273761,-0.006287683
0.9755665,-0.184635,-0.2891572,-0.01032075,0.007268575,-0.006618776
0.9770082,-0.1812644,-0.2885711,-0.01374906,0.006281392,-0.005624789
0.9787717,-0.180273,-0.2889362,-0.01284854,0.006461699,-0.00256684
0.9790811,-0.1801336,-0.2890205,-0.01194671,0.005662482,0.001753305
0.9768103,-0.1812861,-0.2883593,-0.01382401,0.004337316,0.0008495464
0.9767902,-0.1824291,-0.2872239,-0.0100566,0.005633534,-0.003649326
0.9766565,-0.183421,-0.2855344,-0.006672954,0.005915025,-0.006378689
0.975417,-0.183869,-0.2858412,-0.006024458,0.007115617,-0.005099992
0.9750343,-0.1817671,-0.2861029,-0.006158057,0.008438251,-0.0005401975
0.9730408,-0.1817924,-0.2832853,-0.006398881,0.007914308,0.001921708
0.9731017,-0.1820763,-0.2820217,-0.003169009,0.008134058,0.0001758206
0.9742363,-0.1806319,-0.2834928,-0.001288926,0.007439297,-0.002000595
0.9720632,-0.1801235,-0.2845382,-0.002873472,0.008506184,-0.003468398
0.9710308,-0.1781357,-0.2865365,-0.004617553,0.009988787,-0.006780684
0.9715348,-0.1779991,-0.2899454,-0.005184783,0.01038845,-0.007945053
0.9742538,-0.1794686,-0.2894444,-0.004341655,0.01216119,-0.006015459
0.9787543,-0.1777825,-0.2859629,-0.003807687,0.01185008,-0.009476539
0.9783036,-0.1777093,-0.2832891,-0.002876958,0.01287038,-0.01104868
0.9771342,-0.1817968,-0.2797128,-0.002883789,0.01640686,-0.005194784
0.9791439,-0.1845874,-0.2816682,-0.004340958,0.01807166,-0.003341486
0.9794219,-0.1831319,-0.287604,-0.004304454,0.01738555,-0.002528499
0.9786623,-0.1815673,-0.2878432,-0.004196742,0.01260843,-0.00183929
0.9776403,-0.1803241,-0.2889677,-0.004031677,0.008216668,-0.006055412
0.9764914,-0.1783614,-0.2894578,-0.002310907,0.008637686,-0.006924506
0.9769937,-0.1789094,-0.2860322,-0.0006940513,0.009784187,-0.005482182
0.9766278,-0.1787475,-0.2859325,-0.0008760393,0.009367194,-0.004866729
0.9756559,-0.177651,-0.285154,-0.0007961832,0.01044773,-0.004761309
0.9756095,-0.180468,-0.2842487,0.001401784,0.01244582,-0.007013973
0.9741199,-0.1828954,-0.2843951,0.001217021,0.01184124,-0.006997152
0.9741562,-0.1810918,-0.2808191,-0.00244536,0.01197671,-0.006053269
0.977985,-0.1804597,-0.2777397,-0.00382543,0.01181248,-0.00627675
0.9811196,-0.1844154,-0.276081,0.001413449,0.009268068,-0.009069515
0.9825175,-0.1870253,-0.2754823,0.00659599,0.009645837,-0.01332091
0.9817078,-0.1831654,-0.2782065,2.840098e-06,0.01434045,-0.008930759
0.9786989,-0.1759442,-0.2819582,-0.008028766,0.01975233,-0.003137316
0.9772631,-0.171852,-0.282194,-0.006095986,0.01753973,-0.005484012
0.9773744,-0.1736834,-0.2809048,-0.005306753,0.01231508,-0.009025919
0.9773457,-0.1763673,-0.2825498,-0.005479744,0.0130909,-0.008887015
0.9770484,-0.1769275,-0.2811301,-0.002525599,0.01359617,-0.006416657
0.9776432,-0.1791504,-0.2789592,-0.004237578,0.0193577,-0.00692268
0.9782232,-0.1814522,-0.279242,-0.005427109,0.02828582,-0.007929769
0.9764612,-0.1802888,-0.2777177,-0.002712764,0.02546041,-0.00851123
0.9762267,-0.1781788,-0.2800169,-0.003090119,0.02064354,-0.01096492
0.9776083,-0.1765944,-0.2798006,-0.00333045,0.02018216,-0.007376282
0.9775934,-0.1758985,-0.2748406,-0.001722285,0.01770191,-0.003241529
0.9771632,-0.1769248,-0.2748653,-0.001238564,0.01733523,-0.005064239
0.9759059,-0.1782996,-0.2739831,-0.000743342,0.01992795,-0.006462116
0.9765736,-0.1791315,-0.2734745,-0.001115683,0.01969515,-0.00673072
0.9786868,-0.1777478,-0.276948,-0.002826938,0.01836687,-0.003078511
0.979252,-0.1750476,-0.2818648,-0.009342594,0.02038383,0.0002157391
0.9793877,-0.1741578,-0.2868232,-0.02122939,0.02655118,-0.0006347426
0.9779689,-0.1718888,-0.2846223,-0.02470328,0.03355854,0.003310359
0.9775946,-0.1700902,-0.2801723,-0.01585967,0.03058057,0.005672416
0.9789613,-0.1742163,-0.2751838,-0.005653846,0.02110868,0.002695905
0.979211,-0.1780122,-0.2672101,0.0004180349,0.0171762,0.003039765
0.9792328,-0.177663,-0.2682108,-0.0005859575,0.01181964,0.003144592
0.9782472,-0.1760031,-0.2707116,-0.006317128,0.002412354,0.002564912
0.9787089,-0.1742807,-0.2678039,-0.009407753,-0.005644608,0.003319548
0.9815711,-0.1750691,-0.2723193,-0.01076343,-0.005949814,0.003592017
0.9833654,-0.1765578,-0.2783214,-0.01256796,0.001038746,0.006370814
0.9837267,-0.1771518,-0.2795175,-0.01301676,0.004100385,0.008081038
0.9825383,-0.1781034,-0.2802644,-0.01281661,0.01291033,0.004916993
0.9806343,-0.1769061,-0.2802404,-0.0130767,0.02005939,0.0006637335
0.978576,-0.175778,-0.2823153,-0.01281463,0.007817737,0.0001480083
0.9785616,-0.1766306,-0.2818911,-0.01130974,-0.0002496,0.002925022
0.9799932,-0.1764245,-0.2790907,-0.009871063,0.001389347,0.002342276
0.9788127,-0.1758953,-0.2811236,-0.009403355,0.001981795,0.001175955
0.978939,-0.1747269,-0.2801607,-0.009679651,0.003541902,0.002019808
0.9798838,-0.1733501,-0.2762164,-0.009824398,0.002987972,-0.0004341565
0.979565,-0.1752067,-0.2746413,-0.007908375,0.004932671,-0.003784177
0.9810469,-0.1773596,-0.2741855,-0.005118679,0.005041432,-0.006827719
0.9809412,-0.1765524,-0.2754369,-0.002781128,-0.001999225,-0.008977666
0.9809322,-0.1768104,-0.2731567,-0.001852732,-0.006339872,-0.005782737
0.9823062,-0.1779294,-0.2714072,-0.005418912,-0.00247488,-0.001769479
0.9800777,-0.1750994,-0.2746277,-0.009247251,0.003523889,-0.002019226
0.9783399,-0.172592,-0.2754021,-0.007391718,0.00016776,-0.00274639
0.9792818,-0.1756313,-0.2752429,-0.00292384,-0.004446126,-0.001673013
0.979378,-0.1810921,-0.2757829,0.002439644,-0.005355321,-0.002264986
0.9786539,-0.18381,-0.2765152,0.009741731,-0.009099781,-0.004205625
0.9773573,-0.1790214,-0.2766926,0.01314909,-0.007971823,-0.005813166
0.9759755,-0.1722319,-0.2749045,0.01043786,-0.002808288,-0.008514226
0.9765936,-0.1730031,-0.2750075,0.00903387,0.001765208,-0.008402901
0.9796843,-0.1748484,-0.275041,0.01019023,-0.0006806459,-0.00734673
0.982142,-0.1738303,-0.2747725,0.009893379,-0.009942249,-0.01076503
0.9821494,-0.1755224,-0.2753708,0.009932503,-0.01007234,-0.01088192
0.9808732,-0.1763608,-0.274663,0.01231678,-0.008035592,-0.00628283
0.9801395,-0.1759725,-0.2751386,0.01366996,-0.006384283,-0.004506785
0.9805265,-0.1767589,-0.2756479,0.01228226,-0.001202346,-0.003749958
0.9797266,-0.1752523,-0.2773875,0.01001182,-0.002661413,-0.001794154
0.9787332,-0.1752671,-0.2804925,0.004929669,0.0006233113,-0.001431129
0.9792243,-0.178887,-0.2797983,-0.0008168332,0.01240377,-0.001535432
0.9794437,-0.181449,-0.2777485,5.418345e-05,0.02142161,0.0006853443
0.980342,-0.1809015,-0.2742027,0.004413655,0.02320892,0.003180518
0.9826251,-0.1786684,-0.2700694,0.005833389,0.01144112,0.003826374
0.9840002,-0.1775722,-0.2695097,0.00448755,0.0007640166,0.003286982
0.9831695,-0.1734616,-0.2675411,0.002356892,0.003594591,0.002817432
0.9815457,-0.166665,-0.2643507,0.0007370177,0.001934844,0.004629008
0.9792989,-0.1639685,-0.2661774,-0.002977825,-0.006630695,0.01120964
0.9769559,-0.1650865,-0.2751674,-0.007626945,-0.004756391,0.01845342
0.9786042,-0.1723196,-0.2855462,-0.007179054,-0.001745708,0.01620848
0.9814284,-0.1809264,-0.2836909,-0.005835028,-0.006027363,0.01000699
0.9821972,-0.1803014,-0.2787513,-0.005203819,-0.004204097,0.008372035
0.9833001,-0.1773875,-0.2835599,0.001027884,-0.004731277,0.004948111
0.9810568,-0.1778725,-0.2823748,0.006066833,-0.008859248,0.005632781
0.9780441,-0.1760673,-0.2791906,0.004016442,-0.005995348,0.01076963
0.9812036,-0.1743954,-0.2820258,0.002933166,-0.005913005,0.0108048
0.9840328,-0.1747159,-0.2797285,0.004552718,-0.006430098,0.01351425
0.9826702,-0.1730275,-0.2788842,0.003978441,-0.007421388,0.01329171
0.9805745,-0.1732597,-0.2744838,0.003462332,-0.01043181,0.009383918
0.9784777,-0.1744221,-0.2659953,0.004382785,-0.01032654,0.01550875
0.9787349,-0.172944,-0.2697841,0.004758017,-0.01647149,0.01800135
0.9802138,-0.1746823,-0.2729775,0.00868371,-0.02112555,0.01192307
0.9813415,-0.1783887,-0.2724455,0.01317545,-0.01918337,0.009042639
0.9859211,-0.1813534,-0.2755622,0.009927979,-0.01691202,0.009078701
0.9886548,-0.1816111,-0.2743699,0.004631617,-0.009683934,0.007916067
0.9839541,-0.1794358,-0.2711229,0.00341009,-0.01069962,0.003635061
0.979333,-0.1818911,-0.2692301,0.005520916,-0.02123745,0.00463568
0.9786267,-0.1827403,-0.2735646,0.0117319,-0.02547698,0.007171626
0.9791659,-0.1810725,-0.2861367,0.01827898,-0.02270088,0.002985461
0.9792754,-0.182379,-0.2923535,0.01967178,-0.01626463,0.001293695
0.978059,-0.1808637,-0.2853664,0.01890505,-0.01603264,-5.820843e-05
0.9775005,-0.1800522,-0.2786663,0.01989423,-0.01815146,-0.0005551313
0.9778436,-0.180937,-0.2819846,0.0192825,-0.01583035,0.002082167
0.9777783,-0.1804288,-0.2826509,0.01850397,-0.01743186,0.0007053748
0.9779822,-0.1816804,-0.278685,0.02241349,-0.01765138,0.001420036
0.9786262,-0.1815874,-0.2813933,0.02548035,-0.01644093,0.002635231
0.9794579,-0.1792835,-0.2830178,0.02373925,-0.01483434,0.001612961
0.9793087,-0.1775286,-0.2827827,0.02173885,-0.009802516,0.003681255
0.9788815,-0.1801192,-0.2838617,0.01977749,-0.01134672,0.005166153
0.9793511,-0.1845584,-0.2796119,0.01743363,-0.01327062,0.007259424
0.9791599,-0.1834142,-0.2764748,0.0212302,-0.01130249,0.005215719
0.9790455,-0.1827161,-0.2762031,0.02644988,-0.0116815,-0.001776356
0.9786073,-0.1835875,-0.2759808,0.02016327,-0.009541029,-0.002520129
0.9754852,-0.1812017,-0.2777507,0.01178468,-0.007228148,-0.001442784
0.9729049,-0.1800521,-0.2792104,0.01151299,-0.006020051,0.001350612
0.975013,-0.1805114,-0.2818773,0.01181221,-0.005231378,0.005364018
0.9776886,-0.1807231,-0.2827405,0.0114076,-0.006849129,0.003139978
0.9762672,-0.1802075,-0.2827454,0.009715981,-0.006715108,0.002965839
0.9755861,-0.1785724,-0.2845116,0.004831979,-0.007688342,0.004401461
0.9761685,-0.1785371,-0.2822871,-0.00163839,-0.009650518,0.004152058
0.974788,-0.1828016,-0.2816833,-0.007128173,-0.008560404,0.006908897
0.9765401,-0.1877581,-0.2824847,-0.005274701,-0.006053196,0.007637317
0.9785659,-0.1847621,-0.2823571,-0.003693082,-0.001099238,0.006800565
0.9757113,-0.1803504,-0.2851799,-0.007987094,0.001070123,0.007175657
0.97474,-0.1824543,-0.2847976,-0.009106579,0.0001515226,0.007118052
0.9779971,-0.182623,-0.2847331,-0.009339903,0.001046155,0.007173859
0.9810656,-0.183201,-0.2868757,-0.008431108,-0.003456211,0.00579038
0.9808338,-0.1868084,-0.2865749,-0.005312108,-0.007256967,0.003472172
0.9787424,-0.1859335,-0.2862608,-0.006019049,-0.0003991871,0.001685418
0.9773667,-0.1839313,-0.2842902,-0.00472295,0.004651558,0.001632622
0.976179,-0.1831318,-0.2831443,-0.001911156,0.0001096574,0.001515981
0.9778917,-0.182721,-0.2835384,-0.0037868,-0.004004404,-0.0006134137
0.9803078,-0.1827703,-0.2845258,-0.006470073,-0.001317815,-0.0003998589
0.978443,-0.1805892,-0.2858385,-0.008944975,0.00210973,0.0006058079
0.9760972,-0.1808914,-0.283715,-0.01038873,0.003271987,0.0009813255
0.9748253,-0.1854883,-0.2832534,-0.009660215,0.0001491282,0.002966782
0.9754906,-0.1888164,-0.2814912,-0.007974238,-0.006207251,0.003090906
0.9783699,-0.1884031,-0.2787325,-0.005038933,-0.003134219,0.002902622
0.9787093,-0.1855653,-0.2808561,-0.00472484,0.004406729,0.004058415
0.9781433,-0.184174,-0.2773249,-0.006090087,0.006773721,0.003971245
0.9779777,-0.1832962,-0.273725,-0.003566899,0.008368449,0.003697077
0.9772658,-0.1813399,-0.2764936,-0.002528669,0.008041425,2.177074e-05
0.9780775,-0.1797929,-0.2765226,-0.005125158,0.008109366,-0.005462446
0.9773516,-0.1784088,-0.2789926,-0.005354086,0.006094726,-0.003482982
0.9747127,-0.1777294,-0.2839961,-0.004993332,0.002967877,0.001492532
0.9739053,-0.178141,-0.2850861,-0.004933773,0.007879081,0.001955583
0.9766592,-0.181474,-0.286003,-0.003537727,0.01038918,0.0003971371
0.9808274,-0.1847063,-0.2862854,-0.003697176,0.009761873,-0.002038178
0.9791747,-0.1836568,-0.2830675,-0.003807174,0.01063711,-0.003344873
0.9761287,-0.1847827,-0.2809081,-0.001674412,0.006991529,-0.002473747
0.9766361,-0.1879701,-0.2815809,-4.201852e-05,0.004118234,-0.003067098
0.9750846,-0.1878454,-0.2795303,-0.0005692022,0.000215016,-0.004180585
0.9746849,-0.187148,-0.2766623,-0.001467859,-0.003682645,-0.003216279
0.9757491,-0.1872198,-0.2776287,-0.001356515,-0.0007113385,0.001019415
0.9765406,-0.1853258,-0.2781741,-0.003010384,0.001381131,0.005736621
0.9795282,-0.1813019,-0.2765546,-0.005926355,0.0008637005,0.003915243
0.9792349,-0.1799725,-0.2765828,-0.006488673,0.001889493,-0.0006340682
0.9768628,-0.1824988,-0.2792415,-0.005811224,0.005483819,-0.001100616
0.976565,-0.1841292,-0.2813477,-0.006161129,0.00867681,0.0007371094
0.9777913,-0.1833398,-0.2802806,-0.007563082,0.007316598,0.003315116
0.9801333,-0.1829163,-0.2780673,-0.008476518,0.005666419,0.003304166
0.979288,-0.183856,-0.2789912,-0.009042546,0.005525185,0.001703772
0.9784942,-0.1839995,-0.2811169,-0.01189119,0.004514555,0.002540716
0.9797807,-0.1840704,-0.2784326,-0.01519817,0.004114469,0.002173322
0.9790963,-0.1848954,-0.273586,-0.01347316,0.005412165,0.003501744
0.979942,-0.1871396,-0.2724556,-0.01037545,0.005337093,0.005841518
0.9806104,-0.1896415,-0.2762508,-0.01166164,0.004472798,0.000566164
0.9773061,-0.1863699,-0.2810018,-0.0125354,0.006404464,-0.003918023
0.9737637,-0.1832069,-0.2793683,-0.01353164,0.006019787,-0.001322657
0.9735447,-0.1860485,-0.2763004,-0.01451874,0.0003818936,0.0002386951
0.9775203,-0.1867763,-0.2787217,-0.009086506,-0.004075316,0.0003933803
0.9804191,-0.1858327,-0.2806362,-0.005977287,-0.001373391,0.00237982
0.978868,-0.1871524,-0.2816131,-0.00999806,0.003499942,0.002356534
0.9768467,-0.1874484,-0.2825286,-0.01256683,0.002519478,-9.986635e-05
0.976339,-0.1857396,-0.2815129,-0.01174504,0.002566283,-0.0002339556
0.9771297,-0.1840301,-0.2826175,-0.01025417,0.003822547,-0.0001352861
0.9783847,-0.1845789,-0.284792,-0.009779528,0.000894504,-0.0002555058
0.9786114,-0.1850192,-0.2860257,-0.006320434,0.001329648,0.001129531
0.9780399,-0.1831331,-0.2837889,-0.0005341367,0.004677865,-0.001037793
0.9769203,-0.1813133,-0.2784639,-0.0006487488,0.007555804,-0.004741905
0.97584,-0.1802652,-0.278627,-0.007386507,0.007715931,-0.004675025
0.9767477,-0.1812026,-0.2800754,-0.01428202,0.002688204,-0.003211911
0.9785356,-0.1828698,-0.2796904,-0.01252962,-0.0004224071,-0.003405116
0.9793479,-0.1828513,-0.2819843,-0.005531258,-0.001712953,-0.003433124
0.979338,-0.1842385,-0.2823327,-0.002635809,-0.002144848,-0.001751552
0.9778032,-0.1852891,-0.2816412,-0.002410438,-0.0003804921,-0.0006499528
0.9765464,-0.1834886,-0.2823022,-0.002974298,-0.0003686656,-0.0002371217
0.9767051,-0.1829905,-0.2827251,-0.00205582,-0.0003729389,-0.00155604
0.9779202,-0.1834941,-0.2829651,-0.0004506708,-0.001123356,-0.00172269
0.9796224,-0.1832831,-0.279844,-0.0009578266,-0.001486392,-0.001200176
0.9775468,-0.1833646,-0.2764387,-0.003631537,0.0008504863,-0.004938375
0.9752288,-0.183301,-0.2777256,-0.009041782,0.002592665,-0.003883666
0.9766924,-0.1829879,-0.2801416,-0.01009642,0.004824015,-0.002319247
0.9766344,-0.1815753,-0.2825838,-0.009932775,0.004160242,-0.004917313
0.9760311,-0.1799474,-0.2856334,-0.01530111,0.0006123451,-0.002080472
0.9766192,-0.1804114,-0.2844623,-0.01717689,0.0004973915,-0.001061083
0.9761494,-0.1812825,-0.2819508,-0.01637009,0.002815655,0.0001271582
0.9754495,-0.1821418,-0.283984,-0.01585462,0.005719501,0.002099294
0.9751598,-0.1843659,-0.2848105,-0.01390927,0.005844243,-0.0008194795
0.9768016,-0.1865837,-0.2851203,-0.01331436,0.003487615,0.0009150509
0.9794499,-0.1886408,-0.2871097,-0.01226239,0.0001822135,0.001010532
0.9791906,-0.1895524,-0.2858112,-0.009152347,-0.003953957,-0.0007682247
0.9768479,-0.1870934,-0.2857872,-0.002353258,-0.0009116835,0.0005108614
0.9750634,-0.1841151,-0.2867023,0.001688646,0.004128664,-0.002647302
0.975135,-0.182048,-0.2855998,-0.001338202,0.00168703,-0.004540337
0.9778306,-0.1809663,-0.2854501,-0.001644442,-0.003293167,-0.004456794
0.979573,-0.1815488,-0.2817213,-0.002320109,-0.008474782,-0.003687009
0.9765927,-0.1803716,-0.2778766,-0.004435718,-0.007963617,-0.001824031
0.9738739,-0.1799671,-0.2816432,-0.001702028,-0.004618072,-0.002611269
0.976063,-0.1816392,-0.2877552,0.002084226,-0.007888924,-0.00199777
0.9780103,-0.1823177,-0.2887825,0.00710297,-0.006778894,-0.001795208
0.97693,-0.1855719,-0.2826317,0.007833826,-0.001003903,-0.001696865
0.9771722,-0.1869309,-0.2771769,-4.358843e-05,0.001592766,-0.0007736191
0.9789897,-0.1836455,-0.2804844,-0.004266753,0.00297493,-0.002124543
0.9795461,-0.1828875,-0.2839602,0.000362045,0.001226493,-0.002555739
0.9789368,-0.1830062,-0.2805664,0.006324503,0.001381488,-0.003776145
0.9781009,-0.1816225,-0.2777912,0.006500224,0.000721588,-0.003940372
0.9776679,-0.1800819,-0.2775613,0.002739322,-0.002693832,-0.002457715
0.9774732,-0.1801154,-0.2814906,-0.000634649,0.0009815838,-0.003441633
0.9769745,-0.1806778,-0.2889672,-0.002784748,0.003253183,-0.002318321
0.9761791,-0.1775549,-0.2863289,-0.001969599,0.001081103,0.0006463173
0.9757693,-0.1757813,-0.2811741,-0.003344843,-0.000896011,0.003677656
0.9749376,-0.1788199,-0.2828325,-0.00780909,-0.004716064,0.006328628
0.9729469,-0.1825837,-0.2809434,-0.007978104,-0.005063494,0.007046733
0.9737929,-0.1839285,-0.280139,-0.00666981,-0.005746534,0.008798921
0.9769775,-0.1813678,-0.2804434,-0.005883924,-0.00761214,0.007747688
0.9776232,-0.179701,-0.2797118,-0.004087257,-0.005335997,0.002836215
0.9752426,-0.1810804,-0.2826346,-0.002748827,-0.005545993,0.002280969
0.9715868,-0.1825291,-0.2818138,0.002253207,-0.005779402,0.003874099
0.9719065,-0.183712,-0.2815021,0.01079313,-0.004224781,0.002615013
0.9752675,-0.1833791,-0.2824398,0.01354302,-0.005065309,0.003815593
0.9768369,-0.1819369,-0.2794845,0.01004869,0.000333557,0.005597979
0.9790135,-0.1810816,-0.2799718,0.008609958,0.006468569,0.002249481
0.9806874,-0.1809695,-0.2808925,0.008402663,0.002279301,0.0006602473
0.9816886,-0.1814586,-0.2814293,0.009030418,-0.0001632406,0.0001855287
0.9807436,-0.1816535,-0.2824996,0.01327607,0.001305744,-0.002818515
0.9760054,-0.1826661,-0.2809967,0.01351642,0.001169774,-0.002534269
0.9760761,-0.1836597,-0.2802316,0.01024325,0.004054092,-0.002360487
0.9789455,-0.1814833,-0.2797886,0.007244302,0.00862278,-0.003156717
0.9791515,-0.1796433,-0.2801282,0.002492286,0.01363248,-0.003525742
0.9796252,-0.1807461,-0.2767161,0.001908866,0.01504927,-0.007314323
0.978466,-0.1807953,-0.2714396,-0.001000518,0.01314013,-0.007449987
0.9772853,-0.179359,-0.2728762,-0.009872878,0.01495841,-0.004337363
0.9763046,-0.1762682,-0.2732507,-0.01097093,0.01390902,-0.00506324
0.9759942,-0.1722224,-0.2746921,-0.01305367,0.01046479,-0.004270413
0.9789266,-0.173356,-0.279031,-0.02140364,0.007401292,-0.0009580139
0.9793252,-0.177441,-0.277499,-0.02083271,0.001854755,0.0008236684
0.9781255,-0.1807969,-0.271556,-0.01855874,0.002256964,-2.178562e-05
0.9778984,-0.184573,-0.2651792,-0.01908907,0.003141399,-0.001655608
0.9785876,-0.1829619,-0.2725483,-0.01291666,0.0001503807,-0.001011276
0.9817312,-0.1793969,-0.2891288,-0.009889614,0.003675118,-0.001908454
0.9818704,-0.180993,-0.2912756,-0.01512302,0.00934626,-0.002380789
0.9785235,-0.1814819,-0.2846638,-0.01956807,0.01237499,0.001213285
0.9744225,-0.1836887,-0.2787421,-0.01706067,0.005628846,0.002164853
0.9722698,-0.188918,-0.2745382,-0.007201767,-0.01039344,0.0016506
0.9746542,-0.1887388,-0.2704501,0.0003260082,-0.01305321,0.002014739
0.9768795,-0.1880306,-0.2677344,0.003746388,-0.00573245,0.0006149601
0.9798542,-0.1874142,-0.2751465,0.008229169,-0.002987231,-0.003322722
0.9818886,-0.1833789,-0.2784903,0.01176686,-0.003179416,-0.008387237
0.9799117,-0.1822416,-0.2756431,0.01485756,-0.00652076,-0.005692579
0.9804342,-0.1819759,-0.2798478,0.02090741,-0.005713377,-0.001946531
0.9810637,-0.1799332,-0.2821366,0.02626836,-0.001689791,-0.007815447
0.980054,-0.1804385,-0.2824412,0.02370297,-0.001204732,-0.0127692
0.9811819,-0.1821257,-0.2829172,0.02101719,0.0005349531,-0.0145925
0.9823445,-0.1828826,-0.282987,0.02038029,0.003082278,-0.0146232
0.9827995,-0.1823588,-0.2840631,0.01181907,0.006477191,-0.01215838
0.9793216,-0.1772399,-0.2817026,0.002849812,0.006944904,-0.01233989
0.9744258,-0.1713893,-0.2817748,-0.005213386,0.002439087,-0.009372424
0.9757711,-0.1734007,-0.2820119,-0.01367895,1.814993e-05,-0.002830576
0.975591,-0.1769049,-0.2795303,-0.01626729,-0.002787215,0.001244652
0.971315,-0.1760038,-0.2792429,-0.01868686,-0.002746368,0.003562115
0.9720331,-0.177082,-0.2785925,-0.01783414,4.439234e-05,0.002412347
0.9749259,-0.1793354,-0.2798979,-0.01348834,-0.001682639,0.001037201
0.9786843,-0.1815584,-0.2815038,-0.01243406,-0.0002666848,0.0003854412
0.9835013,-0.1849132,-0.2836319,-0.01094771,0.003675588,-0.002051063
0.980406,-0.1862391,-0.2860223,-0.01128049,0.006037522,-0.002002407
0.9751764,-0.1854214,-0.2831903,-0.01144077,0.006736219,-0.002674165
0.9756957,-0.1826799,-0.2828401,-0.007254056,0.002087966,-0.003755611
0.9754486,-0.1824247,-0.2842604,-0.0006307168,-0.001135329,-0.0001398309
0.9775101,-0.1846696,-0.284625,0.006424647,-0.003051822,-0.0006324187
0.9824358,-0.183364,-0.2869949,0.005449983,-0.007105497,-0.00454461
0.9824141,-0.1823839,-0.2856711,0.001464285,-0.008166063,-0.002810797
0.981169,-0.1797348,-0.2829026,0.002596995,-0.007217025,0.0003173108
0.9803606,-0.1763768,-0.2808995,0.001160427,-0.006870696,0.002498994
0.9785502,-0.1789011,-0.2777968,0.0009047525,-0.009994808,0.0007773491
0.9782632,-0.1799091,-0.2768477,0.007285957,-0.01356424,-0.004545583
0.9760051,-0.1811582,-0.2805705,0.01210393,-0.01392189,-0.003176406
0.9728287,-0.1822913,-0.2870609,0.01204412,-0.01578752,-0.001257959
0.9760135,-0.1757367,-0.2865338,0.01244828,-0.01933197,-0.002775442
0.9806571,-0.1721194,-0.2811559,0.01719159,-0.02184272,-0.001518443
0.9799333,-0.1746946,-0.2808897,0.02010663,-0.01896256,-0.004292077
0.9794564,-0.1766146,-0.2838013,0.01731593,-0.01057555,-0.008259594
0.9803538,-0.1767002,-0.287431,0.0154963,-0.002188129,-0.006808212
0.9796834,-0.1757505,-0.287519,0.01663319,0.0003173706,-0.00497611
0.98101,-0.1758097,-0.2882628,0.01834073,-0.004975247,-0.003569964
0.982436,-0.1747305,-0.2933247,0.01969727,-0.005344838,-0.0005880037
0.9819596,-0.1740515,-0.2903252,0.02088662,0.000365421,0.004794908
0.9815499,-0.1729702,-0.286253,0.02075,0.005779151,0.008898095
0.9800432,-0.1699067,-0.2873011,0.01217504,0.01832303,0.01113156
0.9787797,-0.172744,-0.2835304,-0.006744386,0.02767462,0.01281593
0.9781993,-0.1768201,-0.2820297,-0.0223338,0.01713976,0.01086016
0.9758712,-0.1764226,-0.2827148,-0.02276392,0.001273171,0.009975033
0.9725656,-0.176444,-0.2805862,-0.01964086,0.002180033,0.0108533
0.9730466,-0.1763258,-0.2806067,-0.02419398,0.006892962,0.01228007
0.9758519,-0.1763455,-0.278888,-0.0277109,0.003821113,0.01663571
0.9756151,-0.1767212,-0.2777526,-0.02942558,0.005954846,0.0177852
0.9764831,-0.177271,-0.2775274,-0.03331652,0.002163113,0.01741601
0.9772287,-0.1796191,-0.2738648,-0.03391239,-0.006200962,0.01831241
0.9766316,-0.1823632,-0.2755683,-0.029163,-0.003011925,0.0153716
0.9797703,-0.1852447,-0.2789466,-0.01688357,-0.001648035,0.01021763
0.9814101,-0.187111,-0.2781385,-0.001105141,0.001895238,0.005963902
0.9811879,-0.1870174,-0.2795477,0.004262931,0.009147647,0.005552221
0.9790779,-0.1851382,-0.2799007,0.004433132,0.004383532,0.002844745
0.9746001,-0.1822921,-0.2802851,0.01075574,-0.002156507,-0.006955148
0.9761919,-0.1827618,-0.2835404,0.01389301,-0.0040852,-0.008117901
0.977501,-0.1833365,-0.2846821,0.01482107,-0.007370899,-0.002628066
0.9754283,-0.181097,-0.2863381,0.01930591,-0.009494801,-0.004174064
0.9776279,-0.1816469,-0.2869802,0.01942227,-0.01133979,-0.00444602
0.9810651,-0.1823957,-0.2843527,0.02185845,-0.01581262,-0.003695939
0.9838728,-0.1834371,-0.2818959,0.02745686,-0.01663503,-0.006270261
0.9819736,-0.1882424,-0.2781415,0.02727765,-0.01428173,-0.005227548
0.9760734,-0.1883507,-0.2780597,0.02761987,-0.01558955,-0.003833652
0.9758504,-0.1849025,-0.2799379,0.02805479,-0.01486615,-0.004242402
0.9768657,-0.1834938,-0.274951,0.02736362,-0.01308125,-0.003879106
0.9760124,-0.1803023,-0.2730371,0.02898889,-0.01324021,-0.004534075
0.9766666,-0.1798268,-0.278908,0.0309496,-0.01000327,-0.004780176
0.9762731,-0.1825289,-0.283376,0.03189775,-0.00913624,-0.005497743
0.9763042,-0.1827436,-0.2821803,0.02709421,-0.01291841,-0.007279831
0.9768077,-0.1835386,-0.2774451,0.02121769,-0.01769163,-0.006555159
0.9769999,-0.1831493,-0.2773998,0.02059175,-0.0201331,-0.003097818
0.9782519,-0.1801171,-0.2805039,0.01495964,-0.01269617,0.002150203
0.9774827,-0.178887,-0.2815141,0.00523173,-0.004382307,0.005700413
0.9756723,-0.1797031,-0.2823972,0.003706474,-0.006022365,0.005913469
0.9747599,-0.1812232,-0.2808842,0.004911911,-0.006325736,0.008521674
0.9746246,-0.1806835,-0.2806747,0.001106332,-0.002563993,0.01315503
0.9756026,-0.1799636,-0.2845603,-0.003204566,-0.003579629,0.01397109
0.9757817,-0.1811011,-0.2855348,-0.007811918,-0.005936686,0.01407853
0.9764508,-0.1803682,-0.27946,-0.01114507,-0.008701642,0.02024746
0.9768389,-0.1800009,-0.2720755,-0.01179091,-0.01114833,0.02717157
0.9760916,-0.1788222,-0.2743443,-0.01584861,-0.01108592,0.02477904
0.9774634,-0.1750548,-0.2770873,-0.01916142,-0.01510233,0.01929408
0.978198,-0.1758675,-0.2743934,-0.0190765,-0.01415783,0.01863544
0.9772065,-0.1823943,-0.280891,-0.02067241,-0.004834178,0.01616719
0.9764377,-0.1879169,-0.2905762,-0.02315192,0.002386444,0.009681732
0.9763817,-0.1851856,-0.293708,-0.0267318,0.009506821,0.002992308
0.9795322,-0.1810419,-0.2927355,-0.02684583,0.009915161,-0.002050436
0.9828106,-0.1845922,-0.2895125,-0.02285815,0.01125259,-0.00497773
0.9829958,-0.1866895,-0.2896917,-0.02369375,0.02081378,-0.009313452
0.9808247,-0.1866186,-0.2879624,-0.02412327,0.01941894,-0.01401983
0.9771707,-0.1859958,-0.2836893,-0.02019916,0.01851475,-0.01668026
0.9769292,-0.1813366,-0.2841391,-0.01877486,0.02283534,-0.01905356
0.9777376,-0.1811548,-0.2829236,-0.01909358,0.0183321,-0.02132869
0.9756809,-0.1813928,-0.2822786,-0.01928832,0.01647298,-0.02332923
0.9758394,-0.1793165,-0.2865185,-0.01884161,0.01643143,-0.02442204
0.9752141,-0.1828261,-0.2880659,-0.01771499,0.01827242,-0.02775252
0.9721736,-0.1848582,-0.2872204,-0.01683621,0.02452733,-0.03111748
0.9719953,-0.1853127,-0.2886356,-0.01406711,0.02349879,-0.02914027
0.9717227,-0.1849741,-0.2903557,-0.01113774,0.02187969,-0.02920099
0.9717672,-0.1808281,-0.2902809,-0.009894117,0.02031329,-0.03047299
0.9731516,-0.1805052,-0.2901739,-0.007948079,0.01694484,-0.02893133
0.9731119,-0.1816334,-0.2893988,-0.005540904,0.02090887,-0.0284037
0.9754911,-0.1828403,-0.2884398,-0.005096002,0.02190837,-0.02552842
0.9775184,-0.184477,-0.289038,-0.005246431,0.01721437,-0.02290342
0.9755994,-0.1837204,-0.2883724,-0.004494744,0.01600241,-0.02146578
0.9744708,-0.1860275,-0.2861261,-0.006261758,0.01675089,-0.01583815
0.9730608,-0.1861336,-0.2841971,-0.005832633,0.01653481,-0.01305144
0.9712948,-0.1818251,-0.2853381,0.001984007,0.008858608,-0.0144036
0.9715822,-0.1795745,-0.2885651,0.006710154,0.0002969271,-0.01162652
0.97416,-0.1781756,-0.2901717,-0.0005590638,0.002680738,-0.006269444
0.9786067,-0.1777775,-0.291904,-0.01158633,0.002713068,-0.002824475
0.9786443,-0.1765565,-0.2899899,-0.01358835,-0.005152666,-0.0004863923
0.9768252,-0.1760106,-0.2845662,-0.01412543,-0.008991703,0.002668585
0.9792383,-0.1768313,-0.282729,-0.01760007,-0.01296258,0.009929512
0.9795754,-0.1757949,-0.2806122,-0.01159878,-0.02000676,0.01780398
0.9781851,-0.1757151,-0.2776294,-0.006010498,-0.01852741,0.01838871
0.9768549,-0.1748151,-0.2764888,-0.009115075,-0.01434689,0.01847058
0.9741455,-0.1745371,-0.2745475,-0.01035853,-0.01613792,0.02139439
0.975588,-0.1754859,-0.2753244,-0.01115732,-0.01520678,0.02338664
0.9774507,-0.1734716,-0.2801081,-0.01358245,-0.0172161,0.02859052
0.9762859,-0.1725181,-0.2831022,-0.01432407,-0.02310104,0.0304079
0.9784406,-0.17264,-0.2822772,-0.01135444,-0.0203786,0.02835954
0.9818209,-0.174584,-0.2812393,-0.00490379,-0.01803988,0.02917105
0.9824222,-0.1775117,-0.2813451,-0.001337393,-0.01681435,0.0266317
0.9816862,-0.1754761,-0.2776914,-0.005176824,-0.01167113,0.02491104
0.980688,-0.1743307,-0.2741032,-0.009077116,-0.01383058,0.0234477
0.979576,-0.1764839,-0.2792434,-0.002600462,-0.01821914,0.01782428
0.978736,-0.1775538,-0.2843078,0.005190594,-0.017841,0.01767969
0.9791883,-0.1776448,-0.2817735,0.006258278,-0.01447747,0.01727021
0.9795833,-0.1758286,-0.2811542,0.007719852,-0.007111992,0.01109587
0.9796334,-0.17344,-0.2840794,0.007725708,-0.003844346,0.007851134
0.9800429,-0.1732177,-0.2851421,0.006864852,-0.0008962811,0.003503306
0.9788742,-0.1742522,-0.2868091,0.007505251,0.007723161,-0.005342077
0.9774578,-0.1753839,-0.2884177,0.005450632,0.008703082,-0.005628205
0.976174,-0.176767,-0.2885649,0.003688101,0.00522506,0.0002309997
0.9742067,-0.1769769,-0.2885348,0.004438417,0.005516482,-0.002120994
0.9748302,-0.1769329,-0.2871439,0.00789549,0.003630939,-0.003249631
0.9754263,-0.1791395,-0.2880536,0.01083768,0.002107798,-0.00130576
0.97345,-0.1791955,-0.2902399,0.008064429,-0.00222899,-0.003770397
0.9725516,-0.1760203,-0.2902352,0.005532696,-0.009333321,-0.0006175821
0.9725912,-0.1750966,-0.2924592,0.00690705,-0.00590725,0.003766606
0.9746679,-0.1782909,-0.2940796,0.009656824,-0.002183043,0.003873491
0.9775754,-0.1820903,-0.2941272,0.01645823,-0.004230672,0.004225262
0.9759473,-0.1810679,-0.2944417,0.02277946,0.001243207,-0.0008662409
0.9730652,-0.1805106,-0.2901187,0.01558655,0.00424326,-0.006519154
0.9719205,-0.1839307,-0.2858436,0.005789145,-0.001814964,-0.006524576
0.9719421,-0.1834324,-0.2860289,0.01031429,-0.004352645,-0.00538954
0.9735765,-0.1818711,-0.288865,0.01174516,-0.001677535,-0.004367997
0.9741968,-0.1822066,-0.2949011,0.005863352,0.003243193,-0.003270346
0.9751866,-0.1813489,-0.2999634,0.007136623,0.006375528,-0.0009006661
0.977128,-0.1812821,-0.2990964,0.006507837,0.005201696,-0.0002558358
0.9764685,-0.1805682,-0.2940019,0.004523788,0.003875806,-0.00117605
0.9756368,-0.181523,-0.2926789,0.0057225,0.003400801,0.0009121832
0.9749071,-0.1854966,-0.29362,0.004158682,0.002437428,0.002651136
0.97298,-0.1866932,-0.288969,0.004540046,0.0006806766,0.004597675
0.9733204,-0.1860125,-0.2850102,0.004110632,-0.0006047895,0.007813286
0.9741554,-0.1849998,-0.2844726,0.001072771,-0.000901151,0.008492063
0.9731328,-0.1838893,-0.2828259,-0.0006142392,-0.001353654,0.006514062
0.9726664,-0.1825647,-0.2830208,-0.001891124,-0.001911371,0.003943558
0.9723812,-0.1814183,-0.2867957,-0.0009862511,-0.0002053514,0.005242564
0.9731191,-0.1836088,-0.2894717,-0.003148209,0.005090825,0.007419089
0.9763399,-0.1842124,-0.2887678,-0.007112199,0.00836769,0.005771973
0.978784,-0.1824713,-0.2890505,-0.007530588,0.007970777,0.005747432
0.9795208,-0.1837792,-0.2899526,-0.00825641,0.007906018,0.005566572
0.9789845,-0.184503,-0.2902236,-0.005681696,0.007759512,0.003118156
0.9770211,-0.1843366,-0.2914625,-0.001132831,0.00489739,0.004010548
0.9756825,-0.184121,-0.292702,-0.0001012084,-0.0001700838,0.004260699
0.9744619,-0.1818606,-0.2939637,0.0004157668,-0.00110878,0.002716415
0.9734124,-0.1815288,-0.2920695,0.001675131,0.000587021,0.003668832
0.9745188,-0.1823325,-0.2906366,0.002323561,0.0005188277,0.003107449
0.9761901,-0.1819003,-0.2903985,0.001281691,0.00158557,0.001404981
0.9753348,-0.1827088,-0.2863344,0.0006586037,0.001976139,8.857083e-05
0.9718129,-0.1827953,-0.2873198,0.0006681879,0.001880636,-0.00273035
0.9704519,-0.1816285,-0.288078,0.001437503,0.0001391018,-0.003813355
0.9737287,-0.1824909,-0.2833431,0.004292445,-0.003520045,-0.001742266
0.9770382,-0.1857376,-0.2824157,0.004701735,-0.002294366,0.001132014
0.9765978,-0.1883604,-0.2813622,0.005757617,-0.002165224,0.003096786
0.974934,-0.1869403,-0.2819658,0.01136695,-0.00714707,0.0069219
0.9755397,-0.1853014,-0.2840172,0.01612178,-0.01061452,0.0102787
0.9776595,-0.1874451,-0.284796,0.0176813,-0.009341329,0.005921084
0.9798904,-0.1889822,-0.2891159,0.01687853,-0.001383673,0.001168406
0.9796962,-0.1880992,-0.2893106,0.01641468,0.005078774,0.0004648984
0.9779768,-0.1847686,-0.2873392,0.01293627,0.004353188,0.0006486638
0.9777796,-0.1782225,-0.287805,0.006041489,0.002870575,0.004513189
0.976035,-0.1744038,-0.2867906,0.0048729,0.0001574934,0.007960502
0.9756421,-0.1752117,-0.2869897,0.002961523,-0.0003015555,0.009956975
0.9773187,-0.1766482,-0.2862116,-0.002921583,0.005240298,0.01251197
0.9759427,-0.1801484,-0.2873961,-0.003366064,0.00485445,0.01100185
0.9758594,-0.1838174,-0.2901985,-0.002555682,-0.001974382,0.0085692
0.9751514,-0.1854091,-0.2878311,-0.001831996,-0.002882455,0.006446487
0.9724987,-0.1898659,-0.2850357,0.001593096,0.00373222,0.001447525
0.97407,-0.1926378,-0.282875,0.002885178,0.01027256,-0.001357227
0.9760156,-0.1867899,-0.2834331,0.001393421,0.008412565,-0.0008105921
0.9773397,-0.1811647,-0.2860238,-0.0004563218,0.00477849,-0.002094651
0.977664,-0.180469,-0.2850873,0.0001492145,0.006414843,-0.003391193
0.9729379,-0.1780823,-0.2875105,0.0006111657,0.003061157,-0.001419799
0.9692007,-0.177199,-0.2906126,-0.001011565,-0.002245763,0.0005380766
0.969733,-0.1820296,-0.2888625,0.0006481566,-0.00295249,0.001715149
0.9698946,-0.187257,-0.2913254,0.003934077,-0.004196862,0.002293715
0.9698809,-0.1901129,-0.2958493,0.006487747,-0.00344226,0.002017897
0.9739256,-0.1892936,-0.2959784,0.00693629,-0.003413766,0.005319678
0.9779236,-0.1878961,-0.2958821,0.006043674,-0.005488907,0.007524406
0.9756373,-0.1894871,-0.2959099,0.008749743,-0.004706455,0.002457013
0.9738581,-0.1891654,-0.295208,0.008863927,-0.002864262,-0.0018661
0.975527,-0.1890455,-0.2941556,0.007019256,0.0004724176,-0.003371928
0.9749276,-0.1898986,-0.2914993,0.00715512,0.002240201,-0.005631614
0.9737373,-0.1866185,-0.291068,0.004390548,0.003533574,-0.004357588
0.973638,-0.1853689,-0.2913453,0.00563189,0.005827645,-0.001414634
0.9732384,-0.1877922,-0.2867616,0.008557813,0.002890001,-0.001401748
0.9728315,-0.1895096,-0.2822412,0.0061011,0.002417587,-0.002661549
0.9718316,-0.1912102,-0.2818553,0.005265958,0.006968204,-0.004860302
0.9710578,-0.1921393,-0.2823522,0.003339431,0.008427062,-0.005945686
0.9712706,-0.1925278,-0.2817099,0.001010524,0.005062447,-0.005552667
0.9725448,-0.1898153,-0.2817894,0.002910106,-0.001426666,-0.004864165
0.9751534,-0.1849941,-0.2823237,0.002383044,-0.004627405,0.0001518898
0.9756206,-0.185918,-0.2825245,-5.050761e-05,-0.006299982,0.004828608
0.974439,-0.1888276,-0.286467,-0.001144175,-0.005987606,0.001365852
0.975016,-0.1888907,-0.2908129,-0.00116301,-0.0001276717,-0.00288114
0.9742535,-0.1892761,-0.290528,0.000182859,0.001968675,-0.001856946
0.9730279,-0.1897141,-0.2892999,0.000658914,0.0007822832,-0.000621484
0.9739667,-0.1903653,-0.2866507,0.0008667765,-0.001559241,0.000328528
0.9747542,-0.1906862,-0.2823626,0.001343296,-0.004050751,0.001649835
0.9760276,-0.1898508,-0.281359,0.0004397716,-0.001871366,4.198757e-07
0.9768847,-0.1900469,-0.2836103,-0.002400434,-0.001887519,-0.002671266
0.9760354,-0.1886885,-0.2872734,-0.006317075,0.001605605,-0.003650336
0.9750724,-0.1866073,-0.2927279,-0.007340955,0.007943467,-0.001546243
0.9730722,-0.1875725,-0.296032,-0.005537065,0.002932271,0.001717606
0.9714829,-0.1878219,-0.293703,-0.001872055,-0.0001004479,0.001189786
0.9725919,-0.1871856,-0.2910593,0.00620464,0.004094654,-0.0008870878
0.9745238,-0.1876473,-0.2919391,0.01209942,0.005455641,-0.003463649
0.9761654,-0.1876799,-0.2921959,0.01060726,0.007561965,-0.004734793
0.9769188,-0.1883243,-0.2886549,0.009210944,0.008005884,-0.003523291
0.9762199,-0.1892307,-0.2872149,0.009559539,0.003260956,-0.005029378
0.9761982,-0.1887771,-0.2900999,0.008208287,0.0005587291,-0.005329729
0.9763347,-0.1878014,-0.2890289,0.008950714,0.001273038,-0.005070397
0.9744107,-0.1873278,-0.2878459,0.01051492,0.0003485766,-0.006256068
0.9730601,-0.1874357,-0.2886954,0.008511078,0.002646882,-0.003769864
0.9737341,-0.1875885,-0.2816651,0.006605884,0.008466541,-0.002852392
0.9754327,-0.1875012,-0.2742755,0.002019003,0.008455962,-0.001399283
0.9787818,-0.1874294,-0.2750675,-0.003053583,0.005341037,0.001507446
0.9812876,-0.1875665,-0.2804011,0.003276073,0.002572587,-0.001234015
0.9789634,-0.1873125,-0.286637,0.0103381,0.003186076,-0.004385166
0.9751815,-0.1865539,-0.2883798,0.008411749,0.007631687,-0.008197134
0.9745115,-0.185919,-0.2873575,0.005594965,0.01032728,-0.01259668
0.9740997,-0.1859403,-0.2867486,0.001091855,0.01728873,-0.01079732
0.9755739,-0.1863366,-0.2871673,-0.004502553,0.02362016,-0.008253323
0.9794544,-0.1853284,-0.2879184,-0.006775602,0.02027337,-0.00905842
0.9788274,-0.1824314,-0.2852759,-0.006888405,0.01796738,-0.008442124
0.9781145,-0.1805394,-0.2845663,-0.008295494,0.02123375,-0.008278975
0.9783519,-0.1844513,-0.2877166,-0.01201788,0.02296695,-0.01148412
0.9753164,-0.189198,-0.2888548,-0.01124477,0.0209429,-0.0141095
0.9760654,-0.1846573,-0.2855603,-0.009716005,0.02025216,-0.01632104
0.9771502,-0.1793953,-0.2808503,-0.01406101,0.02016549,-0.01621869
0.9745382,-0.1809659,-0.2822123,-0.01632975,0.01917997,-0.01238053
0.9740949,-0.1815935,-0.2831967,-0.01567484,0.01985448,-0.008995777
0.9738077,-0.1818717,-0.2783232,-0.01409742,0.0173038,-0.005060062
0.9750465,-0.1824486,-0.2768693,-0.0110873,0.01202127,-0.005881748
0.9769222,-0.1816176,-0.2780153,-0.01028957,0.007532122,-0.009208696
0.9735673,-0.1833968,-0.2785913,-0.007276514,0.005922898,-0.007927093
0.9712112,-0.1855372,-0.2818404,-0.002646981,0.006363664,-0.009506158
0.9733923,-0.1864172,-0.2869837,-0.004110787,0.002110531,-0.01009508
0.9758804,-0.1862848,-0.2887587,-0.007336686,0.001197879,-0.009646262
0.9786739,-0.1845309,-0.2857985,-0.007986742,0.006818716,-0.01109353
0.9809824,-0.1837943,-0.2846983,-0.008446578,0.008859007,-0.007559135
0.9784219,-0.1830872,-0.2851561,-0.007828289,0.006036549,-0.005981017
0.9746662,-0.1832539,-0.2851696,-0.005074213,0.001965808,-0.003575856
0.9766479,-0.1848693,-0.2858101,-0.002926786,0.003291174,-0.0003511459
0.9779833,-0.1855557,-0.2813792,-0.002734888,0.004871509,-0.004000921
0.9766103,-0.1865329,-0.2759154,-0.002536296,0.002260151,-0.004391513
0.9784082,-0.1858659,-0.2780817,-0.001650621,0.001939372,-0.005907726
0.9795595,-0.1838998,-0.2835239,-0.001485351,-0.0012307,-0.007263881
0.9784945,-0.1831957,-0.2869241,-0.0006035341,-0.003654381,-0.001823684
0.9756077,-0.1829367,-0.2872939,0.001801548,-0.0006780697,-0.0005799791
0.9724698,-0.1833155,-0.2840851,0.001811529,0.001613916,0.001265883
0.9745462,-0.1815864,-0.2805232,0.0004974298,0.004135299,0.00100595
0.9768596,-0.1796561,-0.2819709,-0.0004153576,0.003842208,-0.004008431
0.9762505,-0.1814676,-0.2847538,-0.002601683,0.004387393,-0.002144774
0.9764155,-0.184308,-0.2845545,-0.002051595,0.005979415,-0.0008597902
0.9764262,-0.1866095,-0.2846236,0.000216391,0.0008422769,-0.002029138
0.9763243,-0.1845561,-0.2829773,-5.27218e-06,-0.0005903593,-0.0009854239
0.9764491,-0.1800874,-0.2810211,-0.0009268157,0.001192492,-0.0001241885
0.976348,-0.1802405,-0.282377,-0.003198897,-1.333299e-05,-0.0005634989
0.9762345,-0.1812724,-0.2829707,-0.005830939,0.001655959,-0.001850369
0.9754805,-0.1820715,-0.2833713,-0.007174885,0.00231679,-0.000224995
0.9749168,-0.1836862,-0.2832899,-0.007285578,0.00193399,0.0008926295
0.9757807,-0.18171,-0.2811914,-0.005490302,0.002868535,0.002969161
0.9768657,-0.1795406,-0.2801985,-0.005489719,0.004542718,0.004685335
0.9765883,-0.1806656,-0.2800044,-0.006207727,0.008188489,-0.0006459465
0.9770067,-0.1812824,-0.2788477,-0.00480511,0.008143865,-0.004364777
0.9782972,-0.1819927,-0.2763303,-0.003803401,0.005906724,-0.004426222
0.9776261,-0.1839794,-0.2760262,-0.001640017,0.002464342,-0.001188975
0.9765985,-0.183848,-0.2796715,3.988182e-07,-0.004188452,0.002509759
0.9763701,-0.183609,-0.2840043,-0.001034187,-0.005736365,-0.000831666
0.9763682,-0.1849868,-0.2869515,-0.0003292128,-0.004587758,-0.00319284
0.9772561,-0.1829249,-0.2839171,0.001932231,-0.003571043,-0.003996137
0.9773556,-0.1799798,-0.2799703,0.003488104,0.002000388,-0.006333732
0.9769684,-0.1805052,-0.2820075,0.00346724,0.003550914,-0.005881718
0.977897,-0.1812674,-0.2809836,0.003052677,0.0001341136,-0.003451654
0.9782913,-0.1830875,-0.2786499,0.004341354,9.394756e-05,0.001204185
0.9785563,-0.1854621,-0.2813212,0.003498789,0.001597004,0.004363892
0.9803761,-0.1837314,-0.2819248,-0.001042114,0.006720425,0.001836135
0.9805475,-0.1803196,-0.2807952,-0.003453691,0.01137827,-0.0006972503
0.9775941,-0.1784329,-0.2788936,-7.991965e-05,0.003714169,0.001189049
0.9755577,-0.1773099,-0.2750722,0.00372231,-0.004300337,0.001850032
0.9765954,-0.1775871,-0.275833,0.005298451,-0.001431457,-0.0002396937
0.9789785,-0.1787333,-0.2780669,0.009998511,-0.001568889,0.0001043312
0.9812864,-0.1803969,-0.279808,0.0123856,-0.005556018,-0.0003180972
0.9822324,-0.183589,-0.28847,0.008987909,-0.002024655,-0.002519213
0.9802215,-0.1840136,-0.2934481,0.007226058,0.0004420363,-0.003943088
0.9776723,-0.181294,-0.2847126,0.004509579,-0.003402718,-0.003891666
0.9765855,-0.1801166,-0.2771984,0.002382955,-0.004131626,-0.0005796069
0.9747636,-0.1793256,-0.2788662,0.003467417,-0.002658166,0.002515519
0.9751374,-0.1813551,-0.2800893,-1.75422e-05,-0.001728843,0.004473062
0.9774959,-0.1845042,-0.2786027,-0.003209426,2.137382e-05,0.004410751
0.9762343,-0.1814814,-0.2787824,-0.002272226,0.0001724142,0.001747482
0.9760356,-0.179655,-0.2775962,-0.002305174,-0.0003506378,0.0005007777
0.9777748,-0.1828395,-0.2747127,-0.00136523,0.001155266,-0.001356878
0.97693,-0.1839704,-0.2757803,-0.0003023892,0.002660806,-0.001349176
0.9771279,-0.1830894,-0.277947,-0.001109378,0.001925917,0.001268574
0.9780201,-0.1822325,-0.2777167,-0.002495799,0.003496161,0.001039799
0.9778177,-0.181987,-0.2768871,-0.00267983,0.005710925,0.001337081
0.9781482,-0.1827848,-0.2762033,-0.002494693,0.003600993,0.002170181
0.9794214,-0.1838131,-0.2783068,-0.005391565,0.002286303,0.001624832
0.9810798,-0.1844066,-0.2836528,-0.005196567,-0.0007391557,0.0009018921
0.9796586,-0.1841358,-0.2862092,-0.002445702,-0.004375843,-0.00146736
0.9772873,-0.1823182,-0.2794928,-0.005067164,-0.00214356,-0.003454381
0.9771027,-0.1797794,-0.2722309,-0.005900512,-0.0004299624,-0.003723175
0.9771719,-0.1811823,-0.2777473,-0.004243711,0.0001248511,-0.001821173
0.9788028,-0.1840096,-0.2843822,-0.004219383,-0.001075208,0.002008369
0.9798613,-0.1831658,-0.2847187,-0.001818776,-0.005470233,0.00306366
0.9786393,-0.183185,-0.2875611,-0.001270131,-0.005991814,0.003476362
0.9782495,-0.1836803,-0.2868612,-0.001329171,-0.003451155,0.005589894
0.9773553,-0.1826044,-0.2844956,0.002308246,-0.001021865,0.003202394
0.975678,-0.1817798,-0.2868103,0.004340874,0.0002424721,-0.002153823
0.9747715,-0.1803511,-0.2846848,0.004373629,-0.001826463,-0.004369665
0.9750389,-0.1819558,-0.2832689,0.004042596,-0.005842507,-0.00302
0.9772759,-0.1843741,-0.2852282,0.005241904,-0.007046316,-0.0001486511
0.9792047,-0.1820483,-0.2833169,0.005851713,-0.002946231,0.0003528615
0.9792396,-0.1803821,-0.2833432,0.001853909,0.003517499,-0.0004482802
0.9782416,-0.1806518,-0.2826072,-0.003233628,0.007917754,-0.0003079553
0.977178,-0.1803939,-0.2805949,-0.007079526,0.003641455,0.000236402
0.9769205,-0.1806702,-0.2836903,-0.003982599,-0.002435891,0.001960733
0.9759513,-0.1800209,-0.2836731,0.002563884,0.0006346953,0.001834095
0.9742807,-0.1777811,-0.2816509,0.002732253,0.002651333,-0.001316556
0.9739293,-0.1762274,-0.2819732,0.002240963,0.002691957,-0.006034884
0.9761506,-0.178661,-0.2797696,0.001060212,0.004090761,-0.008511398
0.9797839,-0.1820221,-0.2786955,-0.001562589,-0.0002059074,-0.001655268
0.9797802,-0.1800672,-0.2792536,-0.002718877,-0.002372693,0.004995333
0.9783758,-0.1768853,-0.2792763,-0.004988339,-0.001517484,-0.000150198
0.9795741,-0.1753952,-0.2802574,-0.003725055,-0.003754392,-0.004005028
0.9792366,-0.1743661,-0.2806063,-0.001614855,-0.002653356,0.0002653671
0.9788043,-0.1765245,-0.2807474,-0.003120246,0.001808028,0.0008692491
0.9795624,-0.1787901,-0.2804684,-0.003982699,0.004286735,-0.0008428091
0.9789302,-0.179227,-0.2803907,-0.004069797,0.001411454,0.0001000387
0.9791772,-0.1796151,-0.2799846,-0.001239124,-0.001806429,-0.001128373
0.9793353,-0.1787658,-0.2758082,0.002782074,0.00018563,-0.002986742
0.9785718,-0.1791711,-0.2725168,0.003210788,0.002043133,-0.00391282
0.9775758,-0.1791702,-0.2740977,0.001421576,0.004076613,-0.003364087
0.9761171,-0.1767314,-0.2769395,-0.001395264,0.004911987,-0.0002431231
0.977921,-0.175267,-0.2793335,-0.003015401,0.003734995,0.001129499
0.9804325,-0.1748387,-0.2827286,-0.002419415,0.004583937,0.001408732
0.9797442,-0.1768714,-0.2831692,-0.001607559,0.00117898,0.001384819
0.9793648,-0.1784894,-0.2805666,-0.0009608246,-0.002708433,0.001359912
0.9785115,-0.1764408,-0.2823131,0.001870445,-0.001136101,0.001985301
0.9768502,-0.1751298,-0.2826182,0.005412141,-0.001528005,7.971635e-05
0.9773664,-0.1751522,-0.2808541,0.004182979,-0.002792065,-4.180812e-05
0.9780585,-0.176742,-0.2827634,0.002022366,-0.001841675,0.0001671707
0.9784717,-0.1783603,-0.2810568,0.002484668,-0.0007819551,-0.0007625935
0.978875,-0.1768672,-0.2779291,0.001431916,0.0001133016,0.004000285
0.9781252,-0.1758353,-0.2764038,-0.001131448,0.0002782132,0.006015527
0.9786726,-0.1764859,-0.2770732,-0.003018306,-0.001047036,0.001540301
0.9794601,-0.1763922,-0.2808705,-0.0002564583,-0.002485076,-0.002280347
0.9790555,-0.1754976,-0.2794276,0.003875663,-0.001855242,-0.002447181
0.9792663,-0.1754636,-0.2799549,0.0005538785,-0.001832688,0.0007956978
0.9790821,-0.1759632,-0.2836781,-0.001780616,-0.003603226,-0.0002456915
0.9791553,-0.1759454,-0.2810743,0.001903655,-0.004487972,-0.001920703
0.9793065,-0.1772475,-0.2792603,0.002239622,-0.002507583,-0.0003718873
0.9789534,-0.1782496,-0.2766168,-0.0001554741,0.006061578,-0.0007914208
0.979351,-0.1767377,-0.2733806,-0.003496943,0.01345436,0.0005961854
0.979098,-0.1760725,-0.2755912,-0.00835321,0.005459368,0.0008259399
0.9789157,-0.1776311,-0.2778841,-0.00922275,-0.007093643,-0.0001182944
0.9789814,-0.1795611,-0.2841449,-0.004118082,-0.006698036,0.001580997
0.9799934,-0.1820648,-0.2918111,0.002127017,-0.002131791,0.0007309256
0.982786,-0.183812,-0.2895568,0.003356886,-0.0001398196,-0.0007008743
0.9824509,-0.1817327,-0.2870206,0.002338336,0.004676339,-0.004527496
0.9809571,-0.1794814,-0.2898256,0.003063117,0.006739996,-0.009350503
0.9812818,-0.1806587,-0.2877833,0.003348913,0.004077208,-0.004619631
0.9793098,-0.181005,-0.2838205,0.004916486,-0.001271925,0.001370146
0.97753,-0.1802868,-0.2814006,0.00779741,-0.006248497,-0.0008944172
0.9779389,-0.1817869,-0.2771488,0.01018644,-0.0009741423,-0.003202066
0.9778257,-0.1830584,-0.2765022,0.009449049,0.004549926,-0.001684287
0.978651,-0.1827427,-0.2771595,0.005904006,-0.001887271,-0.000537442
0.9796109,-0.182321,-0.277003,0.00593079,-0.00795792,0.0003801989
0.9790594,-0.1813538,-0.279291,0.007288262,-0.008527206,0.0003003102
0.9790945,-0.1795067,-0.279163,0.009156778,-0.008734195,-0.003655962
0.9792715,-0.1786224,-0.2805458,0.0105684,-0.004770323,-0.00606659
0.9789093,-0.1802699,-0.2812544,0.009979066,0.0003442563,-0.000909263
0.9783225,-0.1807803,-0.2766159,0.01378472,-0.001979969,0.004282693
0.9774779,-0.1782307,-0.2764025,0.01436936,-0.005839413,0.00090694
0.9778566,-0.1764196,-0.2782666,0.01129493,-0.007833025,-0.002504508
0.9790725,-0.1763843,-0.2794324,0.01283301,-0.01116996,-0.0006816776
0.9800166,-0.1784391,-0.2797592,0.01176989,-0.01062268,-0.001475708
0.9798683,-0.1808259,-0.2772917,0.01117585,-0.006801641,-0.002403285
0.9779746,-0.1807271,-0.277968,0.01315713,-0.00416231,-0.001670526
0.977212,-0.1800884,-0.2781092,0.01170156,-0.002239038,-0.002541287
0.9778838,-0.1789553,-0.2781444,0.01130386,-0.0008479514,-0.0004548791
0.9769237,-0.1779463,-0.2799356,0.01131616,0.001672919,0.002526732
0.9759224,-0.1782109,-0.2778811,0.008928621,0.002431969,0.003222545
0.9768164,-0.1761408,-0.2779405,0.006731516,-0.001154275,0.00315539
0.9783127,-0.1712205,-0.2807447,0.001157778,-0.004568201,0.002284248
0.9795696,-0.1683527,-0.2823128,-0.008201173,-0.004525891,0.002515788
0.9796199,-0.1701293,-0.2809469,-0.01212857,-0.002756076,0.001589503
0.9796585,-0.1717923,-0.2758529,-0.01338893,-0.002051729,0.0002281032
0.9808083,-0.1712694,-0.2748998,-0.02150504,-0.0007663106,0.001747032
0.9795351,-0.1741228,-0.2787752,-0.02686785,-0.001363419,0.002783208
0.9766503,-0.177898,-0.2826553,-0.0234007,-0.004076938,0.003680741
0.9762167,-0.177118,-0.2826223,-0.02264584,-0.003481583,0.006208248
0.9772635,-0.1782005,-0.2792429,-0.02284274,-0.004387193,0.009189818
0.9779841,-0.1821723,-0.277223,-0.01680487,-0.006643025,0.009915125
0.9770015,-0.1817107,-0.274026,-0.01136675,-0.007790354,0.007873406
0.97577,-0.1812423,-0.2742861,-0.007413921,-0.008616396,0.006256443
0.9765406,-0.1833356,-0.2773188,0.0002113782,-0.003192737,0.003853356
0.9765696,-0.1837295,-0.2758162,0.009658922,0.001786695,0.003228661
0.9761174,-0.1836596,-0.2769621,0.01592393,0.001632219,0.004234241
0.9764069,-0.1800253,-0.2802831,0.01591185,0.002492694,0.0002762252
0.9754342,-0.1762914,-0.2842072,0.01472333,-0.0006381595,-0.0008828496
0.974851,-0.1782514,-0.288476,0.01453777,-0.008628766,0.004598018
0.9759005,-0.1771228,-0.2874977,0.01222502,-0.01214233,0.007681675
0.9765781,-0.1758687,-0.2886952,0.01392396,-0.009705494,0.006491125
0.9753927,-0.1797667,-0.2886809,0.01830663,-0.008674415,0.002705177
0.9735708,-0.1811547,-0.2806508,0.01730932,-0.01013704,-0.0001802427
0.9739503,-0.1806996,-0.2755971,0.01585393,-0.01196156,0.0003711422
0.9763929,-0.1803326,-0.2754817,0.01570989,-0.01448976,0.001684679
0.9785586,-0.1804339,-0.2754438,0.01507395,-0.01209133,0.003189443
0.9781344,-0.1809732,-0.274565,0.01579776,-0.008275244,0.006623708
0.9778211,-0.1804897,-0.2744532,0.01393535,-0.008765276,0.009353033
0.9816918,-0.1825126,-0.2738555,0.009748401,-0.006111773,0.007511014
0.984373,-0.1829667,-0.2710966,0.006198082,-0.003076444,0.005354158
0.9819426,-0.1776281,-0.2723233,0.002578964,-0.00429627,0.003704929
0.9785254,-0.1724589,-0.2738848,-0.0005216324,-0.002461575,0.001172964
0.9771092,-0.17283,-0.2737825,-0.003400863,0.000706222,0.001939863
0.9779185,-0.17574,-0.2777491,-0.00444071,-0.0006151358,0.001499236
0.9786133,-0.1748329,-0.2802309,-0.004770578,-0.002081507,0.000671488
0.977457,-0.1750157,-0.280244,-0.006480011,-0.001235114,0.004521614
0.9759609,-0.1777956,-0.2803303,-0.008541138,-0.0002805659,0.007013045
0.9748098,-0.1796775,-0.2793187,-0.01106244,0.001383522,0.007174699
0.970566,-0.1824833,-0.2773408,-0.010523,0.002686341,0.007074196
0.9649823,-0.1821644,-0.276114,-0.008103756,0.002920232,0.009160296
0.9680596,-0.1815676,-0.2801408,-0.008027399,0.003271516,0.01164762
0.9747855,-0.1832533,-0.2834528,-0.008731413,0.002705934,0.007435872
0.9754893,-0.1824916,-0.2817867,-0.007602504,0.003123074,0.003171168
0.976594,-0.1825763,-0.2810066,-0.003274156,0.004913889,0.002886477
0.9771166,-0.1826144,-0.2791839,-0.0003539582,0.004593421,0.001119283
0.9754542,-0.1817036,-0.2751951,-0.002018233,0.0002395774,8.749604e-05
0.9768926,-0.1826607,-0.2743274,-0.006367407,-0.006836049,0.00119772
0.9766895,-0.1854438,-0.2778255,-0.009083779,-0.007439409,0.001725747
0.9767274,-0.1878679,-0.2811864,-0.008192343,-0.001056532,0.001709222
0.9786797,-0.1833423,-0.2824482,-0.008749091,0.001475016,0.001442003
0.9774892,-0.1786639,-0.2823205,-0.008088348,0.0003006698,0.0008375056
0.97742,-0.1824402,-0.2809949,-0.002470547,-0.0009864834,0.003005453
0.977271,-0.184442,-0.2802166,0.003178342,-0.001622085,0.00557572
0.9757356,-0.1809949,-0.2781475,0.00374157,-0.001427469,0.002814974
0.9765287,-0.1801056,-0.2780366,0.0009454349,-0.0005485836,-0.0001414002
0.9765308,-0.182652,-0.2827038,0.002339268,0.002521072,-0.0009671221
0.9761922,-0.1834154,-0.285275,0.00531356,0.003569864,-0.003108767
0.9765382,-0.1806693,-0.2843499,0.006457596,0.001558706,-0.003665281
0.9764781,-0.1786343,-0.2797144,0.005171303,-0.001887826,-0.001842728
0.9775077,-0.1816466,-0.2767863,0.00106601,-0.005382655,-0.0007789677
0.9789259,-0.184866,-0.2785923,0.001862993,-0.0009779056,-0.001291995
0.978824,-0.1829809,-0.2759482,0.00227701,0.003435484,-0.001334194
0.9755282,-0.1814671,-0.2752472,-0.001258958,-0.00383882,-0.0003043979
0.9728929,-0.1809045,-0.2783468,-0.001206414,-0.009399741,0.0002887442
0.9760695,-0.1798097,-0.2777714,-0.000604032,-0.004736829,0.002631505
0.9793056,-0.1816976,-0.2785681,0.003760215,-7.074831e-05,0.004510563
0.9778717,-0.181815,-0.2766051,0.009239454,0.001492629,9.480764e-05
0.9779636,-0.18025,-0.2748075,0.00465838,0.002411593,-0.002697851
0.979745,-0.1810176,-0.2787367,-0.0003345932,0.00214536,0.0001743226
0.9772893,-0.1799775,-0.2777975,-0.0001892757,0.00479798,-0.0007739389
0.9757447,-0.1785268,-0.2772764,-0.003735129,0.008003896,0.000731507
0.9785016,-0.1775765,-0.2797837,-0.009046459,0.005592018,0.008225911
0.9796375,-0.1762079,-0.279776,-0.01028019,0.003491962,0.009721477
0.9782805,-0.1772293,-0.2820738,-0.008524561,0.003201173,0.008038689
0.9774159,-0.1789299,-0.2818478,-0.006698785,0.001723963,0.007113453
0.9787,-0.1809517,-0.2785116,-0.008689007,0.001779878,0.005676546
0.9797535,-0.1802978,-0.2765912,-0.01178639,0.001428435,0.003706504
0.9789316,-0.1769336,-0.275821,-0.01030282,0.0002114912,1.087536e-05
0.9789417,-0.1778639,-0.2787434,-0.008293649,0.002561886,0.0008838511
0.978439,-0.1787124,-0.2801851,-0.006833336,0.005902414,0.002060997
0.9771589,-0.1798309,-0.2803942,-0.005187942,0.004957194,0.0003730968
0.9768913,-0.1833172,-0.2820276,-0.003817067,0.002480459,0.002773176
0.9762797,-0.1818308,-0.2810096,-0.0006615217,0.001956639,0.002757054
0.9763412,-0.1803208,-0.2803584,-0.001822275,0.000362396,0.0001549373
0.9775077,-0.1809587,-0.278208,-0.003920979,-0.002048751,0.0009362797
0.9779889,-0.18049,-0.2751646,-0.001396811,-0.002593594,0.004136809
0.9776306,-0.1821678,-0.2773111,-0.002692707,-0.003038165,0.007604493
0.9767859,-0.1821977,-0.2788681,-0.006161469,-0.001337165,0.005460441
0.9761595,-0.1799514,-0.2782236,-0.007950419,0.003111205,0.002493593
0.9763076,-0.1805569,-0.2788509,-0.006346402,0.00321138,0.00425155
0.9765445,-0.182803,-0.2768729,-0.001907409,0.0009096929,0.00288944
0.9763237,-0.1837689,-0.2737362,-0.003023982,0.0005652164,-0.0004283451
0.9765207,-0.1831543,-0.275202,-0.003662537,-0.0007114796,0.0003473373
0.9773799,-0.182315,-0.277732,-0.0005165771,0.0003818028,0.000756609
0.9779725,-0.1811932,-0.2789755,-0.0004474346,0.00301839,-0.001453388
0.9779055,-0.1791716,-0.281561,-0.001244229,0.002182556,-0.001946887
0.9776042,-0.1771544,-0.2824484,-0.003867727,0.0006276772,-0.00129035
0.9779971,-0.1773205,-0.281934,-0.005731554,-0.0008736584,-0.003796827
0.9787679,-0.1784325,-0.2830828,-0.003245245,-0.0003170748,-0.006451755
0.9792966,-0.1775215,-0.2846084,-0.002280048,0.002384615,-0.005120174
0.9793684,-0.1775686,-0.285872,-0.003696571,0.002705521,-0.003632552
0.9791341,-0.1785617,-0.2846939,-0.006352704,0.002059238,-0.001754231
0.980088,-0.1792106,-0.2807686,-0.007229194,0.00111112,0.0008244844
0.9809728,-0.181214,-0.2777053,-0.00436709,0.0006623648,-0.002393102
0.9802886,-0.1809014,-0.2774091,-0.003691967,0.0009755402,-0.006806766
0.9792235,-0.179517,-0.2786215,-0.003838758,-0.0002838883,-0.006249597
0.9772082,-0.1790497,-0.2799327,-0.0007938969,-0.0003340821,-0.005856166
0.9758527,-0.1762863,-0.2813294,6.801244e-05,0.0001292914,-0.005786332
0.9773037,-0.1756512,-0.2805376,-0.001731586,0.0006485069,-0.004350448
0.9783537,-0.1770394,-0.2797905,-0.002200076,0.00450294,-0.004550325
0.9776426,-0.176144,-0.2797865,-0.005232405,0.005916615,-0.004647669
0.9777849,-0.1768087,-0.2759039,-0.008192377,0.00131764,-0.002840111
0.9785336,-0.1793536,-0.2746334,-0.005373842,-0.001701484,-0.0001487187
0.9779044,-0.1807508,-0.279104,-0.003318238,0.000572811,0.002461071
0.9778788,-0.1790491,-0.282561,-0.00275676,0.002189214,-0.0002074599
0.980302,-0.1753679,-0.2825979,0.000111057,0.001254139,-0.004142539
0.9814445,-0.1746673,-0.2808526,0.001705041,0.001899686,-0.001104407
0.9801384,-0.1754291,-0.2803546,-0.0005068804,0.002251066,-0.0001244146
0.9803735,-0.1766203,-0.2791581,-0.00310199,0.001781223,-0.003676454
0.9808248,-0.1789717,-0.2792505,-0.0004897116,0.003257439,-0.003907497
0.9791376,-0.1792018,-0.2811833,0.001826909,0.003566422,-0.002640486
0.9778846,-0.1792388,-0.2776362,-0.0009441117,0.002165893,-0.001920501
0.9766992,-0.1793329,-0.2757939,-0.002095175,-0.0009172023,-0.004794902
0.9755626,-0.1787763,-0.2803722,-0.001380103,-0.007881836,-0.008172396
0.9748352,-0.1791742,-0.282213,-0.0004914955,-0.0103024,-0.004530597
0.97306,-0.1772658,-0.2777786,5.623254e-05,-0.005234203,-0.001857171
0.9743399,-0.1756567,-0.2728551,-0.00100435,-0.003155132,-0.003690742
0.9797401,-0.1767215,-0.2748483,-0.0005932397,-9.860018e-05,-0.003485801
0.9841143,-0.1775216,-0.2757488,-0.0009406073,0.006150084,-0.002532812
0.983901,-0.1789215,-0.2717358,-0.002159478,0.00280481,-0.002664657
0.9804468,-0.179512,-0.2730502,0.0004548213,-0.002392048,-0.002736423
0.9792594,-0.178891,-0.2758489,0.005071664,0.0009002514,-0.003018169
0.9792017,-0.1782542,-0.2752757,0.008662159,0.004021283,-0.003171696
0.9787884,-0.17749,-0.2746505,0.007896204,0.005454052,-0.002833067
0.9795865,-0.17704,-0.2747481,0.0048311,0.005883622,-0.002778543
0.978646,-0.1743183,-0.2744833,0.002610666,0.004061384,-0.001659437
0.9772099,-0.1710632,-0.2733628,-0.002180459,0.0022803,-0.0007099989
0.9763988,-0.1718092,-0.2762272,-0.004183746,0.0002745673,-0.002159337
0.9768752,-0.1737611,-0.2816905,-0.002360928,0.0004248528,-0.001769833
0.9793761,-0.1755958,-0.2835131,-0.0009402071,0.002474575,-0.00203146
0.9788482,-0.1795445,-0.2820809,0.002323017,0.004130281,-0.005702967
0.9788811,-0.180377,-0.2808241,-0.002287976,0.005139802,-0.00691045
0.9823004,-0.1778454,-0.2809128,-0.009696946,0.003113575,-0.005395224
0.9851639,-0.1783974,-0.27672,-0.004994656,0.0008748682,-0.0007170514
0.987342,-0.1770952,-0.272224,-0.002987301,-0.0002593419,0.003290913
0.9829773,-0.1752125,-0.2737998,-0.006158285,-0.001420337,0.001003047
0.9764274,-0.1771109,-0.2746416,-0.005125056,0.001364649,0.0002070746
0.9789661,-0.1757821,-0.2767814,-0.006599966,0.004716576,0.001792406
0.9810554,-0.1733045,-0.2805778,-0.007161768,0.003610559,0.001936723
0.9797384,-0.171978,-0.2793986,-0.006291414,0.002481852,0.003800702
0.9827212,-0.1714356,-0.2784067,-0.008193744,0.002097939,0.00438948
0.9823667,-0.1734007,-0.2792574,-0.007196792,-0.0008107029,0.003303996
0.9789365,-0.1745055,-0.2772455,-0.00656923,-0.002477384,0.002892183
0.9793751,-0.1787093,-0.2746477,-0.008682256,-0.001259712,-0.0004875468
0.9794961,-0.1825447,-0.2747696,-0.008787879,0.0001503735,-0.002324251
0.9817003,-0.179832,-0.2752675,-0.006021093,0.002431369,0.001362598
0.9842899,-0.1792249,-0.275199,-0.0004755427,0.002349208,0.00296288
0.9811335,-0.1795769,-0.2768393,0.00371296,0.0002638464,0.002200965
0.9788038,-0.1785773,-0.2783413,0.004514671,0.0008328834,0.003225734
0.9790539,-0.1795374,-0.2775742,0.00553653,0.0003719546,0.005421529
0.979053,-0.1791462,-0.2747649,0.007137533,-0.001201228,0.007596849
0.9783932,-0.1789342,-0.2701108,0.008323669,-0.001706058,0.005726776
0.9772793,-0.1791128,-0.2671557,0.008200233,-0.00131281,0.002718706
0.9780365,-0.1771575,-0.2707201,0.007663138,-0.0003242374,0.003485877
0.9788357,-0.17574,-0.2767371,0.008454525,-0.004184617,0.003529404
0.9795759,-0.17534,-0.2797252,0.008298145,-0.008370173,0.001859853
0.9812369,-0.1751921,-0.2834934,0.006292042,-0.006117703,-0.0004675135
0.9818232,-0.1758904,-0.2852853,0.002863069,-0.003353112,-0.002460689
0.9805024,-0.1775993,-0.2802918,-0.0004982937,-0.002086136,-0.001161572
0.9782798,-0.1783016,-0.2732882,9.425923e-05,-0.002000112,-0.0009528653
0.9786078,-0.1774722,-0.2709787,0.001347078,-0.002866669,-0.003683616
0.9780769,-0.1776113,-0.2781809,0.001156153,-0.001909829,-0.004560196
0.9751068,-0.177062,-0.2835883,0.004634838,-0.000532019,-0.004479213
0.9761312,-0.1758899,-0.2809687,0.007803648,0.002819044,-0.004732192
0.9787761,-0.17609,-0.2810015,0.005704262,0.006944278,-0.003999574
0.9800478,-0.1745814,-0.2801841,0.001861033,0.003669122,-0.002716587
0.9795962,-0.172011,-0.2794864,-0.001696091,-0.002903359,-0.0005703575
0.9773311,-0.1721738,-0.2818308,-0.002846171,-0.006618389,0.0006011873
0.9781624,-0.1743078,-0.2793191,-0.001993098,-0.00938858,-0.001191508
0.979906,-0.1758846,-0.276632,-0.002486243,-0.004097689,-0.003828954
0.9803757,-0.1768371,-0.2752507,-0.003945735,0.003761234,-0.005566702
0.9803303,-0.1780852,-0.2765062,-0.005441819,-0.001416269,-0.003981791
0.9783423,-0.1781179,-0.2802814,-0.004942218,-0.005748732,-6.728462e-05
0.9786944,-0.1768635,-0.2738124,-0.001986023,-0.002023351,0.0005445037
0.9780866,-0.175194,-0.2652082,0.0002943694,-0.001899987,-0.0003987579
0.975287,-0.1729514,-0.2658607,0.0002074402,-0.0005550955,0.0001097769
0.9779748,-0.1734178,-0.2717857,-2.231937e-05,0.0007240256,0.000206347
0.9812406,-0.1761615,-0.2791007,0.002383716,7.725875e-05,0.0005378036
0.9820656,-0.1766342,-0.2789383,0.002903943,0.004854379,0.0001260268
0.9814031,-0.1763644,-0.2762492,0.0007169099,0.007982949,-0.0007529439
0.9787456,-0.1764588,-0.2784024,-0.0009097463,0.007532666,0.001083858
0.9790225,-0.1762019,-0.2764291,-0.004403067,0.004965536,0.003320697
0.9795063,-0.1765762,-0.2731866,-0.005022226,-0.001155731,0.006221026
0.9784349,-0.1761569,-0.2737512,-0.001831265,-0.002548609,0.008271203
0.9776671,-0.1753775,-0.2750284,-0.001030124,-0.001922755,0.002832216
0.9759053,-0.1758404,-0.2754195,0.000121972,-0.002348237,-0.002452293
0.9770017,-0.1791538,-0.2726879,0.001285687,0.001654237,-0.0006206441
0.9784821,-0.1830746,-0.271528,0.001094408,0.004353936,0.001239933
0.9763824,-0.1795696,-0.2729788,0.002260392,0.002562034,0.00199156
0.975099,-0.1748248,-0.2741548,0.003604016,-0.0002070183,0.005573071
0.9752565,-0.1771474,-0.2774199,0.003942693,-0.002403378,0.009650323
0.9772033,-0.1795556,-0.2787668,0.003484412,-0.003510149,0.006515276
0.9811903,-0.1804043,-0.2782783,0.003092894,-0.004820667,0.001346324
0.9825106,-0.1793006,-0.2794928,0.002817406,-0.005405058,0.004036197
0.9798737,-0.1756445,-0.2793298,0.00343399,-0.005723473,0.004020563
0.9775766,-0.1760415,-0.2794483,0.005705754,-0.006862778,0.002025102
0.978473,-0.1770767,-0.2821562,0.006195455,-0.005483184,0.005617923
0.9797026,-0.1758389,-0.2850397,0.002023312,0.0001046428,0.004973814
0.9791266,-0.1765912,-0.2849243,-0.00306501,0.004330825,0.003649613
0.9789723,-0.1765208,-0.2815306,-0.002002886,0.0004407281,0.005151423
0.9789827,-0.1760715,-0.2779621,0.0006754206,-0.003750254,0.003888901
0.9773287,-0.177066,-0.2780661,0.001351715,-8.988782e-05,0.003516788
0.9757962,-0.1781667,-0.2829007,0.005808357,0.001639044,0.002842951
0.9762521,-0.1806103,-0.2835389,0.007887845,9.700607e-05,0.0003600659
0.977468,-0.1811855,-0.2800524,0.006932455,0.003441321,-0.001261639
0.9797618,-0.1800401,-0.281353,0.007510219,0.005871493,-0.001936353
0.9828043,-0.1801941,-0.2792128,0.004117763,0.0026746,-0.001481631
0.9809606,-0.1776192,-0.2731644,0.003184705,-0.002924849,-0.0009859737
0.9756942,-0.1735692,-0.2726889,0.007505899,-0.00955021,-0.000759845
0.9748197,-0.1732933,-0.2761095,0.008784687,-0.01257711,-0.0008839682
0.977676,-0.1757108,-0.2804288,0.007738815,-0.009058584,-0.001430928
0.9801281,-0.1775749,-0.2769585,0.005982983,-0.004997533,-0.002362378
0.9801012,-0.1792025,-0.270548,0.005664162,-0.0048231,-0.003631687
0.98097,-0.1820267,-0.2729868,0.006478927,-0.004924866,-0.00358638
0.9837757,-0.1827411,-0.2755934,0.004644057,-0.003376434,-0.003525014
0.9793027,-0.1806623,-0.2810327,0.00423461,-0.002732706,-0.003041043
0.9738588,-0.1782298,-0.2864325,0.006019182,-0.00349074,-0.0004335616
0.9767451,-0.1748986,-0.2782304,0.00548294,-0.004209237,-0.0004724525
0.9772381,-0.1753667,-0.2726755,0.004485973,-0.004069099,-0.002531219
0.9754694,-0.1802593,-0.2789257,0.005367414,-0.005563881,-0.001468294
0.9768292,-0.1813095,-0.282623,0.007728763,-0.009151335,0.0001876844
0.9766214,-0.180399,-0.2801821,0.009361543,-0.01191331,0.0009090116
0.9769748,-0.1813783,-0.2797648,0.008575818,-0.01211365,-0.0001315647
0.9787135,-0.1812508,-0.2807722,0.008522763,-0.008023739,-0.002575737
0.9798688,-0.1804437,-0.2765598,0.007586779,-0.003824731,-0.0001605312
0.9826735,-0.1802632,-0.2733532,0.006048616,-0.002799219,0.003633114
0.9843038,-0.1802091,-0.273357,0.007151631,-0.004106017,0.004395899
0.982691,-0.177991,-0.2722816,0.006320628,-0.00715147,0.006454617
0.9814742,-0.1752631,-0.273711,0.007841832,-0.005705911,0.007857378
0.9811085,-0.1770547,-0.2758215,0.01019489,-0.001352314,0.007228548
0.9806988,-0.1805116,-0.2749967,0.007935019,-0.0002922432,0.006560088
0.9799158,-0.1815111,-0.2735992,0.009949834,-0.001753695,0.006041783
0.9785318,-0.1771605,-0.27359,0.01091449,-0.00485631,0.004292388
0.9790922,-0.171235,-0.2738421,0.009054322,-0.006297403,0.0006141338
0.9794992,-0.1731995,-0.2748561,0.009322541,-0.006709301,0.0004202635
0.9777859,-0.175171,-0.2781942,0.006473288,-0.009652558,0.002921818
0.97768,-0.1728242,-0.2786982,0.004351198,-0.01274069,0.004792617
0.9780172,-0.1757287,-0.2729767,0.001851377,-0.01043538,0.005742768
0.9785225,-0.1784308,-0.2675932,0.0008296198,-0.005609326,0.003831659
0.9794964,-0.1774628,-0.2709031,0.005176221,-0.007603765,0.004999749
0.9781719,-0.178176,-0.2762333,0.006762253,-0.01065207,0.008213928
0.9773659,-0.1787826,-0.2752738,0.007768339,-0.01154912,0.00877774
0.977876,-0.180375,-0.2775287,0.009173521,-0.01191399,0.008166918
0.9776327,-0.1819321,-0.281734,0.009027977,-0.005344668,0.001723134
0.9768895,-0.1807493,-0.2813592,0.008987956,-0.001615823,-0.003025142
0.9762204,-0.1795696,-0.281907,0.007902195,-0.00463725,0.001322591
0.9772578,-0.1783662,-0.2812931,0.007646289,-0.006749007,0.005178336
0.9775241,-0.1773515,-0.2801056,0.007198605,-0.0129021,0.005247543
0.9741435,-0.1762063,-0.2816355,0.007690108,-0.01847425,0.00411006
0.9710054,-0.175959,-0.2822605,0.00941369,-0.0158539,0.003295884
0.9724243,-0.1784389,-0.2821598,0.009439194,-0.0115972,0.00175888
0.9759241,-0.1807494,-0.2826618,0.009423953,-0.01090136,0.0001798132
0.9776146,-0.1834548,-0.2836865,0.007750305,-0.01209935,-0.0001941273
0.9784498,-0.1842247,-0.2831778,0.00688419,-0.01359535,-0.001578212
0.978793,-0.1821584,-0.2809528,0.009687537,-0.01347613,-0.0001684453
0.9799647,-0.1818142,-0.2794202,0.01229818,-0.01019076,0.002188543
0.9813869,-0.1806308,-0.2788027,0.01336073,-0.007656273,0.001437179
0.9802229,-0.1821441,-0.28057,0.01264428,-0.006435135,0.001658677
0.9803614,-0.1874431,-0.2828639,0.01171604,-0.007355948,0.002834592
0.9808356,-0.1873933,-0.2825207,0.01046584,-0.010602,0.003207848
0.9792346,-0.1836817,-0.2782659,0.009228053,-0.009974794,0.001039357
0.9787454,-0.1803973,-0.2735289,0.009231384,-0.009711227,-0.002393079
0.9773265,-0.1787045,-0.2771304,0.007761612,-0.01095748,-0.004212968
0.9758139,-0.1787012,-0.281633,0.007199564,-0.009000767,-0.005337197
0.9767173,-0.1808276,-0.2804789,0.007940373,-0.007258409,-0.005345799
0.9783374,-0.1866782,-0.2855966,0.007627752,-0.004780018,-0.004661706
0.979335,-0.1870291,-0.291382,0.007450914,-0.003914324,-0.003075442
0.9774863,-0.1829484,-0.2876345,0.006185781,-0.006383431,-0.001953574
0.9755263,-0.1840046,-0.2852842,0.005665113,-0.006514232,-0.001965514
0.9763922,-0.1859154,-0.2865073,0.005552817,-0.005980334,-0.0005779582
0.9771156,-0.1877587,-0.2850212,0.005226284,-0.0055631,-0.0009024441
0.9779122,-0.1865386,-0.2839288,0.008865082,-0.004263309,-0.001370497
0.9793495,-0.1824626,-0.2835144,0.009633748,-0.005203964,0.001390769
0.9776016,-0.1824595,-0.282765,0.003342936,-0.008658545,0.002799079
0.97452,-0.1806759,-0.2828953,-8.693182e-05,-0.01098096,0.001325199
0.975862,-0.1811193,-0.2802987,0.002429502,-0.01084144,-0.0001720087
0.9780215,-0.1853706,-0.2777079,0.003928517,-0.01122164,0.0006873115
0.9777661,-0.1840708,-0.2799251,0.0006800736,-0.008762681,0.0009639988
0.9776746,-0.1851698,-0.2814305,-0.001540639,-0.004543545,-0.001389703
0.9771796,-0.1872798,-0.2826611,0.0007873571,-0.006971292,-0.002374381
0.9776819,-0.1844642,-0.2870899,0.002434532,-0.00883483,-0.002035187
0.9788578,-0.1846698,-0.2899787,0.002791841,-0.005725184,-0.001910416
0.9773945,-0.1859106,-0.2898745,0.002829581,-0.003061869,-0.002329213
0.9754853,-0.1860856,-0.2880177,0.001440696,0.0002661701,-0.002878151
0.9749904,-0.1863015,-0.285631,0.0003243735,-5.693826e-05,-0.001737612
0.97569,-0.1846685,-0.2832162,-0.002268367,-0.00335336,0.0003364305
0.9768406,-0.1836792,-0.2813746,-0.004682485,-0.003311387,0.001896743
0.9761605,-0.1831069,-0.2838359,-0.001780016,-0.003357565,-5.842103e-05
0.9742462,-0.1831334,-0.2866844,0.00147278,-0.0009054635,-0.003079442
0.9732959,-0.1835402,-0.2861374,0.001414753,0.002856507,-0.001917596
0.973419,-0.1819791,-0.2859912,-0.0001436636,9.367762e-05,-0.002649695
0.9740071,-0.1808201,-0.2861681,-0.004465384,-0.002420212,-0.00530014
0.9745194,-0.1801695,-0.2855689,-0.006097661,-0.001759872,-0.003567461
0.9750757,-0.1793224,-0.2834454,-0.002608952,-0.00303868,-0.001356714
0.9751281,-0.1785035,-0.2816066,-0.002860735,-0.003796647,-0.0002620707
0.9738353,-0.1782356,-0.284389,-0.004274508,-0.002478834,0.0004190645
0.9733433,-0.180458,-0.2874751,-0.003583682,-0.0002270546,0.0009359974
0.9737321,-0.1803093,-0.2856242,-0.006439056,0.000806739,0.002974274
0.9735344,-0.1756082,-0.2827071,-0.007768297,-0.001619874,0.001550355
0.973681,-0.1727664,-0.2806412,-0.006088914,-0.006637788,-0.001515947
0.9735848,-0.1749442,-0.2761668,-0.006618342,-0.01240893,-8.415519e-05
0.9740929,-0.1784968,-0.2722886,-0.005523014,-0.01364021,0.001053003
0.9765931,-0.1798539,-0.2730979,-0.002168528,-0.0101937,0.002746067
0.9793488,-0.1822897,-0.2744371,-0.0003791678,-0.007905776,0.005677233
0.979855,-0.1831946,-0.2742755,-0.0007193526,-0.002364943,0.003223751
0.978818,-0.1800078,-0.277715,-0.001387903,0.004924442,0.001884877
0.9800854,-0.1786406,-0.2824261,-0.001573364,0.003268716,0.004973037
0.9808191,-0.1764728,-0.2811964,-0.005412189,0.0004545724,0.004103573
0.9784524,-0.177845,-0.2815263,-0.009728268,0.002170211,0.001058581
0.9774593,-0.1836368,-0.2865618,-0.008650324,0.0008329079,-0.001483097
0.9785612,-0.1810855,-0.2866855,-0.009053654,0.001223849,-0.001551839
0.979691,-0.1788649,-0.2849892,-0.01176966,0.003942087,0.004719243
0.9788749,-0.1798611,-0.2837987,-0.009721277,0.002500735,0.007028696
0.9773282,-0.1768714,-0.2809738,-0.005051112,-0.0008806934,0.003292262
0.9780128,-0.1786304,-0.2812573,-0.002612995,-0.003817439,0.004173583
0.9793616,-0.1811347,-0.2808948,-0.007055254,0.0009726238,0.006037404
0.9796685,-0.1801947,-0.2781572,-0.01500602,0.007890983,0.006039795
0.9786435,-0.1808356,-0.2791518,-0.01557394,0.00312757,0.005000876
0.9779487,-0.1811535,-0.2818047,-0.01346217,0.0002378993,0.002511025
0.9767158,-0.1840459,-0.2865879,-0.01387822,0.003705092,0.004668247
0.9738009,-0.1874266,-0.2942732,-0.01080812,0.002697305,0.007434092
0.9729433,-0.1864577,-0.2934228,-0.006655673,0.002706176,0.006280328
0.9722634,-0.1869012,-0.2865718,-0.004348244,0.003382996,0.006365504
0.9719734,-0.1907911,-0.2881868,-0.004515708,0.00297263,0.005968121
0.9741659,-0.1918133,-0.2907452,-0.006754052,0.004287212,0.002959888
0.9739981,-0.1866234,-0.2888946,-0.005964048,0.002470114,0.0006733434
0.9730998,-0.181307,-0.2914602,-0.004040214,-0.00117422,0.002309441
0.9736507,-0.1811893,-0.2932569,-0.001884453,-0.00353751,0.005719264
0.9729578,-0.1827673,-0.29276,-0.001733553,-0.001021049,0.006917381
0.9726929,-0.1827664,-0.2935839,-0.006759893,0.005741781,0.006651199
0.9740364,-0.1832612,-0.2904013,-0.008433974,0.004988824,0.005013832
0.97485,-0.1843845,-0.2877635,-0.006786582,0.001354264,0.002594147
0.9748706,-0.1856005,-0.2825838,-0.004520105,0.002406479,-0.001257554
0.9752416,-0.1883431,-0.2720953,-0.0007492258,0.0003098057,-0.003746704
0.9749467,-0.1877781,-0.274698,-0.002156571,-0.002012203,0.0003263331
0.9748141,-0.1837762,-0.2813419,-0.004532589,0.001736059,0.00451903
0.9752821,-0.1803104,-0.2787582,-0.002846268,0.006064872,0.005979673
0.9748002,-0.1761023,-0.2827148,-0.001935679,0.006718951,0.004657112
0.9750193,-0.1767642,-0.2867515,-0.002050297,0.006504708,0.0001947096
0.97497,-0.1802417,-0.2835755,-0.003856226,0.006235656,-0.0006624806
0.9740605,-0.1802937,-0.2829587,-0.007300493,0.004552607,-0.0002023866
0.9742446,-0.1814969,-0.2827162,-0.009142977,0.004003246,0.001487592
0.9743687,-0.1822479,-0.2867855,-0.008446307,0.003648518,0.00429069
0.9743251,-0.1833293,-0.2922848,-0.007396835,0.003267019,0.002903691
0.9740932,-0.1845275,-0.2884672,-0.008130275,0.004997508,0.003306369
0.9735614,-0.1832478,-0.284743,-0.008026952,0.006254051,0.004328896
0.9734634,-0.1856124,-0.2855369,-0.007045424,0.007277323,0.004587092
0.9736273,-0.1871065,-0.2848594,-0.005895046,0.008054399,0.006155561
0.9737594,-0.1869914,-0.2851181,-0.003048319,0.006892025,0.002821082
0.9734466,-0.1881785,-0.2871926,-0.002872061,0.006194904,-0.001292076
0.9736519,-0.185059,-0.2875644,-0.004386822,0.007640839,-0.002436554
0.9737271,-0.1838805,-0.2871795,-0.003395231,0.006197849,-0.002301465
0.9735872,-0.1839615,-0.286262,-0.002375649,-0.001726241,-0.001217037
0.9748604,-0.1812191,-0.2859702,-0.002061039,-0.005461491,-0.001070554
0.9760987,-0.1823778,-0.2902185,-0.006446056,0.001109037,0.0003175797
0.976526,-0.1855208,-0.2922127,-0.01450591,0.009471729,0.0004790134
0.9755491,-0.1867002,-0.2878821,-0.01544903,0.01146698,0.000568177
0.9742735,-0.1842214,-0.2848361,-0.01118495,0.006269605,0.004995907
0.9746136,-0.1821967,-0.2861444,-0.008320959,0.003814086,0.007720349
0.9755972,-0.1838458,-0.2887641,-0.005024707,0.006261174,0.006259601
0.9784247,-0.1833407,-0.2889912,-0.001858719,0.006942564,0.0005027456
0.9797498,-0.1832419,-0.2888588,-0.001446107,0.007263153,-0.004412887
0.9755697,-0.1845687,-0.2891226,-0.001635822,0.006822679,0.0009245847
0.9712601,-0.1846959,-0.2884892,-0.000968989,0.004825455,0.006584047
0.9704877,-0.185018,-0.288854,-0.002369974,0.002994556,0.003064181
0.9726182,-0.1842883,-0.2870609,-0.003764349,0.0009178214,0.0003338459
0.974535,-0.1838439,-0.2853023,-0.002882327,-0.0009135818,0.0007950205
0.9738788,-0.1834588,-0.2863216,-0.002853407,0.001132628,-0.0004299885
0.9750128,-0.1838019,-0.2865081,-0.002488214,0.008071046,0.0003700894
0.9773288,-0.1854605,-0.288215,-0.002700541,0.01024771,0.00164036
0.9764379,-0.1848083,-0.2912322,-0.005513378,0.002712793,0.001339328
0.9759005,-0.1854676,-0.2923744,-0.006582887,-0.004671175,0.001789942
0.9767867,-0.1876869,-0.2908842,-0.004257113,-0.002413281,-0.001776362
0.9762909,-0.1874288,-0.2876977,-0.001543832,0.001028623,-0.007578324
0.9762424,-0.186572,-0.2852868,-0.002252767,-0.001093529,-0.008984304
0.9766162,-0.1860092,-0.2847599,-0.003042988,0.004065163,-0.004606877
0.9762254,-0.1868685,-0.2873295,-0.0001949137,0.01008852,0.0005276724
0.9760678,-0.1878877,-0.2924167,0.0004216946,0.006885039,-0.002254657
0.9746779,-0.1865047,-0.2970279,-0.001091923,0.005702142,-0.005937943
0.9732984,-0.1856661,-0.2940954,-0.00152981,0.005700663,-0.003378649
0.9752889,-0.1863854,-0.2882918,-0.00229318,0.003977671,0.001626048
0.9771289,-0.1871068,-0.2914641,-0.004519084,0.002345962,0.004612908
0.9754803,-0.1874894,-0.2928881,-0.007506705,0.002096287,0.0005110913
0.9742965,-0.1865552,-0.2901333,-0.004988049,0.004168303,-0.001110164
0.975255,-0.1847896,-0.2900327,-0.001315821,0.003932428,0.001656901
0.9753166,-0.1843749,-0.2855743,-0.004045502,0.005440113,0.0002216828
0.9754372,-0.1849038,-0.2838336,-0.004531189,0.005961846,0.001277336
0.9761565,-0.1847215,-0.2886511,-0.002070495,0.001729241,0.001742397
0.9753173,-0.1849902,-0.2922422,-0.001205554,0.00198388,-0.0001257463
0.9744747,-0.1866062,-0.2935756,-0.0001134616,0.004811585,0.0009504343
0.9736331,-0.1879834,-0.2898455,-0.002485334,0.00702057,-0.0002942972
0.972994,-0.1877295,-0.2858265,-0.004910241,0.00733839,-0.0007402052
0.9743943,-0.1869271,-0.2858368,-0.001411296,0.003725394,0.0001784318
0.9754688,-0.1864138,-0.2861281,0.0007310779,0.003308172,0.0001830815
0.9765234,-0.1841761,-0.2863111,-0.003649915,0.01003138,0.0009197525
0.9766734,-0.18242,-0.2866471,-0.01036326,0.01648856,-0.002826666
0.9739839,-0.1835398,-0.2889745,-0.01359543,0.01171685,-0.006550955
0.9731884,-0.1835901,-0.2893556,-0.0110182,0.005868475,-0.005348274
0.9737499,-0.1835243,-0.2852032,-0.007028269,0.01034445,-0.005952484
0.9736785,-0.1862248,-0.2850457,-0.006115376,0.0107363,-0.009534605
0.9745071,-0.1882862,-0.287289,-0.005964619,0.007820546,-0.01080909
0.9743966,-0.18773,-0.285791,-0.004626116,0.009679364,-0.009617047
0.9745409,-0.1868256,-0.2854671,-0.003757189,0.009776775,-0.01051974
0.9759962,-0.1868145,-0.2860935,-0.002899365,0.01018357,-0.01147965
0.9768357,-0.186004,-0.284916,-0.001009162,0.00887383,-0.01096403
0.9766276,-0.1856683,-0.2862406,0.0008925639,0.005387054,-0.01065048
0.9769166,-0.1864022,-0.286814,0.001455714,0.007844787,-0.008119501
0.9783612,-0.1848845,-0.2847923,0.0005461405,0.01134192,-0.005787537
0.9776637,-0.1833682,-0.2838009,-0.002274631,0.01256756,-0.00758873
0.9762768,-0.1836654,-0.2814388,-0.005922473,0.01077482,-0.01073447
0.975482,-0.184916,-0.2826032,-0.005905391,0.005268628,-0.01002138
0.9734993,-0.1863437,-0.2875731,-0.002923084,0.004252431,-0.006994393
0.9734099,-0.1834139,-0.2890682,-0.0002319454,0.005273752,-0.007575914
0.9736436,-0.1793136,-0.2915,0.001650854,0.003065711,-0.008229411
0.9730492,-0.1789843,-0.2944919,0.000170353,0.002657821,-0.005083171
0.9748107,-0.1794067,-0.293357,-0.003492586,0.006367975,-0.00306936
0.9769897,-0.1806371,-0.2894525,-0.003749937,0.009768064,-0.004546476
0.9769196,-0.1819445,-0.2873649,-0.001192027,0.005419411,-0.007065243
0.9757651,-0.1835802,-0.2896034,-0.001417488,0.0009149153,-0.008770002
0.9764948,-0.1872422,-0.2892047,-0.001846162,0.006877338,-0.009041539
0.97678,-0.1868856,-0.2880484,0.0002948893,0.01274014,-0.009189995
0.9758525,-0.1836161,-0.2882205,-0.0002431414,0.01222244,-0.008717998
0.976726,-0.180493,-0.2814326,-0.001199502,0.008518994,-0.005273679
0.9767589,-0.1752221,-0.275946,-0.003269199,0.004318945,-0.004253521
0.9778753,-0.1779813,-0.28009,-0.007450214,0.00585868,-0.004929031
0.9797545,-0.1852947,-0.2839142,-0.006010044,0.007748914,-0.00158069
0.9772924,-0.1828151,-0.2814053,-0.004760958,0.005454597,-0.003229777
0.9755157,-0.1807147,-0.2795307,-0.00540415,0.005082257,-0.006610624
0.9768644,-0.1811397,-0.2817873,-0.002429103,0.00301306,-0.00404914
0.9780616,-0.1794867,-0.2836986,-0.001585716,0.00053934,-0.005122651
0.977927,-0.1812467,-0.2853507,-0.001381883,0.00436848,-0.006373065
0.9767332,-0.180647,-0.2841758,0.0008342109,0.007046573,-0.00407893
0.9767041,-0.1796693,-0.2822605,0.002306088,0.005592496,-0.001202528
0.9766841,-0.1808817,-0.2854735,0.002802514,0.006049341,0.004523719
0.9759865,-0.1793869,-0.2876889,-0.001522414,0.008351381,0.005632297
0.9764884,-0.1794283,-0.2892772,-0.007053764,0.009311433,0.003724847
0.9765858,-0.178765,-0.2888177,-0.004845111,0.008441448,0.005477941
0.9761196,-0.1798418,-0.2829912,-0.001673363,0.008735459,0.00472291
0.9765298,-0.182939,-0.2797043,-0.001868844,0.01155143,0.0001872747
0.9767958,-0.1821253,-0.2796858,0.003540451,0.01403383,-0.004435203
0.9780008,-0.1847662,-0.2808789,0.007508828,0.01331019,-0.003551194
0.9798914,-0.1829535,-0.2794658,0.00236497,0.01109429,0.001601704
0.9791164,-0.1752475,-0.2771216,5.857967e-05,0.01107082,0.002069598
0.9772827,-0.1761822,-0.2776729,0.002824231,0.01095532,0.001188092
0.9751596,-0.1769298,-0.2744206,0.004286282,0.008952026,0.001412501
0.9727983,-0.1762511,-0.2756663,0.004368457,0.007928683,-0.001806393
0.9742584,-0.1797181,-0.2805863,0.004763975,0.0094251,-0.003453978
0.9759859,-0.1809477,-0.2795635,0.005116265,0.0112466,-0.001345625
0.9746217,-0.1805894,-0.2822272,0.002482151,0.008654393,-0.001265183
0.9749997,-0.1784164,-0.281968,0.0006304192,0.005026762,-0.002362251
0.9768244,-0.1774339,-0.2773024,0.001341617,0.005185969,-0.00237168
0.979028,-0.180098,-0.2801059,0.000962362,0.005553814,-0.002436583
0.9806847,-0.1819841,-0.2829634,0.002670326,0.006322817,-0.001897823
0.9763046,-0.1834217,-0.2831956,0.004761323,0.007598332,-0.0008226694
0.9725989,-0.1831561,-0.2804552,0.002232844,0.007515142,-0.0006852614
0.9789609,-0.1821632,-0.2749684,-0.002635963,0.008044659,-0.002110299
0.984549,-0.1808868,-0.27439,-0.00641603,0.008040847,-0.002348618
0.9810855,-0.1788995,-0.2761137,-0.005843968,0.006670207,5.646987e-06
0.9769304,-0.1794601,-0.2794577,-0.004019375,0.005739007,0.0001787686
0.9742765,-0.1801917,-0.2833784,-0.005027157,0.005739307,-0.002152391
0.9717019,-0.1815767,-0.2822861,-0.004366768,0.005659093,-0.003606858
0.9734311,-0.1826512,-0.2811156,-0.003733645,0.004295745,-0.003347942
0.9761495,-0.1807662,-0.2823574,-0.005172073,0.003524617,-0.002731269
0.9764815,-0.1784951,-0.2817236,-0.004069971,0.004670176,-0.006052795
0.9770837,-0.1754401,-0.2797784,-0.00320012,0.006430069,-0.009626903
0.9778862,-0.17657,-0.278898,-0.002093305,0.006524742,-0.008086634
0.9796489,-0.1819857,-0.2789436,0.0006096926,0.00507141,-0.00618359
0.9797503,-0.1840746,-0.2791892,-0.0001790258,0.005441471,-0.005648698
0.9783205,-0.1834202,-0.2783479,-0.0001543744,0.005519779,-0.00445365
0.9796217,-0.181035,-0.2779525,0.003053835,0.003978224,-0.00373475
0.9792843,-0.1799574,-0.2814834,0.004783637,0.003888482,-0.004442687
0.9783096,-0.1808665,-0.2840446,0.005027507,0.002274493,-0.005010686
0.9779337,-0.180398,-0.2802911,0.005382805,-0.001067356,-0.004997893
0.9758626,-0.1804385,-0.2750529,0.008120084,-0.002582669,-0.005910572
0.9779755,-0.1793664,-0.2741616,0.009490978,-0.001644443,-0.006282225
0.9800264,-0.1769205,-0.2751006,0.005475209,0.002714589,-0.007618593
0.9768425,-0.1759848,-0.2731691,0.002368904,0.004933469,-0.008886474
0.9747636,-0.1763548,-0.272222,0.002902743,0.002193944,-0.002356951
0.974986,-0.1780325,-0.2759785,0.003221742,0.0005157071,0.004656542
0.9762084,-0.1800198,-0.2798217,0.002992385,3.62548e-06,0.00146695
0.9775864,-0.18249,-0.2788664,0.0040029,3.936885e-05,-0.003471953
0.9780134,-0.1824357,-0.2765118,0.004216669,0.002654127,-0.004518325
0.9778347,-0.1795919,-0.2766058,0.003905914,0.005626225,-0.005711821
0.9773984,-0.1799589,-0.2738241,0.006937922,0.004508784,-0.003893502
0.9770314,-0.1792492,-0.2707205,0.008340984,0.0009412475,0.001785038
0.9761156,-0.1758642,-0.2737632,0.003488612,-0.0001772083,0.003659938
0.9763361,-0.1760122,-0.2789112,-0.0003736463,-0.001080165,0.0003957146
0.9778355,-0.1770293,-0.2829588,0.002902647,-0.00095536,-0.001459112
0.978895,-0.1770574,-0.2801466,0.006451824,-0.0004046279,0.0002994781
0.9804341,-0.1782055,-0.2717625,0.004289594,-0.004017402,0.001736435
0.9808965,-0.1789247,-0.2695799,0.004767661,-0.005957331,0.002443646
0.9803499,-0.178738,-0.2712299,0.007981594,-0.00403293,0.00218787
0.9800972,-0.1776401,-0.2718512,0.007110311,-0.0005748876,-0.0003943237
0.978229,-0.1758959,-0.2729013,0.005521585,0.002954867,-0.0004019545
0.9773202,-0.1771421,-0.2738828,0.003928176,0.002413027,0.00214528
0.9794522,-0.1795893,-0.2755298,0.004641302,-0.0004294254,0.003903839
0.9797591,-0.1793288,-0.2753357,0.006765945,-0.002565863,0.005941664
0.9774253,-0.1799248,-0.2752845,0.004094475,-0.002421232,0.005785695
0.9766685,-0.1810542,-0.2798688,0.001918519,-0.002988575,0.003721852
0.9767863,-0.1804259,-0.2832619,0.00119803,-0.006891514,0.00295027
0.9777773,-0.1803222,-0.2819024,0.0002434789,-0.007813565,0.003746827
0.9800745,-0.1795719,-0.2788878,0.001449176,-0.005893857,0.006976056
0.9793213,-0.177928,-0.276218,0.002055757,-0.001994622,0.009544799
0.9785051,-0.1774598,-0.274619,0.004810862,0.002981387,0.006513423
0.9793867,-0.1781773,-0.2770703,0.007521202,0.00062303,-0.00014577
0.9775309,-0.1793608,-0.282685,0.004446313,-0.003708838,-0.0034466
0.9774753,-0.1791504,-0.284229,0.003747381,-0.004405242,-0.0006801513
0.97984,-0.1775037,-0.2831657,0.007307032,-0.008929395,0.001897752
0.9794688,-0.1772117,-0.2830757,0.01040118,-0.01379051,-0.0001662229
0.9787241,-0.1786249,-0.2822057,0.0142283,-0.01408449,-0.002572299
0.979298,-0.1793875,-0.2808007,0.01382163,-0.01089229,-0.003565035
0.9791529,-0.1798297,-0.279116,0.009064073,-0.005586515,-0.00421854
0.9780395,-0.1795307,-0.2789806,0.008208266,-0.008013512,-0.003507988
0.9777897,-0.1786203,-0.2793719,0.008604514,-0.01248717,-0.003958011
0.9786442,-0.1807348,-0.2784053,0.009161848,-0.009840042,-0.004732436
0.9792718,-0.1828902,-0.2766876,0.01055603,-0.01172982,-0.004801446
0.9784708,-0.1828566,-0.2751602,0.007712917,-0.01352105,-0.006765605
0.9771661,-0.1811724,-0.2803306,0.006329909,-0.01194019,-0.005511277
0.9780216,-0.1783998,-0.2875769,0.009667732,-0.01378152,-0.001264772
0.9793223,-0.1815681,-0.2856822,0.01199582,-0.008311127,0.0002166591
0.9808693,-0.1851654,-0.2797695,0.01195007,-0.001914076,-0.00122282
0.9824606,-0.1820859,-0.2766409,0.01129616,-0.003509172,-0.004286427
0.9801405,-0.1794106,-0.2766589,0.01214719,-0.002835238,-0.004741118
0.9774633,-0.1770869,-0.2760109,0.01157032,-0.003299194,-0.004190127
0.9758176,-0.1760411,-0.2724818,0.01018108,-0.01115139,-0.00353383
0.9729192,-0.1771003,-0.2736522,0.01047403,-0.01970736,0.0008387187
0.973817,-0.1766311,-0.2791215,0.01054617,-0.01935291,0.004667342
0.9763923,-0.1798748,-0.2831087,0.01144402,-0.01218435,0.004648413
0.9756273,-0.1833474,-0.2861502,0.009356827,-0.007616185,-0.001321001
0.9761974,-0.1804109,-0.2842398,0.004989976,-0.00713418,-0.006468925
0.9774811,-0.1770567,-0.2800211,0.004015237,-0.01076709,-0.001080902
0.9776041,-0.1759222,-0.2790506,0.004738593,-0.01447903,0.003799953
0.979782,-0.1761526,-0.2781179,0.006397199,-0.01429519,0.001851627
0.9793792,-0.1767928,-0.2777871,0.005888382,-0.0114216,0.001284532
0.9762942,-0.1762085,-0.2765363,0.003609124,-0.006782101,0.002474782
0.9755008,-0.1762944,-0.277155,0.003971703,-0.006260163,0.002824643
0.9750711,-0.1766129,-0.2808575,0.005096226,-0.008721302,0.003775539
0.9775569,-0.1763804,-0.2791041,0.005331586,-0.008855356,0.003999878
0.9805159,-0.1776995,-0.2794393,0.002968479,-0.008983296,0.003159415
0.9785919,-0.1798994,-0.2827937,-0.0002415446,-0.00828923,0.005221094
0.9770058,-0.1805508,-0.2824605,-0.0009022561,-0.006741577,0.006047576
0.9767986,-0.1776335,-0.2865035,-0.001405354,-0.006279782,0.004025711
0.9786214,-0.1734217,-0.2897404,-0.002687956,-0.006913387,0.005952531
0.9816626,-0.1736836,-0.2847155,-0.00283203,-0.007966471,0.006962456
0.9796436,-0.1778077,-0.2782754,-0.00222885,-0.007513634,0.003565801
0.9770514,-0.1814086,-0.277154,-0.003652378,-0.007396087,0.002948541
0.9770968,-0.1829378,-0.2794222,-0.006628336,-0.008369387,0.004723893
0.9764542,-0.1833001,-0.2785056,-0.008465177,-0.009445458,0.005061071
0.97793,-0.1832966,-0.2787494,-0.005951267,-0.008480645,0.004908337
0.9799438,-0.1815996,-0.2800365,-0.0001153034,-0.003572139,0.004841968
0.978232,-0.180713,-0.2785539,0.00130611,-0.003313388,0.005789285
0.9770858,-0.1823316,-0.2792626,0.00090317,-0.007165293,0.006397582
0.9780634,-0.1822381,-0.2798284,0.0009012429,-0.006694173,0.004687876
0.978021,-0.1813579,-0.2805134,-0.0039033,-0.007668699,0.004337458
0.9782994,-0.1812643,-0.2824756,-0.008449178,-0.007955182,0.003578347
0.9788802,-0.1804686,-0.2802403,-0.009679221,-0.004581784,0.001845728
0.9784497,-0.1812231,-0.2784898,-0.00823466,-0.004670423,0.005556659
0.9790951,-0.1825424,-0.2811351,-0.004388718,-0.002964641,0.007438502
0.9796515,-0.1818915,-0.2827845,-0.001387284,0.0003797494,0.0003793274
0.9786584,-0.1815135,-0.2815018,-0.0004649763,0.003125219,-0.007640757
0.9780696,-0.1811252,-0.2800034,-0.004368209,0.007715022,-0.009624504
0.9766966,-0.1791184,-0.2794771,-0.008022257,0.002717474,-0.005317715
0.9750169,-0.1778237,-0.2790858,-0.007174499,-0.004108942,-0.0003427111
0.9756724,-0.1777531,-0.2797898,-0.006613327,-0.0006571959,0.00138127
0.9758238,-0.1776501,-0.2826347,-0.005746598,-0.001436285,-4.373982e-05
0.9747228,-0.1786018,-0.2857991,-0.006737125,-0.003760385,-0.002644907
0.9750218,-0.1810081,-0.2875961,-0.008323734,0.0004941393,-0.00197176
0.9760702,-0.1825153,-0.2883563,-0.007291037,0.001633158,0.0001652545
0.9766416,-0.1805861,-0.2851196,-0.008302961,0.0005732764,0.001966929
0.976407,-0.1794148,-0.27985,-0.009078978,-0.0004972864,0.002830299
0.9762598,-0.1813857,-0.2815484,-0.008133713,-0.003868491,0.001626709
0.976497,-0.180233,-0.2834239,-0.007650094,-0.003024487,0.001729799
0.9763443,-0.1781135,-0.2811505,-0.007650019,0.0004181516,-0.001403256
0.9767384,-0.1779648,-0.283967,-0.009674085,0.000876096,-0.005508797
0.97821,-0.1770027,-0.2863355,-0.01215456,0.003447088,-0.002757825
0.9796703,-0.1772054,-0.2857328,-0.01354427,0.005824749,-0.0007670095
0.9792408,-0.177236,-0.2843778,-0.01370734,0.003313131,0.0005958136
0.9780061,-0.1801625,-0.2783597,-0.01361819,0.0003269606,0.003221584
0.9784414,-0.1854711,-0.2783716,-0.01376201,-0.001371851,0.001120983
0.9786991,-0.1831584,-0.2853163,-0.01249629,-0.0009724898,-0.001541929
0.9777547,-0.1801413,-0.2869355,-0.0116852,0.000477754,-0.002594716
0.9763867,-0.1801625,-0.2857916,-0.01154919,0.0007320343,-0.004638976
0.9763818,-0.1784983,-0.2834493,-0.01090733,-4.094169e-05,-0.005878048
0.9796136,-0.1801291,-0.2790729,-0.01101377,-0.001851409,-0.00465742
0.9804234,-0.1813329,-0.2770127,-0.01103857,-0.002081871,-0.0001161698
0.9780618,-0.1800368,-0.2787163,-0.01021051,-0.0008543385,0.004655045
0.9796421,-0.1811021,-0.282256,-0.009020377,0.002050024,0.001930711
0.9816119,-0.1823963,-0.2841024,-0.007187216,0.005220052,-0.00436378
0.9815069,-0.1829808,-0.2843007,-0.005247633,0.002802677,-0.004976957
0.981525,-0.1801858,-0.2815748,-0.005724995,-0.0007046647,-0.00473962
0.9792403,-0.1764644,-0.2778358,-0.006740749,-0.002912499,-0.004148308
0.9792475,-0.1794141,-0.2808025,-0.00434846,-0.005723289,-0.002258226
0.9806486,-0.1815032,-0.2831391,-0.003087971,-0.003806579,-0.00312591
0.9785388,-0.1773576,-0.2795074,-0.006097124,0.003827937,-0.001478089
0.9785769,-0.1753049,-0.2790292,-0.009847327,0.01148122,-0.001460274
0.9779453,-0.1764009,-0.2820689,-0.01151675,0.009295887,-0.002668701
0.9757123,-0.175762,-0.28454,-0.009071787,0.003092451,0.003214266
0.9782008,-0.1753791,-0.2845294,-0.005293396,0.005542321,0.005638627
0.9799569,-0.1793947,-0.2818393,-0.0038886,0.005808489,0.002153666
0.9779384,-0.1836292,-0.2802445,-0.003984056,0.004839478,-0.0001059577
0.976332,-0.1817141,-0.2815711,-0.005153051,0.007955262,0.0003254204
0.9762592,-0.1780515,-0.2830497,-0.006218753,0.004871093,0.001343466
0.9766529,-0.1765655,-0.2815017,-0.006029786,0.003593017,-0.001251875
0.9772128,-0.1745484,-0.2818263,-0.005753268,0.005391465,-0.001798222
0.9781182,-0.1730017,-0.284605,-0.005899634,0.003979382,-0.001197364
0.9776702,-0.1721606,-0.2846321,-0.004628279,0.005738567,-0.001510553
0.9766503,-0.1727854,-0.2848204,-0.002027416,0.008913154,0.0009958807
0.9763061,-0.175358,-0.2833305,-0.002426733,0.01137099,0.0007295111
0.9762098,-0.1752062,-0.2799258,-0.003920272,0.007022768,0.001990088
0.9767499,-0.1747983,-0.2793794,-0.003224663,-0.001877555,0.00586993
0.9774295,-0.1764533,-0.2818711,-0.003553051,-0.001925658,0.005709798
0.9786521,-0.1773018,-0.2873511,-0.002972972,0.0001219031,0.004966086
0.9789965,-0.1783842,-0.2882992,-0.001551151,0.003960106,0.001099466
0.9778185,-0.1787185,-0.2848797,-0.002329099,0.01135136,-0.002446951
0.9774702,-0.1788952,-0.284538,-0.0004597465,0.009608401,0.0008780606
0.9763588,-0.1784202,-0.2846764,0.001262836,0.005098162,0.003285367
0.9760446,-0.1752889,-0.2858202,-0.001082741,0.004308936,0.003390922
0.9787353,-0.1746114,-0.2865024,-0.0009308177,0.002201001,0.004781578
0.9796784,-0.1766618,-0.2858071,-0.000540245,0.003844628,0.004575172
0.9788298,-0.1787447,-0.2863703,-0.001678568,0.006758876,0.003164367
0.9777729,-0.1790387,-0.2859326,0.0001136403,0.00524303,0.003108419
0.9747711,-0.1764983,-0.2861318,0.001982564,0.005187467,0.001550094
0.9729214,-0.1779581,-0.2855612,0.00522755,0.005284459,0.000477534
0.9743959,-0.182485,-0.2822507,0.007769202,0.004425829,0.005456051
0.9757069,-0.1837809,-0.2795778,0.005378485,0.00537771,0.01033643
0.9754272,-0.1834743,-0.279589,0.005353598,0.003277658,0.01009251
0.9773515,-0.1821549,-0.2820597,0.006688928,0.001172743,0.008137733
0.9801941,-0.1815442,-0.2819935,0.00757578,0.001533142,0.003385204
0.9782351,-0.1817051,-0.2794341,0.009511042,-0.0004061766,-0.002723528
0.9760786,-0.1789357,-0.2767165,0.008451236,-0.002512359,-0.002422631
0.9772888,-0.1762379,-0.2746017,0.009498845,-0.004294387,-0.001617929
0.9772917,-0.1771869,-0.2775954,0.01138284,-0.004565029,-0.005608223
0.9772051,-0.1801484,-0.2821492,0.007461999,-0.001609934,-0.0003452058
0.9788022,-0.181109,-0.2837135,0.001886088,0.002558,0.006962211
0.9796858,-0.1791844,-0.2839874,-0.002154832,0.006637656,0.002640178
0.9787466,-0.1779507,-0.2844226,-0.001067801,0.004698738,0.002066151
0.977114,-0.1775886,-0.2870153,0.001396174,0.002097378,0.004601039
0.9761339,-0.1778649,-0.2880254,-0.0001822116,0.007819493,0.002269841
0.97642,-0.1790877,-0.2851957,0.0003005779,0.01112277,0.001108005
0.9784944,-0.1801341,-0.2833149,0.00123859,0.009196241,-0.002366933
0.9797211,-0.1811704,-0.2816269,8.733978e-05,0.009073932,-0.004378355
0.979097,-0.1814348,-0.2810249,-0.001035668,0.008062439,-0.001320878
