accx,accy,accz,gyrox,gyroy,gyroz
1.019425,-0.04390549,0.09178558,-0.009086392,0.1211137,-0.03147946
1.017624,-0.04941154,0.09479391,0.002602254,0.1001593,-0.05410587
1.031637,-0.05065827,0.08450039,-0.01659973,0.08260498,-0.05351362
1.038442,-0.05692617,0.08461061,0.001847187,0.09952391,-0.06641228
1.030819,-0.06732867,0.09752845,0.07338699,0.0680555,-0.0840319
1.015259,-0.07043905,0.1221458,0.1405574,-0.1021273,-0.0863281
1.008103,-0.0590275,0.1531686,0.1794873,-0.2048671,-0.05992326
1.014895,-0.04388608,0.1136727,0.06336837,-0.01638717,-0.03043989
1.018677,-0.04181001,0.055244,-0.06034657,0.2035388,-0.03865924
1.015577,-0.05919461,0.06499997,0.0004382324,0.1396338,-0.03849528
1.014517,-0.07287646,0.07147701,0.03443996,0.06729368,-0.020177
1.0202,-0.06127951,0.06313218,-0.006186706,0.1455936,-0.02779437
1.02751,-0.04820315,0.07157547,0.01971413,0.09531386,-0.03620558
1.031235,-0.05132328,0.07258913,0.02085862,0.08138923,-0.03195951
1.026294,-0.0499933,0.07760928,-0.0104399,0.1436624,-0.03790006
1.019066,-0.04507101,0.08382994,0.004866635,0.0818028,-0.03990552
1.024287,-0.04752351,0.07727419,-0.0096656,0.09699988,-0.03723561
1.027252,-0.04620828,0.07181165,-0.03240322,0.1084952,-0.03832299
1.023319,-0.04911011,0.07195713,-0.02023627,0.07023724,-0.03383559
1.025584,-0.05806858,0.07167716,-0.02615284,0.1023794,-0.03235748
1.025305,-0.06006053,0.06677911,-0.02202111,0.07673024,-0.03119213
1.023899,-0.06177391,0.06858038,-0.008700499,0.07921715,-0.02854213
1.02397,-0.06118325,0.07697722,0.003342635,0.09398799,-0.03018526
1.021366,-0.05816544,0.07920192,0.02628167,0.06929609,-0.02618197
1.023201,-0.05705811,0.07745892,0.02620412,0.08970962,-0.02139392
1.02539,-0.05248447,0.07516883,0.02283693,0.07679236,-0.01517596
1.024448,-0.05048161,0.07502127,0.01995353,0.07664531,-0.008766996
1.023226,-0.05233158,0.07494851,0.009942719,0.08455609,-0.01326975
1.020662,-0.05593961,0.07450246,0.01097414,0.067578,-0.01730892
1.020527,-0.05900928,0.07473522,0.00852267,0.08332985,-0.01781209
1.022139,-0.05399006,0.07276677,0.007714382,0.07626407,-0.01921344
1.022348,-0.04966325,0.07350757,0.002442944,0.07444413,-0.01898656
1.022279,-0.05313806,0.07304502,-0.009731219,0.07964285,-0.0186905
1.022661,-0.05440946,0.06873874,-0.01684195,0.07081937,-0.01918407
1.024928,-0.04748729,0.06299373,-0.02698986,0.07941816,-0.02247055
1.02708,-0.04203638,0.05822856,-0.03079705,0.06801695,-0.024894
1.025737,-0.04446769,0.07289831,-0.03252698,0.05945131,-0.02337043
1.024161,-0.04540297,0.09889303,-0.02657607,0.05470849,-0.02364959
1.025722,-0.04658945,0.09907992,-0.007225263,0.04531417,-0.03021865
1.02799,-0.05884047,0.06455454,0.002563408,0.05508998,-0.03919558
1.029568,-0.07095141,0.03474146,0.01499195,0.06158249,-0.03873611
1.030083,-0.06629682,0.04934189,0.0283976,0.07488626,-0.02957999
1.030349,-0.06046079,0.06983868,0.02421302,0.07172223,-0.02310628
1.032596,-0.06722375,0.06369065,0.02471487,0.06592426,-0.02148475
1.032525,-0.06754765,0.06775809,0.03449877,0.09853423,-0.02205461
1.029947,-0.06227797,0.07208228,0.02821982,0.1169488,-0.02218902
1.02819,-0.06228332,0.06406513,0.002628244,0.1366754,-0.02595782
1.025096,-0.0594304,0.07018375,-0.0269616,0.153193,-0.03495532
1.021173,-0.05798014,0.07742366,-0.03596918,0.1065838,-0.03574494
1.014433,-0.0570351,0.08545641,-0.007611577,0.06050503,-0.02397137
1.012684,-0.05115346,0.08869449,0.01830335,0.05975769,-0.009609465
1.018339,-0.04672622,0.07976582,0.01129838,0.04639564,-0.002252235
1.015141,-0.04392007,0.08720063,0.006742047,0.01714495,-0.00449558
1.016511,-0.04409468,0.08874316,0.01109109,0.02364105,-0.005264551
1.024864,-0.04518227,0.08395787,0.00647854,0.03031706,-0.0009042156
1.022234,-0.04506889,0.09157201,0.003689189,0.0126076,0.003280115
1.027631,-0.04705349,0.08537728,-0.007875306,0.0140592,0.005111712
1.045892,-0.04686939,0.07685277,-0.05264879,0.008453661,-0.01035061
1.061472,-0.04673621,0.07019013,-0.0996736,0.007336132,-0.03095441
1.055333,-0.05038962,0.07325409,-0.09269149,0.0234099,-0.02311741
1.022388,-0.05329971,0.08998341,-0.05402454,0.01455671,-0.007987848
1.0068,-0.05317565,0.08545196,-0.03486749,0.01685601,-0.001919167
1.019909,-0.0529524,0.08086118,-0.02461549,0.02800002,0.007285628
1.029999,-0.05786338,0.08024071,-0.01696812,0.05242792,-0.001278336
1.024957,-0.06577097,0.07256331,-0.008856291,0.09411105,-0.01261989
1.018761,-0.06953664,0.07806623,0.002157729,0.07649599,-4.60691e-05
1.02294,-0.06546306,0.07737836,-0.00589326,0.05305837,0.004471044
1.019482,-0.06091075,0.07057112,-0.004798912,0.05557625,0.005951359
1.015802,-0.06281143,0.05959644,0.0125634,0.01021502,0.03110621
1.017739,-0.06245496,0.04764762,0.02441275,-0.0428861,0.05252478
1.01699,-0.05908313,0.07127719,0.04573163,-0.04666337,0.04300023
1.02526,-0.05807893,0.09906508,0.0508826,-0.02867255,0.02877795
1.022166,-0.05852816,0.0958617,0.05188371,-0.04442382,0.03849058
1.013461,-0.06380848,0.09148413,0.08861415,-0.0914445,0.04186537
1.014468,-0.07216656,0.08391418,0.1206392,-0.1336774,0.03730034
1.010044,-0.07712592,0.05766062,0.1155153,-0.1331823,0.04456269
1.014736,-0.07524557,0.04908178,0.1004365,-0.04185173,0.03835698
1.02089,-0.07089581,0.06324353,0.1117455,0.03532456,0.03376304
1.023415,-0.0690704,0.06315782,0.1190511,0.0303302,0.03621868
1.026666,-0.06518769,0.06524501,0.1128208,0.04221298,0.02861371
1.021236,-0.06231522,0.07008176,0.118106,0.04294232,0.02977228
1.025895,-0.05694383,0.06155137,0.1031326,0.02325918,0.02877719
1.028244,-0.04768985,0.06592565,0.09423132,0.03231282,0.02637088
1.022249,-0.05062362,0.06837015,0.09566219,0.01204332,0.02752852
1.024891,-0.05229539,0.06369271,0.08187781,-0.01020332,0.01970989
1.023776,-0.04320127,0.06795313,0.08374888,0.00705429,0.01644833
1.025094,-0.0390116,0.06260716,0.06281265,0.01337624,0.009291957
1.02584,-0.03358391,0.05904883,0.02423396,0.005323413,0.001140481
1.021528,-0.02580221,0.06134772,0.001641129,-0.003736398,0.0005386912
1.022965,-0.01915487,0.06741186,-0.03084069,-0.01791447,-0.001101399
1.021619,-0.01476956,0.08271168,-0.06150408,-0.02290177,0.006813201
1.021945,-0.02437428,0.0807659,-0.09309323,-0.01589316,0.009226317
1.022176,-0.03718261,0.07469105,-0.1099229,-0.01316552,0.001503879
1.019397,-0.04326983,0.07799984,-0.1084,-0.01110976,-0.005957012
1.021827,-0.04754689,0.07406944,-0.1220026,-0.009717952,-0.01449576
1.021626,-0.04862671,0.07649954,-0.1299684,-0.01623562,-0.007486788
1.022042,-0.05043987,0.08157967,-0.1394788,-0.01904902,-0.001659115
1.022704,-0.05605682,0.08058878,-0.1542823,-0.02642963,-0.009456489
1.019518,-0.06954346,0.08359037,-0.1512998,-0.03709633,-0.008773256
1.019987,-0.08112682,0.08546403,-0.1395991,-0.03536894,-0.002100437
1.021875,-0.07921287,0.08373052,-0.1172941,-0.0342787,0.004349266
1.024466,-0.08395202,0.07934183,-0.09401178,-0.03422822,0.007644019
1.024289,-0.09369397,0.07537175,-0.07306844,-0.03035257,0.01042042
1.022583,-0.09741416,0.07686113,-0.03621669,-0.02414861,0.01526231
1.025315,-0.1028669,0.07659873,0.004600626,-0.01361545,0.01452527
1.025202,-0.09628108,0.07289496,0.02988316,-0.006482739,0.01858823
1.024595,-0.08216489,0.07162116,0.04527254,0.0006678758,0.02671099
1.025145,-0.07570392,0.0718598,0.05721972,-0.0148979,0.02797171
1.022233,-0.06507966,0.06793439,0.04935092,-0.08751694,0.02810469
1.019232,-0.05586423,0.05275973,0.02496343,-0.1190982,0.03333688
1.02081,-0.05638628,0.03352406,0.01316379,0.03305316,0.0561099
1.036651,-0.05638986,0.03829429,0.0370393,0.1845171,0.08100189
1.050502,-0.05675728,0.06560901,0.07008225,0.0522345,0.07488442
1.032718,-0.06629634,0.07220928,0.05429304,-0.09306889,0.06140657
1.014058,-0.07352953,0.05770176,0.03584295,-0.01117496,0.04453582
1.027125,-0.0577743,0.05803409,0.04243599,0.002094936,-0.01617924
1.034008,-0.03695791,0.06794078,0.01211139,-0.0334938,-0.05879739
1.02223,-0.03860784,0.07226105,-0.0161418,0.02278559,-0.01979426
1.023219,-0.05191096,0.07010299,-0.02194454,0.00629761,0.01487637
1.027718,-0.0617558,0.0622642,-0.03672798,0.00143011,0.004984754
1.025611,-0.06805411,0.06077069,-0.03280142,0.03296429,0.0008261891
1.021021,-0.07348373,0.06338786,-0.02380365,0.006371214,-0.006505715
1.013697,-0.07609643,0.06373661,-0.01591739,0.01505847,-0.01434995
1.023149,-0.07526182,0.06724138,-0.002307938,0.0158995,-0.001203454
1.03474,-0.07778852,0.06963275,0.005603278,0.003886477,0.01030118
1.028074,-0.07749623,0.06877818,0.02800157,0.01248702,0.01608715
1.027232,-0.07340564,0.06381505,0.04194335,-0.004937096,0.01794035
1.029284,-0.0785198,0.05817298,0.03648178,0.005165691,0.008788682
1.025367,-0.08423848,0.05818127,0.03678175,0.01276435,-0.005730415
1.02904,-0.08579209,0.05416919,0.03469328,0.003006648,-0.02057298
1.033761,-0.08871529,0.0484215,0.03730354,0.01650312,-0.01957504
1.034439,-0.08652218,0.05320937,0.04179839,0.01888823,-0.01381386
1.034847,-0.08490691,0.0599757,0.03344641,0.02351794,-0.02349068
1.027845,-0.08601252,0.06019221,0.01734215,0.02315348,-0.02779801
1.018334,-0.08406634,0.06624311,-0.005689094,0.002578092,-0.02999908
1.01965,-0.08463996,0.07870389,-0.02119703,-0.02958279,-0.03287772
1.021621,-0.08336449,0.07952671,-0.02076699,-0.06262204,-0.01666392
1.019455,-0.07517334,0.07317609,-0.01453638,-0.07016728,0.00942892
1.022847,-0.06750286,0.06590644,-0.004433193,-0.0886306,0.03782523
1.021485,-0.0679855,0.05762501,0.009530231,-0.1179554,0.05271834
1.01719,-0.07050599,0.06393604,0.02788057,-0.1292174,0.05331714
1.020546,-0.06355383,0.07437357,0.04150538,-0.136542,0.07281959
1.020665,-0.05583403,0.07276551,0.03972528,-0.1301303,0.1062759
1.020337,-0.05121686,0.07731991,0.03713006,-0.1281131,0.1338035
1.022769,-0.04658606,0.08551117,0.04131059,-0.1400631,0.1363732
1.021582,-0.0483888,0.08171081,0.04278795,-0.1470768,0.1230339
1.021372,-0.0477078,0.07988501,0.04386536,-0.1538496,0.1286972
1.01988,-0.0393534,0.08079088,0.04101769,-0.1483699,0.1295799
1.019232,-0.03132106,0.07504288,0.03048154,-0.1354208,0.1222511
1.02371,-0.02728729,0.07098861,0.02102346,-0.1199411,0.1193171
1.026014,-0.03203397,0.06924207,0.01492511,-0.09838489,0.1019827
1.026542,-0.03923281,0.07524185,0.01754336,-0.0990459,0.09510253
1.027984,-0.0426295,0.08478868,0.0238035,-0.1032664,0.09267917
1.029818,-0.04717897,0.07441951,0.02458763,-0.08878223,0.07383987
1.029814,-0.05305946,0.06296441,0.03220989,-0.08093274,0.06120953
1.029179,-0.05729952,0.06771142,0.03985581,-0.06887396,0.05217559
1.030321,-0.05512912,0.06444981,0.03553358,-0.05288212,0.04678196
1.025348,-0.05255865,0.05537683,0.02502297,-0.05270032,0.0399207
1.020215,-0.05640808,0.04953997,0.004392737,-0.04786272,0.02844342
1.024116,-0.05880831,0.04213164,-0.01489449,-0.03923704,0.03213789
1.02639,-0.06494785,0.04671442,-0.01820253,-0.03780433,0.03352394
1.024562,-0.077796,0.05917124,-0.01593491,-0.02999622,0.02321884
1.024695,-0.0868941,0.06244078,-0.01034872,-0.02089004,0.01751908
1.025439,-0.09128649,0.06000722,-0.0005942452,-0.0155517,0.01661389
1.024832,-0.09086356,0.05513273,0.003338766,-0.006103372,0.01563074
1.024833,-0.09126537,0.05341166,0.002393386,0.008064177,0.009908702
1.024799,-0.09475791,0.05743134,0.006270316,0.0244902,0.004546523
1.022043,-0.09428824,0.05903754,0.01328455,0.03365123,0.001337592
1.020089,-0.09443829,0.05871266,0.01536221,0.03016486,0.000355129
1.020834,-0.09482436,0.05886361,0.0101486,0.02644793,0.005264211
1.021906,-0.09383147,0.06014087,0.004097501,0.02242998,0.008998157
1.02155,-0.09496034,0.06116601,0.009442616,0.004263269,0.01944943
1.020229,-0.09481315,0.06028379,0.01871688,-0.01522327,0.03641956
1.020128,-0.09725932,0.05679406,0.0214416,-0.02591711,0.03954421
1.021294,-0.1023861,0.04252722,0.02778234,-0.03639543,0.03544276
1.026552,-0.1057295,0.03124432,0.03433092,-0.03494374,0.0322461
1.033029,-0.109316,0.04341475,0.04040998,-0.02017252,0.02428214
1.032025,-0.1075634,0.0568613,0.04888003,-0.01017957,0.01710248
1.027258,-0.09836939,0.05243955,0.04054051,-0.01030681,0.01196501
1.024774,-0.08890609,0.0473887,0.02148814,-0.01150064,0.008171355
1.024469,-0.08542005,0.04576495,0.007537349,-0.006011114,0.01032543
1.025169,-0.08785285,0.04024893,-0.006043516,-0.008537956,0.01558691
1.024185,-0.08909248,0.04076853,-0.01549023,-0.01460664,0.01978032
1.023026,-0.09123329,0.04269775,-0.02126194,-0.01226014,0.01913661
1.023773,-0.09660791,0.04068852,-0.02251162,-0.01713855,0.01630744
1.023755,-0.09855745,0.04498453,-0.01739037,-0.02067005,0.02051292
1.023376,-0.1015967,0.04647261,-0.01562808,-0.02317882,0.0244979
1.023966,-0.106373,0.0442456,-0.01006135,-0.03277838,0.02250646
1.024449,-0.1041067,0.04410932,-0.002040087,-0.03253998,0.02288554
1.025217,-0.102937,0.04008434,0.0006925943,-0.03359745,0.02356987
1.025223,-0.1054195,0.03934163,0.008519259,-0.03503023,0.02148961
1.024675,-0.1036384,0.04047458,0.01075286,-0.02539959,0.01989833
1.025175,-0.1026387,0.04216163,0.004922563,-0.02170442,0.01921524
1.025212,-0.0979354,0.04793917,-0.004401967,-0.02043869,0.01606375
1.02573,-0.08823481,0.04605689,-0.03068771,-0.01836713,0.00721841
1.02684,-0.08778894,0.04221858,-0.04896548,-0.01960216,0.001204851
1.025855,-0.0924793,0.04267983,-0.04643519,-0.01804357,0.003761673
1.023505,-0.09586652,0.04001123,-0.0464862,-0.01747568,0.006182828
1.021939,-0.1001087,0.04088767,-0.04381435,-0.01661975,0.004520881
1.023624,-0.1010076,0.04665313,-0.03732089,-0.01761587,0.004803455
1.026141,-0.1007164,0.05183892,-0.03177411,-0.02602226,0.009108516
1.024971,-0.1034814,0.05462481,-0.0225447,-0.03305179,0.01281955
1.024408,-0.1048857,0.053031,-0.01645936,-0.03290029,0.01519798
1.025572,-0.102856,0.04999204,-0.01260452,-0.02968573,0.01715852
1.024788,-0.101025,0.04434671,-0.009292035,-0.02885346,0.01713978
1.024847,-0.09955812,0.04086168,-0.009319683,-0.02491125,0.01243894
1.025334,-0.09795657,0.0445342,-0.007987746,-0.01920439,0.005367066
1.0247,-0.09888316,0.0460357,-0.003898678,-0.02077162,0.004115293
1.025132,-0.1004272,0.0471554,-0.001639772,-0.02005824,0.003501015
1.024703,-0.09949935,0.04927548,-0.005016116,-0.01443863,-0.002051443
1.023386,-0.09637732,0.05062716,-0.008318327,-0.01011803,-0.004853094
1.023669,-0.09386986,0.05473329,-0.007551146,-0.008001864,-0.004130222
1.025194,-0.09442982,0.04983469,-0.01015864,-0.009427048,-0.003819354
1.025658,-0.09419414,0.04321902,-0.01541252,-0.009817964,-0.006499211
1.024451,-0.09125891,0.05121703,-0.01614633,-0.01015763,-0.009490182
1.024996,-0.08877129,0.05711848,-0.01783224,-0.01065145,-0.008646279
1.025082,-0.08863438,0.05561146,-0.02521476,-0.009067368,-0.009502635
1.022702,-0.09105782,0.05724079,-0.03037212,-0.01019664,-0.01170496
1.021956,-0.09195059,0.05793694,-0.03037673,-0.01433123,-0.01193194
1.022244,-0.08971144,0.0529444,-0.02896312,-0.01839038,-0.01198691
1.023227,-0.08811372,0.04708284,-0.02972907,-0.01806936,-0.01022082
1.024224,-0.08837834,0.04821969,-0.03359333,-0.01688686,-0.009036936
1.024276,-0.09029577,0.0516877,-0.034992,-0.01443853,-0.01142375
1.025168,-0.09238111,0.05157546,-0.03148239,-0.007663779,-0.01664942
1.024254,-0.09276908,0.05436975,-0.02756657,-0.006441729,-0.02079317
1.022996,-0.09165951,0.06023229,-0.03019233,-0.005110826,-0.01679811
1.023974,-0.08954222,0.0635912,-0.03311586,-0.003334259,-0.0109538
1.024576,-0.08744782,0.06098878,-0.02714976,-0.004815732,-0.01113484
1.024799,-0.08699936,0.05597426,-0.02390964,-0.002278334,-0.009890196
1.023392,-0.08785172,0.0553655,-0.0247529,-0.009699028,-0.00587628
1.021439,-0.08768202,0.05310734,-0.01953859,-0.01855765,-0.00547956
1.022133,-0.08848229,0.04985893,-0.0103559,-0.01305766,-0.006776786
1.023002,-0.09109518,0.0517416,-0.002592249,-0.009886583,-0.007702541
1.023729,-0.09140285,0.0517586,-0.0007410349,-0.008115604,-0.01011133
1.025538,-0.09108031,0.05085399,0.0006011426,-0.003424992,-0.01432817
1.026121,-0.09383467,0.05213809,0.005011827,-0.002265385,-0.01987992
1.028669,-0.1004356,0.05229371,0.009991056,0.001306385,-0.0261528
1.03551,-0.1073268,0.0509425,0.01700708,0.01786792,-0.0421013
1.036167,-0.1065534,0.04679143,0.02112476,0.04200153,-0.06900042
1.027104,-0.09706575,0.04504297,0.02268525,0.04821037,-0.07622773
1.0202,-0.08659684,0.04664528,0.02063231,0.03637251,-0.05649255
1.021763,-0.08359626,0.04675296,0.01017768,0.02557171,-0.03979296
1.025395,-0.0853567,0.05200812,0.001618059,0.009865447,-0.02741499
1.024473,-0.08390564,0.05909137,-0.0003172706,-0.01049161,-0.01503684
1.022075,-0.08327698,0.05838383,-0.0003855363,-0.02327433,-0.01348032
1.02102,-0.08533685,0.05635093,-0.0008379376,-0.03511199,-0.01198283
1.022726,-0.08625042,0.05374647,-0.001305709,-0.04232697,-0.008566569
1.026645,-0.08751473,0.04928538,-0.000271219,-0.03110072,-0.01044496
1.025173,-0.08503306,0.05454106,0.001247591,-0.02031455,-0.009056528
1.023836,-0.07892939,0.06259471,0.003590815,-0.02637365,-0.009039474
1.026107,-0.07521002,0.05937161,0.001636881,-0.02851755,-0.01268687
1.024541,-0.06990111,0.05653609,-0.007025954,-0.01855251,-0.01505502
1.024754,-0.06658723,0.05845377,-0.01400219,-0.01321137,-0.02079536
1.025659,-0.06789469,0.05974643,-0.01582932,-0.01134942,-0.02341023
1.023961,-0.06629225,0.06375558,-0.01910753,-0.005525117,-0.02369914
1.023623,-0.0667149,0.06341251,-0.02823306,-0.002241261,-0.02487846
1.021653,-0.0710107,0.06090292,-0.02960201,-0.003532375,-0.02138254
1.021715,-0.07555677,0.0635115,-0.02346572,-0.006781733,-0.02215868
1.023073,-0.07960781,0.06249065,-0.02401662,-0.01006965,-0.02286341
1.021636,-0.07790463,0.06177756,-0.02276929,-0.01297904,-0.01985708
1.02269,-0.07719199,0.06322842,-0.01960433,-0.01346749,-0.01954943
1.024275,-0.08145008,0.06098643,-0.01637977,-0.01051814,-0.01386391
1.025133,-0.08243005,0.06095972,-0.00932538,-0.009193987,-0.01208524
1.025559,-0.0819807,0.06096728,-0.006899547,-0.005422716,-0.0159874
1.024425,-0.081352,0.05899919,-0.003190457,-0.001060151,-0.01456287
1.024988,-0.07889541,0.05959688,0.002332391,-0.00109003,-0.0166787
1.024003,-0.07641254,0.06497508,0.003294291,0.001828981,-0.01889052
1.021471,-0.07481087,0.07247569,0.003227706,0.0029714,-0.01605523
1.022328,-0.07319103,0.07204276,-0.00137166,0.0009442829,-0.01487496
1.024019,-0.06877257,0.06963627,-0.004755583,0.001192489,-0.016119
1.024212,-0.06730576,0.06845209,-0.004311863,0.0008180249,-0.01705151
1.024264,-0.06909253,0.06175944,-0.007407182,0.0002380628,-0.01486166
1.026156,-0.0674373,0.06171582,-0.009451649,-0.001271386,-0.01229753
1.026954,-0.06792997,0.06161688,-0.00981495,-0.001560431,-0.01060847
1.024981,-0.06872082,0.05317645,-0.01424966,-0.00124061,-0.01025155
1.024826,-0.06730067,0.05548646,-0.02172014,-0.002308619,-0.0100352
1.024768,-0.06851298,0.06199382,-0.02461572,-0.001158896,-0.007816253
1.023052,-0.06805152,0.06508455,-0.02250165,-0.003062502,-0.010601
1.021891,-0.06768981,0.070017,-0.02387289,-0.005182022,-0.0132865
1.02218,-0.06820867,0.06622486,-0.0251198,-0.005313711,-0.00770875
1.02449,-0.06549703,0.06230956,-0.01855369,-0.008058021,-0.002247284
1.025428,-0.06311378,0.06491553,-0.007939553,-0.007025153,0.0003344336
1.024936,-0.06184296,0.06350855,-0.002393225,-0.009287727,0.002383536
1.024849,-0.06241635,0.06366621,-0.004418037,-0.01531047,0.001705467
1.023791,-0.06268311,0.065192,-0.006562676,-0.0148076,-6.157727e-05
1.022614,-0.0600075,0.06682385,-0.01020698,-0.01639354,0.001036177
1.022136,-0.05850964,0.07095986,-0.01839554,-0.01625727,0.003384348
1.024186,-0.05867629,0.06960487,-0.01982152,-0.01182365,0.005945573
1.026767,-0.0624241,0.06750508,-0.01359376,-0.01255343,0.008115886
1.026858,-0.06836965,0.06821126,-0.006853344,-0.01144307,0.004211099
1.027895,-0.07032453,0.06560647,0.001120391,-0.01023517,-0.00069616
1.028846,-0.06912351,0.06272827,0.00433523,-0.01258043,7.454044e-05
1.027159,-0.06648536,0.06113532,0.001899059,-0.01109299,0.001508138
1.024471,-0.06455757,0.06070953,0.002401142,-0.01199457,0.002598985
1.022199,-0.0628066,0.0617781,0.003431883,-0.01407476,0.002396656
1.022065,-0.06081905,0.06279777,0.001611551,-0.00861314,0.0005681466
1.024396,-0.06456584,0.06507149,-0.003213488,-0.004632414,-2.380382e-05
1.026613,-0.06959227,0.06783967,-0.01217159,-0.003520854,-0.001236064
1.026408,-0.06914432,0.06942434,-0.01707315,-0.001653121,-0.003576359
1.025333,-0.06901447,0.06731319,-0.01326165,-0.006805055,-0.005672925
1.02463,-0.06988388,0.06280732,-0.01046868,-0.01184028,-0.00377924
1.023947,-0.06806718,0.06341247,-0.01151363,-0.00917102,-2.607612e-05
1.023598,-0.06695729,0.06504606,-0.01061521,-0.008303976,-0.000995327
1.02337,-0.0684163,0.06406698,-0.008342763,-0.01194145,-0.0007547063
1.023586,-0.07257236,0.06570177,-0.004037251,-0.01698029,0.003234481
1.022798,-0.07689029,0.06553302,0.0004077758,-0.01966853,0.008263718
1.02171,-0.07633625,0.06418842,0.0007344405,-0.01763076,0.0136947
1.022353,-0.07647396,0.06647411,0.004244501,-0.01510223,0.01357424
1.022324,-0.07841966,0.06720693,0.01031316,-0.01357877,0.01010585
1.02206,-0.07363292,0.06646884,0.009631362,-0.01299456,0.008319801
1.022356,-0.06602697,0.06589986,0.004992212,-0.01419466,0.008427179
1.022141,-0.06235427,0.06350202,-0.001362641,-0.01373623,0.01119529
1.022253,-0.06331142,0.06223858,-0.011548,-0.01125848,0.01266979
1.022412,-0.06545249,0.06598484,-0.0209901,-0.01189707,0.01224193
1.022896,-0.06562641,0.06929545,-0.02509784,-0.01309783,0.01017324
1.023404,-0.06975601,0.06452751,-0.02640399,-0.01179608,0.00798975
1.024323,-0.07356561,0.05836658,-0.02456172,-0.01390186,0.01283767
1.027949,-0.07274374,0.05594627,-0.01547213,-0.01565166,0.01960924
1.030498,-0.07754355,0.05569883,-0.003836768,-0.01083387,0.01930197
1.028459,-0.08188798,0.06027881,0.005673937,-0.007067365,0.01190617
1.025944,-0.07709183,0.06407614,0.01146062,-0.008155031,0.0040147
1.024753,-0.07237379,0.06227757,0.01083623,-0.0107174,0.00487563
1.024461,-0.07143247,0.06036635,0.006662241,-0.01238141,0.009559864
1.025291,-0.06934791,0.06097215,0.001195345,-0.01207093,0.01011542
1.024316,-0.06871479,0.06102463,-0.0002551631,-0.01338329,0.0097758
1.024344,-0.07326363,0.05814899,0.001552294,-0.01442609,0.008868113
1.028315,-0.07541062,0.05556687,-0.0008511092,-0.009214602,0.008365788
1.029715,-0.07471691,0.05453143,0.0009985894,-0.004194685,0.01006736
1.027113,-0.07545741,0.0544654,0.002983419,-0.003975512,0.008905061
1.024711,-0.07459876,0.05777354,-0.001162932,-0.004305108,0.005466
1.02462,-0.07453081,0.06101871,1.230435e-06,-0.005598454,0.004116169
1.025439,-0.07265033,0.05994805,6.089966e-05,-0.006383886,0.0049196
1.024779,-0.06946201,0.05931287,-0.0005862649,-0.005245291,0.008654985
1.025128,-0.07154676,0.06198302,0.004634805,-0.004244862,0.01140854
1.026129,-0.07391511,0.06327529,0.006954313,-0.002749651,0.009475628
1.026025,-0.07538657,0.06340107,0.007986953,-0.002784635,0.008905308
1.024729,-0.07540023,0.06504001,0.008429995,-0.003891757,0.01249563
1.021916,-0.07337683,0.06566878,0.007756721,-0.002320204,0.01544294
1.021742,-0.07403418,0.06519141,0.005287277,0.004449478,0.01551166
1.02311,-0.07541249,0.06482554,-0.003536752,0.01361858,0.01582987
1.023714,-0.07694585,0.06356731,-0.008783364,0.0142333,0.01863415
1.025755,-0.07758992,0.06198666,-0.00666677,0.01170404,0.02065283
1.026251,-0.0763096,0.06217539,-0.005557521,0.01640909,0.01833338
1.025865,-0.07566247,0.06302324,-0.007770631,0.01909746,0.01344526
1.025619,-0.07416817,0.0629724,-0.01209975,0.01832,0.01100041
1.022731,-0.07303711,0.06593925,-0.01709864,0.01787839,0.01180964
1.021435,-0.07328214,0.06912998,-0.01840726,0.01238245,0.01253738
1.023422,-0.07689799,0.06638371,-0.01334997,0.004350058,0.01188638
1.026727,-0.08276476,0.06402966,-0.009837341,0.001280588,0.01137138
1.030388,-0.08116224,0.06519783,-0.008248451,0.002976438,0.01097475
1.029102,-0.07905541,0.06385762,-0.004436299,0.0009746812,0.006624804
1.024495,-0.08262674,0.06151485,-0.001955185,-0.004022359,0.001457484
1.023229,-0.08208909,0.06282244,0.002440026,-0.00280084,0.002318738
1.024283,-0.08085775,0.06481612,0.004685335,-0.0003590446,0.004150169
1.025517,-0.07992272,0.0653614,0.0002765466,0.0005526833,0.003471757
1.025221,-0.0761196,0.06598535,-0.006444502,0.001210693,0.003861777
1.024434,-0.07616569,0.06680997,-0.01400045,-0.004149236,0.004095678
1.025587,-0.07706904,0.06815741,-0.011709,-0.009079982,0.003605961
1.025881,-0.07740131,0.06645552,-0.004715627,-0.008451073,0.004605823
1.026339,-0.07868188,0.06219657,-0.006989025,-0.003964441,0.005637907
1.026747,-0.07745021,0.06209337,-0.005190534,0.004078961,0.005893362
1.024983,-0.07849051,0.06287135,0.00124671,0.005525164,0.005648525
1.024708,-0.08004716,0.06259256,0.002187395,0.002797309,0.003665875
1.02404,-0.07813578,0.06393211,0.0048592,0.005576104,0.002433511
1.02224,-0.0762104,0.06341456,0.004304393,0.007954383,0.003283434
1.022115,-0.07259456,0.06208588,-0.005591303,0.009986866,0.005578623
1.022107,-0.07104141,0.06311216,-0.01238101,0.01034569,0.008032437
1.022558,-0.07363208,0.06434482,-0.009803959,0.00450877,0.007107385
1.022925,-0.07574237,0.06570733,-0.003568438,0.001042042,0.006929767
1.02282,-0.07854576,0.06944983,0.00296331,0.001942256,0.007302038
1.022315,-0.07859443,0.07228699,0.009108016,0.003099164,0.004400929
1.021696,-0.07686577,0.07194379,0.01117008,0.004723605,0.004343801
1.022958,-0.07914834,0.07159368,0.01147637,0.005485053,0.004596468
1.024217,-0.07986755,0.07050899,0.01340271,0.003777798,0.002971185
1.026088,-0.07919171,0.07007747,0.01271961,0.0005449172,0.004679314
1.027656,-0.07920513,0.0697192,0.01268776,-0.001702524,0.007376716
1.027062,-0.0761535,0.06704631,0.01582745,-0.003034824,0.009405795
1.026688,-0.07487726,0.06787257,0.01768283,0.0002432034,0.007625128
1.022994,-0.07644898,0.06881654,0.02100995,0.007619072,0.003842341
1.020098,-0.07741317,0.06717671,0.02836209,0.01011378,0.005404238
1.021387,-0.07984254,0.06694509,0.03421659,0.008652202,0.006138514
1.020262,-0.08360729,0.06379583,0.03271777,0.005688776,0.004825958
1.024947,-0.08822995,0.0616066,0.02560716,0.001446555,0.006098278
1.03295,-0.08939795,0.06489904,0.01256645,-0.0004981379,0.004736626
1.029903,-0.08331571,0.06787368,-0.004929736,0.002767515,0.003059126
1.026177,-0.07766297,0.06854641,-0.014025,0.007754799,0.003635401
1.02669,-0.07698287,0.0673934,-0.01834195,0.006333938,0.000597107
1.024149,-0.07733178,0.06523254,-0.02389286,0.004357556,-0.004067636
1.023416,-0.07447044,0.06398922,-0.02398068,0.003329551,-0.004900039
1.023304,-0.07127546,0.06735634,-0.02547497,-0.001910806,-0.001578566
1.021306,-0.07502542,0.07352843,-0.02377945,-0.004232607,-0.001211017
1.022336,-0.07991521,0.07559635,-0.01223601,-0.004846671,-0.010862
1.022681,-0.07899662,0.07639682,-0.004539953,-0.00459424,-0.01922722
1.021648,-0.07636851,0.07694893,-0.002420554,-0.002929285,-0.01255638
1.022572,-0.07176361,0.07487497,-0.001996409,-0.002031575,-0.004559638
1.022211,-0.06549204,0.07425362,-0.002079416,0.002087345,-0.007953031
1.02162,-0.06242151,0.07333143,-0.00523961,0.001000193,-0.008336437
1.020764,-0.06216911,0.07309368,-0.01134802,-0.00439623,-0.007292787
1.018829,-0.06347595,0.07685069,-0.01180225,-0.004769358,-0.01504655
1.020558,-0.06798304,0.07823118,-0.008264918,-0.004514676,-0.01624443
1.023759,-0.07530049,0.08051065,0.001269625,-0.00229032,-0.01034494
1.025831,-0.07978359,0.08448674,0.009199055,-0.0008922507,-0.008529441
1.027948,-0.08025724,0.07852146,0.0072905,0.0002026447,-0.008351115
1.027703,-0.08243183,0.07102556,0.009446862,0.01058455,-0.009667298
1.025559,-0.08375523,0.07290891,0.01647813,0.02043659,-0.01007796
1.023497,-0.08284323,0.07706967,0.02743173,0.01778746,-0.01016565
1.022228,-0.08460546,0.07986923,0.03583572,0.01048809,-0.01061903
1.022211,-0.08464041,0.07796748,0.03697743,0.005438233,-0.007792499
1.02217,-0.08159679,0.07356956,0.04336071,-0.0008151296,-0.006820416
1.022214,-0.07971789,0.07437563,0.0485852,-0.0005855501,-0.007401753
1.022319,-0.07812407,0.07461938,0.05413007,0.004828088,-0.005649022
1.022457,-0.07670407,0.07355074,0.05923141,0.004181092,-0.0008866039
1.02408,-0.07477652,0.07272973,0.05225794,0.007681442,0.004809129
1.025381,-0.07353731,0.06592313,0.04566063,0.009021353,0.004043172
1.024241,-0.07273406,0.06108808,0.03862413,0.003354295,0.001123332
1.02302,-0.07060626,0.0665439,0.02825065,0.0004746133,-0.0001644267
1.02382,-0.07092482,0.07466881,0.02314926,-0.009875272,-0.001440541
1.024808,-0.07209453,0.07640788,0.0215043,-0.01342633,0.002292976
1.024977,-0.07344981,0.07393786,0.02112735,-0.005860493,0.003033887
1.025025,-0.07610734,0.07414626,0.01733573,-0.007331977,-0.0007753808
1.023829,-0.07660167,0.07678505,0.01749668,-0.006240129,0.002328463
1.02234,-0.07652972,0.08173815,0.02066798,-0.004460704,0.003340227
1.022064,-0.07628895,0.08357193,0.01474247,-0.007030143,0.000613302
1.022137,-0.07515786,0.07983845,0.01115123,-0.005748433,0.002059305
1.022378,-0.0708409,0.0808529,0.007335119,-0.007278678,0.002143373
1.022173,-0.06341823,0.08389837,-1.588249e-05,-0.008250366,0.002151867
1.022479,-0.06254761,0.08429424,-0.0002104088,-0.0105981,-0.002025993
1.024366,-0.06637218,0.08122645,-0.003759098,-0.01476114,-0.005999241
1.026288,-0.0707543,0.07098187,-0.01054348,-0.007993188,-0.0003227412
1.026925,-0.07621861,0.06658976,-0.01305425,-0.001528257,-0.002816587
1.026322,-0.07266788,0.07469144,-0.01698882,-0.00488495,-0.006190038
1.027145,-0.06643288,0.08140691,-0.02131444,-0.006334006,-0.002579755
1.028017,-0.06988576,0.07912761,-0.02147658,-0.004883157,-0.006063132
1.025644,-0.07106287,0.07412864,-0.01733848,-0.009071376,-0.004342888
1.023446,-0.06975203,0.07066553,-0.01694718,-0.01277298,-0.002580133
1.023148,-0.07351089,0.0683979,-0.01927991,-0.00846662,-0.007453701
1.023216,-0.07261746,0.07718167,-0.01757595,-0.004739221,-0.00867138
1.023473,-0.07104604,0.08816119,-0.01806765,-0.005143068,-0.01133909
1.023806,-0.07342454,0.08351195,-0.01756469,-0.005903479,-0.00917184
1.024043,-0.07272191,0.07942329,-0.01219507,-0.006577934,-0.005647209
1.024783,-0.07364001,0.08078777,-0.006096648,-0.006770731,-0.005935822
1.0257,-0.07467635,0.07851425,0.001077629,-0.007247895,-0.004265202
1.024554,-0.07440165,0.0785593,0.004277095,-0.00639627,-0.005831464
1.023758,-0.0765038,0.07860802,0.003403358,-0.002369488,-0.004373658
1.023778,-0.07496392,0.08146402,0.002566853,0.001905754,-0.003142964
1.022344,-0.0741008,0.08578414,0.001179402,0.001910256,-0.003049361
1.022911,-0.07536178,0.07796045,0.0007458399,-0.001647157,0.002824492
1.023469,-0.07175295,0.06924758,0.001253307,-0.004636856,0.002347547
1.023352,-0.06898132,0.07052106,0.002866181,-0.007032496,0.0006161629
1.024907,-0.06927331,0.07260317,0.004935855,-0.008488277,0.0006157979
1.02503,-0.06936464,0.07330402,0.00925716,-0.009702172,-0.002391936
1.027364,-0.06868316,0.07457925,0.01549862,-0.0108513,-0.0009879258
1.03007,-0.06755557,0.07433914,0.01637134,-0.01101833,-0.0009007494
1.026423,-0.06773527,0.07214151,0.01588198,-0.01195111,-0.002941617
1.023388,-0.06579014,0.07082648,0.01917014,-0.009892997,-0.003914875
1.024321,-0.06160185,0.0710496,0.02143763,-0.006188548,-0.007215391
1.023828,-0.06216133,0.07192176,0.01889316,-0.004354598,-0.007909571
1.022825,-0.06631923,0.07403576,0.01246001,-0.0007185142,-0.001498999
1.023088,-0.06627064,0.07372364,0.007970824,0.0008348924,0.00517903
1.022378,-0.06405949,0.070279,0.009162895,-0.000280972,-0.0006642507
1.023539,-0.06565482,0.0687777,0.01162465,-0.001232417,-0.007905764
1.025953,-0.06576589,0.07063687,0.00799126,-0.003520449,-0.00290903
1.023677,-0.06445917,0.07595945,0.003621891,-0.003463088,-0.0005515044
1.021026,-0.06604837,0.08133075,0.003546614,-0.003718298,-0.001135146
1.020926,-0.06625861,0.08124981,0.001757603,-0.006297197,0.0007814406
1.021598,-0.06747469,0.07940736,0.0007916556,-0.005002072,-0.001774297
1.023873,-0.06898533,0.07909996,0.001023352,-0.003945359,-0.002335995
1.024666,-0.06750046,0.07737743,0.002807412,-0.007587693,-0.001206916
1.024057,-0.06812305,0.07646876,0.006003426,-0.01144173,-0.0016803
1.0233,-0.06833373,0.0749696,0.001892291,-0.01285471,0.00268553
1.021238,-0.0680024,0.07095514,-0.001379754,-0.01161966,0.006976692
1.019692,-0.07019503,0.07252778,0.0009619146,-0.01035696,0.006549772
1.018989,-0.07101998,0.07535085,0.001169403,-0.008281196,0.002528711
1.019468,-0.06995661,0.0737533,0.0001704952,-0.003897154,-0.001842951
1.019782,-0.06803253,0.07512443,-0.003311346,-0.003344616,-0.0003203674
1.01977,-0.06747052,0.07626425,-0.007018603,-0.003013974,0.005747675
1.023209,-0.06754591,0.07792142,-0.006723461,-0.0003872562,0.01077372
1.02581,-0.06687736,0.08577482,-0.006117268,-0.002671362,0.009864773
1.023383,-0.07018109,0.08881181,-0.007082031,-0.005335971,0.007814725
1.02113,-0.07309577,0.08302175,-0.008134191,-0.007278178,0.009677956
1.022239,-0.06966624,0.07766971,-0.009032697,-0.008889074,0.006809871
1.022996,-0.06656986,0.07699151,-0.009402289,-0.007029414,0.001218111
1.022753,-0.0681251,0.07822798,-0.00710499,-0.007227249,0.0001439799
1.024908,-0.06930461,0.07740438,-0.004647183,-0.00598526,0.001317687
1.025648,-0.0700742,0.0761348,-0.003229617,-0.005444104,0.003212348
1.024282,-0.07286744,0.07648693,-0.001523975,-0.01157632,0.00277217
1.024173,-0.07085435,0.07794348,2.373268e-05,-0.01371207,0.0008408037
1.022481,-0.06690627,0.07810317,0.004906149,-0.0135803,-0.0006079326
1.021981,-0.06826385,0.07541466,0.00743451,-0.0164648,-0.000459583
1.024744,-0.06835774,0.07447702,0.003779996,-0.01486728,0.003964984
1.027214,-0.06757385,0.07556617,0.002656595,-0.009763314,0.005938557
1.028138,-0.06900559,0.07668784,0.001755569,-0.006869455,0.00384176
1.025899,-0.07052591,0.07752784,-0.0006132906,-0.005869062,0.002020152
1.023943,-0.07302039,0.07346776,0.0001062527,-0.003881858,0.0005162745
1.024283,-0.07237205,0.06918723,0.000863961,-0.001520963,0.002271524
1.023716,-0.06956698,0.07154546,-0.0001162415,-0.002192721,0.003665082
1.024188,-0.0694059,0.07325198,-0.002006982,-0.002935765,0.001505939
1.025376,-0.06944205,0.07083058,-0.00330418,-0.0006286551,0.001308461
1.023971,-0.07037649,0.07103139,-0.00351385,-0.0005570314,0.005521509
1.021955,-0.07132131,0.07483473,-0.005423403,-0.001746079,0.009959554
1.021189,-0.07061362,0.07729366,-0.00754443,0.0004087939,0.008240685
1.021169,-0.07139423,0.07641479,-0.005053568,0.001545879,0.004634586
1.023371,-0.07359073,0.07378298,-0.0008490333,0.001079699,0.004032912
1.026067,-0.07515707,0.07200045,-0.002571251,0.0003448764,0.003329436
1.025179,-0.07224107,0.07027193,-0.009440904,-0.002279348,0.003711519
1.024345,-0.06660347,0.06977771,-0.01805189,-0.003715907,0.00393223
1.025458,-0.06659639,0.07491956,-0.02120716,-0.003282154,0.003557578
1.024778,-0.07086953,0.07912381,-0.01133407,-0.004123292,0.005918345
1.023502,-0.07391579,0.07542911,-0.002881605,-0.005675166,0.007900555
1.021857,-0.07286086,0.07176381,-0.005301755,-0.005718004,0.007747099
1.019997,-0.06822325,0.07346167,-0.006815978,-0.005411692,0.006583465
1.021188,-0.06587386,0.072668,-0.006949771,-0.006319297,0.006800117
1.023066,-0.06671272,0.07027786,-0.01059746,-0.007667574,0.01107462
1.023559,-0.06896158,0.07580029,-0.01347106,-0.007952447,0.01476285
1.023092,-0.07137579,0.08124732,-0.0132764,-0.005335614,0.01407017
1.021808,-0.07232656,0.07904743,-0.01209139,-0.002555256,0.0123463
1.02299,-0.07274339,0.07670642,-0.01455472,-0.001238351,0.01173428
1.024739,-0.07193383,0.07619904,-0.02814158,0.005484346,0.009215794
1.024713,-0.07161198,0.07396137,-0.04247627,0.01358746,0.006008333
1.024542,-0.070996,0.07137414,-0.03514014,0.01051727,0.006346679
1.02086,-0.06789995,0.07445872,-0.02323391,0.006372235,0.006318914
1.01773,-0.06754551,0.08077206,-0.02543773,0.01002537,0.005685487
1.020086,-0.06961398,0.08486328,-0.01878915,0.006392162,0.007308335
1.02099,-0.07295155,0.08826949,-0.004658162,-0.00525838,0.008257347
1.021653,-0.07550331,0.08793299,0.001160594,-0.01262854,0.00868405
1.025013,-0.07405894,0.08508433,0.001447258,-0.01112773,0.007463013
1.026288,-0.07424408,0.07971219,-0.006295252,-0.005258194,0.005953796
1.026356,-0.07293613,0.07004883,-0.01045539,-0.006363165,0.009234537
1.02547,-0.07089283,0.06781902,-0.007718397,-0.007182409,0.0116174
1.023527,-0.07312378,0.06966473,-0.009548591,-0.004013977,0.008246031
1.023465,-0.07280591,0.06951578,-0.009583406,-0.0035073,0.005187306
1.023856,-0.07528284,0.07611419,-0.008466108,0.002457345,0.005888104
1.024463,-0.07929443,0.07929552,-0.004486285,0.006196372,0.005889358
1.024998,-0.07576141,0.07316395,0.001713994,0.004016284,0.003234147
1.023209,-0.07390067,0.07009909,-0.001728754,0.00525639,0.001204745
1.021554,-0.07534215,0.07078786,-0.004914999,0.004776864,0.001511845
1.022097,-0.07603577,0.07221332,-0.00281035,0.005343488,0.004686143
1.022617,-0.07930411,0.074488,-0.001122923,0.005190934,0.008214124
1.022008,-0.08326379,0.079022,0.002089631,-0.0007986362,0.007278939
1.022496,-0.08233393,0.08171286,0.003710837,-0.005516856,0.003241175
1.024263,-0.07854687,0.07157351,0.00348908,-0.006060111,0.001712859
1.025311,-0.07723998,0.06170857,0.004591935,-0.004149757,0.00308071
1.025121,-0.07505595,0.07017339,0.007461965,-0.003452307,0.004619226
1.023773,-0.0737551,0.08046453,0.01038173,-0.0017047,0.007332384
1.02336,-0.07442826,0.07941463,0.008828116,-0.00372609,0.006831934
1.023592,-0.07306905,0.07832565,0.004508771,-0.009854056,-0.0005816282
1.022591,-0.07518722,0.07722076,0.003664139,-0.006869633,-0.00545896
1.022041,-0.07577786,0.07249324,0.005139488,-0.005280676,-0.004046215
1.021928,-0.07201422,0.07334048,0.004168895,-0.006753881,-0.002860842
1.021978,-0.0723746,0.07757342,-0.002101291,-0.003777053,-0.004305181
1.022944,-0.07330799,0.076895,-0.01113766,-0.006130171,-0.005068982
1.023723,-0.07437483,0.07460885,-0.01234449,-0.006629049,-0.006220661
1.022411,-0.07456281,0.074013,-0.008322057,-0.004229804,-0.009072053
1.021371,-0.07101275,0.07089587,-0.007013049,-0.004427674,-0.004736838
1.023732,-0.07083803,0.06701113,-0.004347738,-0.002054548,0.0009036311
1.024094,-0.07389852,0.07234532,-0.006352667,-0.003362795,-0.002255269
1.022813,-0.07665234,0.08123928,-0.01138687,-0.004952723,-0.003835375
1.023565,-0.07673332,0.0822363,-0.007983388,-0.005650035,-0.003088533
1.023734,-0.07391049,0.07712151,-0.00377261,-0.0126674,-0.004022328
1.026165,-0.07366781,0.07153718,-0.0002096683,-0.01574759,-0.002931916
1.027483,-0.07574194,0.0722798,0.004285384,-0.01293908,-0.001871515
1.025723,-0.07906998,0.07509291,0.003840551,-0.008721477,-0.001574626
1.02716,-0.08190081,0.07406409,0.004808259,-0.004310801,-0.001825946
1.026535,-0.08147267,0.07468477,0.005980233,-0.004248624,-0.001779585
1.024073,-0.07946292,0.07379831,0.003057287,-0.003708877,-0.001745702
1.024834,-0.07683082,0.07160338,0.001053941,-0.002032017,-0.00497015
1.024406,-0.07696852,0.07497215,-0.002192462,-0.0009728147,-0.00886171
1.023329,-0.07658381,0.07662465,-0.004872802,0.002152383,-0.01040126
1.024752,-0.0720372,0.07051659,-0.009030552,0.002139317,-0.009924748
1.026992,-0.07149129,0.06420545,-0.0179022,0.001169875,-0.00971798
1.026506,-0.0730254,0.06518275,-0.01977312,0.004368695,-0.008288611
1.024361,-0.07278289,0.07017214,-0.01832284,0.006550924,-0.005079653
1.025239,-0.07379664,0.07333373,-0.01741727,0.007028516,-0.006341467
1.02814,-0.07289222,0.0743721,-0.008743286,0.007005854,-0.007077479
1.029274,-0.07158742,0.07346352,-0.002475014,0.005250369,-0.005643
1.026688,-0.07275139,0.07339162,-0.0001089861,0.004939455,-0.006857858
1.023771,-0.07411383,0.07500744,0.006021306,0.005315501,-0.004930785
1.024864,-0.07522224,0.07501421,0.009925285,0.003850799,-0.004630181
1.025358,-0.07439023,0.07502243,0.01423254,0.003760413,-0.007509381
1.022699,-0.07292825,0.07510657,0.01751783,0.00309008,-0.006245186
1.021531,-0.0726071,0.07457968,0.01399173,0.001164822,-0.004527872
1.021434,-0.06855365,0.07381887,0.01103727,0.001484793,-0.002889711
1.020595,-0.06368603,0.07054284,0.008152349,-0.0001824134,-0.00322086
1.02127,-0.06654127,0.06844997,0.005614537,-0.001222863,-0.007347664
1.023673,-0.0701158,0.06971619,0.007280034,0.002915414,-0.00991442
1.025731,-0.0683587,0.070803,0.009365495,0.005809647,-0.01134528
1.024983,-0.0692174,0.0718087,0.01330222,0.006383122,-0.01255173
1.022592,-0.07021619,0.07310516,0.01445731,0.004880986,-0.01035425
1.02199,-0.06704431,0.07423334,0.01145811,0.001899671,-0.00645872
1.022121,-0.06440877,0.07395802,0.0102915,0.002394981,-0.006747378
1.022289,-0.06200049,0.0728714,0.005132086,0.002806574,-0.007214791
1.022347,-0.06367998,0.07480907,0.001595625,2.751815e-05,-0.005675525
1.02235,-0.0680825,0.07630461,0.003454271,-0.002591255,-0.009875393
1.024177,-0.0679707,0.07442203,0.002800752,-0.003478048,-0.01440236
1.02536,-0.07086126,0.07544631,0.005499626,-0.002861585,-0.0140602
1.024176,-0.07526203,0.07660973,0.01093059,-0.002491132,-0.0138754
1.023129,-0.07370782,0.07374948,0.0143625,-0.004661837,-0.0120238
1.023544,-0.07333879,0.07219744,0.01376109,-0.01062588,-0.009992249
1.023778,-0.0755882,0.0678795,0.00883143,-0.01444414,-0.01562771
1.022446,-0.07639688,0.06301112,0.00780922,-0.009063469,-0.02418638
1.022688,-0.07498279,0.06643374,0.002704339,-0.001740144,-0.02422817
1.025883,-0.06981847,0.07059135,-0.005388936,0.001262634,-0.02039406
1.028448,-0.0631827,0.0726817,-0.004930137,0.004752758,-0.01861402
1.026162,-0.06246078,0.0735606,-0.007387076,0.003815507,-0.01475993
1.021745,-0.06656615,0.07299796,-0.01148526,-0.002160189,-0.01208133
1.022244,-0.06674356,0.07541519,-0.01142214,-0.001561393,-0.01099797
1.02446,-0.06615692,0.07393884,-0.01126182,-0.003854808,-0.008614758
1.025145,-0.06579551,0.07049601,-0.01022854,-0.01226272,-0.007348468
1.025476,-0.06440203,0.07293445,-0.01123265,-0.01335762,-0.004982015
1.024522,-0.06797089,0.07369372,-0.009110044,-0.01350434,-0.003369389
1.025068,-0.06973696,0.07404977,-0.003766281,-0.01459899,-0.005793827
1.025343,-0.06936831,0.07595948,0.003578184,-0.01712502,-0.008663081
1.024501,-0.07226226,0.07414235,0.01322914,-0.02288943,-0.01215324
1.025371,-0.07365396,0.0720958,0.01257973,-0.02072524,-0.01628968
1.024561,-0.07335968,0.07046809,0.01270078,-0.01827449,-0.01978709
1.023016,-0.06791995,0.07047132,0.01786014,-0.01549363,-0.02200849
1.022379,-0.06130142,0.07343635,0.01494035,-0.002003034,-0.01587771
1.023471,-0.05705554,0.0740574,0.01101155,0.007898335,-0.007232792
1.026135,-0.05164374,0.07406072,0.004091494,0.00975214,-0.01097761
1.024854,-0.05708649,0.07416939,0.0005804511,0.01100898,-0.01534402
1.023428,-0.06479075,0.07437957,0.005110648,0.01146418,-0.01331473
1.024018,-0.06049157,0.07792172,0.001988976,0.01137626,-0.01428066
1.023001,-0.05969655,0.07845654,-0.001587366,0.01092095,-0.008654116
1.022856,-0.06145929,0.07482111,-0.002605333,0.006956518,-0.0006878251
1.022158,-0.05787113,0.0728335,-0.002009044,-0.0001741334,0.0004931598
1.021905,-0.05852769,0.07176011,0.005750853,-0.001054868,0.007207951
1.023669,-0.0625922,0.07202406,0.008775403,0.0004549839,0.0126413
1.023985,-0.06451393,0.07321135,0.009192965,-0.002340545,0.01246861
1.025396,-0.06444272,0.07460587,0.01409455,-0.002007332,0.01378508
1.026878,-0.06303559,0.07737971,0.0170607,-0.004815942,0.01130717
1.025468,-0.06257823,0.07782505,0.01514815,-0.01075934,0.009696156
1.024553,-0.05980087,0.07734285,0.01030922,-0.009044275,0.01013639
1.02498,-0.05591673,0.07924242,0.009092173,-0.006578417,0.01047742
1.025239,-0.0571154,0.07882183,0.008590136,-0.00451269,0.01200862
1.024845,-0.05951539,0.0758643,0.005193437,-0.002296249,0.003057984
1.025306,-0.06438277,0.07270251,-0.0001306814,-0.002689485,-0.00664018
1.026987,-0.07004958,0.07075524,-0.005844951,0.003022822,-0.00080043
1.027753,-0.06668389,0.0709177,-0.002442425,0.009389143,0.004688475
1.026315,-0.06384378,0.06913442,0.000704971,0.006762145,0.00285798
1.024075,-0.06869938,0.06847011,-0.003756092,0.003728902,0.003739484
1.024486,-0.07079765,0.06913245,-0.003765591,0.003861252,0.005671985
1.024072,-0.07046021,0.0659262,-0.001735734,0.0013182,0.006250176
1.022,-0.07367929,0.06621944,0.004206473,-0.001726501,0.00674577
1.023827,-0.07508528,0.06950479,0.0139604,-0.001822982,0.006134788
1.024362,-0.06960554,0.06999373,0.01623418,-0.004363996,0.007167025
1.022796,-0.06489605,0.07190789,0.01938172,-0.007485066,0.00859551
1.024514,-0.06819903,0.07226856,0.02325903,-0.005153967,0.007539105
1.02588,-0.07101395,0.0682694,0.01423808,-0.00220828,0.007852033
1.025703,-0.0675859,0.06589118,0.003136047,-0.002321691,0.0075246
1.024397,-0.06558486,0.06895088,0.0003021235,-0.003518665,0.004468103
1.024116,-0.06539342,0.07441926,-0.004591222,-0.004239406,0.002339204
1.025318,-0.06470889,0.07680009,-0.01159271,-0.007380057,0.002603193
1.021198,-0.06571405,0.07606609,-0.01187798,-0.01103562,0.00424544
1.018487,-0.06546663,0.07354457,-0.01086361,-0.008558265,0.004420102
1.023624,-0.06578723,0.07133041,-0.01413542,-0.008372916,0.004967001
1.027236,-0.06742041,0.0721055,-0.01403208,-0.01243107,0.005685137
1.02655,-0.06645905,0.07232934,-0.007163869,-0.01277908,0.00482914
1.025012,-0.06594937,0.07014459,-0.001497342,-0.01286116,0.005668629
1.024809,-0.06431281,0.06889483,-0.001544759,-0.01193532,0.005975556
1.025217,-0.06121365,0.06958099,-0.003027522,-0.01250957,0.006112684
1.024585,-0.06162601,0.07041116,-0.003138172,-0.01378062,0.006985697
1.02428,-0.0623405,0.07006214,-0.00811194,-0.007341072,0.00628994
1.023504,-0.06261619,0.06925541,-0.01466903,-0.0008719587,0.006578147
1.02423,-0.06534633,0.06942766,-0.01119091,0.003690756,0.006540443
1.025574,-0.06928683,0.07071592,-0.00647198,0.007288907,0.006353326
1.023682,-0.07162937,0.07180012,-0.005892999,0.008696413,0.006691194
1.02214,-0.06930193,0.07158373,-0.003222104,0.01198346,0.005840809
1.021215,-0.06672232,0.07042999,-0.002869511,0.009458792,0.005750247
1.020419,-0.06833661,0.06965264,-0.00320615,0.005768046,0.004864624
1.021158,-0.06852643,0.06949629,-0.003565786,0.008690794,0.004019872
1.022104,-0.06707775,0.06925562,-0.005078593,0.009899801,0.004649717
1.024216,-0.0666273,0.06931521,0.0004023543,0.009401624,0.005235579
1.025711,-0.06474883,0.06869327,0.006971357,0.009352857,0.007491307
1.024956,-0.06478372,0.06757118,0.006382569,0.0112556,0.009444817
1.025094,-0.06621626,0.06790446,0.003852648,0.01201455,0.008281593
1.026985,-0.06573079,0.06738469,0.001452576,0.006485522,0.006620914
1.028144,-0.06725953,0.0663319,-0.0003785564,0.002858389,0.007761914
1.026964,-0.06891847,0.06758859,0.002434445,0.004415551,0.008268797
1.02584,-0.06936447,0.06852595,0.005880658,0.007432447,0.005667213
1.026435,-0.06985042,0.067984,0.001992288,0.00871335,0.005736461
1.026269,-0.06760475,0.06809066,-0.001446631,0.00632115,0.009876124
1.024029,-0.06503419,0.06854402,0.0004293042,0.004270407,0.01361279
1.021684,-0.06392619,0.06702015,-0.002025277,0.001745365,0.01075537
1.021789,-0.06597799,0.06413355,-0.005721984,0.0002449097,0.004453668
1.023662,-0.06930917,0.06305777,-0.005274897,0.001443144,0.004134095
1.024274,-0.06627166,0.06352265,-0.004890813,-0.0007933024,0.005357587
1.024719,-0.06383846,0.06646927,-0.004189448,-0.001634714,0.005722274
1.025526,-0.06613029,0.07140809,-0.004298015,-0.0005089266,0.006552137
1.023811,-0.06619091,0.07140067,-0.005889746,-0.001808493,0.005657028
1.022862,-0.06659871,0.06831326,-0.006565871,0.0007920507,0.006211419
1.023194,-0.06731228,0.06647762,-0.009055282,0.004512975,0.005924704
1.021704,-0.06676423,0.0644958,-0.01210879,0.00590527,0.004605257
1.022098,-0.06707377,0.06764705,-0.01353992,0.00392589,0.005223024
1.022661,-0.06707236,0.07314389,-0.01465399,2.534896e-05,0.006039728
1.021976,-0.06991653,0.07378255,-0.009848921,0.004328699,0.00765245
1.023346,-0.0732272,0.07291802,-0.003112897,0.008579191,0.005738566
1.023884,-0.07182531,0.07091425,-0.003885342,0.007538049,0.002420467
1.023727,-0.07085276,0.07131916,-0.003883093,0.009210214,0.004262595
1.024532,-0.07016379,0.07410592,-0.001906114,0.00775244,0.006305003
1.024638,-0.06866499,0.07365639,-0.003725095,0.005849577,0.007664657
1.022572,-0.06968321,0.07363657,-0.003429583,0.006155385,0.009285134
1.019881,-0.06967676,0.0707831,-0.003527719,0.001118201,0.008627933
1.021865,-0.06884796,0.06556256,-0.005344604,-0.001858258,0.006436117
1.025055,-0.0690726,0.06641329,-0.00213174,0.0003211959,0.004888673
1.025066,-0.06854487,0.06937564,-0.0005647754,0.002559321,0.00525609
1.024772,-0.06952543,0.07067897,-0.002518434,0.006304175,0.00468038
1.023144,-0.06997451,0.07107731,-0.001120693,0.007462256,0.003920352
1.021556,-0.06872672,0.07101654,0.0009806825,0.005952885,0.004860825
1.022249,-0.06858181,0.07108855,0.0025512,0.00747203,0.004260166
1.022426,-0.06702238,0.07036479,0.001084281,0.007482141,0.002363908
1.022272,-0.06616189,0.07050082,-0.002634849,0.002667863,0.001347209
1.023109,-0.06811856,0.07430263,-0.0008307816,-0.00397682,0.003459703
1.024126,-0.06919372,0.07813349,0.0006266613,-0.007506767,0.007833535
1.024578,-0.06964816,0.07886473,-0.0005301531,-0.004487228,0.01054731
1.025033,-0.06956034,0.08170029,0.0002285977,-0.001060963,0.008679164
1.025105,-0.06972163,0.08116836,-0.0003305626,-0.0001204425,0.002070305
1.023871,-0.07231871,0.07284292,-4.34596e-06,-0.0007558802,-0.0008833229
1.023706,-0.0740344,0.06933896,0.000232349,-0.003230087,0.001189991
1.025465,-0.07169174,0.07217278,-0.003024881,-0.0009360417,0.002991735
1.026567,-0.06802812,0.07535544,-0.005088703,0.002435968,0.004937449
1.024673,-0.06747945,0.07583486,-0.003156957,0.0008374198,0.00430998
1.021532,-0.0686098,0.07430935,0.0004544012,-0.0003914229,0.003346432
1.021059,-0.0688407,0.07586721,0.0006059054,-0.00379229,0.003460895
1.020997,-0.06983455,0.07530029,-0.000649261,-0.00916321,0.001336187
1.020591,-0.07093666,0.07297003,0.0005562511,-0.01087908,0.0004910604
1.022037,-0.07272061,0.07218003,0.001531039,-0.008878794,-0.000850579
1.022471,-0.07536424,0.0671313,0.003302654,-0.00443894,-0.003733422
1.022293,-0.07527807,0.0629827,0.005134721,-0.004111921,-0.003923734
1.023377,-0.07429508,0.06538081,0.006343632,-0.008615705,-0.00293841
1.024669,-0.07378389,0.07088046,0.009606254,-0.01424283,-0.001600688
1.025472,-0.07340892,0.07533279,0.01243906,-0.01858012,-0.00119114
1.024703,-0.07563214,0.075658,0.01531065,-0.01673188,-0.003628243
1.023748,-0.07716263,0.07459346,0.01746208,-0.01581026,-0.002793507
1.022722,-0.07546234,0.0749565,0.01675164,-0.01704002,0.003209959
1.021638,-0.07288491,0.07435617,0.01713403,-0.01243832,0.005437652
1.022736,-0.07045442,0.06999798,0.01263441,-0.008892331,0.004076936
1.024374,-0.07068689,0.06489307,0.004842686,-0.008804835,0.003830226
1.026141,-0.07222854,0.06436075,0.007347434,-0.007564368,0.002362546
1.026565,-0.07125356,0.06608919,0.007884627,-0.006690029,-1.491356e-05
1.023146,-0.06791763,0.06618751,-0.003455653,-0.005794958,-0.002356981
1.020447,-0.06391052,0.06600972,-0.01344313,-0.003587511,-0.002600401
1.020914,-0.06452684,0.06446849,-0.0189934,-0.002175725,-0.001349981
1.022815,-0.06662721,0.06135842,-0.02193087,-0.005014426,-0.0005440139
1.024582,-0.0650775,0.06283452,-0.02147685,-0.008179025,0.001143724
1.025409,-0.06831437,0.06668158,-0.01914386,-0.006497723,4.57929e-05
1.02667,-0.07386398,0.06667403,-0.01446927,-0.005339702,0.0008690018
1.026986,-0.07487784,0.06488629,-0.007033113,-0.005643938,0.004880962
1.026813,-0.07500909,0.06247804,-0.0007431304,-0.0005877338,0.004923055
1.027137,-0.07290505,0.06045599,-0.001985385,0.008473771,0.004469207
1.022674,-0.07040878,0.05913658,-0.004758799,0.01489448,0.002442393
1.017689,-0.06947997,0.05855935,-0.00340559,0.01500877,0.001747382
1.020892,-0.06715472,0.06160178,-0.001974039,0.00774311,0.003238503
1.024013,-0.06530393,0.06939501,-0.0006473004,-0.0007302045,0.001917117
1.021614,-0.06433063,0.07808849,-0.006882286,-0.002251371,0.006422271
1.021808,-0.06241193,0.07644219,-0.01675446,-0.001167662,0.01099877
1.02297,-0.05866519,0.07076789,-0.01478823,-0.002332063,0.008224228
1.022056,-0.05874628,0.06925351,-0.009449004,-0.0003556063,0.004101861
1.024095,-0.06706945,0.06131619,-0.006548783,0.002436601,-0.0002508601
1.025635,-0.07328642,0.06127723,0.0006909313,-0.0005180628,-0.003408455
1.023746,-0.07155885,0.06999751,0.009874005,-0.004459302,-0.009007373
1.022334,-0.0703329,0.06609538,0.01642741,-0.006328328,-0.01109559
1.021951,-0.07346962,0.06044362,0.01737593,-0.007951656,-0.00719819
1.022652,-0.07454049,0.05652706,0.01387692,-0.009277229,-0.0084978
1.024289,-0.07443874,0.05825151,0.01030651,-0.01092812,-0.006673695
1.02627,-0.0761786,0.06972162,0.01068748,-0.01097939,-0.00308884
1.02702,-0.07541841,0.07236066,0.01321711,-0.009264946,-0.006626964
1.026191,-0.07630933,0.07188271,0.01109806,-0.004700321,-0.008322206
1.02726,-0.0773514,0.06628678,0.00784289,0.001981742,-0.008740972
1.027963,-0.07537124,0.05652393,0.004514687,0.0009746455,-0.007511347
1.025799,-0.0768446,0.06678287,-0.0001896018,-0.0009369499,-0.002657132
1.024424,-0.07574404,0.0746757,0.001024285,0.002676507,-0.001875122
1.024522,-0.07121884,0.06590469,0.001769122,-0.00189832,-0.003571668
1.023552,-0.06919349,0.06365108,-0.003241549,-0.007483266,-0.005238654
1.021523,-0.07022736,0.06681564,-0.004610023,-0.004260655,-0.007324964
1.021889,-0.07384297,0.06795219,-0.001818069,-0.001437578,-0.005894855
1.022899,-0.0720853,0.06987215,0.0001262861,0.002111287,-0.00479146
1.021797,-0.07018902,0.07325319,-0.0006774395,0.005698632,-0.009466162
1.022205,-0.07181065,0.07300937,-0.00188392,0.006905444,-0.01264203
1.022732,-0.06987849,0.07097392,-0.0017489,0.009450145,-0.008032872
1.022722,-0.06969503,0.0723633,-0.003073677,0.008464118,-0.002826111
1.024133,-0.06792439,0.06932845,-0.004650763,0.00400814,-0.002618531
1.023698,-0.06518547,0.06443312,-0.006723067,0.001287497,-0.002156987
1.023234,-0.06734829,0.06333708,-0.01032333,0.002092465,0.000444332
1.023961,-0.06671302,0.06212712,-0.01360362,0.004546151,0.00228283
1.023446,-0.06622801,0.06329408,-0.01748789,0.00294789,0.004424799
1.023941,-0.06719207,0.06384698,-0.01960423,0.001868824,0.005283074
1.025542,-0.06625645,0.05969877,-0.01838803,0.003374286,0.00582846
1.026588,-0.06686481,0.05508059,-0.01776904,0.004610519,0.00906877
1.025831,-0.06668927,0.05288418,-0.01799439,0.008160246,0.006973752
1.024268,-0.06648006,0.05458022,-0.016987,0.007643124,0.000790234
1.025068,-0.06710246,0.06205597,-0.0142851,0.005285982,-0.0004779336
1.025365,-0.06732892,0.07210336,-0.0100648,0.006487134,-0.0002606278
1.024405,-0.06881823,0.07133711,-0.006569917,0.00274374,-0.0004224096
1.024328,-0.06994193,0.06070494,-0.004355752,-0.0006434549,-0.002572455
1.023366,-0.07089191,0.05686965,-0.001883058,0.0006734227,-0.005853846
1.023489,-0.07041298,0.06003202,-0.003315814,-0.0009033898,-0.0041274
1.025118,-0.06935952,0.0635703,-0.007224982,-0.003542531,-0.001722918
1.026269,-0.07309458,0.06531828,-0.005440683,-0.004571139,5.227761e-05
1.028186,-0.07611093,0.06756362,-0.00231129,-0.00470298,0.002809089
1.027305,-0.07268197,0.07114423,0.0002073704,-0.003392874,0.001600365
1.022147,-0.06838395,0.06859592,0.003828249,0.001767853,-0.001665893
1.019766,-0.0674632,0.06493058,0.003143914,0.006938763,-0.001028988
1.022712,-0.06795187,0.06392904,0.00562817,0.003457572,0.002349162
1.024772,-0.06732368,0.06295273,0.01172328,-0.001917706,0.002471131
1.023298,-0.06664265,0.06600332,0.009545454,-0.001142346,0.002308467
1.023279,-0.06832681,0.06741014,0.005758661,0.001972124,0.003727067
1.024106,-0.07010156,0.06786268,0.001792296,0.006428995,0.001718765
1.023294,-0.06824885,0.06855046,-0.007526076,0.01162667,0.001086482
1.023822,-0.06552903,0.06441198,-0.009641401,0.0139194,0.001081248
1.024867,-0.06554342,0.06441553,-0.0008590245,0.01121238,-0.0003607481
1.025909,-0.06821958,0.06975164,0.005548176,0.007199685,0.001398658
1.026611,-0.07220213,0.07541702,0.006084282,0.008292257,0.002563623
1.02443,-0.07291696,0.07558478,0.007986344,0.009651959,0.00351718
1.022725,-0.07075699,0.06811101,0.01278602,0.007522887,0.004896242
1.023137,-0.07046388,0.06563607,0.020865,0.007351211,0.004791441
1.023937,-0.06988367,0.06789578,0.02973152,0.006984613,0.005658854
1.025489,-0.0678289,0.06991967,0.02568667,0.006657124,0.007257102
1.026107,-0.06599412,0.06982804,0.01700338,0.007636946,0.008576268
1.02518,-0.06473821,0.06600127,0.01958083,0.006356511,0.004581832
1.024027,-0.06503175,0.06651774,0.01698923,0.006944962,0.000100481
1.02321,-0.06469292,0.06811282,0.008690013,0.008129582,0.00330002
1.024104,-0.06321267,0.06783084,0.004627302,0.008079786,0.004564465
1.026568,-0.06292906,0.06781114,-0.005990825,0.009202031,0.003172707
1.028374,-0.06252483,0.06372338,-0.01456993,0.008971427,0.005070461
1.027414,-0.06270657,0.0595523,-0.01558834,0.008525461,0.00579465
1.023716,-0.06613656,0.0582437,-0.01575741,0.006353543,0.003238895
1.021254,-0.07123935,0.05935488,-0.01200749,0.004515231,-0.0007683872
1.022218,-0.07434802,0.06153863,-0.009497747,0.006138189,-0.00268544
1.023595,-0.07388712,0.06287678,-0.004913767,0.006858299,-0.002167645
1.023862,-0.07255821,0.06463003,0.002406052,0.008574292,-0.0009991776
1.024303,-0.07104443,0.06395598,0.00384632,0.009780724,0.001698993
1.024237,-0.06741977,0.06428361,0.003984964,0.008579492,0.003356662
1.024921,-0.1688042,-0.07182171,0.02219198,0.1234265,-0.1407101
1.025669,-0.1711997,-0.06814935,0.02214642,0.1296236,-0.1441845
1.02341,-0.1675218,-0.06408747,0.02596858,0.1234337,-0.1438052
1.022115,-0.164164,-0.06110212,0.02305305,0.1112816,-0.145422
1.020336,-0.1677326,-0.06244134,0.02484895,0.1092439,-0.1453432
1.018652,-0.1703826,-0.06326188,0.02068251,0.1109811,-0.1438951
1.019581,-0.1638992,-0.062248,0.009283378,0.1121445,-0.146024
1.020002,-0.1565243,-0.0647431,0.003103115,0.1137055,-0.1431742
1.020662,-0.154445,-0.06791953,0.001224768,0.1097602,-0.1373348
1.02108,-0.1540147,-0.06875087,0.006938544,0.1047547,-0.1339787
1.019108,-0.1562972,-0.07008853,0.009213171,0.1020822,-0.1291296
1.018969,-0.158525,-0.07240557,0.009660197,0.1031068,-0.1288059
1.020968,-0.1585375,-0.07458593,0.01580677,0.1151767,-0.1302826
1.021174,-0.158302,-0.07499982,0.01764396,0.1273486,-0.1280687
1.021503,-0.157792,-0.07229933,0.01947693,0.1222659,-0.1281417
1.022721,-0.1562433,-0.06717214,0.02469933,0.1134473,-0.1281292
1.022008,-0.1522171,-0.06366246,0.03079465,0.1156311,-0.1282127
1.021292,-0.150287,-0.06540666,0.03021244,0.1164932,-0.1289533
1.021527,-0.1516911,-0.0669978,0.02615182,0.1145714,-0.1277121
1.021325,-0.1515718,-0.06590037,0.03114073,0.1102689,-0.1281157
1.020752,-0.1515159,-0.065157,0.03109462,0.1016939,-0.1262656
1.019745,-0.1536144,-0.06356701,0.02864898,0.1078461,-0.1224444
1.020231,-0.1565426,-0.06480388,0.03173898,0.116284,-0.1218222
1.02117,-0.157638,-0.06935172,0.03242399,0.1117465,-0.1223949
1.020801,-0.1569296,-0.07173774,0.03896497,0.1132023,-0.1261434
1.021169,-0.1580436,-0.07280437,0.04265949,0.1123253,-0.1290443
1.022601,-0.1605904,-0.0723064,0.03825649,0.1064403,-0.1265416
1.023998,-0.1604307,-0.07172914,0.03536104,0.1089558,-0.1242688
1.022437,-0.1548278,-0.07232372,0.02802788,0.1109326,-0.1210269
1.018745,-0.1492497,-0.07027611,0.02258332,0.1112799,-0.1170921
1.018358,-0.1502922,-0.06785125,0.02443949,0.1088789,-0.1193984
1.022404,-0.1497774,-0.06508652,0.02335339,0.1016454,-0.1222244
1.025943,-0.1438147,-0.06143017,0.01576368,0.09999422,-0.1169672
1.021897,-0.1437557,-0.0633347,0.008949215,0.1016768,-0.1089643
1.01711,-0.1479265,-0.06784362,0.007421821,0.1003554,-0.1033069
1.019997,-0.1498398,-0.06798545,0.004529833,0.1008285,-0.1006274
1.021374,-0.1525581,-0.06529462,0.001323008,0.1034787,-0.09913089
1.020991,-0.152655,-0.06357416,-0.0004154821,0.102845,-0.09547001
1.023127,-0.1522417,-0.0662091,-0.003886424,0.1022556,-0.09606318
1.02218,-0.154564,-0.06923205,-0.004245165,0.1025832,-0.09640009
1.021698,-0.1540282,-0.06623022,-0.002645235,0.09959215,-0.0909901
1.022833,-0.1533344,-0.06323498,-0.001756077,0.09654182,-0.09167699
1.02186,-0.1509967,-0.06224654,0.003665846,0.0935003,-0.091245
1.02188,-0.1468306,-0.05876568,0.01070099,0.09368136,-0.0877909
1.020679,-0.1476583,-0.05870637,0.01071594,0.09762867,-0.09074093
1.01875,-0.1477158,-0.06003193,0.0108161,0.09521019,-0.09038751
1.020375,-0.146474,-0.05746353,0.01775849,0.08976301,-0.08875058
1.021257,-0.1476553,-0.05876991,0.02146804,0.08832484,-0.08912139
1.019766,-0.1472219,-0.06271123,0.0257146,0.08862028,-0.09070721
1.019056,-0.1469637,-0.06429705,0.03427867,0.08693341,-0.09470882
1.019844,-0.147507,-0.06437578,0.03665144,0.0856358,-0.09084926
1.021755,-0.1474162,-0.06253294,0.03834661,0.08727602,-0.08675254
1.02438,-0.148663,-0.06312369,0.04083289,0.08590048,-0.0873933
1.025473,-0.1488466,-0.06459719,0.03822066,0.08462265,-0.08522918
1.022876,-0.1467835,-0.06266115,0.03531501,0.08447173,-0.08638981
1.020464,-0.1464802,-0.05947708,0.03025902,0.08126212,-0.08783636
1.020565,-0.1471227,-0.05677865,0.02448942,0.07991339,-0.08702244
1.020036,-0.146292,-0.06153383,0.02558781,0.07885471,-0.08606063
1.019149,-0.147125,-0.06696947,0.02866193,0.07800822,-0.07900609
1.019513,-0.1481177,-0.05895157,0.02771804,0.07816496,-0.07169774
1.020707,-0.1473569,-0.05155135,0.02634157,0.07682351,-0.07103958
1.021944,-0.1482492,-0.05321229,0.02630266,0.07590695,-0.07081928
1.022507,-0.1484746,-0.05368634,0.02763405,0.07277581,-0.06902462
1.02227,-0.1489799,-0.05623819,0.03019904,0.0694732,-0.06992654
1.02202,-0.1506721,-0.06027576,0.02707624,0.06827458,-0.07101119
1.022362,-0.147992,-0.06042137,0.02310991,0.06549329,-0.06892098
1.022416,-0.1460424,-0.06115737,0.02538229,0.06297624,-0.06453317
1.022803,-0.1471435,-0.05480326,0.02491007,0.06100911,-0.06154132
1.023148,-0.1472827,-0.04480702,0.0231851,0.056411,-0.0628717
1.021962,-0.149128,-0.05097365,0.02426324,0.05286368,-0.06279499
1.021901,-0.1500756,-0.06018045,0.02499313,0.05866039,-0.06396377
1.022444,-0.1490586,-0.06150789,0.02572168,0.06490469,-0.06633429
1.021146,-0.1477397,-0.06467825,0.02316789,0.06065934,-0.06225678
1.0205,-0.1452554,-0.06390719,0.01961826,0.05764919,-0.0614688
1.020908,-0.1472803,-0.06179988,0.01888778,0.05758162,-0.06118753
1.020698,-0.151002,-0.06070377,0.01921139,0.05351873,-0.05816636
1.019908,-0.150277,-0.05485736,0.02097728,0.05013665,-0.06123755
1.01916,-0.1509023,-0.05421135,0.0214072,0.04674569,-0.06122812
1.019545,-0.1508946,-0.05984008,0.01956936,0.04425343,-0.05951964
1.020711,-0.1468212,-0.06442606,0.01731501,0.04369822,-0.05863939
1.022416,-0.1462848,-0.06511828,0.01361269,0.04043141,-0.05599437
1.025455,-0.1487729,-0.06427563,0.01020683,0.04070338,-0.05730282
1.02808,-0.1505764,-0.0659554,0.01010235,0.04515628,-0.05531607
1.027469,-0.1526999,-0.06336552,0.01114704,0.04668725,-0.05280946
1.023869,-0.1491614,-0.06188722,0.01085199,0.04907833,-0.05255741
1.021172,-0.1433573,-0.06748359,0.01231976,0.0523541,-0.04931502
1.021957,-0.1459143,-0.07095333,0.01336653,0.05314669,-0.04892489
1.022868,-0.1479274,-0.06978321,0.01157456,0.05312317,-0.0476101
1.022256,-0.145562,-0.06268212,0.01131302,0.05096048,-0.04575456
1.023526,-0.1472982,-0.05866828,0.008645364,0.04240885,-0.04449041
1.024108,-0.149363,-0.0621341,0.004966474,0.03404609,-0.04133635
1.021246,-0.1502267,-0.06145907,0.007563206,0.03815269,-0.04490054
1.019876,-0.1505649,-0.06135963,0.01121876,0.04111908,-0.04782824
1.01984,-0.1494654,-0.06338085,0.0142856,0.03388244,-0.04317969
1.019942,-0.1512018,-0.06224604,0.01650956,0.03123137,-0.04033006
1.022301,-0.1518883,-0.06239555,0.01605287,0.03154623,-0.04053041
1.02276,-0.150767,-0.06232409,0.01761557,0.03562651,-0.03976175
1.021523,-0.1508302,-0.0602265,0.0186356,0.0425734,-0.04028061
1.021603,-0.1495496,-0.05782099,0.0187006,0.03990664,-0.045666
1.020563,-0.1498703,-0.05773826,0.01849752,0.03994918,-0.04758698
1.020708,-0.1500583,-0.06052637,0.01125917,0.04517778,-0.04299615
1.022195,-0.1478082,-0.06200973,0.004197511,0.04231975,-0.03796491
1.022188,-0.1472665,-0.06191703,0.003130295,0.04051548,-0.03242097
1.022365,-0.1489469,-0.06078123,0.002181592,0.04250839,-0.03278191
1.022185,-0.1517236,-0.06166955,0.004865223,0.04025005,-0.03664918
1.021904,-0.151162,-0.06406768,0.01291674,0.03755075,-0.03762284
1.021561,-0.1472292,-0.06194534,0.01717502,0.03627525,-0.04111879
1.02055,-0.1449168,-0.06181145,0.01417781,0.03539238,-0.0406407
1.021675,-0.144822,-0.06315204,0.01204117,0.03508227,-0.0361417
1.022789,-0.1462549,-0.05898079,0.01154438,0.03091703,-0.03513793
1.021703,-0.1460874,-0.05758903,0.00671577,0.02537808,-0.03371483
1.020528,-0.1457169,-0.05967265,0.00165577,0.02393919,-0.03220446
1.01992,-0.148321,-0.06348206,-0.0003826113,0.02475961,-0.02982781
1.021002,-0.1517413,-0.06756042,-0.000867953,0.02617389,-0.02877402
1.022257,-0.1561439,-0.0612946,-0.001115123,0.02610658,-0.03081289
1.022098,-0.1582759,-0.0537176,0.002688825,0.02584356,-0.03134648
1.021987,-0.1562089,-0.05559208,0.01348334,0.02786117,-0.03393655
1.020485,-0.1544513,-0.05818079,0.01882484,0.02796913,-0.03404248
1.018707,-0.1523165,-0.05840568,0.01684482,0.02696136,-0.03087123
1.019246,-0.1503973,-0.05902726,0.01706428,0.02810136,-0.0306281
1.018889,-0.1516927,-0.06093796,0.01725077,0.02758785,-0.02734303
1.017515,-0.1527334,-0.06321809,0.01673032,0.02595645,-0.02643906
1.018372,-0.1514792,-0.06315613,0.01576386,0.02706796,-0.02884441
1.020137,-0.1477426,-0.06288255,0.01356674,0.02987479,-0.02675892
1.020968,-0.1427171,-0.06527884,0.01201272,0.03245438,-0.02602351
1.020203,-0.143772,-0.06596096,0.01030881,0.0308432,-0.02593683
1.01903,-0.146936,-0.0646591,0.008943957,0.02909167,-0.02672335
1.020477,-0.1455734,-0.064832,0.006637015,0.03344186,-0.02891757
1.022203,-0.147188,-0.06127393,-0.0001706713,0.03471712,-0.02674456
1.021542,-0.1483626,-0.05560805,-0.006391634,0.03069161,-0.02557036
1.021103,-0.1461623,-0.05469673,-0.001437415,0.02618482,-0.02643385
1.020979,-0.1472256,-0.05616156,0.005874382,0.02224564,-0.02593418
1.021269,-0.1461108,-0.05814404,0.003114473,0.02216611,-0.02497518
1.024152,-0.1448719,-0.06230123,0.003752106,0.02204598,-0.02352151
1.02615,-0.1479347,-0.06915769,0.007418004,0.0217024,-0.02389136
1.02458,-0.1491568,-0.07345683,0.006087855,0.02345245,-0.02415148
1.023486,-0.1502295,-0.07061563,0.01075228,0.02333654,-0.02298745
1.022995,-0.1505697,-0.06279264,0.01309731,0.025422,-0.02195848
1.021762,-0.1484182,-0.05743913,0.006726894,0.03012089,-0.02072231
1.023105,-0.1456652,-0.06556144,0.002111267,0.03154698,-0.02068276
1.024322,-0.1409523,-0.07608786,-0.001283993,0.03355533,-0.01987092
1.023244,-0.1411569,-0.06983633,-0.002683555,0.03725889,-0.01549011
1.023284,-0.1465767,-0.05617732,-0.004078867,0.03727266,-0.01041508
1.021994,-0.147809,-0.04634115,-0.005317679,0.03150697,-0.009584331
1.020411,-0.1472926,-0.04491672,-0.002733499,0.02137033,-0.009775266
1.022784,-0.1476842,-0.05380006,-0.002543914,0.01800723,-0.007301485
1.025358,-0.1496607,-0.06130993,-0.0003992984,0.02128869,-0.006378664
1.024926,-0.1526192,-0.06569883,0.006785721,0.01990459,-0.006505211
1.022729,-0.1512463,-0.06307901,0.01174997,0.02167194,-0.009314067
1.020884,-0.1498486,-0.05437194,0.01275339,0.02521065,-0.01305956
1.020627,-0.1501593,-0.05852018,0.01379891,0.02338855,-0.01253157
1.021841,-0.1485383,-0.06120438,0.0192573,0.02199978,-0.01363774
1.022309,-0.1476113,-0.05852332,0.01867046,0.01793162,-0.01495704
1.020293,-0.1469668,-0.06585813,0.0140828,0.01459156,-0.01492927
1.018833,-0.1472029,-0.06535912,0.01757089,0.01725179,-0.01382045
1.019369,-0.1486997,-0.06280338,0.01898439,0.02275167,-0.009755464
1.02009,-0.1494617,-0.06423278,0.02014787,0.02663021,-0.009968834
1.021109,-0.1506339,-0.05634203,0.02072917,0.0206686,-0.0100298
1.022655,-0.151296,-0.05295897,0.01597187,0.0147728,-0.009308571
1.023009,-0.1534456,-0.05654034,0.0180413,0.0197502,-0.01187597
1.02344,-0.1566216,-0.06138529,0.01835973,0.02513234,-0.01020432
1.025395,-0.1549839,-0.06397528,0.01661155,0.02668804,-0.009825312
1.023288,-0.1502714,-0.06039832,0.02193198,0.02587012,-0.01056528
1.01941,-0.146305,-0.05882995,0.02435723,0.01894828,-0.009258188
1.020849,-0.1455942,-0.05585196,0.02613672,0.01241825,-0.01111792
1.022046,-0.1487227,-0.0526654,0.02645646,0.01570625,-0.01068492
1.020439,-0.1505876,-0.05293435,0.0241405,0.01914485,-0.007564746
1.019612,-0.1483732,-0.05137228,0.02285421,0.01627189,-0.002944654
1.019571,-0.1463056,-0.04821899,0.01847825,0.0159037,-0.001104723
1.020319,-0.1483819,-0.04174931,0.01923834,0.01467718,-0.004019117
1.021066,-0.150132,-0.04064476,0.0227236,0.007703672,-0.002045823
1.021195,-0.1489189,-0.04708433,0.02184807,0.004074745,-0.002291172
1.021496,-0.1483129,-0.05059222,0.02255061,0.00857777,-0.005134325
1.022519,-0.1476112,-0.05235371,0.02092425,0.01315058,-0.002045306
1.022519,-0.1469835,-0.0514347,0.01867827,0.009999195,0.001116434
1.0214,-0.1472657,-0.05102576,0.01984269,0.005496058,0.00391486
1.020702,-0.1473649,-0.05393277,0.02006891,0.002191495,0.00180821
1.018953,-0.1480169,-0.05415345,0.01816675,-0.003921179,-0.003034291
1.019305,-0.1481054,-0.05305171,0.0128897,-0.00358506,1.66342e-05
1.021977,-0.1475743,-0.05104047,0.008887089,0.00221478,0.002879836
1.022346,-0.1470692,-0.05125287,0.007056519,0.003106784,0.003641947
1.022383,-0.1464512,-0.05567075,0.002722977,0.0005592314,0.004576126
1.022533,-0.147839,-0.05721267,0.001556498,-0.003127434,0.001994748
1.023791,-0.1512361,-0.05684245,0.004761921,-0.002481648,0.001265622
1.025896,-0.1531142,-0.0570461,0.007608606,-0.0003005863,0.002033673
1.024594,-0.1502392,-0.05666713,0.007364847,-0.001338883,0.002689278
1.022836,-0.1463128,-0.0561256,0.003419214,0.001868533,0.005590842
1.022065,-0.1468754,-0.05489014,0.002303329,0.003686502,0.006515194
1.021799,-0.1477091,-0.05365335,0.002805659,0.002802697,0.004533401
1.022663,-0.1459224,-0.05248976,0.001781346,0.004461302,0.003103823
1.022104,-0.1466272,-0.05185134,0.002474067,0.004127335,0.00542295
1.02202,-0.1513651,-0.05054911,3.692855e-06,0.003573753,0.008089412
1.022554,-0.155689,-0.04854279,-0.003231018,-0.000527905,0.005451689
1.02196,-0.1545356,-0.05294318,-0.001695053,-0.004181115,0.002450079
1.022307,-0.1509224,-0.05962383,0.0008750355,-0.0001064118,0.0002161588
1.022312,-0.1499849,-0.05835001,0.003440902,0.002244728,-0.002180752
1.022038,-0.1471865,-0.05475344,0.001220882,0.004268278,-0.000408658
1.022402,-0.1445091,-0.05264966,-0.004958176,0.003127436,0.00271233
1.022477,-0.1467392,-0.04698558,-0.009276412,-0.003651684,0.006579633
1.02401,-0.148745,-0.04023783,-0.0126474,-0.004954791,0.01212651
1.025626,-0.1504126,-0.04014853,-0.01064489,-0.006054108,0.01570607
1.025101,-0.1499527,-0.04875467,-0.006901573,-0.003538193,0.01745722
1.024678,-0.1455954,-0.05655456,-0.008433294,0.002824514,0.01407508
1.025161,-0.1437252,-0.05695628,-0.009362052,-0.003684783,0.007051676
1.025068,-0.1449084,-0.05752499,-0.009314521,-0.009061037,0.005466558
1.024823,-0.1485457,-0.06008634,-0.009955843,-0.004755299,0.005527356
1.024957,-0.1524022,-0.05764095,-0.009360498,-0.004190972,0.004925938
1.023914,-0.1534653,-0.05368397,-0.007551519,-0.002404628,0.008415403
1.021993,-0.1538846,-0.05378151,-0.005004331,0.0004999304,0.01065837
1.020193,-0.151367,-0.05124257,-0.00500543,-0.002820879,0.01006123
1.019788,-0.1470958,-0.04915869,-0.006936804,-0.004846056,0.01134553
1.023829,-0.1465021,-0.05533231,-0.01002285,-0.0007645838,0.01160926
1.027542,-0.1479856,-0.05765904,-0.01416553,0.00233237,0.005502931
1.023839,-0.1490704,-0.05641558,-0.01616799,0.0007656208,-0.001155558
1.019494,-0.1504272,-0.05934744,-0.01742337,0.0001469031,0.002781241
1.020687,-0.1511899,-0.0588843,-0.01546976,0.001173497,0.006132624
1.020884,-0.1500999,-0.05953546,-0.01156471,0.0005520053,-0.002501819
1.020358,-0.1490263,-0.06031401,-0.00957217,0.0001652369,-0.007643617
1.022943,-0.1483262,-0.05586904,-0.004870609,-0.0007134265,-0.003854663
1.02255,-0.149094,-0.05542196,-0.00181952,-0.005352526,0.0008697997
1.020498,-0.1519193,-0.05645188,0.0008173385,-0.01311769,0.00413114
1.021062,-0.1519217,-0.05699442,0.005989601,-0.018302,0.003157523
1.020719,-0.1504286,-0.05744222,0.005013234,-0.0181628,0.001353083
1.020718,-0.1517236,-0.05468075,0.003192247,-0.01965272,0.001836709
1.021298,-0.1517871,-0.05302745,0.001406019,-0.02276777,0.002792664
1.02179,-0.1479817,-0.05065475,-0.004900002,-0.02199275,0.007127655
1.024439,-0.1460685,-0.05117147,-0.009060627,-0.02015242,0.01126692
1.025504,-0.1465721,-0.0558558,-0.01455649,-0.01569757,0.007107564
1.023586,-0.1446105,-0.05857955,-0.02154098,-0.01083088,0.002548774
1.021448,-0.1439318,-0.06234799,-0.02463135,-0.01316416,0.007550781
1.020451,-0.1446159,-0.06134184,-0.02949925,-0.01667749,0.01489789
1.021911,-0.1437154,-0.05721459,-0.03531062,-0.0190017,0.01898381
1.023635,-0.144854,-0.05740926,-0.040131,-0.02266494,0.01991379
1.02343,-0.1471338,-0.05583972,-0.0452188,-0.02296268,0.01782992
1.021782,-0.1491009,-0.05504392,-0.04234977,-0.01654874,0.01833125
1.020233,-0.1532244,-0.05622816,-0.03601722,-0.007418261,0.01626339
1.020683,-0.1584205,-0.05716266,-0.03257936,-0.007798734,0.00778593
1.021228,-0.1572856,-0.05901439,-0.02230939,-0.01077534,0.004489303
1.020426,-0.1536209,-0.05827,-0.01372768,-0.004996088,0.007628014
1.020083,-0.1571471,-0.05668581,-0.0113973,-0.004830825,0.01015735
1.020431,-0.1575673,-0.05517971,-0.002237099,-0.00999048,0.008878328
1.02207,-0.1529105,-0.05359853,0.004571999,-0.01434166,0.00697132
1.024667,-0.1490672,-0.05502011,0.002868703,-0.01990223,0.007296339
1.025571,-0.1441441,-0.05620229,0.002586099,-0.01783194,0.006067473
1.025842,-0.1470373,-0.05574287,0.003260098,-0.01406344,0.005988102
1.02644,-0.1508505,-0.05716675,0.001920096,-0.01207862,0.006269838
1.025042,-0.1480394,-0.05911638,5.652424e-05,-0.007978273,0.005049982
1.021742,-0.1517462,-0.05843538,-0.001999769,-0.009233619,0.006730045
1.019065,-0.156451,-0.05697212,-0.003703829,-0.008041574,0.008898813
1.019248,-0.1546338,-0.05422269,-0.002174528,-0.003567142,0.01136667
1.020918,-0.1516048,-0.04995966,0.0004550951,-0.005201864,0.01047942
1.021841,-0.1495326,-0.05158205,-0.0001275226,-0.003147977,0.004310044
1.022531,-0.1493775,-0.05713528,-0.001633859,0.004328286,0.001506468
1.022295,-0.148841,-0.05954046,-0.0009319728,0.007910565,0.002364549
1.02196,-0.1486153,-0.06139892,0.0002856302,0.006360996,0.004182316
1.022441,-0.1476346,-0.06291294,-0.002326134,0.002675021,0.003748041
1.021625,-0.1427235,-0.06271138,-0.007655023,0.0002948998,0.00351394
1.019459,-0.1381566,-0.06236127,-0.01376142,0.0005711063,0.008841849
1.018635,-0.1408115,-0.06163545,-0.01589318,0.001956327,0.01033617
1.023859,-0.1550818,-0.06043409,-0.007706562,0.002383333,0.006659339
1.030368,-0.1662179,-0.06074022,-0.002073066,0.004167869,0.005903792
1.028244,-0.1587282,-0.06194816,-0.006436587,0.007554763,0.008616012
1.024869,-0.1497746,-0.05655485,-0.01076758,0.01167519,0.008648688
1.022681,-0.1513481,-0.04943908,-0.01402846,0.0169164,-0.003130033
1.016069,-0.1461335,-0.04897331,-0.01528925,0.01457602,-0.01534382
1.016784,-0.1368783,-0.04880669,-0.01097271,0.007616636,-0.00950848
1.021269,-0.1433271,-0.05381667,-0.002302723,0.006545771,0.004876898
1.01847,-0.1520042,-0.05982344,0.005341011,0.007089634,0.01061811
1.019277,-0.1539606,-0.05618291,0.005897681,0.009511375,0.005044495
1.020439,-0.1578112,-0.05652812,0.005227579,0.01038216,-0.002523361
1.018662,-0.1523594,-0.05885414,0.00482571,0.005332575,0.000844773
1.021738,-0.1425649,-0.05772442,-0.002000196,0.002832469,0.007878617
1.022061,-0.1396339,-0.05895606,-0.007770413,0.0009136365,0.008372633
1.021101,-0.1369031,-0.05801704,-0.01181568,0.0004249806,0.008986653
1.022739,-0.140087,-0.05784595,-0.01958389,0.005531378,0.005517429
1.022143,-0.1463578,-0.05702754,-0.01855473,0.007829004,-0.0002315514
1.022202,-0.1461983,-0.05441653,-0.01144899,0.006388574,-0.001481245
1.022075,-0.1456008,-0.05580057,-0.009650983,0.003578761,-0.002397503
1.021051,-0.1464647,-0.05580271,-0.00642684,0.0007841725,0.002117732
1.019875,-0.1484266,-0.05521012,-0.004187863,0.001438427,0.003649923
1.01951,-0.151284,-0.05635885,-0.0009697009,0.003521947,-0.0007847413
1.023875,-0.1520176,-0.0580679,0.007912116,0.01007243,-0.002790794
1.02898,-0.1520114,-0.05831534,0.007484308,0.02780612,-0.007790122
1.031061,-0.1497712,-0.0483909,-0.0003774853,0.04164623,-0.003512715
1.030087,-0.1446824,-0.03872959,-0.002416858,0.03087478,0.006790937
1.027342,-0.1413706,-0.04726387,-0.007968949,0.02352769,0.01095165
1.024885,-0.1384367,-0.05798417,-0.02251391,0.03649116,0.01971706
1.023292,-0.1381978,-0.05514682,-0.02493774,0.03396444,0.01952036
1.024367,-0.1442325,-0.05622874,-0.01462358,0.02951532,0.006585231
1.026312,-0.148333,-0.06162643,-0.01221078,0.03751222,-0.0009215767
1.027558,-0.1498573,-0.05801283,-0.005547924,0.02953094,-0.002584497
1.024979,-0.1510167,-0.05401806,0.007696277,0.0116802,-0.0001323816
1.020176,-0.1500077,-0.05099565,0.0142008,-0.01617606,7.441755e-05
1.022152,-0.1505658,-0.05160624,0.02191327,-0.03228486,-0.002008674
1.023229,-0.148089,-0.05582777,0.02598589,-0.01731732,-0.0002310666
1.020198,-0.14373,-0.04994348,0.0236482,-0.0201307,-0.001027284
1.021038,-0.14368,-0.04488141,0.02047474,-0.03354746,-0.001847311
1.021101,-0.142685,-0.0444285,0.01607465,-0.03296604,-0.001786124
1.021546,-0.142134,-0.04096184,0.01124443,-0.02850143,-0.002403812
1.024039,-0.1400463,-0.04539457,0.0001988158,-0.01630109,0.004007284
1.02451,-0.1361959,-0.05148235,-0.01052682,-0.01865513,0.009399543
1.024948,-0.1391783,-0.04952587,-0.01623138,-0.02714476,0.009327365
1.023339,-0.1418488,-0.04795187,-0.01734111,-0.02576129,0.01102809
1.021326,-0.1410554,-0.05012791,-0.01222862,-0.02947965,0.01089031
1.02234,-0.1438806,-0.0515783,-0.01226822,-0.02304466,0.009860862
1.022467,-0.1477711,-0.05167086,-0.008473753,-0.01477581,0.01147695
1.022002,-0.1502768,-0.05446312,-0.0005037191,-0.0133821,0.01235017
1.022287,-0.1520549,-0.05488463,0.000481754,-0.01149275,0.01225973
1.022264,-0.1517072,-0.05192544,0.00865795,-0.01877434,0.01274826
1.021815,-0.1507988,-0.04895875,0.01243412,-0.01822659,0.01269813
1.020433,-0.1513124,-0.04404977,0.008300733,-0.01017197,0.01093639
1.01931,-0.1495811,-0.04603297,0.01129464,-0.006463111,0.01005143
1.02095,-0.1467719,-0.04953968,0.006448658,-0.004516552,0.01004106
1.023398,-0.1471004,-0.04677937,9.885564e-07,-0.00873794,0.009405599
1.023142,-0.1464985,-0.04897445,0.0007433287,-0.005762985,0.01150522
1.023322,-0.1426435,-0.04952547,-0.001690802,-4.211664e-05,0.01224537
1.023699,-0.1393618,-0.04786538,-0.005035409,0.003554442,0.008568945
1.020897,-0.1416102,-0.05218538,-0.01095054,0.00603997,0.008584606
1.020372,-0.1458033,-0.05357546,-0.01033983,-0.006357466,0.01131079
1.022789,-0.1452674,-0.05359126,-0.002918453,-0.00865888,0.01322407
1.022674,-0.1446724,-0.05431826,-0.003876315,-0.001533766,0.01547248
1.021725,-0.1421408,-0.05307018,-0.006053252,-0.006520015,0.01548548
1.02231,-0.1368764,-0.05274313,-0.006803294,-0.007335667,0.01524716
1.022466,-0.1390657,-0.05245901,-0.006449517,-0.01092038,0.01424528
1.021753,-0.1428871,-0.05267339,-0.004965753,-0.01603262,0.01240346
1.021445,-0.1428705,-0.05107232,-0.006223507,-0.01257651,0.01327724
1.020668,-0.1437765,-0.04960777,-0.00496354,-0.01461433,0.01265913
1.020846,-0.1442523,-0.05346109,-0.005773998,-0.01643449,0.01248459
1.02305,-0.1471128,-0.05778096,-0.006845266,-0.01703361,0.01481847
1.023959,-0.1500943,-0.05821351,-0.005147352,-0.02099273,0.01585022
1.023546,-0.1482585,-0.05265014,-0.005839227,-0.01911849,0.01705229
1.022229,-0.1480512,-0.04702168,-0.003840259,-0.01699478,0.01671602
1.020077,-0.1482632,-0.04806631,-0.002534092,-0.01688644,0.01572108
1.019037,-0.146578,-0.04890522,-0.001944932,-0.01483246,0.01711707
1.019219,-0.1472239,-0.04813448,2.868374e-05,-0.01801702,0.01779191
1.020525,-0.1475236,-0.04944847,-0.001189305,-0.02320126,0.01898022
1.022906,-0.1465795,-0.04909126,-0.002974809,-0.02327265,0.02168094
1.025885,-0.1455686,-0.04845059,-0.005564295,-0.0226401,0.02117167
1.025781,-0.143909,-0.05274898,-0.004766214,-0.0216831,0.01787599
1.023888,-0.1443288,-0.05661052,-0.002593088,-0.01965788,0.01428268
1.025658,-0.1458346,-0.05742217,-0.004176392,-0.01783831,0.009182214
1.026205,-0.1460351,-0.06147281,-0.003021044,-0.008709246,0.005900443
1.025752,-0.1467566,-0.06488838,-0.002073574,0.003997619,0.004287574
1.025373,-0.1475357,-0.06137485,-0.003215311,0.002587487,0.000207244
1.019777,-0.1468524,-0.05710297,-0.00756507,-0.006187551,0.0001676172
1.016702,-0.1453451,-0.05816971,-0.01823236,-0.007084481,0.00327751
1.019105,-0.1439633,-0.05892638,-0.02618774,-0.007216913,0.002918135
1.020067,-0.1449256,-0.05657208,-0.02621364,-0.008303264,0.004426782
1.019754,-0.1484359,-0.0562,-0.02350744,-0.006513798,0.006111734
1.020866,-0.1508765,-0.05700615,-0.023751,-0.00396016,0.005157417
1.023113,-0.1512557,-0.06040929,-0.02303657,0.0002243885,0.006710942
1.022389,-0.1538533,-0.06391485,-0.01765201,-0.0003050517,0.008072264
1.021542,-0.157795,-0.06054056,-0.01201106,-0.003106518,0.006338422
1.022827,-0.1541664,-0.05830357,-0.009248288,-0.0006203687,0.00180435
1.021988,-0.1484711,-0.05916588,-0.01137814,0.0006239077,-0.003340892
1.022081,-0.1496194,-0.05721983,-0.01141994,0.0009633819,-0.00384103
1.022398,-0.1473123,-0.05652288,-0.007105851,-0.002072391,-0.002140098
1.020964,-0.1443845,-0.05807967,-0.005337254,-0.008660028,-0.001016314
1.021146,-0.149377,-0.05923226,-0.003799875,-0.007008086,0.002450561
1.022479,-0.1510877,-0.06093183,-0.003683495,-0.003187897,0.006310867
1.024056,-0.1498584,-0.06320827,-0.004102872,-0.002975837,0.007167606
1.023042,-0.1521166,-0.06136839,-0.002024407,-0.002578061,0.006710261
1.020935,-0.1541352,-0.0537267,-9.339816e-05,-0.003955717,0.007203491
1.020589,-0.1541875,-0.04842707,0.00505839,-0.003405695,0.01023517
1.018186,-0.1508241,-0.05186174,0.009881667,-0.001990932,0.01272267
1.017184,-0.1469138,-0.05645366,0.01015641,-0.003974504,0.007970514
1.018873,-0.1447851,-0.05393766,0.008896397,-0.004030897,0.002527421
1.019339,-0.1431932,-0.05229686,0.005140544,-0.002569648,0.003797061
1.022178,-0.144315,-0.05187081,0.001791169,-0.002944543,0.003361143
1.024873,-0.1474254,-0.04694726,0.001905368,-0.002502211,-0.0004996976
1.023471,-0.1486728,-0.04826261,0.001448189,-0.0002390189,-0.001567571
1.022992,-0.1439424,-0.05201675,-0.002493412,0.00209347,-0.0009277578
1.023141,-0.1378556,-0.0507263,-0.004926594,0.001075637,0.0005665359
1.021805,-0.1393954,-0.05169184,-0.007501482,-0.004300016,0.003111378
1.022013,-0.1451588,-0.05060154,-0.0136674,-0.008710135,0.005903206
1.022268,-0.1495705,-0.04980547,-0.01119283,-0.01160245,0.008776649
1.020188,-0.1504075,-0.05442308,-0.003303417,-0.01540017,0.009067738
1.018712,-0.1491326,-0.05740636,-0.0003480529,-0.0135664,0.006902055
1.019053,-0.1489245,-0.05849789,0.00169967,-0.008896456,0.006068054
1.021032,-0.1458554,-0.05782871,0.001101859,-0.01127654,0.008493418
1.02463,-0.1431846,-0.05607876,0.001412638,-0.01247621,0.01172222
1.026004,-0.1458639,-0.0536513,0.00217306,-0.00908735,0.01111365
1.024612,-0.1477128,-0.05114949,-0.001569645,-0.00782839,0.009535086
1.02478,-0.1488842,-0.05149574,-0.001837161,-0.005393014,0.008353532
1.025417,-0.1500597,-0.04865492,-0.00069293,-0.002257382,0.004806014
1.024551,-0.1464573,-0.04376988,-0.001377483,0.001427201,0.003873808
1.023932,-0.1431546,-0.04179193,-0.002603742,0.005567251,0.004381922
1.022639,-0.1453927,-0.04404754,-0.005994274,0.005436509,0.003058196
1.021603,-0.147929,-0.04946687,-0.008682836,0.005486128,0.002952511
1.022119,-0.1479972,-0.04809085,-0.01343992,0.004160992,0.0002403307
1.020533,-0.1487515,-0.048576,-0.01673821,0.001107511,-0.001895437
1.019177,-0.1491713,-0.05550906,-0.01484355,0.002004062,0.003999951
1.022148,-0.1490363,-0.05449385,-0.01630749,0.00195209,0.008710428
1.02437,-0.1501332,-0.05259545,-0.01691468,0.001248091,0.005230205
1.021747,-0.1484306,-0.05144495,-0.01201687,-0.001760466,0.00239134
1.018795,-0.1461567,-0.0469449,-0.008443155,-0.007888988,0.004549037
1.019363,-0.1474278,-0.04873293,-0.007844529,-0.008762004,0.004807921
1.019778,-0.1476884,-0.05174673,-0.00747756,-0.008669324,0.004654744
1.019125,-0.1477659,-0.05293168,-0.004913661,-0.01052448,0.009115335
1.019617,-0.1492613,-0.05518166,-0.00244109,-0.01089526,0.01155553
1.019626,-0.1495809,-0.05394712,-0.0006196998,-0.009948322,0.008937843
1.020204,-0.1494641,-0.05239573,0.00293828,-0.007584025,0.006375473
1.021466,-0.147612,-0.05124866,0.003666489,-0.008033872,0.007076893
1.021687,-0.1447934,-0.04946533,0.001876899,-0.01029374,0.007800608
1.022347,-0.1456955,-0.05171117,0.001149454,-0.0107266,0.00543305
1.022822,-0.1471436,-0.05369137,-7.454105e-05,-0.01171803,0.004144555
1.023745,-0.1457719,-0.05162839,-0.0005785584,-0.01068817,0.002836142
1.025645,-0.1461028,-0.05083909,-0.002550244,-0.007837043,0.001493427
1.024917,-0.1470675,-0.05182712,-0.005927746,-0.008266157,0.003547423
1.022851,-0.145845,-0.05192858,-0.004520864,-0.009463732,0.004627573
1.022516,-0.1468613,-0.05134012,-0.002713312,-0.01236857,0.004189554
1.022115,-0.1482337,-0.05054075,-0.003460655,-0.01626691,0.002880318
1.021443,-0.1472429,-0.05156211,-0.0001625872,-0.01223677,0.002067779
1.022125,-0.1496809,-0.0541551,0.003609309,-0.006655217,0.003801625
1.0223,-0.1526105,-0.0557836,0.001660961,-0.005573321,0.004544179
1.020231,-0.1503505,-0.05563559,0.0003959041,-0.005676998,0.005058215
1.01877,-0.1491959,-0.05289948,0.002235375,-0.01359487,0.001704576
1.0195,-0.1504539,-0.05172858,0.001526616,-0.02088792,-0.003460345
1.019679,-0.1494024,-0.05333292,-0.00135699,-0.01259231,0.0008116268
1.019944,-0.1477101,-0.05184111,-0.00380998,-0.004344056,0.004081144
1.023098,-0.1475223,-0.05066016,-0.003769538,-0.008583328,-0.001377533
1.026121,-0.148932,-0.05291687,-0.001086737,-0.01019735,-0.004632166
1.025355,-0.1494755,-0.0566041,0.0002298933,-0.005508708,-0.00436015
1.024052,-0.1493881,-0.06073655,-4.479651e-05,-0.001899108,-0.002848428
1.024486,-0.1504342,-0.05736685,-0.001849822,0.004818236,0.0003024094
1.023328,-0.1481048,-0.05055949,-0.004207649,0.007288926,-1.407634e-05
1.021801,-0.1464555,-0.05087841,-0.002976972,0.001787043,-0.004731499
1.020765,-0.1499171,-0.05114697,-0.001515788,-0.0008291374,-0.005941382
1.018564,-0.1522911,-0.05019415,-0.0005418434,-0.003316224,-0.003572301
1.019242,-0.1529217,-0.05276241,0.00369241,-0.002978942,-0.004863263
1.020538,-0.15098,-0.05602896,0.004997429,0.0002381489,-0.005923309
1.020952,-0.1480179,-0.05915349,0.000553875,-0.002218415,-0.004441289
1.024765,-0.1486037,-0.05716831,-0.002435502,-0.003308588,-0.003040013
1.025967,-0.1489402,-0.04999924,-0.0006235453,-0.002680755,0.002042006
1.024376,-0.1493291,-0.04646197,0.003964076,0.0001347457,0.005322733
1.025183,-0.150099,-0.04696784,0.009512923,0.006006396,0.002263329
1.024373,-0.14815,-0.04869312,0.01260022,0.004138264,-0.0004767493
1.021241,-0.1464074,-0.04987421,0.01007868,0.0008990685,-0.002456083
1.018714,-0.145833,-0.04995811,0.006913604,0.001829959,-0.003685133
1.019778,-0.1441626,-0.04920704,0.005041291,0.001121902,-0.00254934
1.022006,-0.1423961,-0.04444134,0.001600519,0.001274717,-0.0007312484
1.020702,-0.14417,-0.04050206,0.001184676,0.00206453,0.001703203
1.021667,-0.1473029,-0.04398311,0.001737412,0.001782047,0.003408998
1.024922,-0.1482474,-0.04740728,-0.0002497979,0.0003774247,0.002692652
1.025207,-0.149022,-0.0448268,0.001038674,-0.002071689,0.002205077
1.024908,-0.1477439,-0.04386048,0.003921882,-0.002240017,0.00348322
1.024016,-0.1437864,-0.04782848,0.004997201,-0.002189655,0.003150082
1.023238,-0.1410688,-0.04940275,0.002988125,-0.00436938,0.0008563328
1.023577,-0.1428618,-0.04884643,-0.001158768,-0.004321229,-0.0008046721
1.022682,-0.1472643,-0.05032485,-0.001273142,-0.002880097,-0.0008776467
1.021949,-0.1478056,-0.05187725,-0.0008224332,-0.003474199,-0.0005328399
1.022152,-0.1483616,-0.05124033,-0.001041998,-0.002493198,-0.001833033
1.022347,-0.1498012,-0.04674337,0.0003291891,0.0008721329,-0.001178674
1.022233,-0.1486795,-0.03941306,-0.0008249721,0.003850943,0.0004672588
1.02208,-0.1502186,-0.03390391,0.0004529968,0.002857153,-0.001058172
1.022386,-0.1497246,-0.03609258,0.002771458,-0.003838511,-0.001246002
1.022146,-0.1475572,-0.04179558,0.0004393034,-0.008129797,-0.0008210439
1.022172,-0.1502545,-0.04438964,-0.00133722,-0.006283696,-0.0008978917
1.022365,-0.1512488,-0.04970348,-0.003619781,-0.003259189,0.001337844
1.021884,-0.1511316,-0.05312533,-0.003770894,-0.001000285,0.00227145
1.021254,-0.1509238,-0.05085263,-5.584122e-05,0.0005159582,0.0007033971
1.019658,-0.1492424,-0.05040029,0.001138716,0.0009221194,-0.0009778445
1.018987,-0.1501657,-0.04732469,0.003416051,2.125362e-05,-0.001040876
1.019668,-0.1502414,-0.04377016,0.005444283,-0.0002241103,0.0002315829
1.019616,-0.1496293,-0.04578107,0.005432458,-0.00204681,0.001173733
1.020612,-0.1501272,-0.04621534,0.008019831,-0.00758697,0.001472382
1.022796,-0.148773,-0.04263095,0.008280214,-0.0106641,0.001510044
1.023322,-0.1474474,-0.04101612,0.006636096,-0.008298684,0.003155994
1.021797,-0.1465914,-0.04457235,0.006384707,-0.004450692,0.003290262
1.020901,-0.1453851,-0.04966623,0.003566037,-0.003061576,0.00111074
1.021554,-0.1443226,-0.05266727,-0.001409765,-0.000775193,0.0009491977
1.023269,-0.1450708,-0.05174773,-0.006352091,0.001033514,0.000978124
1.025671,-0.1475107,-0.05040241,-0.008096994,-0.001994551,0.002206557
1.024448,-0.1474512,-0.05133106,-0.005357756,-0.002126982,0.004279733
1.02155,-0.1468946,-0.0478192,-0.003885772,-0.001649003,0.003408832
1.022325,-0.1475011,-0.0446113,-0.005131734,-0.002936874,0.001805816
1.022448,-0.1470649,-0.04779363,-0.005692782,-0.000782484,0.0007880631
1.021833,-0.1472321,-0.05101399,-0.005918712,-0.0008246857,-0.0004608359
1.022584,-0.147513,-0.05563159,-0.006124053,-0.001453234,-0.003267086
1.02222,-0.1479456,-0.06153887,-0.005564667,-0.0005142962,-0.004238183
1.023066,-0.1490358,-0.05929504,-0.005215381,-0.0001753032,-0.002316777
1.023925,-0.1484618,-0.04982001,-0.004112545,0.001630304,-0.0006784425
1.022557,-0.1473168,-0.04409095,-0.002357992,0.001753628,0.002882324
1.021937,-0.1462449,-0.04345889,-0.00247683,0.0002826484,0.001260905
1.022162,-0.1455596,-0.04261375,-0.002397013,-0.0004692648,-0.003253083
1.022031,-0.1468055,-0.04078757,-0.001135543,-0.000353248,0.0004874232
1.020384,-0.1476605,-0.04060871,-0.001278218,8.359407e-05,0.00353162
1.018967,-0.1474909,-0.0450451,-0.0008993165,0.0008691083,0.005596512
1.020494,-0.1490778,-0.05054253,0.0005069771,0.002188234,0.006760936
1.02244,-0.1513775,-0.05532776,0.0001826274,0.0001638262,-0.000368075
1.02333,-0.1507666,-0.05670519,-3.218061e-05,-0.000560917,-0.006758382
1.023959,-0.1475966,-0.05069468,-0.0002801047,0.005271208,-0.009834993
1.024588,-0.1436436,-0.04759698,-0.004047806,0.009293322,-0.009225483
1.024794,-0.1394783,-0.04807944,-0.009476214,0.003205038,-0.005235183
1.023334,-0.1384894,-0.04660943,-0.01286281,-0.005585723,-0.004318845
1.021386,-0.1402432,-0.04759853,-0.01237311,-0.006019154,-0.0009682303
1.021096,-0.1421135,-0.04823195,-0.01046442,-0.005913675,0.001343239
1.020904,-0.1453728,-0.04893176,-0.01058605,-0.007382738,0.0007848955
1.019539,-0.1453515,-0.05105979,-0.009074394,-0.004424774,0.006726708
1.01966,-0.1431586,-0.05247963,-0.005625786,-0.003574506,0.01059454
1.021511,-0.1450375,-0.05442099,-0.0007942056,-0.002682515,0.005378543
1.02369,-0.1445641,-0.0534939,0.006673618,-0.0009738814,-0.0007039262
1.025159,-0.142936,-0.0503818,0.00759763,-0.004506582,-0.001053143
1.025053,-0.1447785,-0.04804989,0.004778907,-0.008616041,-0.001125809
1.025948,-0.1460665,-0.04889295,0.006986594,-0.01065149,-0.005177303
1.026269,-0.14739,-0.05310703,0.004855721,-0.01080832,-0.004858915
1.023351,-0.1449226,-0.05583906,-0.0007616383,-0.009181559,-0.00166151
1.02057,-0.1415352,-0.05796538,-0.00404636,-0.003287134,0.001174066
1.020237,-0.1443306,-0.05310236,-0.006462847,0.003740294,0.00374874
1.021653,-0.1451604,-0.04424216,-0.001223977,-0.00294127,0.001500822
1.022816,-0.1437527,-0.04760614,0.004531047,-0.01188707,0.001080003
1.024674,-0.1434167,-0.0528965,0.0003959849,-0.00763679,0.003380774
1.025564,-0.1405895,-0.05379312,-0.002219373,-0.005588907,0.003456932
1.022661,-0.1378202,-0.05440206,-0.0012442,-0.004452039,0.004464598
1.021635,-0.1369947,-0.04747494,-0.003491843,0.0008990133,0.006009525
1.022628,-0.1380639,-0.04385495,-0.003523694,-0.001853865,0.007412275
1.023018,-0.1404463,-0.04856907,-0.001090436,-0.003840115,0.004283325
1.024185,-0.1425652,-0.04836582,-0.0004966321,-0.001101755,-0.0007186909
1.024493,-0.1439064,-0.04389141,0.0004893349,-0.001896753,0.001334427
1.025087,-0.1443922,-0.04030176,-0.0003177867,-0.0008019298,0.001825784
1.025148,-0.1455568,-0.04234945,-0.001901862,-0.0004188804,-0.001058963
1.023192,-0.1478655,-0.04912741,0.001999126,-0.001153604,-0.0005782503
1.020856,-0.1508467,-0.05255853,0.007260916,-0.0002746479,-0.001794038
1.018901,-0.1513895,-0.05262012,0.01059774,-0.001827774,-0.004138709
1.020949,-0.1515316,-0.05319798,0.01325921,-0.001124135,-0.004831271
1.023491,-0.1554341,-0.05624476,0.01375164,-0.001601695,-0.004928415
1.021941,-0.1548734,-0.05531857,0.01283791,-0.006202309,-0.002844464
1.021849,-0.1522057,-0.0499377,0.01119807,-0.00858464,-0.001456754
1.022712,-0.1519471,-0.04790123,0.009680442,-0.00958467,-0.0009789902
1.021764,-0.1462024,-0.04501583,0.006581646,-0.01125759,0.000852393
1.021334,-0.1430418,-0.04550808,0.0003094331,-0.01547295,0.00195998
1.020909,-0.1444019,-0.05095542,-0.003042965,-0.01515317,0.004200516
1.02142,-0.1429076,-0.05157681,-0.0007639895,-0.01053521,0.005877507
1.022826,-0.1455943,-0.05171249,0.004538888,-0.009976568,0.003302788
1.022216,-0.1484236,-0.05191222,0.008174516,-0.006265984,0.001572695
1.021896,-0.1459026,-0.05350051,0.007016185,-0.004807862,0.001626404
1.02255,-0.1443801,-0.0571932,0.005828786,-0.007075605,0.0015782
1.021898,-0.1443217,-0.05530053,0.005325346,-0.003106682,0.002316834
1.021098,-0.1448596,-0.05389897,0.001537763,-0.002232392,-0.0001865525
1.019834,-0.1462494,-0.05097065,-0.003566576,-0.004315728,-0.003085213
1.018893,-0.1476916,-0.04501137,-0.005435568,-0.004398146,0.0005637863
1.020002,-0.1475474,-0.0468215,-0.001505463,-0.005246187,0.003873938
1.021336,-0.1466934,-0.04853406,0.003564633,-0.005195967,0.002636595
1.022904,-0.1475015,-0.04652667,0.002873548,-0.006286841,0.002625415
1.024762,-0.1481886,-0.04819242,0.0005493528,-0.006987243,0.003450503
1.026841,-0.1513971,-0.04930578,0.0004822219,-0.006794781,0.003821428
1.028002,-0.1553007,-0.0482574,-0.0007119749,-0.007398004,0.00620455
1.024169,-0.1513158,-0.04824758,3.084885e-05,-0.008449732,0.008431049
1.020597,-0.1454511,-0.04738613,0.002351785,-0.01158011,0.007173167
1.022166,-0.1457085,-0.0473822,0.0004599786,-0.01303291,0.005140013
1.021931,-0.1479412,-0.05175309,-0.0004421503,-0.01240569,0.004219282
1.020022,-0.1488599,-0.05423492,0.00196091,-0.009882172,0.002770417
1.020715,-0.1475999,-0.05146598,0.002298224,-0.006425274,0.002631423
1.020286,-0.144759,-0.04832552,0.002182484,-0.006555798,0.00240527
1.018654,-0.1437789,-0.04675403,0.002899218,-0.00543349,0.0004225496
1.018568,-0.1436883,-0.04852886,0.002214649,-0.004972424,0.001439281
1.018259,-0.1428033,-0.0507329,0.001966711,-0.006050537,0.002894031
1.018912,-0.14312,-0.0497221,0.003416099,-0.002931119,0.002305259
1.022179,-0.1441284,-0.05079496,0.006008743,-0.001313178,0.003812416
1.024629,-0.1446273,-0.05239016,0.007877527,-0.001693894,0.005820435
1.025348,-0.144909,-0.05178754,0.007277416,-0.002897073,0.007923976
1.02481,-0.1460514,-0.05277863,0.008831179,-0.003492392,0.01019375
1.022869,-0.1476793,-0.05133189,0.01106491,-0.0006467207,0.00961559
1.022041,-0.1460387,-0.04886316,0.008627428,-0.0003124067,0.007384044
1.022974,-0.1421838,-0.05023709,0.006715985,0.002177523,0.004638063
1.023706,-0.1401579,-0.05063675,0.006578043,0.006154494,0.003917532
1.021255,-0.1402711,-0.0521392,0.005160472,0.003616537,0.004769893
1.0163,-0.1422506,-0.05712676,0.001418445,0.00132333,0.003460468
1.014634,-0.1437036,-0.05956166,-0.005439253,-0.0003182211,0.004759456
1.017212,-0.1430355,-0.0581491,-0.009253778,-0.002146684,0.006786307
1.019901,-0.1428174,-0.05686168,-0.009057171,-0.001809767,0.003787371
1.020096,-0.1435896,-0.05693756,-0.009613415,-0.001277266,0.001795603
1.020771,-0.1449964,-0.05591794,-0.009165189,0.001478642,0.00247867
1.023074,-0.1471995,-0.0551926,-0.007719424,0.004669426,0.003375109
1.022396,-0.1477886,-0.05572017,-0.005013903,0.006875725,0.004909333
1.021622,-0.1468813,-0.0553083,-0.001736567,0.007285625,0.005772159
1.027016,0.003955258,-0.07189917,0.09061627,0.2210958,-0.04469603
1.025664,0.005959158,-0.0673157,0.1033066,0.2072634,-0.04107498
1.026858,0.006415233,-0.06871375,0.09984321,0.2127565,-0.04037177
1.025554,0.005164866,-0.06673498,0.1028615,0.1971641,-0.04323155
1.023801,0.008504817,-0.0668938,0.09877298,0.2093103,-0.04472716
1.020257,0.006240384,-0.06461521,0.09397161,0.1979018,-0.04708348
1.020557,0.006677831,-0.06256794,0.09476136,0.1878658,-0.04026269
1.022501,0.006648194,-0.06607981,0.08085416,0.1913993,-0.03514538
1.022981,0.004500717,-0.0670046,0.08242395,0.1744035,-0.03804418
1.024027,0.005773788,-0.06955407,0.0833904,0.1764533,-0.03663511
1.022514,0.003589217,-0.06088276,0.08600211,0.1619594,-0.03181569
1.021881,0.002153336,-0.04836589,0.1054444,0.1512428,-0.02646609
1.022289,0.001381553,-0.05045784,0.1225141,0.1555334,-0.02536743
1.021889,-0.004287497,-0.05576928,0.1379371,0.1435643,-0.02411004
1.020497,-0.01038207,-0.06000513,0.1412431,0.1457801,-0.01857833
1.018727,-0.007204608,-0.05963257,0.1525905,0.1387119,-0.01614905
1.019788,0.005279547,-0.06060204,0.167702,0.1341107,-0.01151075
1.021526,0.01230734,-0.06699665,0.1623898,0.1415313,-0.005745914
1.023081,0.01066199,-0.06604163,0.1627531,0.1355873,-0.009259328
1.025179,0.008254757,-0.06666306,0.1563715,0.1393328,-0.01554063
1.027352,0.009714502,-0.07233462,0.1389397,0.1310895,-0.01709423
1.029396,0.009697594,-0.07102504,0.1325452,0.1155584,-0.01842123
1.029912,0.005368794,-0.06684942,0.1355136,0.1162506,-0.01648936
1.028634,0.004473266,-0.06730494,0.142113,0.1088932,-0.007163614
1.025145,0.001888362,-0.0687666,0.1403813,0.1061404,-7.213748e-05
1.023688,-0.004862974,-0.06589901,0.1489139,0.1109089,5.867955e-05
1.028851,-0.01943993,-0.06469317,0.1754548,0.1174668,-0.008557102
1.032382,-0.03314277,-0.06969996,0.1845019,0.1406352,-0.01910691
1.022956,-0.005931812,-0.07920619,0.1490692,0.1511234,-0.01499865
1.00848,0.04091407,-0.08828548,0.07473223,0.1230951,-0.004544941
1.008129,0.05656276,-0.08704824,0.0116924,0.09994204,-0.001534915
1.020962,0.0528779,-0.08617432,-0.02737055,0.1162505,-0.008995916
1.031799,0.04212497,-0.09391166,-0.07000566,0.1303333,-0.0232117
1.031999,0.02510279,-0.0947554,-0.1012526,0.1203281,-0.02789009
1.025621,0.01419463,-0.09297659,-0.1103253,0.1129361,-0.02676949
1.023131,0.009004237,-0.09415151,-0.1108026,0.1047918,-0.0260971
1.022719,0.004362823,-0.08960211,-0.1055529,0.1017326,-0.02007535
1.025077,-0.002525473,-0.08828588,-0.09077447,0.1171896,-0.02110426
1.030821,-0.009526697,-0.09384985,-0.07123422,0.1344406,-0.02654173
1.029436,-0.01342112,-0.0946579,-0.04638611,0.1480145,-0.0264083
1.027721,-0.01799015,-0.09026649,-0.0175584,0.1530006,-0.02964653
1.0277,-0.02119926,-0.08816656,0.0006137933,0.1528795,-0.03174373
1.021733,-0.02016659,-0.08598279,0.02743117,0.1513311,-0.02639545
1.019687,-0.02043671,-0.08294679,0.06300233,0.1398129,-0.01803833
1.023367,-0.02125588,-0.08623283,0.07375742,0.1429904,-0.01526978
1.029207,-0.0186107,-0.09053728,0.07715359,0.1536331,-0.02399006
1.035674,-0.01756881,-0.09662398,0.08951506,0.1547081,-0.030468
1.034979,-0.01920391,-0.1061534,0.1043905,0.1655127,-0.02738527
1.030201,-0.01965955,-0.1074925,0.1244755,0.1633873,-0.02551244
1.028678,-0.01957203,-0.1052499,0.1462106,0.1625191,-0.02728438
1.030819,-0.01870726,-0.1033978,0.1644501,0.1915604,-0.02587247
1.031319,-0.01608137,-0.1025178,0.1741036,0.2042259,-0.02564515
1.023893,-0.01106815,-0.1036143,0.1801712,0.1906135,-0.03204197
1.016511,-0.0080348,-0.1009312,0.1825072,0.1775793,-0.03189745
1.018879,-0.007453825,-0.1012753,0.1783278,0.1724526,-0.02742132
1.021252,0.003377585,-0.1016241,0.1745416,0.1602714,-0.02846027
1.018674,0.01675045,-0.09817327,0.1644674,0.1297704,-0.02485622
1.021133,0.01309066,-0.09619967,0.1557193,0.1093347,-0.01987928
1.023294,0.004875065,-0.09214453,0.155769,0.1020098,-0.01780737
1.019712,0.004124311,-0.09041204,0.1547768,0.09606268,-0.01303496
1.019843,5.22317e-05,-0.08986913,0.1560694,0.09992627,-0.009294596
1.024036,-0.003937582,-0.09079636,0.1548851,0.1074915,-0.00670554
1.027532,-0.002260802,-0.09299695,0.150811,0.1107435,-0.006569967
1.02621,-0.001929037,-0.08691623,0.149065,0.1084273,-0.007170888
1.023404,-0.002319481,-0.08466204,0.1440555,0.1062379,-0.003874004
1.025806,-0.006331794,-0.08705052,0.1427172,0.1025879,-0.00352438
1.02628,-0.01197909,-0.08551594,0.1434547,0.09851598,-0.004818192
1.025795,-0.009906289,-0.08646283,0.1394222,0.09952856,-0.005430799
1.026731,-0.006615964,-0.08607246,0.1298818,0.0905595,-0.008057225
1.023168,0.0001460265,-0.08597542,0.1087682,0.08108379,-0.00769182
1.022253,0.01337431,-0.08809706,0.08747016,0.08557424,-0.007754605
1.02686,0.01640372,-0.09059224,0.07198399,0.09767287,-0.008036315
1.030539,0.01291908,-0.09724002,0.0532332,0.1164015,-0.001831651
1.029832,0.01524241,-0.1019754,0.03784851,0.1225422,-0.0002730756
1.027894,0.01222974,-0.1029519,0.03068339,0.1180673,-0.006696919
1.029471,0.005511053,-0.1001363,0.03101858,0.1274503,-0.009773183
1.027113,0.006815435,-0.09516914,0.03442821,0.1343356,-0.01224703
1.022327,0.007556177,-0.09321509,0.03220922,0.1273689,-0.0162632
1.0222,0.006310516,-0.08425225,0.03658279,0.123693,-0.01611383
1.022804,0.007406354,-0.07125479,0.05200274,0.1199326,-0.01481499
1.023816,0.005664609,-0.06880816,0.06300733,0.1068176,-0.01472622
1.02205,0.001534972,-0.06869689,0.07249486,0.09458624,-0.01330567
1.01977,-0.002778072,-0.06485694,0.08189927,0.08846603,-0.009856223
1.022535,-0.002364448,-0.06597772,0.08358609,0.08705017,-0.008312597
1.024581,0.0001551258,-0.07032172,0.08042317,0.08952329,-0.01200798
1.026552,-0.0003803159,-0.07195835,0.07603127,0.09173282,-0.01288993
1.028812,0.007285501,-0.06878747,0.0692313,0.09304106,-0.01063844
1.028886,0.01483058,-0.06288182,0.05717317,0.09426216,-0.01211984
1.027587,0.006481799,-0.06477597,0.05102958,0.09903535,-0.01004575
1.02442,-0.0004501137,-0.06755278,0.05336177,0.1013975,-0.005912584
1.023635,0.004950217,-0.06544963,0.04999625,0.09492306,-0.005555211
1.023946,0.007161685,-0.06904986,0.04976594,0.09110276,-0.003300514
1.023281,0.002620926,-0.06929151,0.0547507,0.08587392,-0.002550575
1.024823,0.002734109,-0.06823096,0.05393158,0.07870385,-0.003668564
1.025291,0.005990397,-0.07317419,0.04980631,0.08090176,-0.003960618
1.024656,0.007180071,-0.07333389,0.04376682,0.0806905,-0.004991708
1.024061,0.005727187,-0.07497565,0.04170637,0.07832598,4.989194e-05
1.021951,0.0001527818,-0.07621011,0.04213118,0.07902388,0.003720599
1.020513,-0.003083035,-0.07272171,0.04230342,0.07402001,0.001699211
1.020777,-0.003248183,-0.07372751,0.0500387,0.06968073,0.004157685
1.022568,-0.005324847,-0.07291311,0.05802754,0.06781134,0.003285304
1.022861,-0.00610627,-0.07138609,0.06618237,0.06513001,-0.0008291295
1.021531,-0.004187945,-0.07259183,0.0729127,0.06200944,-0.003413677
1.022439,0.002508456,-0.07107595,0.06043204,0.05030317,-0.006273248
1.023549,0.01535349,-0.07146343,0.04431786,0.03934293,-0.0008122932
1.027134,0.02698489,-0.07536516,0.03884037,0.04093877,0.003677984
1.031826,0.02667132,-0.07907494,0.02636411,0.03909815,0.002800485
1.027529,0.01093002,-0.07848835,0.02153521,0.02791697,0.0115764
1.022515,-0.006108413,-0.07686142,0.04162517,0.02409384,0.01962122
1.025451,-0.006862797,-0.08042339,0.06133045,0.03544695,0.01272559
1.024951,0.0003197761,-0.08200613,0.0694536,0.04577768,0.005584955
1.019537,-0.0007896717,-0.08099612,0.06962103,0.03214297,0.01210308
1.017357,0.0002259347,-0.081065,0.06788539,0.009708972,0.0177077
1.01924,0.004908657,-0.07994015,0.07358061,0.006626905,0.01661103
1.023879,0.002225227,-0.08096334,0.07322223,0.01298788,0.01894444
1.026142,0.002595477,-0.08171801,0.07023946,0.01497185,0.01743329
1.024781,0.005491451,-0.07994102,0.0679723,0.008109488,0.0171708
1.024804,0.00564661,-0.08174804,0.05444031,-0.000987016,0.02127271
1.025182,0.007998911,-0.08508409,0.04741608,0.003348704,0.01933028
1.024756,0.007902449,-0.0847748,0.04433504,0.008313361,0.02048625
1.024125,0.005414124,-0.08365888,0.03730287,0.01037884,0.02088018
1.023116,0.002043032,-0.08112633,0.03530611,0.01455287,0.0190469
1.022331,0.001671569,-0.07504243,0.0298168,0.007635119,0.02301338
1.020305,0.004780507,-0.07496663,0.02451562,0.002821211,0.02332841
1.01941,0.002313592,-0.08269958,0.01428012,0.005726764,0.02432338
1.023038,0.000100233,-0.08917571,-0.00149945,0.005740282,0.02123997
1.026405,-0.002304426,-0.09143374,-0.004989764,0.01344591,0.009168183
1.025194,-0.007616977,-0.09041275,-0.007166342,0.02800209,0.006021499
1.02417,-0.005499747,-0.09056803,-0.01032569,0.03687274,0.0070624
1.02557,-0.002483207,-0.08880168,-0.009798664,0.0357622,0.009441448
1.024278,-0.00198462,-0.08428916,-0.01706968,0.03687662,0.0140397
1.021034,0.003935782,-0.08243379,-0.02653211,0.04479079,0.009711437
1.019355,0.0087834,-0.07833402,-0.03077115,0.03943393,0.007141094
1.021418,0.006118894,-0.07799904,-0.0319227,0.03000748,0.01169722
1.02526,-0.0003129267,-0.08286151,-0.0290527,0.02920971,0.01386838
1.024279,-0.004270112,-0.08324474,-0.02516123,0.02383322,0.01336621
1.025205,-0.003216624,-0.08570769,-0.02237346,0.02144938,0.01308058
1.029597,-0.00192211,-0.08752958,-0.01998217,0.02250243,0.01486065
1.02738,-0.003968075,-0.08528228,-0.01980588,0.02006726,0.0148564
1.02472,-0.007552098,-0.08718476,-0.01682269,0.02581181,0.01108098
1.023604,-0.01058714,-0.08872915,-0.007406574,0.03021067,0.00892969
1.020997,-0.01055091,-0.08987423,0.003781078,0.02227435,0.01412144
1.022371,-0.008737874,-0.09376647,0.01189856,0.01483845,0.02141397
1.022804,-0.009926806,-0.09453851,0.01280306,0.01205612,0.02034563
1.021332,-0.01009742,-0.09408335,0.0133155,0.007852984,0.01893337
1.021943,-0.007868778,-0.09498797,0.01760529,0.004655753,0.01959307
1.021411,-0.007477033,-0.09503979,0.01843031,0.004281382,0.01548229
1.022139,-0.005345032,-0.09526212,0.01904935,-0.001777321,0.01628617
1.022529,-0.00314799,-0.09486693,0.02267043,-0.008084624,0.02075884
1.019849,-0.003525731,-0.0934693,0.0245761,-0.008181822,0.0217709
1.019248,-0.005781284,-0.09399252,0.02293576,-0.0122253,0.02283943
1.020697,-0.009729172,-0.09773838,0.01790296,-0.01454006,0.02035641
1.023106,-0.007860155,-0.1048197,0.01257758,-0.007046198,0.01483795
1.025269,-0.005401721,-0.1111087,0.01076687,0.003669162,0.0118476
1.024896,-0.007662503,-0.1101433,0.01212424,0.007294505,0.01244856
1.023875,-0.005990254,-0.1047359,0.01270281,7.042975e-05,0.01316533
1.02212,-0.00481207,-0.1022245,0.01127026,-0.005676566,0.01116341
1.019986,-0.005691292,-0.1009093,0.01005006,-0.008954912,0.01360481
1.019113,-0.003008277,-0.09624894,0.00826805,-0.01565553,0.01782594
1.019224,0.0004037665,-0.09171561,0.006651209,-0.02042345,0.01888161
1.019774,0.00199424,-0.09319502,0.007161447,-0.02324195,0.02319845
1.019339,-0.0005342034,-0.09919974,0.008737213,-0.03142806,0.02828423
1.019641,-0.003408664,-0.1019327,0.01470463,-0.04198138,0.03122226
1.022582,-0.003090512,-0.1026994,0.02275813,-0.03159292,0.02897287
1.027905,-0.004980432,-0.1078942,0.02253462,-0.01286094,0.021447
1.031932,-0.008918187,-0.1115817,0.01890672,-0.01361502,0.01735774
1.028026,-0.01081603,-0.1110856,0.01727064,-0.006246654,0.01238899
1.02344,-0.01060757,-0.1111558,0.01296654,0.007243687,0.006250735
1.025289,-0.01055482,-0.1112576,0.009103307,0.003176815,0.006704326
1.025255,-0.009657469,-0.1121416,0.0008170144,0.002438919,0.007635608
1.0235,-0.006599793,-0.113773,-0.01228976,0.002532083,0.003939562
1.023759,-0.006546099,-0.1132539,-0.01481425,0.000199045,0.0007530462
1.023217,-0.008482746,-0.1088742,-0.0127401,0.009686196,0.002405524
1.022778,-0.008626474,-0.1027665,-0.0143164,0.01630542,0.005359687
1.022465,-0.01038581,-0.1017181,-0.01258295,0.01234485,0.005795805
1.023629,-0.01258716,-0.1043803,-0.005328041,0.009768666,0.003950603
1.025805,-0.01279629,-0.1046449,0.007174635,0.01674677,0.001299824
1.024138,-0.01296821,-0.104773,0.01465431,0.023022,-0.0008017448
1.022976,-0.01501194,-0.1063422,0.01474413,0.02090225,-0.002912924
1.0249,-0.01679333,-0.1074192,0.01818748,0.02532466,-0.002273919
1.025098,-0.01209529,-0.1086109,0.01869273,0.03218955,-0.001109808
1.023666,-0.005848399,-0.1085715,0.01561814,0.03086761,-0.002187891
1.021541,-0.006366664,-0.1067948,0.01639054,0.03019589,-0.001256535
1.020703,-0.007715534,-0.1055587,0.01316645,0.03193617,-0.0009174293
1.023573,-0.006400898,-0.1034026,0.006838664,0.0311837,0.0006361135
1.025874,-0.005810543,-0.1011221,0.005234988,0.02926836,0.004916723
1.024048,-0.004476211,-0.1003523,0.005512223,0.02803521,0.003878994
1.022045,-0.002656801,-0.09703638,0.007055894,0.02234567,0.0003436143
1.023292,-0.002691509,-0.09339853,0.008036305,0.01677324,0.0005277778
1.025087,-0.002844561,-0.0958974,0.007404348,0.01975878,0.001618067
1.026077,-0.002695538,-0.1000161,0.009414301,0.02492419,-5.90645e-05
1.026739,-0.002883845,-0.1004262,0.007892715,0.02896419,-0.002384762
1.025415,-0.002691889,-0.1013816,0.001285717,0.02792541,-0.003129452
1.021459,-0.002796781,-0.1021787,-0.002678141,0.02068004,-0.002978029
1.016456,-0.002836092,-0.1006895,-0.001159422,0.01748747,-0.0001974887
1.016347,-0.0032077,-0.1015115,0.007429339,0.01814691,0.003048797
1.022203,-0.005559445,-0.1021555,0.01332013,0.01998099,0.003709083
1.025776,-0.007708072,-0.1025746,0.01001823,0.02458457,0.001095875
1.025343,-0.007255483,-0.1051501,0.006659153,0.0271915,-0.002635221
1.023926,-0.0058472,-0.1019751,0.006200017,0.02484594,-0.001970988
1.021385,-0.004488143,-0.09189008,0.007561033,0.01701606,-0.002032449
1.018851,-0.002332417,-0.084078,0.008564436,0.006833587,-0.003933167
1.019614,-0.002968354,-0.08889034,0.007064262,0.004604051,-0.0005354628
1.022008,-0.005359199,-0.09708606,0.005050665,0.006828044,0.003292004
1.020704,-0.00497759,-0.09161146,0.0039564,0.005097544,0.004788714
1.020344,-0.009028724,-0.08636054,0.005651168,0.005819526,0.007889773
1.022546,-0.0145011,-0.08520648,0.006484565,0.004769219,0.01098303
1.02221,-0.009968948,-0.0817532,0.001996471,-0.0003751334,0.009224823
1.02334,-0.003537601,-0.08774357,-0.002922712,-0.0001078407,0.005917352
1.025018,-0.002452312,-0.09188069,-0.004056055,-0.000821479,0.008055791
1.02493,-0.00461751,-0.08820937,-0.004049201,-0.002427566,0.00883242
1.02533,-0.008571109,-0.08553258,-0.003564334,-0.0003930468,0.006146408
1.024512,-0.00984332,-0.08046729,-0.00224822,-0.001071305,0.005371988
1.023975,-0.009005229,-0.08282057,-0.002133654,-0.002443962,0.003595179
1.022692,-0.007326975,-0.08696512,0.001201355,-0.00539578,0.004632606
1.021446,-0.004554135,-0.08252572,0.005010203,-0.009294754,0.008316715
1.022669,-0.004672343,-0.0822086,0.002637106,-0.008746354,0.009465125
1.022182,-0.003692178,-0.08339779,0.00193163,-0.00856063,0.01337898
1.022167,0.0004999688,-0.08381351,0.002641669,-0.009515399,0.01658647
1.023805,0.001593517,-0.08604554,0.0006875882,-0.009795711,0.01264785
1.025386,0.001555115,-0.08633517,-0.001242289,-0.01085692,0.00842249
1.027191,-0.001533331,-0.08909598,-0.003853892,-0.01092981,0.009731548
1.026402,-0.008133389,-0.09125147,-0.0026026,-0.007645875,0.01127212
1.025946,-0.006937925,-0.08952709,5.444583e-05,-0.004533611,0.009763667
1.026463,-0.004282521,-0.08788209,-0.001905599,-0.009416186,0.009857955
1.024224,-0.005823287,-0.08784226,-0.003671184,-0.01524646,0.008687419
1.022315,-0.003778181,-0.09304853,-0.004942967,-0.013258,0.006642639
1.022617,-0.005774109,-0.09764766,-0.005100989,-0.01281516,0.008555667
1.02312,-0.0104156,-0.09505002,-0.003569286,-0.01449691,0.007412293
1.022175,-0.009538624,-0.09345612,-0.004951607,-0.01183394,0.001192826
1.022051,-0.008929644,-0.09581869,-0.008221109,-0.01103741,-0.004089402
1.024471,-0.005384953,-0.09614028,-0.0129696,-0.01248735,-0.002762844
1.025466,-0.001196052,-0.09458822,-0.0156689,-0.0121529,0.002411571
1.02496,-0.003635112,-0.09427129,-0.01135393,-0.01404748,0.004448883
1.024945,-0.004935154,-0.09479119,-0.007794896,-0.01349134,0.008842619
1.024953,-0.002947445,-0.09590006,-0.008188829,-0.006578774,0.01092563
1.025124,-0.002658805,-0.09621727,-0.00946274,-0.005212189,0.00570842
1.02509,-0.004941261,-0.09471739,-0.01139022,-0.01233223,0.004311455
1.02605,-0.007280054,-0.09483913,-0.009149274,-0.01746174,0.005142081
1.027679,-0.008243688,-0.09562679,-0.005443307,-0.01389547,0.00518484
1.027644,-0.00925078,-0.09485505,-0.005639324,-0.008177722,0.005970195
1.026,-0.008565597,-0.09530049,-0.006977929,-0.01038602,0.005665292
1.024334,-0.005404699,-0.09606427,-0.008848118,-0.0120732,0.004979006
1.024852,-0.003302032,-0.09584849,-0.008237403,-0.01127876,0.002908193
1.025469,-0.004967621,-0.09565065,-0.004694548,-0.01515303,0.003324162
1.024661,-0.006465758,-0.09487078,-0.003745904,-0.01341955,0.004587744
1.024693,-0.005142373,-0.09424271,-0.005816487,-0.006716791,0.002352157
1.023384,-0.005457658,-0.09398335,-0.009424348,-0.005276184,0.001002997
1.021443,-0.005905984,-0.09277841,-0.01419223,-0.00886314,-0.00140539
1.022531,-0.005209677,-0.09078607,-0.02013469,-0.01284887,-0.001788055
1.024563,-0.005747754,-0.08988667,-0.02324255,-0.01403311,0.004206895
1.026164,-0.005548259,-0.09139795,-0.02178244,-0.01688273,0.008639069
1.026736,-0.005428872,-0.09585404,-0.02067878,-0.01608982,0.007138642
1.02513,-0.005731302,-0.1014773,-0.01451294,-0.01032554,0.004225457
1.023684,-0.005408682,-0.1023772,-0.001443255,-0.007523743,0.004252205
1.023315,-0.00562726,-0.1004898,0.005906301,-0.001715131,0.003435277
1.022646,-0.005210283,-0.09965943,0.005906738,0.003278992,0.004972949
1.022064,-0.003696916,-0.09449511,0.006238348,0.000989869,0.01033191
1.022267,-0.00232637,-0.08926534,0.007704268,-0.007552071,0.008607132
1.023424,-0.003198155,-0.08975434,0.007987893,-0.01927844,0.007058502
1.024793,-0.006808531,-0.08928948,0.008396532,-0.01954155,0.009657863
1.025255,-0.008865141,-0.08806175,0.007887318,-0.01404953,0.007841922
1.025023,-0.006320848,-0.0894515,0.002535899,-0.01516267,0.00726581
1.024854,-0.00177916,-0.08999215,-0.002799887,-0.01347687,0.007919646
1.024729,-0.0005202844,-0.09007211,-0.005284171,-0.009286441,0.007175195
1.022895,-0.002096745,-0.08985064,-0.008855254,-0.007514887,0.007228319
1.019772,-0.003206392,-0.0855631,-0.008973854,-0.006521104,0.003865172
1.018978,-0.004735423,-0.08272386,-0.006424604,-0.007694197,1.278921e-05
1.020672,-0.005953714,-0.08764618,-0.009247019,-0.01032935,0.001503401
1.022351,-0.007991832,-0.09267592,-0.0115346,-0.01314407,0.003467577
1.023479,-0.01091024,-0.09223582,-0.01050724,-0.01377318,0.002197666
1.024727,-0.009899743,-0.09246418,-0.01083619,-0.01201996,0.002442246
1.025007,-0.008766433,-0.09319201,-0.00691609,-0.01094078,0.003297411
1.023118,-0.009439725,-0.08798591,0.001625825,-0.01058994,0.002313802
1.02159,-0.00792486,-0.08364877,0.006419911,-0.01184144,0.00297238
1.022134,-0.00797201,-0.08505171,0.001845569,-0.0123947,0.00262065
1.022558,-0.008573182,-0.08454365,-0.005871857,-0.0118563,0.001720407
1.022036,-0.006154568,-0.08376189,-0.007454259,-0.0134467,0.002800132
1.022163,-0.00504816,-0.08712932,-0.01115823,-0.01279703,0.00371041
1.022416,-0.005570795,-0.09106302,-0.01349856,-0.01039305,0.005606904
1.022051,-0.005662568,-0.09376479,-0.009375333,-0.008926908,0.004753972
1.02245,-0.005573693,-0.09532709,-0.01189536,-0.006436232,0.001906233
1.023194,-0.005594189,-0.09451215,-0.01298936,-0.006884338,0.002960341
1.023738,-0.006942675,-0.09375533,-0.01128826,-0.01001137,0.004390876
1.023672,-0.008973875,-0.09505672,-0.01369585,-0.01073614,0.003955697
1.022449,-0.01063575,-0.09487583,-0.008815111,-0.01115066,0.003114433
1.022382,-0.0116784,-0.0960055,-0.004428652,-0.01375311,0.003746672
1.024034,-0.01258605,-0.09647611,-0.006069318,-0.01437699,0.004307006
1.024817,-0.01248745,-0.09180368,-0.006222328,-0.01398441,0.002877576
1.021718,-0.009051723,-0.09194684,-0.007893732,-0.01688849,0.00256651
1.017839,-0.005692543,-0.09373244,-0.009743097,-0.01686784,0.002548029
1.019267,-0.005069205,-0.09135544,-0.01188731,-0.01540588,0.003102339
1.020404,-0.005537157,-0.09226933,-0.01499278,-0.01712942,0.003924661
1.01869,-0.005894052,-0.09204605,-0.01456199,-0.01693088,0.004878523
1.019964,-0.005102234,-0.09000244,-0.0100513,-0.01576424,0.006956017
1.021729,-0.004486204,-0.09215914,-0.007799182,-0.0103644,0.004086235
1.023179,-0.003066101,-0.09565989,-0.01005146,-0.004789374,0.001780015
1.024276,-0.001180442,-0.09887576,-0.009368474,-0.01043298,0.003864777
1.022312,-0.001802238,-0.09824036,-0.01017509,-0.01605915,0.004185226
1.021628,-0.00331743,-0.09353869,-0.01295716,-0.01620789,0.005110667
1.021664,-0.005522117,-0.09122727,-0.01325409,-0.0163789,0.003011192
1.020699,-0.006256193,-0.09169014,-0.0171809,-0.01384776,0.0001629387
1.022618,-0.004997693,-0.09482032,-0.01699946,-0.0107416,0.0005712638
1.024377,-0.005715304,-0.09595587,-0.01604156,-0.00937056,-0.0009002302
1.02343,-0.005732096,-0.09217333,-0.02008593,-0.01175974,-0.0001456656
1.022427,-0.005229739,-0.09018146,-0.0166675,-0.01632503,-0.0002928285
1.022119,-0.005848176,-0.08696884,-0.01511768,-0.01514018,-0.0019053
1.022355,-0.005406552,-0.0863558,-0.01737638,-0.01289981,-0.0006306627
1.02314,-0.005538478,-0.09198848,-0.01456494,-0.0132074,-0.0006120828
1.02393,-0.00569245,-0.09189558,-0.01221353,-0.01163803,0.001050218
1.02348,-0.005377761,-0.091442,-0.007736595,-0.01216466,0.0011207
1.022337,-0.005699239,-0.09328048,-0.006700783,-0.01493308,-0.0003401899
1.021402,-0.005848201,-0.09160511,-0.01021619,-0.01533268,0.00280839
1.021287,-0.006606929,-0.08923969,-0.009253081,-0.01351226,0.006201937
1.022562,-0.005743349,-0.08614854,-0.009520899,-0.0105983,0.008630181
1.022517,-0.003233221,-0.09320298,-0.008674014,-0.008886085,0.007657466
1.022143,-0.003899643,-0.1023627,-0.006102948,-0.007770233,0.006959995
1.024244,-0.005425302,-0.09527564,-0.006080958,-0.006922555,0.006861527
1.025403,-0.006188395,-0.0901226,-0.004297579,-0.007829164,0.000927553
1.023945,-0.008606982,-0.09244119,-0.00396785,-0.008368049,0.0005503413
1.022236,-0.008423006,-0.09178207,-0.00463619,-0.008371334,0.002413935
1.022293,-0.005902165,-0.09331393,-0.004564471,-0.007951368,0.0009183749
1.024183,-0.005833381,-0.09528996,-0.005424544,-0.005415844,0.003756117
1.025334,-0.0070438,-0.09439823,-0.004319456,-0.003066285,0.002752486
1.024266,-0.008481323,-0.0945034,-0.002597229,-0.00539335,0.002267256
1.023366,-0.005936456,-0.09681084,-5.241514e-05,-0.008260337,0.004139672
1.025418,-0.001566909,-0.09937303,0.001345605,-0.004772624,-0.0005346265
1.02727,-0.002779257,-0.0997111,-0.001175552,-0.0021847,-0.002614182
1.026087,-0.003642713,-0.0974231,-0.004820428,-0.004463447,-0.002337865
1.025209,-0.004003866,-0.09372735,-0.00906853,-0.006640589,-0.002975898
1.025033,-0.006841835,-0.09114005,-0.008578024,-0.009866675,-0.003106046
1.024927,-0.007239299,-0.0936583,-0.005581635,-0.01046113,-0.003043147
1.026085,-0.007669627,-0.100304,-0.007227564,-0.007689753,0.001309189
1.026656,-0.00801853,-0.1020824,-0.006854434,-0.007595901,0.003025716
1.02618,-0.007022661,-0.09710041,-0.005541713,-0.006851261,-0.00210105
