accx,accy,accz,gyrox,gyroy,gyroz
0.9885424,0.02456399,0.2339501,-0.01789026,0.1829584,-0.1605229
0.9900083,0.02880656,0.2389557,0.001985351,0.1872923,-0.1332052
0.9877458,0.02677405,0.2340663,0.004123778,0.1574356,-0.149045
0.9978473,0.03589975,0.2191046,0.00063432,0.1703313,-0.116001
0.9961708,0.03916003,0.221698,-0.03616664,0.1618957,-0.07327904
0.9921324,0.02164172,0.2202819,-0.06063704,0.1425512,-0.09143452
0.9901403,0.0002285588,0.2162158,-0.04094045,0.1272162,-0.1133454
0.9881325,0.00936307,0.2199367,-0.06985122,0.08575264,-0.1411944
0.9946928,0.04449568,0.2349742,-0.08519312,0.09353035,-0.1204663
0.992546,0.06116168,0.2547369,-0.06570862,0.07387831,-0.07994357
0.9963497,0.03577103,0.2401157,-0.08538725,0.02373377,-0.1094197
1.012597,-0.007009778,0.21822,-0.05662274,0.09330092,-0.1189374
1.026826,-0.01053419,0.2188214,0.03986526,0.2797589,-0.1258027
1.029359,0.004810046,0.2151796,0.1200022,0.4852848,-0.1593594
0.9892239,0.006936938,0.2298511,0.08222427,0.457173,-0.1371883
0.9521821,0.02285737,0.2581995,-0.01933199,0.2318011,-0.1211469
0.9739686,0.02277685,0.2536558,-0.003964631,0.1619664,-0.1317989
0.9990078,0.01063881,0.2456282,0.01691336,0.1836739,-0.121732
0.9982676,0.01646932,0.2528989,0.005812092,0.2005912,-0.1231753
1.000494,0.01107972,0.2498562,0.04154943,0.2230038,-0.1225646
1.000601,0.01110348,0.2507978,0.0202234,0.1922498,-0.1121552
0.9934537,0.01752604,0.2570637,0.007615911,0.1984675,-0.1181519
0.9927904,0.01675968,0.2539755,0.01582544,0.1877857,-0.1187859
0.9937044,0.02600067,0.2512837,-0.009472531,0.1713075,-0.1112363
0.9961103,0.02657348,0.2470805,0.006200766,0.2016843,-0.1084694
1.00048,0.02621741,0.2446005,-0.001735275,0.1816501,-0.1031788
0.9961816,0.03068899,0.2455382,-0.0243569,0.1936408,-0.1033597
0.994067,0.02534132,0.243032,-0.02470034,0.1945416,-0.1046218
0.9930733,0.02630257,0.2449486,-0.03920149,0.1628633,-0.09888734
0.988547,0.02559708,0.2450917,-0.03109837,0.1821503,-0.09320577
0.9903903,0.02310163,0.2431921,-0.03280069,0.1631846,-0.08432702
0.9911383,0.02676706,0.2464402,-0.03767983,0.1563206,-0.08289037
0.9916164,0.02354357,0.2484609,-0.02987709,0.1606084,-0.08917818
0.9940476,0.02034031,0.2522864,-0.03926349,0.1371846,-0.09234041
0.9943083,0.01492345,0.2517936,-0.03111478,0.1445953,-0.101928
0.9963339,0.006815701,0.2480358,-0.01594302,0.1301183,-0.1080901
0.9978342,0.006662302,0.2518413,0.009182964,0.1152457,-0.1067602
0.9972644,0.007454953,0.2514525,0.04277197,0.1122478,-0.1059882
0.9954967,0.01112317,0.2472765,0.05325529,0.1099016,-0.09224618
0.9939522,0.01738978,0.2445184,0.06455362,0.129645,-0.07117082
0.9926765,0.02149601,0.2414582,0.07184036,0.1240055,-0.0626591
0.9925118,0.02876012,0.2439405,0.06880818,0.1294521,-0.0678434
0.9938579,0.03781924,0.2463439,0.04431129,0.1438297,-0.07224498
0.9926113,0.04420149,0.2473336,0.001084315,0.1287001,-0.06985644
0.9932877,0.040555,0.24908,-0.003221561,0.1329527,-0.07566576
0.9955604,0.02965654,0.2482429,0.009334913,0.1455101,-0.08723117
0.9966402,0.02373036,0.2497194,0.006820994,0.1518512,-0.09569793
0.9981378,0.02595419,0.2505896,0.006434073,0.1510812,-0.1011241
0.9966556,0.03820031,0.2491126,-0.01483992,0.1393129,-0.09352377
0.9951895,0.04852835,0.2485866,-0.04982262,0.1390341,-0.08139057
0.9916953,0.04625373,0.2458207,-0.05898051,0.1339673,-0.07643956
0.9873641,0.04133548,0.2433231,-0.06300048,0.1298389,-0.07703112
0.9919181,0.0357679,0.2418279,-0.0819769,0.1327715,-0.084317
0.9966275,0.03046926,0.2433596,-0.08463401,0.1196559,-0.08640113
0.9954956,0.03401547,0.2481998,-0.07739851,0.1106798,-0.07790356
0.9939348,0.04034624,0.2485774,-0.08158899,0.1071536,-0.06741189
0.9925658,0.03912852,0.2497114,-0.08029476,0.09441572,-0.0613357
0.9930076,0.03681688,0.2513996,-0.08362861,0.08593048,-0.06238595
0.9943697,0.03453751,0.2481965,-0.09894204,0.08598559,-0.06707821
0.9943158,0.0284212,0.2465444,-0.1111635,0.08695762,-0.0746081
0.9936109,0.02831786,0.243323,-0.1105625,0.08267002,-0.07545892
0.9927626,0.02530742,0.2395243,-0.09066045,0.08498009,-0.07177668
0.9928865,0.01713564,0.239265,-0.07844501,0.08924037,-0.07792678
0.9931741,0.02635927,0.2379401,-0.08863075,0.07874642,-0.07940778
0.9920129,0.03961097,0.2392078,-0.1061636,0.06924855,-0.07090178
0.9913312,0.03960647,0.2393221,-0.123448,0.06214396,-0.06198851
0.9917435,0.03771157,0.2369385,-0.1300818,0.0546569,-0.0563362
0.9917045,0.03711865,0.2380522,-0.1270804,0.05441139,-0.05884383
0.9928772,0.03528543,0.2372114,-0.1205459,0.0509153,-0.05919659
0.9979374,0.02717022,0.2372504,-0.117374,0.04446859,-0.05678334
1.002387,0.01807455,0.2381813,-0.1266311,0.04295533,-0.05514218
0.9977071,0.0243434,0.2362178,-0.1373896,0.04927334,-0.04754685
0.9919341,0.03317482,0.2352689,-0.1388667,0.05906299,-0.0428706
0.9968041,0.03117429,0.2325361,-0.1437274,0.0644958,-0.04111767
1.000885,0.03278311,0.2322317,-0.1650115,0.07397834,-0.03942511
0.9993949,0.03416334,0.2327662,-0.1887089,0.08723565,-0.04737946
1.000365,0.02688932,0.2297388,-0.1974104,0.08862893,-0.05310315
1.000074,0.0185166,0.2331147,-0.1896926,0.07902463,-0.03659753
0.9991923,0.007539805,0.2365929,-0.1780756,0.07486154,-0.01984345
0.9982326,0.003992192,0.2350812,-0.170851,0.07841954,-0.03566707
0.9936213,0.008009616,0.2361915,-0.1597811,0.08002056,-0.05635988
0.9924325,0.003608534,0.2374459,-0.1461809,0.0798112,-0.05553149
0.9962466,0.002370152,0.2400017,-0.1229435,0.08192734,-0.05304149
1.001783,0.002552464,0.2438304,-0.1047058,0.08924959,-0.04874645
1.00542,0.0004580227,0.2429074,-0.1099033,0.09311824,-0.03597483
1.001132,0.006400566,0.2420438,-0.09878124,0.08436801,-0.02175673
0.9951907,0.00617428,0.2439515,-0.08741526,0.07794758,-0.01741122
0.9935752,0.004298113,0.2433385,-0.1053704,0.08228183,-0.02971449
0.9932866,0.005504206,0.2447698,-0.1174927,0.0868245,-0.03618009
0.9955002,-0.004005455,0.2499842,-0.1211587,0.09048172,-0.03254738
0.9984127,-0.01461955,0.2515129,-0.1101838,0.09518771,-0.0342534
0.997369,-0.02048044,0.2518325,-0.07969259,0.0954683,-0.03569484
0.9968629,-0.023036,0.253325,-0.05064483,0.1000937,-0.03513364
1.00062,-0.02650088,0.2532767,-0.02276451,0.1132252,-0.0315985
1.005828,-0.02889291,0.2493783,-0.007485176,0.1142978,-0.0201271
1.009182,-0.02532627,0.2436316,0.0003105726,0.1079306,-0.003090204
1.005382,-0.03195059,0.2456294,0.0192829,0.1094846,0.00807439
1.000367,-0.03784747,0.2492697,0.03973085,0.1095427,0.01311323
1.003277,-0.03174932,0.24742,0.05629193,0.1105361,0.02904162
1.004668,-0.02682068,0.2463378,0.06908796,0.1130451,0.04999803
1.002935,-0.02017236,0.2438025,0.08538641,0.110831,0.07548149
1.003082,-0.02190931,0.2449161,0.1032348,0.1143401,0.1054366
1.001252,-0.03188507,0.2529151,0.112119,0.1204575,0.1115084
1.00345,-0.03718577,0.2570209,0.1217003,0.1203405,0.1014022
1.005444,-0.04277477,0.2560893,0.1365108,0.1193817,0.09983835
0.995182,-0.04264334,0.2537037,0.1522036,0.1153127,0.1113071
0.9858359,-0.04394782,0.2539322,0.157857,0.1093712,0.1387598
0.9893944,-0.05757768,0.2559328,0.1733116,0.1136021,0.167687
0.9979664,-0.07411793,0.2587855,0.2351417,0.1216789,0.1803368
1.005383,-0.08694227,0.2645047,0.3096567,0.1294634,0.1867782
1.010917,-0.08809319,0.2626044,0.3652639,0.1489469,0.2044055
1.01169,-0.08480763,0.2570907,0.4085129,0.1645734,0.2270128
1.012035,-0.08006013,0.2571478,0.4345722,0.1757285,0.255571
1.015054,-0.06291517,0.2572018,0.4368068,0.2091566,0.2906183
1.012332,-0.05456481,0.2617851,0.409419,0.2325509,0.3107551
1.0056,-0.06670142,0.2675473,0.3883605,0.2318424,0.3242679
0.9954836,-0.07758941,0.2703968,0.4008632,0.2504766,0.3377886
0.983208,-0.078922,0.2785361,0.4249916,0.2618677,0.3447463
0.9820024,-0.07581798,0.287546,0.4648313,0.2348874,0.3481105
0.9803668,-0.06868162,0.2928182,0.5009698,0.2068974,0.3362385
0.971738,-0.04892307,0.2958246,0.5022387,0.1930116,0.3255899
0.9675061,-0.01933981,0.3027814,0.5098264,0.1879366,0.326339
0.9533281,-0.001907152,0.3142053,0.5267011,0.1739794,0.3111642
0.9341997,0.001336514,0.3194088,0.4942636,0.1360033,0.2768071
0.9343645,0.004533308,0.3290169,0.432744,0.09969617,0.2353194
0.9408052,0.005160694,0.3441346,0.3701942,0.06784148,0.2034206
0.9402344,0.00217368,0.3424376,0.2889264,0.04076405,0.1840223
0.9393981,-0.001603927,0.3391003,0.2306303,0.03415692,0.1643221
0.9407751,-0.01425625,0.3540085,0.2162776,0.02034232,0.1432088
0.9519913,-0.02916643,0.3680543,0.215797,-0.01055868,0.1159723
0.972718,-0.03648043,0.3712104,0.2195895,-0.02737426,0.09396232
0.9780587,-0.04051184,0.3714179,0.2192355,-0.01617147,0.09154923
0.954591,-0.03850071,0.3730213,0.2139337,-0.009100356,0.08491378
0.923528,-0.03725036,0.375672,0.1945242,-0.04767197,0.0490262
0.9141902,-0.04641138,0.3743819,0.1751481,-0.1141275,-0.003558628
0.9296019,-0.0560715,0.3715419,0.1902649,-0.1714321,-0.02873601
0.9502514,-0.06178957,0.3680242,0.2328455,-0.1856459,-0.01615888
0.960716,-0.06779125,0.3608918,0.2838202,-0.1468625,-0.01040016
0.9549499,-0.07504864,0.3537398,0.3113442,-0.113321,-0.01652995
0.9434147,-0.07941221,0.3473415,0.332973,-0.1160815,-0.02009225
0.9399965,-0.0771403,0.3458888,0.3904422,-0.1425999,-0.04090616
0.9355194,-0.06632075,0.3443821,0.4203825,-0.1748722,-0.06309037
0.9285135,-0.04180253,0.3356381,0.3920079,-0.18515,-0.07663939
0.9282182,-0.01726847,0.329828,0.3438485,-0.1992115,-0.1016181
0.9378825,-0.01148181,0.3244724,0.25855,-0.2246999,-0.127159
0.9658406,-0.01538909,0.3181678,0.1722684,-0.2177149,-0.1514052
0.9957036,-0.01475984,0.3123942,0.1429307,-0.2005497,-0.1764816
1.008036,-0.01100157,0.3008687,0.1192338,-0.1839404,-0.2037195
1.008037,-0.01216663,0.2972346,0.07759294,-0.1382314,-0.2251504
1.002923,-0.01412322,0.3005069,0.02704649,-0.1006468,-0.2201397
1.003555,-0.01732173,0.2980864,-0.037041,-0.08941569,-0.2269828
0.9955776,-0.03753108,0.2973206,-0.07189576,-0.08587106,-0.2502783
0.9800975,-0.05867655,0.2931548,-0.08689718,-0.09694694,-0.2582347
0.9833246,-0.05297771,0.2812797,-0.1065718,-0.1047418,-0.2708465
0.9860364,-0.02725726,0.2736967,-0.1132158,-0.1073655,-0.2632425
0.9909889,0.003721668,0.2742423,-0.1335746,-0.1004254,-0.2072914
1.00623,0.01912734,0.2759659,-0.1670534,-0.07263324,-0.1352658
1.002784,0.00293612,0.2746001,-0.1821373,-0.07332073,-0.1021439
0.997958,-0.01716313,0.2730127,-0.1694564,-0.09667402,-0.130138
1.003162,-0.03625023,0.2653214,-0.1291428,-0.1016593,-0.141287
0.9914685,-0.07383393,0.2516663,-0.07945414,-0.07881417,-0.1255852
0.9604697,-0.07874989,0.2486244,-0.02652296,-0.05760988,-0.1383007
0.9368433,-0.04718631,0.251903,0.005014858,-0.1287258,-0.1363848
0.9601396,-0.03903367,0.2440576,0.003287851,-0.2335451,-0.1245054
1.007096,-0.03035861,0.2263512,-0.007288307,-0.2439395,-0.1215737
1.021071,-0.0207521,0.2125769,-0.02902453,-0.207372,-0.09546175
1.018421,-0.02564175,0.2123557,-0.03605268,-0.197202,-0.07749052
1.0045,-0.01350799,0.2159458,-0.02652852,-0.2220078,-0.05562526
0.9848206,-0.009321379,0.2116601,-0.02917244,-0.258963,-0.008030218
1.009659,-0.01306098,0.2061057,-0.02637303,-0.2735868,0.02312688
1.034531,-0.007472796,0.1984813,-0.03754608,-0.2534069,0.03676497
1.018883,-0.01171047,0.1834144,-0.06750395,-0.228384,0.02361076
1.014422,-0.01141812,0.1704232,-0.0987841,-0.2413618,-0.008318193
1.014039,-0.009239534,0.1679778,-0.1462173,-0.2528939,-0.01211381
1.005257,-0.006250374,0.1691528,-0.1763141,-0.2486124,-0.007362862
1.014621,0.004663092,0.1600762,-0.1809487,-0.2574221,-0.009209489
1.027579,0.01064064,0.1500919,-0.2017788,-0.2400547,0.0004702399
1.027004,0.02665537,0.1442583,-0.2478223,-0.2258582,0.02309481
1.011065,0.0488341,0.1340549,-0.3212975,-0.2600357,0.06971243
0.9904349,0.05550394,0.135129,-0.4013258,-0.288202,0.1175525
0.9911447,0.04920049,0.1374406,-0.4493305,-0.2966768,0.127213
1.00068,0.04000354,0.1343327,-0.4609068,-0.3245934,0.1134452
1.002402,0.02751464,0.1414432,-0.4481903,-0.3705071,0.08656441
1.010953,0.01702838,0.1362945,-0.4646895,-0.3964745,0.02498546
1.008716,0.04036065,0.122699,-0.5817231,-0.4172992,-0.0606053
1.000791,0.06138912,0.1073781,-0.6807652,-0.4611216,-0.1074312
1.030846,0.02229765,0.07236001,-0.5599538,-0.4558848,-0.08530868
1.079155,-0.01896909,0.03578746,-0.3380014,-0.31417,-0.03672458
1.10504,-0.02818192,0.02079272,-0.1878075,-0.0863768,0.01104113
1.094044,-0.05830833,0.03570118,-0.001071857,0.04709236,0.02635284
1.063422,-0.08328115,0.05510795,0.1766672,0.07685656,-0.02652545
1.032765,-0.03903072,0.07684039,0.2322985,0.1290761,-0.06937326
0.9979885,0.02829294,0.1117334,0.2551778,0.1221541,-0.04940252
1.003866,0.06689429,0.1022817,0.1793276,0.05601835,-0.04295049
1.034412,0.08567643,0.06847485,0.01815441,0.05461086,-0.05760202
1.034643,0.07182198,0.05860595,-0.074688,0.07202711,-0.06318105
1.053778,0.03877542,0.04892411,-0.1302087,0.114787,-0.1053107
1.071545,0.007953162,0.05652715,-0.1186879,0.1683008,-0.1783315
1.06023,-0.01866678,0.06834864,-0.06300868,0.1726852,-0.233281
1.061237,-0.01724012,0.07144967,-0.01916439,0.2173899,-0.263232
1.034043,-0.01476222,0.09325992,0.0580731,0.2697521,-0.2740814
0.9973687,-0.02343684,0.1069609,0.08897764,0.2392193,-0.2725933
1.006713,-0.01947677,0.1121712,0.1177418,0.1980619,-0.2544895
1.020298,-0.02569649,0.1098263,0.19414,0.2012474,-0.2255818
1.021071,-0.0289025,0.09961766,0.2379386,0.2140069,-0.2106851
1.019629,-0.02263092,0.1145733,0.2991916,0.2204424,-0.2114195
1.016536,-0.02514732,0.1261244,0.3393633,0.2439376,-0.2206411
1.015861,-0.01830758,0.1287982,0.3197123,0.2556154,-0.2465009
1.011846,-0.001744186,0.1436821,0.3026174,0.2503456,-0.2754319
1.003474,0.03794818,0.1647752,0.266863,0.2515886,-0.2415771
0.9978783,0.08124019,0.1922955,0.2385887,0.2366332,-0.1313386
1.003051,0.0739147,0.1901256,0.2330104,0.2165577,-0.02721239
1.01326,0.0537657,0.1734969,0.2007073,0.1895377,0.006347567
1.019696,0.04757925,0.1762863,0.1383855,0.1816725,-0.02366839
1.017911,0.02365026,0.1711696,0.07577644,0.2146675,-0.05290391
1.001121,0.002979408,0.1813594,0.05992317,0.2202112,-0.07371979
0.9804543,0.005820336,0.2068427,0.07382193,0.1885683,-0.09533409
0.9747241,0.005058312,0.2103652,0.07249368,0.118739,-0.07261383
0.9876748,-0.0006797482,0.2064888,0.08580842,0.03739172,-0.05342996
1.015161,-0.002646605,0.1920903,0.1373463,0.03555407,-0.04371427
1.042014,-0.008625619,0.1728049,0.198489,0.09331529,-0.01135386
1.038764,-0.00584384,0.1773186,0.2355436,0.1253835,0.002155016
1.029251,0.007820675,0.1951057,0.2608643,0.0958794,0.04414217
1.057057,0.01608375,0.2055098,0.3128968,0.07765598,0.09420041
1.061932,0.01554724,0.2036031,0.3573201,0.1403936,0.1134748
0.9973928,0.0129742,0.2054111,0.3553664,0.1809455,0.1620156
0.9330598,0.01962709,0.2188717,0.344915,0.1205122,0.1853947
0.9334225,0.03086767,0.2198045,0.3073263,0.04085511,0.143535
0.9627328,0.05259049,0.2031748,0.1950259,0.008294743,0.09514054
0.9594309,0.08568663,0.1893599,0.06869326,-0.0104859,0.09199093
0.9707697,0.08440764,0.1877594,0.02243667,-0.02659776,0.1027182
1.01581,0.05179409,0.1929386,0.0564911,0.009638957,0.08671765
1.031001,0.03476244,0.1985943,0.08787034,0.07450182,0.100014
1.019199,0.03257779,0.2123266,0.1057211,0.08979313,0.1118606
0.9902096,0.03536587,0.2244774,0.1217329,0.04675131,0.1037871
0.9691691,0.03607222,0.2142587,0.0932117,-0.001179061,0.1040587
0.9768546,0.03237666,0.2038332,0.05570785,-0.01221689,0.0707911
0.9887191,0.03284911,0.2044841,0.01262646,-0.002380125,0.05014743
1.00872,0.02416644,0.1999844,-0.02336169,0.01169059,0.0495579
1.01323,0.01248721,0.2010437,0.01205324,0.03903026,0.04424405
1.009825,0.01185497,0.2060064,0.02261012,0.05244673,0.06168284
1.019254,0.01215396,0.2059258,-0.01069127,0.03608066,0.06950628
1.012237,0.01411848,0.2079175,-0.03121318,0.02765786,0.07775075
1.004523,0.0138112,0.2068847,-0.07208246,0.02783906,0.08298476
0.9993479,0.01135914,0.2062071,-0.0721018,-9.853707e-05,0.08218577
1.003003,0.0097596,0.206847,-0.03201262,-0.02786792,0.1146593
1.025714,0.00118692,0.2000148,-0.00542988,-0.009499383,0.1472755
1.026143,-0.002550252,0.1924621,0.03168337,0.007701601,0.185414
0.9912746,0.007970274,0.1891212,0.0575333,-0.0219946,0.2033835
0.9539517,0.02731754,0.1906694,0.04037328,-0.05073153,0.1522993
0.9621867,0.05336239,0.1961205,-0.06544319,-0.05726982,0.124815
0.9814451,0.07345557,0.2060617,-0.1643707,-0.06866801,0.1585889
0.9805676,0.04389075,0.2168776,-0.07414086,-0.07004597,0.174971
1.01186,-0.01788223,0.2143816,0.04145842,-0.03658112,0.1308089
1.01888,-0.0153838,0.2128003,-0.004251244,-0.0004527082,0.07522862
0.9799482,0.031846,0.2240915,-0.07815586,-0.03610651,0.07675843
0.9741613,0.04699646,0.2266714,-0.1310428,-0.1220752,0.1179656
0.9912124,0.02055562,0.2157357,-0.15463,-0.1575505,0.1549711
1.028453,-0.02917795,0.2013912,-0.06390323,-0.1161124,0.146478
1.058138,-0.03319692,0.1965011,0.01153304,-0.003617288,0.09369132
1.032228,-0.001416281,0.2040207,0.002542037,0.08521157,0.06567166
1.004641,0.01313839,0.209157,0.01537585,0.02717506,0.08102429
0.9957166,0.02897213,0.2131303,0.02630717,-0.06220843,0.09819995
0.9949172,0.02523437,0.2108242,0.01128918,-0.05374604,0.08169918
1.007808,0.019341,0.1978489,-0.01997015,-0.01091325,0.06057038
1.012605,0.02427054,0.1926557,-0.05402275,0.02605918,0.05457749
1.005838,0.008133305,0.1933357,-0.06278899,0.04069843,0.03108623
0.9981036,0.004063371,0.1930776,-0.07140719,0.01814663,0.01937025
1.000407,-0.002197959,0.1929885,-0.05931289,0.01252462,0.01815259
1.010073,-0.01878158,0.191553,-0.01860791,0.009845273,0.001678796
1.019933,-0.01499638,0.195958,0.02720953,-0.003264453,-0.01310457
1.026811,-0.009172952,0.2045751,0.05579218,0.01054308,-0.03577234
1.010107,0.0003591047,0.2093481,0.0407809,0.004483234,-0.03727191
0.9867181,0.008365647,0.2068077,0.02938392,-0.0125996,-0.02108858
0.9848007,0.006524917,0.2011916,0.02768241,-0.0174221,-0.02040893
0.9968889,0.006836646,0.1921679,0.02534309,-0.02437473,-0.01450046
1.013728,0.00774212,0.1757888,0.03742009,0.01770819,-0.01245468
1.020171,0.005328324,0.1736626,0.03170339,0.06838056,-0.007398895
1.015168,-0.01294666,0.184334,0.02282097,0.07930664,-0.00858836
1.014067,-0.0336839,0.1871454,0.0115452,0.07349285,-0.03928513
1.015932,-0.03382354,0.1910636,-0.02245069,0.04280896,-0.07144867
1.01549,-0.0274606,0.1911626,-0.04253119,0.003759249,-0.09678942
1.014683,-0.02925345,0.1855669,-0.04367923,-0.0166798,-0.09936115
1.0148,-0.0277676,0.1873282,-0.04009799,0.001996519,-0.09442285
1.010847,-0.02020316,0.1883438,-0.03057992,0.01617273,-0.1000374
1.005489,-0.01884918,0.1869322,-0.01367669,-0.004040359,-0.08791301
1.002952,-0.002875743,0.1881477,-0.004688584,0.001161112,-0.08027746
0.999064,0.02513406,0.1902965,-0.02893323,0.01662093,-0.07136907
0.9988681,0.02876523,0.1927532,-0.05690177,0.02209641,-0.05494981
1.002381,0.01825217,0.1937292,-0.0654027,0.01584887,-0.05959159
1.004921,0.01145573,0.1944963,-0.07565006,-0.005666768,-0.05667686
1.009566,0.007068748,0.195753,-0.09043938,-0.001816966,-0.04791494
1.008789,-0.001238364,0.1993273,-0.1123678,-0.006107723,-0.04536548
1.00212,-0.01726462,0.2063068,-0.1253976,-0.02832816,-0.03904348
1.000714,-0.02675632,0.2069906,-0.09801872,-0.04173906,-0.04189097
1.00387,-0.0222537,0.1965061,-0.05739203,-0.05733634,-0.04183903
1.013857,-0.01778618,0.1864673,-0.03880769,-0.03510001,-0.03723108
1.02502,-0.01971826,0.186415,-0.03513516,0.004897453,-0.03276793
1.021522,-0.01394808,0.1903798,-0.04674814,0.01980438,-0.02438398
1.015966,-0.008314045,0.1913007,-0.06601393,0.02783319,-0.02776308
1.01701,-0.009818544,0.1938472,-0.06588102,0.01045547,-0.03103721
1.012115,0.001167245,0.2016764,-0.05158037,-0.01341012,-0.02319696
1.007622,0.01540435,0.2055129,-0.04035368,-0.01083436,-0.005313568
1.007919,0.01887445,0.1988008,-0.03905078,-0.001652438,0.03187714
1.00775,0.01806665,0.1897144,-0.04360585,0.005731409,0.06316254
1.010113,0.01244064,0.1854908,-0.03933645,0.0009523958,0.07340269
1.014002,-0.001370639,0.1848529,-0.03836232,-0.008157689,0.08060549
1.019464,-0.01209292,0.1882985,-0.05110475,-0.008250751,0.07908647
1.018958,-0.008167219,0.1939211,-0.07586962,-0.01816912,0.06884767
1.005378,-0.008008013,0.194696,-0.1097929,-0.0409594,0.05896515
0.9967328,-0.01717194,0.1935004,-0.1157863,-0.06301479,0.03897249
1.001545,-0.02343724,0.1928723,-0.0885107,-0.06441665,0.02659093
1.007696,-0.02654442,0.1880418,-0.06823875,-0.05244189,0.03819288
1.011438,-0.02080205,0.1813433,-0.06025526,-0.04870938,0.05168158
1.019907,-0.01639456,0.1723831,-0.04638147,-0.0331062,0.06815011
1.029178,-0.01884073,0.1629144,-0.02675944,-0.01106082,0.08118303
1.028024,-0.01686867,0.1600924,-0.01846257,0.01208333,0.06202396
1.02513,-0.01341027,0.1616566,-0.01547123,0.04639654,0.03579886
1.020765,-0.007477794,0.168548,-0.004790168,0.05003986,0.02561807
1.007448,0.001661358,0.1819127,-0.0007401314,0.02844284,0.008446501
0.997979,0.01617739,0.1960796,-0.004833831,0.0129592,-0.004522434
0.9951458,0.03238101,0.2026528,-0.01651024,-0.001460521,0.004504687
0.9937758,0.03396386,0.1976185,-0.03998713,-0.01045213,0.01343844
0.9919895,0.02946194,0.1951857,-0.05413162,-0.03525031,0.01897888
0.9913503,0.02571749,0.1932836,-0.05260125,-0.06386064,0.02914668
0.9979699,0.01761376,0.1806092,-0.05952299,-0.06493925,0.0397801
1.008365,0.01362014,0.1723411,-0.0724254,-0.0541428,0.04973028
1.017273,0.009090945,0.1665758,-0.06446471,-0.03606878,0.05130425
1.016878,-0.006546129,0.1577505,-0.0469578,-0.02376073,0.04554302
1.013159,-0.02419655,0.158332,-0.03349541,-0.01538038,0.03285043
1.017533,-0.0285695,0.1615907,-0.02123818,-0.004366882,0.01508856
1.018114,-0.02480643,0.1655823,-0.0297351,-0.01247844,0.01268852
1.016371,-0.02804288,0.1760241,-0.04013557,-0.02653126,0.01009775
1.01455,-0.02776091,0.1819247,-0.0322465,-0.03604889,-0.01556492
1.008037,-0.02015164,0.1773086,-0.03192481,-0.0383019,-0.03915828
1.009407,-0.01748942,0.170618,-0.03373291,-0.02566144,-0.04382812
1.012928,-0.01274053,0.1688376,-0.04056364,-0.01710685,-0.04264529
1.011969,-0.005172421,0.1691619,-0.05705579,-0.01880009,-0.04095175
1.013079,-0.0002513061,0.1715502,-0.05456247,-0.01783549,-0.03188082
1.012308,0.0003694221,0.1762841,-0.0497173,-0.0111865,-0.02325278
1.01221,-0.004231513,0.180642,-0.05595572,-0.01101639,-0.02162409
1.013052,-0.002817756,0.1841598,-0.05475407,-0.01620329,-0.01701815
1.011997,-0.001562101,0.1850558,-0.05554026,-0.01580306,-0.01247402
1.012382,-0.004327642,0.1874422,-0.05991505,-0.01218585,-0.01184819
1.010249,-0.001755455,0.1880314,-0.0594031,-0.005498128,-0.0162066
1.006212,-0.003022978,0.1831996,-0.0577835,-0.006507308,-0.02369544
1.004859,-0.004442377,0.1796628,-0.05620118,-0.01515316,-0.02392502
1.005408,-0.003312758,0.1745986,-0.05887457,-0.01956634,-0.02484475
1.00694,-0.005206039,0.1709377,-0.06178752,-0.02360446,-0.02098158
1.010079,-0.003584793,0.1674817,-0.05678326,-0.01533214,-0.002691348
1.015571,-0.004018934,0.1591418,-0.04688186,0.002397515,0.009564969
1.016165,-0.008091402,0.1581239,-0.03340461,0.01477948,0.01219765
1.011401,-0.01955089,0.16259,-0.01997139,0.02772709,0.01330306
1.010597,-0.0356023,0.1674412,-0.01710291,0.02417143,0.01378582
1.011759,-0.03330156,0.1743875,-0.03781232,0.003727205,0.008764465
1.013716,-0.0330462,0.1735766,-0.08025241,-0.01058309,-0.01343013
1.016326,-0.05370484,0.1701608,-0.1106193,-0.02631735,-0.04195388
1.015309,-0.06338688,0.1730907,-0.1070412,-0.03228796,-0.05847902
1.014104,-0.05379073,0.1729415,-0.07975127,-0.02176411,-0.05896776
1.012075,-0.03830472,0.17194,-0.0407052,-0.01687596,-0.04239552
1.008504,-0.02185005,0.1739124,-0.0100705,-0.006565503,-0.0116258
1.008715,-0.01211854,0.168883,0.002214344,0.003483522,0.01695427
1.007967,-0.001890596,0.1633485,0.01310107,-0.004560819,0.03070014
1.005157,0.006556407,0.1635855,0.02055041,-0.007010154,0.04059548
1.009555,0.0002166807,0.1640546,0.01397246,-0.0007483582,0.04011281
1.014955,0.000132956,0.1710328,0.004473701,-0.0003223624,0.02479749
1.012502,0.004554162,0.1788401,-0.008282738,-0.005973558,0.02146301
1.012521,-0.007046148,0.1727758,-0.02847983,-0.01038526,0.02063471
1.016097,-0.01267008,0.1623332,-0.04156625,0.000949543,0.008314967
1.014875,-0.01005294,0.1586886,-0.04824144,0.02246804,0.001820017
1.013016,-0.01234316,0.1580561,-0.05688984,0.03662846,-0.002373809
1.011287,-0.01293625,0.1660617,-0.05771277,0.03481775,-0.009332366
1.009393,-0.01465996,0.1811797,-0.05107557,0.01938118,-0.01130366
1.010284,-0.01516381,0.1828205,-0.04789878,0.006183076,-0.005244006
1.011427,-0.01349613,0.1776512,-0.04908711,0.006580702,0.001446161
1.012908,-0.01225273,0.1775583,-0.05017111,0.0156189,-0.002277128
1.01301,-0.01163174,0.1722122,-0.04721864,0.02125658,-0.004886365
1.012144,-0.0135696,0.1668941,-0.04374705,0.0235435,-0.002427155
1.015183,-0.0120367,0.1666962,-0.03705425,0.02889011,-0.008150249
1.018621,-0.0119485,0.1659583,-0.02105355,0.04099775,-0.01683868
1.01935,-0.01271009,0.1683155,-0.01136306,0.05945174,-0.02365846
1.015669,-0.01076461,0.1739224,-0.01610751,0.06422203,-0.02812888
1.009462,-0.01323574,0.1770715,-0.02099161,0.05011144,-0.02761766
1.008846,-0.013188,0.1795998,-0.02869495,0.03668024,-0.02949108
1.010519,-0.01364185,0.18298,-0.05086723,0.0236179,-0.03390467
1.010408,-0.01751023,0.1804708,-0.06852464,0.008453821,-0.03594448
1.011361,-0.01667667,0.1741047,-0.06378209,0.00473472,-0.03791547
1.011131,-0.01644726,0.1695828,-0.05100739,0.01965709,-0.03779417
1.00992,-0.01599221,0.170219,-0.03405836,0.03943594,-0.03433293
1.009627,-0.01200196,0.1777669,-0.01236824,0.04484048,-0.03059568
1.009057,-0.007128284,0.1828657,-0.001313256,0.04003603,-0.02239299
1.007184,-0.001678471,0.1866212,0.004570657,0.02881621,-0.0113569
1.004891,0.003294654,0.1892389,0.01255115,0.01358902,-0.01050764
1.006398,0.003916232,0.1855158,0.01418741,0.0127485,-0.01606754
1.009753,-0.001179598,0.1831822,0.01160211,0.01570266,-0.01543219
1.010155,-0.002329373,0.1797857,0.005680613,0.01049177,-0.009755454
1.010342,-0.000235589,0.1790909,-0.003167759,0.01649406,-0.0002988548
1.010205,-0.000170807,0.1833242,-0.01097995,0.02140024,0.009084726
1.007467,0.001300531,0.1840773,-0.02043549,0.0103264,0.01255585
1.005317,-0.002920532,0.1871553,-0.03021893,0.003406708,0.01561261
1.005331,-0.009024986,0.1819468,-0.03848554,0.002553173,0.01873484
1.006457,-0.009312353,0.1727288,-0.04228498,0.0003840472,0.01487985
1.00911,-0.01254109,0.1805084,-0.03948504,-0.0009858925,0.005043381
1.012096,-0.01621245,0.1855547,-0.0314901,-0.0002099454,-0.003969453
1.011674,-0.01502445,0.1803842,-0.01584723,0.004082897,-0.007815844
1.010018,-0.01309379,0.1773536,-0.001497947,0.006258144,-0.006270666
1.010447,-0.01218886,0.1740639,0.009323221,0.006576936,-0.003196485
1.008439,-0.01198215,0.1762028,0.01898787,0.008977128,-0.002606267
1.005956,-0.01036052,0.1830702,0.01484715,0.0115464,-0.001971715
1.00739,-0.006522059,0.1854546,0.008562,0.01017647,-0.003318013
1.008599,-0.003996551,0.1855162,0.007587328,0.0007840982,-0.006277801
1.008473,-0.003291981,0.1844086,-0.006740639,-0.004939061,-0.001655986
1.007254,0.000915688,0.1804802,-0.02337181,-0.001002289,0.003745859
1.006636,0.003912611,0.1776652,-0.02407095,5.202491e-06,0.005336434
1.008168,-0.001994236,0.1790782,-0.02167067,-0.001852299,0.008059556
1.008115,-0.009312015,0.1789081,-0.02906778,-0.002097877,0.007345557
1.006595,-0.01259371,0.1758128,-0.034935,-0.005431099,0.0046624
1.005191,-0.01309845,0.1762535,-0.03007645,-0.009851286,0.0007647179
1.006775,-0.01123238,0.176821,-0.02544752,-0.009768647,-0.003734238
1.011479,-0.008040323,0.1758969,-0.02226841,-0.006514174,-0.0004593563
1.013277,-0.004578737,0.1765633,-0.01592793,-0.004527198,0.007633724
1.011789,-0.00585876,0.1754041,-0.01500871,-0.008690768,0.01204122
1.007678,-0.009114471,0.1750908,-0.0215458,-0.01570805,0.007671482
1.004725,-0.006929437,0.177901,-0.02713358,-0.01699761,0.001498983
1.008413,-0.004510159,0.1791516,-0.02895698,-0.01605858,0.005975229
1.013129,-0.00426737,0.1760061,-0.03498847,-0.01912146,0.01027858
1.014484,-0.004784452,0.1718533,-0.04165433,-0.02408832,0.006654075
1.016336,-0.007882845,0.1734403,-0.03442222,-0.02518183,0.004511183
1.018761,-0.01082996,0.1747136,-0.02349703,-0.01764498,0.003228823
1.016396,-0.01406662,0.1726624,-0.02017074,-0.01031723,0.003010631
1.012983,-0.01775201,0.1739084,-0.01868927,-0.01775089,0.001884589
1.014028,-0.01977266,0.1739132,-0.01976016,-0.02628827,-0.003778555
1.014111,-0.02039501,0.1728601,-0.01846498,-0.01900788,-0.00457255
1.013541,-0.01855492,0.1732181,-0.01396211,-0.0153001,-0.000826189
1.014207,-0.0179935,0.1710116,-0.01591434,-0.01915465,0.004503363
1.013518,-0.01683592,0.1677502,-0.02203425,-0.01535673,0.01131951
1.01303,-0.01414565,0.1624856,-0.02971235,-0.01217784,0.01482494
1.012329,-0.01740235,0.1595318,-0.03689111,-0.01150756,0.0181966
1.012217,-0.01917492,0.1634819,-0.03979737,-0.01637257,0.01599858
1.012884,-0.01684509,0.1661612,-0.03943398,-0.030256,0.01113558
1.012283,-0.0156564,0.1699474,-0.03898435,-0.03668728,0.01970651
1.012484,-0.01302509,0.1773965,-0.04126799,-0.03613966,0.02768262
1.012496,-0.01327792,0.1778102,-0.04150497,-0.03111689,0.02370299
1.011398,-0.01385118,0.1739175,-0.04065445,-0.02587882,0.02029465
1.011518,-0.01162738,0.1714383,-0.03915726,-0.04377042,0.01916323
1.013647,-0.0123549,0.1668659,-0.03461425,-0.07333452,0.02024388
1.015534,-0.01183743,0.1670422,-0.03126258,-0.08044115,0.02516176
1.012028,-0.009343553,0.1715954,-0.02619976,-0.06305325,0.02672046
1.007865,-0.008669625,0.1698041,-0.03223166,-0.0465043,0.02436985
1.009777,-0.008690902,0.1658587,-0.04813311,-0.04513759,0.02110392
1.010039,-0.01196908,0.1616312,-0.04711511,-0.04081418,0.01353319
1.006273,-0.01886854,0.157375,-0.03161004,-0.02803871,0.0009672306
1.006942,-0.02304605,0.1571851,0.004318577,-0.02389703,-0.006931041
1.016007,-0.02279858,0.1559652,0.04453501,-0.02236964,0.0008829501
1.027608,-0.02418652,0.1551757,0.03892952,-0.008768856,0.008760334
1.028331,-0.02633826,0.1552627,0.0101389,0.009311117,-0.000950632
1.021968,-0.02638697,0.1574161,-0.01964763,0.008857613,-0.008213837
1.020923,-0.03077436,0.1635274,-0.06795364,-0.01029854,-0.009874562
1.019195,-0.03757527,0.1616651,-0.09122001,-0.01784346,-0.02842023
1.018312,-0.04481871,0.1602479,-0.07214741,-0.005152346,-0.05258553
1.020751,-0.0568721,0.1636571,-0.04623645,0.009953256,-0.06379338
1.018868,-0.05933575,0.1583738,-0.0006258638,0.01698928,-0.06468219
1.018046,-0.04610851,0.1553443,0.04516347,0.02110676,-0.05818853
1.01477,-0.02913099,0.1580021,0.05537199,0.02107351,-0.04258522
1.007722,-0.01051017,0.1599702,0.06326343,0.00870412,-0.02432662
1.009258,-0.004804238,0.1639199,0.07497895,-0.00272278,-0.01866719
1.012018,-0.01256795,0.1655029,0.07822491,-0.007961106,-0.01387232
1.014195,-0.009861063,0.1650844,0.07514421,-0.003702196,-0.002034538
1.019944,-0.007873043,0.1644311,0.05791962,0.008800528,-0.01063952
1.018901,-0.01186423,0.1629598,0.04261002,0.004596527,-0.02750166
1.016457,-0.01009766,0.1610916,0.03146388,0.005887073,-0.02866751
1.018406,-0.01396169,0.156995,0.0141463,0.01812311,-0.02481178
1.015337,-0.01764933,0.1523519,-0.009589638,0.01045242,-0.01406692
1.011453,-0.01801507,0.1485215,-0.03368647,0.003822556,-0.002654488
1.012784,-0.02644961,0.147449,-0.03476109,-0.001028915,0.0106896
1.013984,-0.03306723,0.1477836,-0.02694221,-0.004635163,0.02793847
1.015306,-0.03496529,0.1467506,-0.02680585,0.004236678,0.02296337
1.015762,-0.03616623,0.1482123,-0.02555496,0.001388016,0.01805294
1.01321,-0.035941,0.1498589,-0.02780884,-0.0009008711,0.02657382
1.013753,-0.03563797,0.1513475,-0.02404103,0.003078469,0.02375516
1.016402,-0.03277031,0.1562463,-0.01639441,-0.0007197531,0.02483229
1.01684,-0.03048705,0.1574912,-0.009892749,0.003480465,0.02546901
1.016641,-0.03005069,0.1554255,-6.703119e-05,0.01124365,0.01703681
1.015643,-0.02717293,0.1563512,0.0009028171,0.01607544,0.01649171
1.014944,-0.02453612,0.1576491,-0.004265519,0.0190523,0.01406075
1.015005,-0.02222486,0.1610528,-0.01116393,0.0191626,0.008198819
1.013523,-0.01549933,0.164993,-0.01223497,0.0230926,0.006433142
1.012272,-0.01061723,0.1605409,-0.0105422,0.01917269,0.01229009
1.01445,-0.01377073,0.155098,-0.02308058,0.01075664,0.024154
1.018193,-0.01752046,0.1570861,-0.0290123,0.01195187,0.02453567
1.019342,-0.02019119,0.1571212,-0.02226159,0.01211417,0.02292312
1.017804,-0.02108525,0.1534902,-0.01902875,0.01292736,0.02398681
1.014353,-0.01793241,0.1521874,-0.01997377,0.02290151,0.01395135
1.011534,-0.01527116,0.1515968,-0.02214903,0.03788031,0.009936395
1.014072,-0.007603279,0.1526705,-0.01963553,0.05401167,0.01851483
1.016309,-0.0004244019,0.159569,-0.02162302,0.07117903,0.02212861
1.012385,-0.00693682,0.1726739,-0.02632877,0.07699818,0.009315603
1.008028,-0.01231818,0.18044,-0.02353384,0.04180647,-0.01070873
1.006544,-0.005816003,0.1746369,-0.01410365,-0.01031178,-0.01390974
1.009074,0.002639372,0.1685619,0.0006438397,-0.01780436,-0.005899523
1.014525,0.006082099,0.1662185,-0.004778863,0.006791455,0.002820184
1.015546,-0.0001453157,0.1643441,-0.03030555,0.01993966,0.01304746
1.011184,-0.01232795,0.1659813,-0.0440508,0.01747404,0.008561255
1.006662,-0.01686487,0.1643496,-0.03438302,0.005111864,-0.008425913
1.006777,-0.01644331,0.1628044,-0.008149896,-0.007581935,-0.02232499
1.0139,-0.01804554,0.1653725,0.007402276,-0.009335916,-0.03001344
1.026855,-0.01377609,0.1671819,0.01405225,0.001292817,-0.02925182
1.037537,-0.009035273,0.1741186,0.02711016,0.03029653,-0.02872855
1.031363,-0.01340812,0.1781655,0.03929987,0.0554204,-0.03208861
1.014183,-0.02250421,0.1721762,0.05337494,0.02588118,-0.03468941
1.006135,-0.02945268,0.1696451,0.05889878,-0.01368943,-0.04062766
1.011147,-0.02378949,0.1727864,0.0580366,0.005792539,-0.04483643
1.018804,-0.01549108,0.1743288,0.05474145,0.0285439,-0.04897648
1.014364,-0.01861196,0.1716522,0.04090114,0.03663746,-0.05667397
1.006422,-0.01494017,0.1697834,0.04312135,0.05415381,-0.05284379
1.006025,-0.005955221,0.17268,0.0463042,0.03223967,-0.04614113
1.004646,-0.00832937,0.1780342,0.02949422,0.005974301,-0.04711338
1.009018,-0.004430895,0.1840653,0.01705317,0.02308185,-0.04220191
1.013483,0.004953295,0.1832301,0.007198245,0.03155056,-0.03806797
1.011093,-0.00127285,0.1781726,0.01343909,0.03075038,-0.04135691
1.011775,-0.009355484,0.177737,0.02660372,0.03554358,-0.04655213
1.009153,-0.009480093,0.1776038,0.01725486,0.03224389,-0.05091393
1.011053,-0.008674808,0.1786477,0.01657445,0.0367929,-0.03972836
1.016523,-0.006949941,0.1796211,0.02036735,0.04591458,-0.01793329
1.013632,-0.01222813,0.1768073,0.01436313,0.05030797,-0.01224408
1.011274,-0.01984933,0.1765608,0.01815251,0.05124966,-0.02556948
1.007425,-0.0183152,0.1790426,0.01305998,0.04007848,-0.04236189
1.009071,-0.01654104,0.1808415,-0.003367144,0.03269106,-0.04899175
1.014584,-0.01509121,0.1784263,-0.01654309,0.038136,-0.04566434
1.011611,-0.01027226,0.1745871,-0.02160188,0.04011608,-0.04191963
1.012381,-0.007578709,0.1769938,-0.01100518,0.03837441,-0.03522925
1.013251,-0.005885771,0.179272,-0.008798321,0.03664256,-0.02641865
1.011216,-0.008027346,0.1806002,-0.01908218,0.03489843,-0.0278012
1.01108,-0.01301116,0.1830697,-0.02208709,0.03132336,-0.03039724
1.006897,-0.0105427,0.1807868,-0.02089975,0.02216257,-0.02331216
1.005184,-0.00783139,0.1797814,-0.01759485,0.007371001,-0.01918906
1.006416,-0.009874853,0.1811516,-0.01827916,-0.01397205,-0.01227115
1.008216,-0.007673552,0.1800954,-0.01850657,-0.02411337,0.003722198
1.012628,-0.005784871,0.1793289,-0.01289427,-0.009167068,0.006807696
1.013603,-0.006018515,0.1772426,-0.009421891,0.006721581,-0.003373735
1.013804,-0.004542661,0.1750028,-0.0008029483,0.00645841,-0.0103541
1.015915,-0.005099958,0.1735303,0.008990688,0.005323076,-0.01093552
1.014877,-0.00412527,0.1698133,0.02233415,0.01414358,-0.009341813
1.011196,-0.003389307,0.1683621,0.03599782,0.02435074,-0.009699638
1.008842,-0.005056849,0.1713631,0.01969997,0.02665054,-0.007815502
1.009438,-0.005848536,0.1767385,-0.007929499,0.01530858,-0.007362251
1.010257,-0.01548199,0.1821553,-0.03177674,-0.006512703,-0.01204907
1.009535,-0.02855121,0.180113,-0.05914012,-0.02582118,-0.01510799
1.00953,-0.02960075,0.1735928,-0.05801205,-0.03098728,-0.01616492
1.01039,-0.02624893,0.1723728,-0.04364727,-0.02094149,-0.01203013
1.01133,-0.02514094,0.1703723,-0.04116244,-0.01429145,-0.002246834
1.012997,-0.01875539,0.1669529,-0.02032465,-0.01568575,0.005060969
1.012568,-0.007021876,0.1698209,-0.002656268,-0.01406696,0.004284357
1.009528,-0.0004118027,0.1719704,-0.01034131,-0.01341408,0.002179654
1.00719,0.001043114,0.1719851,-0.01123101,-0.01137104,0.01091996
1.00606,0.004158963,0.1788357,-0.01078501,-0.009580373,0.02007186
1.007161,0.005255632,0.1896917,-0.01833152,-0.018475,0.02160503
1.008188,0.003463166,0.192427,-0.02535628,-0.0352374,0.01776786
1.009422,0.004096383,0.1871204,-0.04177453,-0.05116486,0.008428141
1.012404,0.00469837,0.1848943,-0.05368929,-0.05517709,0.006522309
1.010241,0.003482677,0.1811978,-0.04789021,-0.04988712,0.01012814
1.008418,0.003439919,0.1728218,-0.04329366,-0.04186137,0.0199394
1.011084,0.002709758,0.1699497,-0.04164221,-0.03198867,0.03560353
1.01153,0.002269886,0.1684126,-0.03503677,-0.02772652,0.02986761
1.014554,0.002098488,0.1622858,-0.03159335,-0.01540628,0.0230938
1.016292,-0.003909601,0.1599514,-0.03526579,0.005646306,0.03719837
1.012676,-0.01041841,0.1651528,-0.04440529,0.003329698,0.04406568
1.012108,-0.01379379,0.168037,-0.05771846,-0.01012129,0.04428058
1.01291,-0.02398094,0.1644447,-0.07570357,-0.01351176,0.04113869
1.014466,-0.03749796,0.1629757,-0.09482011,-0.02123093,0.02609504
1.017236,-0.03853168,0.1638256,-0.09656948,-0.02574753,0.007541236
1.018642,-0.03351167,0.1622092,-0.08161381,-0.02159162,-0.01115432
1.019239,-0.03478856,0.1607863,-0.05834513,-0.01152134,-0.01827864
1.015447,-0.03229426,0.1630348,-0.01716963,0.006063842,-0.01416428
1.009774,-0.02588138,0.1671104,0.01475013,0.006874146,-0.0150526
1.008927,-0.01671591,0.1692538,0.01859122,0.003830235,-0.01313032
1.01102,-0.000934329,0.1715061,0.02516336,0.01366074,-0.003822862
1.011758,0.003057002,0.1730995,0.02951926,0.008881053,0.00496443
1.011711,0.0003598783,0.1721263,0.0173617,0.0009560539,0.006638451
1.012831,0.00143639,0.1729586,0.006069966,-0.003549578,-0.001465713
1.012352,-0.006621407,0.1746965,-0.003480295,-0.01176755,-0.007900721
1.010336,-0.01013224,0.1761919,-0.01079225,-0.01339909,-0.009199465
1.009619,-0.006991952,0.1779344,-0.008902693,-0.02461052,-0.01441307
1.010341,-0.01012398,0.1746447,-0.00368093,-0.03110681,-0.02005737
1.011703,-0.009338024,0.167681,0.006152889,-0.01509069,-0.01015966
1.011351,-0.006624406,0.1652404,0.02091918,-0.001871146,0.0127935
1.011576,-0.005358882,0.1669323,0.02807251,0.0003532494,0.02428857
1.013179,-0.005127127,0.1670444,0.02631284,-0.0080015,0.02414334
1.012445,-0.00928405,0.1653997,0.02385279,-0.01410685,0.02891198
1.013263,-0.01017869,0.1623077,0.0162225,-0.009910532,0.03805859
1.01821,-0.01122463,0.1593616,-0.001011487,-0.009643204,0.05025371
1.021549,-0.01976341,0.163485,-0.02279648,-0.01144666,0.0612262
1.017035,-0.03314581,0.1691724,-0.03330767,-0.02331741,0.0527156
1.008572,-0.03957555,0.1666941,-0.01937499,-0.05034102,0.02672253
1.007193,-0.03044019,0.1660542,-0.005191836,-0.06399433,0.00641291
1.009887,-0.02188773,0.1717816,-0.004346336,-0.05036377,-0.005878883
1.009877,-0.01719272,0.1754571,-0.002012992,-0.04079391,-0.01251142
1.009394,-0.008841017,0.1803807,-0.002430767,-0.05575554,-0.01658026
1.007835,-3.991682e-05,0.1880249,-0.00308949,-0.06423482,-0.02711627
1.006568,0.01196499,0.1907496,-0.008356619,-0.05927456,-0.03157162
1.008682,0.01385016,0.1839901,-0.03311477,-0.05687355,-0.03052171
1.013252,0.005210631,0.1747283,-0.06682942,-0.04445629,-0.03626361
1.016365,0.00490323,0.1754534,-0.1064741,-0.0302952,-0.05459852
1.013703,0.003452351,0.1778493,-0.1607887,-0.03276048,-0.09330959
1.010774,0.002667794,0.173812,-0.2301145,-0.04111856,-0.1358558
1.011051,0.01154174,0.1685633,-0.3015165,-0.04133703,-0.1706156
1.009561,0.01738658,0.1618098,-0.3872588,-0.0311153,-0.1824275
1.008998,0.01489952,0.1622992,-0.4958698,-0.01607369,-0.153271
1.011114,0.001685754,0.166854,-0.5621925,-0.009093628,-0.1282225
1.013142,-0.01029625,0.1653598,-0.5914809,-0.01308353,-0.1404019
1.01659,-0.006268111,0.1684717,-0.644132,-0.004618453,-0.1428698
1.018849,-0.00308921,0.1700465,-0.6841512,0.02039736,-0.1012176
1.019118,-0.006963701,0.1679438,-0.6878149,0.03015622,-0.04617675
1.020203,-0.007558413,0.1722901,-0.6740882,0.006318956,-0.01839521
1.018662,-0.01379072,0.1695813,-0.663093,-0.02300651,-0.02675703
1.016304,-0.02484876,0.1604137,-0.6606077,-0.0195094,-0.01976512
1.015228,-0.02365075,0.1542952,-0.6459853,-0.01262947,0.03375331
1.014039,-0.01970283,0.1490577,-0.636051,-0.01993583,0.06995731
1.014184,-0.02266827,0.147155,-0.630211,-0.006705454,0.08168013
1.012037,-0.02063537,0.1461676,-0.6244107,0.003811474,0.09365388
1.011569,-0.01939193,0.1469614,-0.6321184,-0.000246735,0.09139483
1.0134,-0.02037011,0.14405,-0.6395737,0.001273499,0.1164726
1.010014,-0.01761442,0.131742,-0.6659486,-0.005387564,0.1714582
1.00976,-0.02464181,0.1203152,-0.6833366,-0.007780423,0.2193781
1.013981,-0.04002634,0.1126471,-0.664275,-0.004130299,0.2529192
1.016652,-0.05546496,0.1140766,-0.6497986,-0.008540879,0.2609649
1.016837,-0.07424137,0.1166449,-0.6136513,-0.009579344,0.2654526
1.013744,-0.09087034,0.1109468,-0.5528146,-0.01396528,0.277394
1.013489,-0.09660388,0.1123894,-0.5138776,-0.01484522,0.2850029
1.012415,-0.09891556,0.1130568,-0.5042294,0.0007069261,0.2767191
1.00989,-0.1069511,0.1097027,-0.499784,0.01413527,0.2557407
1.013235,-0.1064963,0.1142694,-0.4626081,0.01201173,0.2545008
1.019181,-0.1060485,0.1165918,-0.4227734,0.01296156,0.249344
1.026069,-0.1214343,0.1141452,-0.3991576,0.04046436,0.2181629
1.026495,-0.1268528,0.1155547,-0.3512502,0.06102381,0.1749666
1.02174,-0.1223842,0.1298701,-0.2863665,0.04637568,0.1192705
1.018782,-0.1173534,0.1447869,-0.2343234,0.0204056,0.08704056
1.012618,-0.1065275,0.1396644,-0.1990505,0.001255191,0.08762742
1.016059,-0.1069274,0.1298214,-0.1482075,0.009640529,0.08690664
1.025704,-0.1102074,0.1275898,-0.08986264,0.03227562,0.07302218
1.025319,-0.1062513,0.131492,-0.06246766,0.03807393,0.04215543
1.027635,-0.1037071,0.1383096,-0.02785492,0.04380881,0.004200201
1.026488,-0.09608058,0.1387528,0.02503558,0.04303855,-0.03282951
1.016319,-0.0879734,0.1425912,0.06998049,0.02086518,-0.05684522
1.014346,-0.08328069,0.1479841,0.1138274,0.003381682,-0.06092171
1.017634,-0.08294814,0.1354052,0.1516014,0.004747592,-0.06637744
1.021488,-0.09075498,0.1211251,0.1920632,0.01368699,-0.07316972
1.023495,-0.09598582,0.125816,0.2418091,0.0121895,-0.08620115
1.020799,-0.09844386,0.1351534,0.2989755,0.001691964,-0.1181217
1.018782,-0.1015172,0.1385851,0.3774457,-0.01045259,-0.146869
1.016184,-0.0977949,0.1382216,0.4484224,-0.02018215,-0.1567375
1.017584,-0.0921181,0.1349013,0.4955708,-0.00883939,-0.1519899
1.021099,-0.09441707,0.1360436,0.5486249,0.01169143,-0.1519157
1.016788,-0.09833331,0.1403023,0.5855363,0.02516806,-0.1633934
1.011039,-0.09929712,0.145124,0.6064158,0.03117855,-0.1712094
1.007307,-0.09929822,0.1523923,0.6668191,0.02004197,-0.1805808
1.008065,-0.08328755,0.1512391,0.7338055,0.01848529,-0.1936242
1.011579,-0.05561761,0.1483105,0.7668701,0.03676804,-0.2043032
1.009188,-0.04520636,0.1539349,0.7875882,0.04497569,-0.2027678
1.009218,-0.04649647,0.1545963,0.7931022,0.03431531,-0.1831665
1.01174,-0.04065715,0.150102,0.7952975,0.02294132,-0.1686145
1.010546,-0.03085923,0.1460257,0.8038255,0.04203835,-0.1549161
1.011427,-0.02925169,0.1440375,0.8138861,0.05891294,-0.1361624
1.009839,-0.04512884,0.1509513,0.8284529,0.03684767,-0.1319932
1.003432,-0.06846067,0.1567421,0.8321013,0.01565875,-0.138776
0.9987823,-0.07814455,0.1541025,0.853475,0.00944951,-0.1563542
1.001435,-0.07507753,0.15319,0.9111486,0.01838398,-0.179725
1.010198,-0.07427578,0.1552055,0.9679823,0.04279447,-0.1965962
1.014337,-0.06150868,0.1564992,1.002925,0.05504684,-0.1949335
1.015731,-0.02253108,0.1599105,1.001263,0.05549208,-0.1657698
1.017418,0.01204646,0.1634611,0.9689751,0.06427257,-0.1278274
1.020483,0.03133741,0.1627274,0.9120885,0.09542023,-0.07994197
1.028399,0.05208593,0.1643135,0.8273131,0.1370516,-0.0302711
1.024341,0.0578057,0.1743443,0.7328249,0.1545708,-0.0008817996
1.005001,0.04211057,0.1894837,0.6439636,0.1235581,0.01752278
0.9848636,0.0281663,0.1989157,0.5856259,0.0610884,0.02219464
0.9742922,0.02134866,0.1944381,0.5495333,0.0276501,0.0262329
0.9792598,0.01454817,0.1904482,0.5139902,0.02194445,0.03245432
0.9840178,-0.0002924008,0.191143,0.5029158,0.01022383,0.01330002
0.9918637,-0.01962652,0.1859234,0.4957868,0.009005971,-0.01760958
1.011507,-0.0208552,0.1856693,0.4662907,0.01273923,-0.03447304
1.023285,-0.005752635,0.1850683,0.4400004,0.01593343,-0.0222163
1.030757,0.004994385,0.1750074,0.420041,0.0307384,0.01218365
1.034918,0.01059003,0.1737123,0.4076727,0.04297766,0.04731129
1.028076,0.01337768,0.1798596,0.3911862,0.04700536,0.06678927
1.023489,0.01473937,0.187664,0.3409953,0.05583815,0.05654128
1.022232,0.02443763,0.1983713,0.2916628,0.06293618,0.04407667
1.015776,0.04779632,0.2036878,0.2690477,0.04013007,0.03300297
0.9972696,0.06981194,0.2083527,0.2417159,0.00846929,0.0120662
0.9813701,0.07239191,0.2074317,0.2018681,0.008094556,0.01467607
0.9889048,0.06810081,0.1991299,0.1509844,0.02454078,0.01878494
0.9980014,0.06360327,0.2013859,0.09796871,0.03940023,0.009482484
0.9955683,0.05134664,0.2012393,0.06188417,0.03898016,0.008828362
0.9984109,0.04132903,0.1937521,0.01304405,0.01609394,-0.003036848
1.004113,0.02886381,0.1953171,-0.06631909,-0.01515672,-0.01054363
1.008362,0.01064921,0.1947943,-0.1280962,-0.04416917,-0.006412939
1.015408,0.004848504,0.191385,-0.1391366,-0.06189522,-0.01049469
1.015293,0.009811138,0.1863236,-0.1205564,-0.06544005,-0.005136092
1.01055,0.01396999,0.1744167,-0.1011668,-0.04540004,0.004272416
1.010732,0.01736892,0.1759945,-0.07578068,-0.009934827,0.01307854
1.005825,0.02131477,0.1880071,-0.04493794,0.003060986,0.02013699
1.002509,0.02468227,0.1953612,-0.03296805,-0.001452593,0.01073177
1.00802,0.028643,0.1998061,-0.03316009,0.002583501,0.0032691
1.010034,0.03271541,0.1969866,-0.05292556,0.009918672,0.004902792
1.009701,0.03019364,0.1957784,-0.1028091,0.008264825,0.01606469
1.00882,0.01877703,0.1954733,-0.134563,-0.007484074,0.03415392
1.008115,0.006130279,0.1878262,-0.1427002,-0.03102592,0.02962413
1.011188,0.004466324,0.1848545,-0.1585099,-0.03931889,0.01249085
1.015067,0.009805515,0.1831993,-0.1752242,-0.02723537,0.007249169
1.016907,0.008082069,0.1822262,-0.1832084,-0.01844098,0.01081759
1.010564,0.004713254,0.1851044,-0.1803765,-0.009248536,0.0182311
1.001361,0.001566166,0.1834178,-0.1717365,0.001848325,0.01665627
1.001213,-0.004255457,0.1846214,-0.1530543,-0.003699224,0.01297754
1.0072,-0.005116281,0.1830099,-0.1251557,-0.008266928,0.01419825
1.011582,-0.006711065,0.1769541,-0.09448817,-0.01289512,0.008406167
1.010033,-0.008591063,0.1799434,-0.05903496,-0.0267006,0.01319102
1.008561,-0.005271067,0.1801006,-0.04603088,-0.02665109,0.03178935
1.010524,-0.005319732,0.1807088,-0.04994733,-0.02400359,0.043702
1.010204,-0.004420395,0.1854471,-0.04181448,-0.02924533,0.04414587
1.011933,-0.002509052,0.1820309,-0.03509783,-0.02942619,0.03732837
1.015273,-0.003548842,0.1793494,-0.0370396,-0.02979371,0.03755914
1.013159,2.803527e-05,0.1762163,-0.04465928,-0.031743,0.0393051
1.009694,0.002003594,0.1703451,-0.04798438,-0.03127845,0.04772542
1.008331,0.00121194,0.1685835,-0.04523731,-0.02982985,0.0649311
1.010926,-0.00127402,0.1720132,-0.04044038,-0.0275455,0.04953515
1.016892,-0.008068559,0.1789127,-0.02635867,-0.02330999,0.02461316
1.018713,-0.006293081,0.1749146,-0.0181656,-0.01863836,0.02486371
1.018372,-0.002401459,0.1689306,-0.01605802,-0.01881433,0.02748212
1.018442,-0.001798125,0.1720281,-0.01451939,-0.02071503,0.03413292
1.01382,0.004789373,0.1704634,-0.01517913,-0.01975261,0.03879611
1.009212,0.003900675,0.1710498,-0.00680514,-0.02110004,0.0356501
1.00967,-0.0007864559,0.1754172,-0.005434387,-0.02599095,0.03158537
1.011795,0.0006288243,0.1752422,-0.01184794,-0.02805049,0.02173636
1.013595,-0.003015171,0.1711076,-0.0128483,-0.02210277,0.02144216
1.015594,-0.00396854,0.163971,-0.01443923,-0.01361535,0.02138325
1.018969,-0.001419819,0.165465,-0.01176426,-0.01363799,0.01262567
1.019818,-0.004481136,0.1671782,-0.008640121,-0.01362535,0.01486473
1.01542,-0.007173676,0.1616151,-0.007034989,-0.00646676,0.01404884
1.012608,-0.01059793,0.164197,-0.001511866,-0.004021511,0.006064731
1.013717,-0.01005843,0.1654679,0.00555395,-0.00361327,0.003925163
1.013143,-0.002938598,0.1617896,0.01069664,-0.005727688,0.002824022
1.010108,0.001412327,0.1630777,0.009677546,-0.01297638,0.006124094
1.009218,0.003368224,0.1643245,0.009913876,-0.01036594,0.01070241
1.011037,-0.0004806847,0.1672109,0.01019016,-0.005991678,0.01032775
1.012354,-0.005096282,0.1697884,0.007285956,-0.007225511,0.01218849
1.012714,-0.001240689,0.1683497,0.007529874,-0.00606086,0.01558525
1.012522,0.002205538,0.1643593,0.006208177,-0.009261884,0.01633012
1.012167,0.003783704,0.1594478,0.006201938,-0.01101915,0.01579784
1.011744,0.000716106,0.1627836,0.007482536,-0.007581311,0.01451611
1.010797,-0.006353197,0.1678453,0.007128439,-0.00788905,0.01138281
1.011129,-0.004346738,0.1675903,0.008927614,-0.007636441,0.008676696
1.011958,-0.001869425,0.1714145,0.006582599,-0.007746999,0.01297967
1.011145,-0.003701976,0.1779307,0.004991344,-0.01111473,0.01857539
1.011258,-0.002404747,0.1803385,0.007296761,-0.01214725,0.01673705
1.013637,-0.003625849,0.1724097,0.006837727,-0.006007771,0.0156289
1.014569,-0.005110653,0.1625059,0.007675498,0.003023068,0.0147654
1.012617,-0.004567468,0.1656019,0.009396911,0.002027606,0.008816858
1.011834,-0.005487011,0.165461,0.0121034,-0.005543488,0.00822993
1.011967,-0.003016039,0.1586787,0.01361049,-0.01004742,0.01369116
1.010696,-0.0003631684,0.1642869,0.009185359,-0.01210491,0.0165498
1.0106,-0.002297329,0.170604,0.006817159,-0.01395191,0.0144392
1.009701,-0.00351293,0.1698684,0.00730533,-0.02337319,0.009381919
1.007664,-0.001857619,0.171128,0.004272385,-0.03563385,0.008007538
1.009475,0.00102047,0.1684209,-0.007201191,-0.03666241,0.01139614
1.012627,0.003550815,0.1633244,-0.02409584,-0.02736785,0.0148807
1.01457,0.003187569,0.1613654,-0.02825562,-0.01206181,0.01443948
1.015196,0.0004014941,0.1593629,-0.02322396,-0.0009056884,0.01225397
1.011736,-0.00278988,0.1583655,-0.02649046,-0.000383147,0.01261695
1.008275,-0.007662033,0.1592373,-0.02941049,0.002542724,0.008999636
1.009585,-0.00977684,0.1629352,-0.02731497,0.008032386,0.001287904
1.010497,-0.006463305,0.1649579,-0.02892602,0.005661333,-0.003914062
1.009534,-0.005614192,0.1617611,-0.0308799,0.00226933,-0.007121162
1.011893,-0.005846348,0.1586316,-0.03149369,0.001767806,-0.006377027
1.015167,-0.004807115,0.1558337,-0.03191576,0.001555828,0.000537633
1.015642,-0.005302318,0.1555041,-0.03122687,0.006564842,0.009470539
1.015119,-0.005213342,0.1573769,-0.03341996,0.01131074,0.009632562
1.014196,-0.008159429,0.1606946,-0.03530542,0.008751536,0.005300134
1.013167,-0.01127584,0.1684256,-0.03459428,0.006837137,0.007368291
1.011911,-0.009350311,0.1691458,-0.03573471,0.007218344,0.005312336
1.012311,-0.009347827,0.1629478,-0.03679294,0.006593475,0.003049866
1.015217,-0.01023544,0.1619158,-0.03707989,0.007343011,0.006410547
1.014584,-0.009046533,0.1625961,-0.03900183,0.01077912,0.005309975
1.012491,-0.007648668,0.1635318,-0.04361168,0.0158679,0.004813991
1.013551,-0.004699249,0.1643432,-0.04873966,0.02147665,0.001912205
1.012519,-0.003280036,0.1635741,-0.04910675,0.02789654,-0.002824799
1.011697,-0.004460912,0.1640595,-0.04529658,0.02980312,-0.0007243128
1.01328,-0.004699918,0.1629837,-0.04179144,0.02764561,-0.001545962
1.011886,-0.005658791,0.1591013,-0.04016743,0.03149714,-0.003603079
1.010422,-0.007661025,0.1549299,-0.03721677,0.03787249,-0.0003255119
1.010804,-0.007350702,0.1555738,-0.03395434,0.04138818,0.006938402
1.014387,-0.007286685,0.1623574,-0.03596077,0.0397414,0.01554355
1.01958,-0.008604381,0.1675348,-0.03949306,0.03091246,0.01863082
1.014883,-0.006652391,0.1704597,-0.03971719,0.02430319,0.02042412
1.008836,-0.004737418,0.1734882,-0.03273956,0.01514957,0.02088645
1.012696,-0.006802056,0.1755395,-0.02140816,-0.006487456,0.01399822
1.017015,-0.008217337,0.1757083,-0.02069226,-0.02202244,0.007526138
1.020262,-0.007501547,0.1745736,-0.02376837,-0.01804969,0.00503938
1.020679,-0.006718562,0.176574,-0.01837889,-0.01617682,0.004303228
1.016217,-0.006577299,0.1773731,-0.01056128,-0.03450691,0.00444318
1.010632,-0.006119599,0.1768358,0.006863325,-0.0757855,0.0003713274
1.001588,-0.004307283,0.1838854,0.03366118,-0.1493289,-0.008849761
1.003027,-0.004940834,0.1844311,0.04568549,-0.2011532,-0.02644575
1.019731,-0.01122514,0.1583013,0.03013052,-0.1575455,-0.05218404
1.027799,-0.01916571,0.1259061,0.007329125,-0.06669221,-0.06361417
1.020619,-0.02308946,0.1288336,0.007116537,0.006558674,-0.05975872
1.008639,-0.02297839,0.1551605,0.01588207,0.02945477,-0.06480862
1.005447,-0.02047803,0.1650859,0.01730404,-0.01827081,-0.06756206
1.013246,-0.01318167,0.1645482,0.02224951,-0.05874925,-0.05645569
1.017009,0.0004988443,0.1624428,0.02100967,-0.0665966,-0.04252795
1.015489,0.01224016,0.1516147,0.01245518,-0.06753479,-0.02686304
1.01379,0.003717565,0.1375769,0.004931962,-0.01837616,-0.02771844
1.011876,-0.0137458,0.1347494,-0.003847273,0.03218271,-0.04072709
1.009769,-0.009120807,0.1474384,-0.008892881,0.03401941,-0.03483206
1.011278,0.002183053,0.1521223,-0.01362278,0.02682269,-0.0228216
1.016981,0.007739202,0.1487185,-0.01928449,0.01367584,-0.00182144
1.015546,0.01675209,0.1513243,-0.02666196,-0.001432673,0.02997701
1.013966,0.01523873,0.1507878,-0.03615259,-0.00613003,0.04432199
1.016484,0.01022387,0.1515521,-0.04767151,0.006371873,0.04843121
1.013585,0.003897572,0.1503848,-0.06253627,0.02318463,0.04016131
1.013614,-0.007469443,0.1483736,-0.06185086,0.03445262,0.02930897
1.014418,-0.002984936,0.1529915,-0.0604281,0.05245788,0.03450937
1.013031,-0.0001596068,0.1534473,-0.07004362,0.05364033,0.03200297
1.013277,-0.004726609,0.1588247,-0.06684734,0.05850255,0.03013603
1.010065,0.001601658,0.1666595,-0.06796956,0.07010221,0.03193657
1.010129,0.005053257,0.1677543,-0.07269915,0.04723737,0.0238869
1.015438,0.004874058,0.1689359,-0.07198532,0.02890655,0.02184281
1.018756,0.001835616,0.1664554,-0.08075757,0.03234876,0.02215411
1.015366,-0.003803598,0.1662652,-0.08026986,0.04205618,0.02111698
1.00993,-0.002485534,0.1673716,-0.07376791,0.05365594,0.02084649
1.01279,-0.006664078,0.1642578,-0.07360565,0.05426243,0.02040224
1.01368,-0.01397316,0.159254,-0.06946458,0.05145121,0.0223926
1.011119,-0.01125572,0.1521983,-0.06499793,0.04664565,0.02139947
1.01328,-0.008163332,0.1579772,-0.05749687,0.04567957,0.02332383
1.012505,-0.007768562,0.1703813,-0.05173206,0.04586442,0.0271198
1.011598,-0.004847185,0.1718992,-0.05335258,0.03667149,0.03008399
1.011403,-0.00597896,0.1721823,-0.05235391,0.02786299,0.03371545
1.008673,-0.01028223,0.1767469,-0.04852401,0.02056646,0.02768754
1.009845,-0.009860037,0.1823407,-0.04405214,0.01805735,0.01660464
1.011197,-0.01043903,0.181874,-0.0422297,0.01994356,0.007834338
1.010475,-0.01111378,0.1775894,-0.04254889,0.02744607,0.007225277
1.009523,-0.007075805,0.1776412,-0.04455033,0.03469568,0.0119763
1.006697,-0.005218936,0.1753531,-0.04892095,0.02315027,0.01042571
1.006926,-0.008178096,0.1768026,-0.0430431,0.01343835,0.01313338
1.010173,-0.01293656,0.1801778,-0.03546849,0.01890012,0.0123363
1.011677,-0.01312822,0.1744637,-0.03956617,0.02284736,0.003583725
1.011579,-0.01050756,0.1724318,-0.04116296,0.02283871,0.0061516
1.011202,-0.01051175,0.171614,-0.03911908,0.02142832,0.006603976
1.011107,-0.00961339,0.1717772,-0.03654538,0.01842585,0.002726331
1.009516,-0.01130036,0.1784764,-0.02939775,0.01337772,0.004766295
1.00894,-0.01382999,0.1765152,-0.02744214,0.007589194,0.006980269
1.011025,-0.01300214,0.1750146,-0.02844974,0.001590914,0.01547161
1.012217,-0.01371533,0.1779694,-0.02554428,-0.0002851012,0.02019206
1.013798,-0.01244698,0.1755256,-0.02613543,0.005105698,0.01573809
1.012117,-0.009955772,0.1774886,-0.02694129,0.007978766,0.01374035
1.007842,-0.01063487,0.1794575,-0.02500282,0.0002128698,0.007404753
1.009808,-0.01139228,0.1814792,-0.02472876,-0.008778127,-0.001535076
1.011228,-0.0117951,0.1861571,-0.02285684,-0.00147825,-0.005609049
1.011365,-0.01109473,0.1822241,-0.02052769,0.009042893,-0.006852268
1.015232,-0.00972779,0.1792654,-0.01820406,0.006981328,-0.005481965
1.014114,-0.009695388,0.1836927,-0.01561564,-0.000206869,-0.0004604549
1.011544,-0.009725379,0.1845014,-0.01840572,-0.01140279,0.006436515
1.01129,-0.009658329,0.1774503,-0.02053667,-0.01262304,0.008118432
1.009188,-0.009819486,0.1709089,-0.01839367,-0.007416628,0.007344451
1.011232,-0.009667728,0.1736358,-0.01813924,-0.01310926,0.007616989
1.013838,-0.009694471,0.1765287,-0.01813406,-0.01415815,0.006252014
1.012067,-0.009988193,0.1744958,-0.01805513,-0.01295304,0.006721048
1.012287,-0.01052649,0.1751156,-0.01848651,-0.015713,0.006374906
1.012725,-0.01142176,0.1768782,-0.01781357,-0.01552202,0.005563909
1.010951,-0.01160658,0.17677,-0.01806621,-0.01683653,0.007172793
1.008798,-0.01260808,0.1770467,-0.01764884,-0.01514128,0.005414018
1.005945,-0.01462605,0.1784023,-0.01542085,-0.01530066,0.002148536
1.005422,-0.01391046,0.179836,-0.01426999,-0.0206147,0.0003342704
1.008978,-0.01210582,0.1791461,-0.01549801,-0.02484692,0.0009901667
1.013333,-0.0111552,0.1728413,-0.01789639,-0.02848803,0.004621082
1.014858,-0.01154312,0.166052,-0.01847902,-0.02173854,0.005340686
1.013668,-0.01641098,0.1706044,-0.01659479,-0.01292631,0.004364624
1.013767,-0.01991943,0.1763253,-0.01113736,-0.01380721,0.001849607
1.015507,-0.01678274,0.1694519,-0.006697744,-0.01355428,-0.002727106
1.017164,-0.01299405,0.1639324,-0.01296598,-0.01154439,-0.001376435
1.018653,-0.0104824,0.1640622,-0.01884423,-0.009877093,0.002402484
1.017705,-0.01001499,0.1636215,-0.01368749,-0.01175689,0.006904911
1.014708,-0.01120982,0.1671626,-0.01109948,-0.01472495,0.01260673
1.012511,-0.009246147,0.1689778,-0.01284681,-0.00924498,0.00661098
1.011891,-0.009249568,0.1689432,-0.01093721,-0.006764092,-0.003783806
1.013154,-0.01160516,0.1744941,-0.01012969,-0.0139318,-0.007872608
1.014463,-0.01076131,0.1794859,-0.0120025,-0.01880117,-0.01345131
1.015417,-0.01121119,0.1772385,-0.0150991,-0.01195472,-0.01228312
1.01582,-0.01139385,0.169227,-0.01709469,0.002659716,-0.005536431
1.014248,-0.01111707,0.1649359,-0.01313592,0.008702022,-0.008465648
1.012636,-0.01428282,0.1664694,-0.009666238,-0.001007463,-0.01206114
1.01084,-0.01587597,0.1679277,-0.0110192,-0.01482913,-0.0135134
1.0112,-0.01512227,0.1702431,-0.01114937,-0.01650625,-0.01523238
1.013712,-0.0128697,0.1723256,-0.01164823,-0.0126334,-0.01053624
1.012107,-0.01006401,0.1703675,-0.01335941,-0.01452667,-0.006946255
1.011031,-0.009727298,0.1664206,-0.01301304,-0.01257185,-0.006306013
1.011639,-0.0113028,0.16771,-0.0143592,-0.01040862,-0.01015413
1.01081,-0.0134084,0.169793,-0.01720898,-0.0140766,-0.01839937
1.013383,-0.01242153,0.1688232,-0.01744039,-0.01512609,-0.01461274
1.015339,-0.0109555,0.1726156,-0.01516709,-0.01256195,-0.00475885
1.014183,-0.01146693,0.1725132,-0.01078247,-0.008136936,-0.0003130014
1.01294,-0.01089974,0.1673815,-0.007817385,-0.006497115,-0.003767442
1.011819,-0.01210993,0.1660904,-0.01031868,-0.006962096,-0.01460833
1.012944,-0.01301496,0.1645715,-0.014527,-0.005169111,-0.01626161
1.013404,-0.01128903,0.1654651,-0.01577129,-0.005062483,-0.01315427
1.012842,-0.008202142,0.16667,-0.01645138,-0.005858543,-0.01232648
1.012744,-0.004665766,0.1666379,-0.01802649,-0.007005794,-0.008551158
1.012321,-0.007656433,0.1690849,-0.0172883,-0.0072958,-0.01030085
1.014934,-0.01154424,0.1699146,-0.01435482,-0.005986993,-0.009202926
1.017398,-0.008443245,0.1707313,-0.01019299,-0.008621911,-0.002935204
1.016593,-0.007048894,0.1695135,-0.00565207,-0.0102015,-0.002425097
1.014623,-0.007590631,0.1668945,-0.004565976,-0.009553625,-0.002038011
1.012821,-0.006604373,0.1680519,-0.006322864,-0.01614036,-0.001641729
1.012625,-0.008668497,0.1671465,-0.009177807,-0.02269508,-0.002231044
1.012356,-0.009982109,0.164247,-0.01353985,-0.01929636,-0.008935398
1.013917,-0.00788698,0.1632296,-0.01564493,-0.01239669,-0.01879973
1.017251,-0.006402357,0.1635156,-0.01552514,-0.002918909,-0.014638
1.018283,-0.004189404,0.1648231,-0.01386628,0.005880856,-0.008936517
1.017402,-0.00429383,0.1653532,-0.008093281,0.0005490475,-0.01084615
1.015035,-0.009301446,0.1637685,-0.004379082,-0.008561258,-0.01004082
1.014896,-0.01206568,0.1621299,-0.0006435298,-0.008931461,-0.009778734
1.015474,-0.00895273,0.1627636,0.006170086,-0.009019251,-0.009185756
1.012488,-0.0007832747,0.1632795,0.001905227,-0.008428588,-0.006583472
1.009486,0.004327406,0.1656675,-0.006111552,-0.008118073,-0.005258417
1.007932,-0.001698698,0.1696279,-0.005201989,-0.01079937,-0.004078816
1.010785,-0.008545992,0.1678595,-0.005785267,-0.009823411,-0.005324013
1.014665,-0.007352876,0.1651852,-0.007398448,-0.006385785,-0.009754167
1.01464,-0.005966135,0.1645871,-0.009086725,-0.001721625,-0.01314135
1.016164,-0.007410577,0.1631578,-0.01183384,-0.0004675527,-0.01064123
1.015546,-0.005674386,0.164019,-0.007728714,-0.004599044,-0.005561563
1.012027,-0.003053889,0.164959,-0.003889339,-0.005689616,-0.004411906
1.011149,-0.003210764,0.1669745,-0.004346141,-0.008691811,-0.005077256
1.011203,-0.005105222,0.1708642,-0.003174033,-0.01196436,-0.00658674
1.014678,-0.007904268,0.1691013,-0.003548708,-0.008011591,-0.005957229
1.017519,-0.00640854,0.1643371,-0.006600818,-0.004088663,-0.001955505
1.015444,-0.00482599,0.1613212,-0.008899793,-0.002243614,-0.0009448429
1.015369,-0.008895852,0.1607486,-0.00883415,-0.002153168,-0.003003112
1.015057,-0.0102154,0.16306,-0.008207385,-0.003196044,-0.007454406
1.014189,-0.007818166,0.161551,-0.006511159,-0.004908564,-0.0103739
1.017208,-0.006640154,0.1595309,-0.001731551,-0.007863037,-0.007783817
1.017053,-0.008477766,0.162181,-0.000900298,-0.006023031,-0.004254311
1.013042,-0.01090539,0.1611628,-0.009159839,-0.004463993,-0.0006368403
1.011594,-0.008966564,0.1602589,-0.01738436,-0.007496927,-0.0001770176
1.010718,-0.006613404,0.1627967,-0.0126597,-0.008037967,-0.00209562
1.009299,-0.005311444,0.1641395,-0.006281541,-0.008545229,-0.002311328
1.010588,-0.004845447,0.1673335,-0.01286808,-0.007723927,-0.007555908
1.015377,-0.006637007,0.1658341,-0.01630769,-6.243601e-05,-0.01574855
1.019594,-0.007168711,0.1618536,-0.01473862,0.005266714,-0.01876503
1.017718,-0.008154182,0.1645588,-0.01531766,0.0008065875,-0.01542006
1.012476,-0.007340573,0.1639946,-0.0101247,-0.004271442,-0.01010622
1.01029,-0.00414929,0.1612068,-0.007011672,-0.001058354,-0.007993587
1.010979,-0.006204288,0.1616688,-0.005460259,0.00308173,-0.005637133
1.012432,-0.008922963,0.162898,-0.003183521,0.003763462,-0.003655909
1.012787,-0.009750181,0.1672516,-0.008189397,0.005358816,-0.002893919
1.012235,-0.009963629,0.1683429,-0.01211612,0.004837632,-0.0005664916
1.012849,-0.006400165,0.1651071,-0.01532074,0.004869465,0.000700638
1.013379,-0.004930929,0.1628941,-0.01814938,0.008569644,0.002873658
1.014015,-0.0068168,0.1590861,-0.01772227,0.01544626,0.002865784
1.014054,-0.008092278,0.1568144,-0.02036572,0.02662122,0.000358278
1.012576,-0.008461075,0.156497,-0.01970542,0.02745278,0.0002438752
1.012423,-0.006296054,0.1562944,-0.01727358,0.01790094,-0.004815757
1.012594,-0.06447432,0.1091106,-0.0829121,0.01138042,-0.1189713
1.016661,-0.08004738,0.09502604,-0.04194339,0.003483447,-0.1350797
1.034881,-0.08069293,0.07575509,0.001050523,0.04671733,-0.1371047
1.04425,-0.07600506,0.06877009,0.0006388654,0.1135473,-0.1258809
1.029477,-0.07736456,0.0819549,-0.01082844,0.1392268,-0.1392769
1.015225,-0.07526835,0.09740306,-0.001389616,0.1007925,-0.1736044
1.02262,-0.07028716,0.1003676,0.01150744,0.06771261,-0.1930879
1.036866,-0.06507817,0.09881627,0.02955819,0.08714849,-0.1780554
1.039407,-0.05463516,0.1010839,0.04829437,0.08382071,-0.1334819
1.030723,-0.05461618,0.1147804,0.05736952,0.03645849,-0.1229523
1.012632,-0.06223588,0.1268533,0.09205446,-0.0114319,-0.1410645
1.008064,-0.06466739,0.1116606,0.1500107,-0.03709839,-0.1464938
1.017459,-0.06468129,0.09013073,0.1966266,-0.004912141,-0.1483351
1.018404,-0.05381855,0.0836092,0.2220239,0.03356557,-0.1378634
1.025015,-0.03580289,0.07238511,0.209316,0.03726176,-0.1178486
1.025093,-0.02329575,0.061687,0.1756476,0.0623957,-0.06967652
1.013751,-0.02118187,0.06795104,0.1287087,0.09422602,0.000849781
1.014746,-0.0346619,0.07060825,0.03468128,0.1064898,0.04188454
1.016856,-0.06309787,0.06696348,-0.07264925,0.0893734,0.04850967
1.019792,-0.1026267,0.07408563,-0.1365227,0.02618834,0.01140206
1.018512,-0.1329212,0.07777979,-0.1282348,-0.03974922,-0.03652569
1.012429,-0.1397344,0.07081546,-0.05070453,-0.07557237,-0.05654539
1.019619,-0.1343031,0.06518582,0.02471775,-0.06135018,-0.0666844
1.022684,-0.1159836,0.06393224,0.04694405,-0.0194216,-0.05899209
1.02147,-0.08563636,0.06531513,0.03600087,-0.004384804,-0.0456913
1.024151,-0.06568284,0.06436601,0.02437111,-0.01041954,-0.02875813
1.026126,-0.06634447,0.06414376,0.008009107,-0.02203166,-0.002375183
1.036482,-0.0711391,0.06553652,-0.01008957,0.002236005,0.002970293
1.041435,-0.07502186,0.0673228,-0.01936661,0.05272019,-0.001779225
1.0347,-0.088046,0.07932905,-0.04088989,0.06735006,-0.006594052
1.026131,-0.09587039,0.09173511,-0.03385418,0.06205775,-0.02323002
1.015376,-0.09218407,0.09181592,0.006956051,0.03342619,-0.04210312
1.010455,-0.09087861,0.09160972,0.03142112,-0.002381604,-0.04829029
1.011625,-0.08718318,0.09440299,0.05764205,-0.005335125,-0.04858472
1.014537,-0.08015419,0.09091885,0.06752716,0.01225973,-0.05530529
1.019885,-0.07676362,0.08712785,0.06863927,0.03211714,-0.05618152
1.023043,-0.07419161,0.08727016,0.07570846,0.01675055,-0.05600186
1.022422,-0.07336785,0.08380448,0.06292224,0.005380661,-0.05044001
1.0217,-0.07467935,0.08240026,0.06369654,0.02780054,-0.03332516
1.02258,-0.07674047,0.08289181,0.05409357,0.03061683,-0.03903501
1.021495,-0.08214064,0.08240386,0.02524551,0.02557022,-0.05720533
1.01838,-0.08608152,0.08463003,0.007579143,0.01207025,-0.06215336
1.017015,-0.08607215,0.07511937,-0.007525529,-0.001812308,-0.04938403
1.021493,-0.09290338,0.05954171,-0.002078176,0.01741568,-0.02276619
1.028453,-0.1041869,0.05728412,-0.006986702,0.03699316,-0.02036249
1.027005,-0.1091646,0.06458312,-0.01411642,0.03637346,-0.02689508
1.025556,-0.1132133,0.06952113,0.003645035,0.0226511,-0.02032623
1.031271,-0.1175426,0.05981604,0.006627704,0.015905,-0.02821477
1.033694,-0.1179797,0.05050893,0.01061899,0.02850989,-0.03470894
1.033022,-0.117326,0.05462409,0.009116963,0.05540035,-0.04264185
1.029408,-0.1154214,0.05642474,0.003164141,0.08528832,-0.06860533
1.021551,-0.1142061,0.06123284,0.01719938,0.08417047,-0.08870168
1.016787,-0.1117342,0.07510612,0.0275671,0.06120435,-0.103715
1.018107,-0.0982294,0.08081882,0.0437488,0.04778359,-0.113974
1.022607,-0.07938421,0.07447956,0.05385349,0.04628821,-0.109374
1.023678,-0.06862284,0.07242915,0.05027124,0.04921379,-0.08987022
1.020028,-0.0649455,0.07932159,0.04583499,0.04259856,-0.05555476
1.017414,-0.06430669,0.08323123,0.02131692,0.03615748,-0.02948765
1.02016,-0.07108595,0.08443768,0.001534909,0.03655686,-0.03269749
1.02396,-0.08249288,0.0876774,-0.003228182,0.03495084,-0.04574077
1.021107,-0.08558236,0.08966303,-0.007410515,0.03018155,-0.04993715
1.019642,-0.08142527,0.08825231,-0.004531666,0.01250441,-0.05422216
1.022366,-0.07770927,0.08646895,-0.003715247,-0.003388254,-0.04486907
1.023083,-0.0731798,0.0884202,-0.002401392,0.004792598,-0.02662335
1.025347,-0.06976231,0.09045961,0.002022015,0.01097088,-0.03200235
1.023628,-0.06604664,0.0911761,0.004941247,-0.003055722,-0.03183222
1.018738,-0.06188428,0.08841207,0.003097475,-0.008801329,-0.01630963
1.019384,-0.06321808,0.08147682,-0.002577518,0.003115321,-0.01111321
1.019452,-0.06109998,0.08126589,0.001478549,0.01042006,-0.008197582
1.018302,-0.05397032,0.08611772,0.004975264,0.01064487,-0.00809524
1.018077,-0.05322183,0.09190561,0.004507194,0.01748015,-0.004981021
1.018576,-0.0531706,0.09690205,0.007675919,0.0367362,0.001100132
1.02288,-0.05186708,0.0885766,0.002338556,0.05856374,0.007193551
1.026267,-0.05346434,0.07722388,-0.02093395,0.07045186,0.02637643
1.025358,-0.05766475,0.07947341,-0.07418366,0.07064874,0.04320178
1.024447,-0.08168962,0.08567066,-0.1317425,0.04851222,0.04674543
1.026135,-0.121305,0.08848373,-0.1443549,-0.006355248,0.01707615
1.026988,-0.1341103,0.08660862,-0.118132,-0.06569687,-0.05011095
1.026856,-0.117593,0.07491414,-0.06671284,-0.0685051,-0.095122
1.030994,-0.1015806,0.05496068,0.008580191,0.003994468,-0.1067524
1.034637,-0.08648119,0.04322197,0.06682567,0.09439475,-0.113893
1.031096,-0.0721157,0.05980633,0.07111055,0.1384934,-0.1102564
1.022881,-0.05239312,0.08800502,0.0431927,0.1285767,-0.09313733
1.016853,-0.02711578,0.09751956,0.01762026,0.1009869,-0.06396007
1.016949,-0.03936976,0.09919728,0.007611665,0.0565334,-0.02477639
1.016555,-0.06269958,0.1062762,0.008745154,-0.004429658,-0.005610677
1.014117,-0.05620503,0.107167,-0.003702879,-0.02147853,-0.02123637
1.015546,-0.06266038,0.09523233,-0.03533134,-0.002387629,-0.03342774
1.017354,-0.06511714,0.08097498,-0.06585464,-0.0004802027,-0.03152344
1.019988,-0.05412294,0.07740079,-0.07295914,0.0002438254,-0.0351997
1.027415,-0.06096376,0.07851724,-0.05995486,0.01089089,-0.02367334
1.030918,-0.05879792,0.0800187,-0.05575116,0.01766602,0.001293947
1.027592,-0.06140151,0.08323648,-0.04728816,0.01627247,0.01267052
1.025233,-0.07172631,0.0835952,-0.03355108,0.01159959,0.01211526
1.024614,-0.0682023,0.09004867,-0.03763287,0.009609967,-0.0009809258
1.023105,-0.07105296,0.1012434,-0.03853587,0.0003873979,-0.0123705
1.019052,-0.06680702,0.1024853,-0.03975708,-0.008981015,-0.003390913
1.015462,-0.06017688,0.09880202,-0.0441501,-0.004638276,0.004811442
1.019011,-0.06457433,0.09557546,-0.04180711,0.000600699,0.0008604838
1.025447,-0.06465949,0.08641535,-0.05084303,0.0008796289,0.0006840623
1.027007,-0.06602677,0.07789472,-0.05771944,0.003856179,0.00162492
1.024661,-0.06611754,0.07913537,-0.05812477,0.002924537,-0.00148736
1.022869,-0.06642731,0.07945153,-0.06082817,-0.0060842,0.00119919
1.024425,-0.0681794,0.0797586,-0.05250842,-0.009586214,0.003686321
1.025499,-0.06824769,0.08665645,-0.03655474,-0.006540437,0.002214829
1.021786,-0.0721616,0.08885678,-0.01510154,-0.005087229,-0.0006323752
1.016165,-0.06967189,0.09351806,0.002364824,-0.007245445,-0.01099136
1.014035,-0.06536911,0.09913872,-0.0002684493,-0.01205194,-0.01395847
1.022065,-0.06507526,0.08346814,-0.01114857,-0.008897874,-0.004505918
1.033611,-0.0627834,0.06748257,-0.01806939,0.007787342,0.00368181
1.032841,-0.06272357,0.07445915,-0.0317205,0.02611576,0.01146473
1.027225,-0.06329622,0.08279272,-0.05171154,0.02530975,0.01400829
1.025645,-0.06539798,0.08263344,-0.0614222,0.01720247,0.01339621
1.022422,-0.06840061,0.08155575,-0.06575426,0.02334388,0.01576099
1.021871,-0.07094659,0.07841097,-0.05818185,0.01788344,0.01577429
1.024522,-0.07626388,0.08017707,-0.03102448,0.001419243,0.01593388
1.025261,-0.07997082,0.08500857,-0.00691429,-0.006481401,0.01488757
1.025139,-0.08099416,0.08213882,0.007611158,-0.01177892,0.01088564
1.023741,-0.07304323,0.07894037,0.005371132,-0.005238563,0.008395201
1.023373,-0.05958226,0.07585217,-0.01540165,0.003367481,0.009864084
1.023278,-0.05980917,0.07347358,-0.0350639,0.01043986,0.01470354
1.020709,-0.0656129,0.07912599,-0.04319404,0.01697296,0.01564685
1.019008,-0.06534585,0.08467863,-0.04296725,0.008667147,0.01288206
1.020463,-0.06523353,0.08872332,-0.05335176,0.009352216,0.01045732
1.024335,-0.06435508,0.08817675,-0.05971835,0.009028491,0.009947262
1.025825,-0.06428119,0.08197273,-0.04292958,-0.003686748,0.01254803
1.02457,-0.0687903,0.08088729,-0.02736563,-0.001919145,0.01162939
1.023924,-0.0728334,0.0771285,-0.01876142,-0.001668342,0.006508936
1.022276,-0.07210637,0.07180183,-0.01817844,-0.001281371,0.001488512
1.020958,-0.06937169,0.07374509,-0.01971872,0.008770304,0.001058271
1.020884,-0.06874848,0.07610963,-0.01363993,0.01375476,0.006060717
1.02195,-0.06565843,0.07885529,-0.01917814,0.01112567,0.007610619
1.024528,-0.05986537,0.08298743,-0.02946259,-0.0005854185,0.01090838
1.02512,-0.05740458,0.08579887,-0.03532859,-0.004082243,0.02104254
1.023235,-0.05700751,0.08329817,-0.03781974,-0.001453512,0.02641453
1.021492,-0.06131883,0.08011459,-0.03272985,-0.005484638,0.02124291
1.022058,-0.06868343,0.08278462,-0.03607295,-0.005804198,0.01325841
1.022779,-0.0711327,0.08178202,-0.03882686,-0.005558883,0.01287157
1.022334,-0.07210177,0.07938263,-0.03415542,-0.002740529,0.009468493
1.024972,-0.07396683,0.07946987,-0.03157258,-0.001143872,0.0006970421
1.027077,-0.07308916,0.07821216,-0.02214193,-0.002525216,0.001744038
1.024233,-0.06748589,0.07881801,-0.02020872,0.0001045586,0.0008557815
1.020913,-0.06152579,0.07827128,-0.02973078,-0.003889511,-0.002167185
1.020475,-0.06110042,0.08069212,-0.03315061,-0.01020757,0.008706673
1.021968,-0.06304346,0.08390787,-0.02835088,-0.01403162,0.01927249
1.02254,-0.06612841,0.07600558,-0.01691285,-0.007504887,0.01675021
1.02234,-0.06928943,0.07071894,-0.0135702,0.01097115,0.01064014
1.022892,-0.06796762,0.07927852,-0.01986696,0.0143388,0.00894054
1.022996,-0.06515832,0.0866248,-0.02276826,0.007179167,0.007892788
1.022116,-0.06336016,0.08194276,-0.02031437,0.0003801782,0.007273653
1.021835,-0.06256284,0.07699982,-0.01169538,-0.005706261,0.009573076
1.022379,-0.06588959,0.07752314,-0.006877538,0.003054658,0.009168421
1.021313,-0.06968542,0.07597505,-0.01150281,0.01453248,0.005269921
1.020845,-0.06794741,0.08041727,-0.024732,0.01305662,-0.005477822
1.02372,-0.06629162,0.09458947,-0.04944746,0.004225253,-0.02464687
1.025302,-0.0614331,0.1093624,-0.0788384,-0.009692134,-0.03404109
1.022171,-0.03506503,0.1166794,-0.1093272,-0.03639553,-0.02446358
1.016665,-7.902053e-05,0.1156774,-0.166691,-0.06761668,-0.01513693
1.012023,0.004745041,0.1184643,-0.2966899,-0.08317562,-0.02181363
1.009768,-0.01374015,0.1178205,-0.4619054,-0.1168505,-0.04113142
1.021127,-0.02931068,0.09920542,-0.5404673,-0.1502307,-0.06018137
1.055747,-0.06355434,0.05935261,-0.5423398,-0.05443861,-0.06237326
1.08095,-0.1050952,0.01431871,-0.5757539,0.1419735,-0.07389035
1.058952,-0.1066769,0.01584894,-0.5790773,0.2510706,-0.1082572
1.01883,-0.09517404,0.05272594,-0.4790974,0.2231033,-0.1044171
1.00242,-0.09375204,0.07173408,-0.3640974,0.1665732,-0.07866652
1.001483,-0.08463047,0.08051385,-0.2715065,0.1350421,-0.0737142
1.008455,-0.08516219,0.07726562,-0.1971061,0.07229764,-0.05150824
1.019253,-0.09425905,0.06056762,-0.1319438,0.02770743,-0.03889597
1.020752,-0.08985242,0.0547653,-0.06799777,0.05255009,-0.05134193
1.023689,-0.07410777,0.06913884,-0.03425082,0.03164758,-0.04359927
1.028927,-0.05129525,0.09609273,0.03758523,-0.02616808,-0.01447892
1.029522,-0.04145743,0.09710072,0.1189274,-0.04747944,0.04587251
1.029495,-0.04770245,0.08091791,0.1304102,-0.04394978,0.1027304
1.026386,-0.04306129,0.07060628,0.1471562,-0.0115143,0.1046574
1.024276,-0.03988049,0.05232852,0.1517168,0.01609537,0.08258659
1.015803,-0.04376979,0.06652212,0.1402829,0.03244172,0.04956137
1.002033,-0.03415016,0.0975215,0.1338625,0.01099416,0.001750175
1.003382,-0.02885658,0.09474367,0.06886348,-0.04819299,-0.03568277
1.017164,-0.03177907,0.0908521,-0.00728543,-0.04831516,-0.0453126
1.030683,-0.0271834,0.08581349,-0.04782477,-0.0282979,-0.03155664
1.030642,-0.02467505,0.07835744,-0.06547343,-0.01247628,-0.00526954
1.021894,-0.02691688,0.08537206,-0.08078296,0.01286611,0.02656187
1.019002,-0.03376337,0.08907554,-0.09473904,-0.00519612,0.03884285
1.017829,-0.04394027,0.09174683,-0.0742627,-0.0183919,0.03513553
1.021616,-0.05256176,0.08837089,-0.05407071,-0.01589474,0.04607687
1.02649,-0.06060911,0.08049714,-0.03216963,-0.02277543,0.05431105
1.024288,-0.06320769,0.08323839,0.0004218665,-0.02458268,0.04842447
1.022008,-0.06500021,0.08127585,0.02319002,-0.04551279,0.05264006
1.020686,-0.06521359,0.0755679,0.0770196,-0.05950387,0.06979813
1.022126,-0.05503322,0.07302008,0.1260842,-0.05174998,0.08171321
1.024315,-0.04761664,0.06707584,0.1235345,-0.03946736,0.06882124
1.019908,-0.04855927,0.06323899,0.1136753,-0.02260406,0.03644729
1.013661,-0.04456432,0.06713757,0.1143762,-0.02644676,0.01095055
1.012043,-0.03428847,0.07963646,0.1002115,-0.04375856,-0.004707015
1.017915,-0.03074057,0.08873711,0.06417795,-0.0560879,-0.004629589
1.030144,-0.03448292,0.08060133,0.03313797,-0.04975925,0.01523299
1.039047,-0.03614376,0.06658913,0.0192098,0.005167155,0.02720824
1.037529,-0.04526805,0.06366013,0.02649426,0.05419365,0.02198144
1.030386,-0.05917553,0.08137223,0.04849399,0.007585502,0.004028673
1.025013,-0.05641001,0.1118472,0.06317549,-0.07562086,-0.008916911
1.023069,-0.04819519,0.1147618,0.06414492,-0.08745076,0.007706783
1.022732,-0.04961997,0.08117631,0.04294477,-0.05510291,0.02277377
1.019448,-0.05375778,0.05926105,0.02420168,-0.03289425,0.01247052
1.015322,-0.06203788,0.06909302,0.02995314,-0.03323068,0.007725482
1.018069,-0.06990421,0.07813753,0.04794613,-0.03709289,0.01769086
1.022376,-0.07193375,0.07039609,0.06746728,0.0002342725,0.01884675
1.025145,-0.07574734,0.07207544,0.06333307,0.04076796,0.01120649
1.031955,-0.07767224,0.07780454,0.06776015,0.04418094,0.012518
1.036833,-0.07767389,0.06435832,0.1204718,0.04095095,0.03614948
1.037611,-0.07855955,0.05241911,0.1842035,0.05354005,0.08772823
1.032442,-0.0706456,0.04763274,0.2298854,0.07829236,0.1251292
1.017324,-0.05653069,0.05280734,0.2494662,0.07492942,0.1209745
1.01142,-0.04537529,0.06739299,0.2551774,0.04740315,0.1191718
1.018156,-0.04159103,0.06533859,0.2486552,0.0322906,0.1304904
1.021743,-0.04652062,0.06229479,0.2241591,0.03250108,0.1296056
1.025646,-0.05063066,0.06465151,0.2111818,0.04538836,0.118292
1.024791,-0.04639093,0.06868703,0.1903733,0.03979659,0.1005806
1.020118,-0.03511097,0.08737034,0.1370151,0.0176375,0.08154563
1.024782,-0.02061616,0.09621528,0.06552358,0.00357347,0.07674227
1.027302,-0.01530958,0.0920863,-0.001516529,0.006296254,0.08699962
1.025407,-0.02703222,0.09231245,-0.02483496,0.03010004,0.09620451
1.026093,-0.03970656,0.0933474,-0.0377556,0.03532348,0.09281234
1.024516,-0.04969163,0.09230212,-0.06675368,0.03579582,0.07394442
1.024704,-0.06960811,0.08792918,-0.0717019,0.05559152,0.04496732
1.025641,-0.08741212,0.08563693,-0.06290003,0.07016335,0.01859468
1.024447,-0.09186509,0.08421034,-0.05717968,0.07649811,0.0002183113
1.024884,-0.07987707,0.08654429,-0.06549242,0.05664723,-0.01089986
1.023116,-0.06143307,0.09266744,-0.07513322,0.034674,-0.004440842
1.020684,-0.06634328,0.09390563,-0.0501241,0.03098259,0.01926185
1.02155,-0.08385482,0.09664427,-0.007158308,0.0251947,0.04265295
1.02259,-0.09091577,0.09728943,0.04996956,0.0192814,0.0541362
1.022035,-0.08805006,0.09794636,0.09452203,-0.01120692,0.03958375
1.020122,-0.07662341,0.09978307,0.09448417,-0.0385375,0.02388643
1.019392,-0.07307669,0.09271896,0.09744789,-0.0337849,0.03453509
1.021488,-0.07286247,0.08728776,0.1071934,-0.02596384,0.03445867
1.024718,-0.06520951,0.08384955,0.09750455,-0.01120266,0.02759476
1.025606,-0.06396057,0.08493268,0.0876211,-0.002772099,0.03262047
1.023549,-0.06173488,0.09635432,0.08765036,0.003579619,0.02894092
1.022402,-0.05743727,0.1039985,0.08994543,0.007644369,0.02954968
1.022095,-0.05760452,0.1057273,0.08885743,-0.01105047,0.03128061
1.022058,-0.05463199,0.1024614,0.08200833,-0.01890504,0.02406395
1.022494,-0.05260276,0.09899178,0.06967978,-0.01686798,0.02201738
1.022045,-0.05529092,0.09654911,0.06194933,-0.01806535,0.0206726
1.022222,-0.06167088,0.08881034,0.05824165,-0.01939279,0.02056354
1.022367,-0.06650786,0.08768318,0.0532198,-0.02650817,0.01940542
1.022025,-0.0720524,0.08931376,0.05289549,-0.02334929,0.01795356
1.022376,-0.0785102,0.08539732,0.05018478,-0.01838909,0.0209109
1.02181,-0.07115738,0.08340749,0.04891429,-0.01673818,0.01872438
1.020388,-0.06465828,0.08241579,0.05045858,-0.01548831,0.01840214
1.019013,-0.068873,0.08245477,0.0393921,-0.01926891,0.02337178
1.019283,-0.06769618,0.08018044,0.02791802,-0.01269596,0.0342536
1.020843,-0.06613308,0.07779027,0.02742226,-0.009726114,0.0488271
1.020874,-0.0701845,0.07987866,0.02865836,-0.02076783,0.04524591
1.021358,-0.07454991,0.07893666,0.02482714,-0.03217673,0.03365499
1.023968,-0.07586023,0.07792446,0.0173264,-0.03541077,0.03016896
1.027424,-0.0749327,0.07835341,0.01138319,-0.01757073,0.02335936
1.028097,-0.07522694,0.07901741,0.007801017,0.002137748,0.01513171
1.023376,-0.07412995,0.08157646,0.01680662,0.0009699902,0.006801328
1.019525,-0.07095405,0.08061916,0.03668963,-0.01067703,-0.003369469
1.020738,-0.06895247,0.07977261,0.04658121,-0.01764874,-0.004527764
1.022964,-0.06800452,0.08024539,0.04715674,-0.01268494,0.0006474319
1.022609,-0.06804578,0.07806724,0.04056745,-0.004760396,0.001241446
1.021716,-0.07118439,0.07637032,0.02017154,-0.0009382172,-0.004024855
1.023802,-0.07491552,0.07475552,-0.00411326,-0.002190093,-0.01180899
1.025844,-0.07760099,0.07524648,-0.01396506,-0.005568735,-0.01505075
1.026402,-0.08156442,0.07919052,-0.009962185,-0.003154058,-0.01548311
1.025577,-0.07978306,0.08624566,-0.01517373,-0.009136848,-0.02415207
1.022086,-0.06879181,0.09790608,-0.02351112,-0.04941221,-0.03647151
1.01992,-0.05563107,0.1017,-0.01645356,-0.1223545,-0.04258402
1.019161,-0.04774578,0.09596509,-0.01804973,-0.1641303,-0.04884591
1.019264,-0.04928428,0.09384605,-0.04343068,-0.127654,-0.04807421
1.021424,-0.05047684,0.08410404,-0.0618025,-0.06920393,-0.02259515
1.023484,-0.04745035,0.06963349,-0.04153849,-0.02243109,-0.00100896
1.026013,-0.04874004,0.07315633,-0.01781919,0.003161495,-0.01666607
1.026374,-0.05020905,0.07551833,-0.03699008,-0.02560562,-0.04040172
1.025724,-0.04957723,0.06598714,-0.05607763,-0.03886234,-0.03928132
1.026932,-0.05041938,0.06715783,-0.05815936,-0.006830092,-0.01444989
1.024912,-0.05061156,0.06941135,-0.06985639,0.0008836576,0.0231439
1.022615,-0.05333068,0.06386845,-0.06612819,-0.005348216,0.04304932
1.022163,-0.05757401,0.06411143,-0.05018421,-0.02777013,0.037962
1.022424,-0.06121,0.06668232,-0.01741507,-0.05847052,0.03759918
1.026306,-0.07408761,0.06858719,0.03771949,-0.04395365,0.03160712
1.029296,-0.08592414,0.06927599,0.04302258,-0.01797297,0.008373351
1.030573,-0.07473219,0.06920539,0.01008957,-0.004748009,-0.002515863
1.031535,-0.0563341,0.0746194,-0.004042998,0.0004887182,0.008482929
1.027808,-0.05079233,0.07560624,-0.02266235,-0.001728605,0.02252086
1.024381,-0.05030391,0.06943774,-0.04336946,0.009112552,0.02060021
1.029814,-0.05644617,0.06341942,-0.05171564,0.01557727,0.01370233
1.03498,-0.06648517,0.06111387,-0.04675598,0.02093459,0.01101297
1.025975,-0.06526447,0.07203391,-0.0282025,0.02845958,0.003952698
1.014668,-0.05897563,0.08399203,-0.02172869,0.003236612,0.01025269
1.013413,-0.05236325,0.08404712,-0.01723851,-0.03059394,0.0232003
1.014984,-0.0456433,0.08380764,-0.01017643,-0.03449247,0.03206763
1.019654,-0.04640283,0.07800371,-0.02527714,-0.008770633,0.04380661
1.02577,-0.05277936,0.06404826,-0.04437402,0.02148427,0.03205839
1.025539,-0.0635966,0.06256373,-0.04989113,0.0237019,0.01142641
1.022483,-0.07189799,0.06815552,-0.03931378,0.01372687,0.00603099
1.022249,-0.06975204,0.06641345,-0.02386123,0.01282111,-0.005603848
1.025093,-0.06335963,0.06896744,-0.02140873,0.01041011,-0.01201953
1.027046,-0.0575201,0.07254886,-0.01437674,0.009645293,-0.00596177
1.025182,-0.05748304,0.07143494,-0.0007725504,0.01061772,-0.0007412032
1.021551,-0.05812332,0.07468698,0.01026141,0.004569414,0.01289721
1.020441,-0.05388874,0.074135,0.01994886,-0.0005696951,0.02091498
1.022911,-0.05658427,0.07213793,0.01909169,0.0002802811,0.007508621
1.025189,-0.06325184,0.07351582,0.0219687,0.000410323,-0.0022676
1.025573,-0.06686844,0.06823143,0.03620659,0.0008726953,0.0014321
1.025589,-0.06820712,0.06144469,0.04429255,0.005268178,0.005733454
1.026658,-0.06502041,0.05857737,0.04258698,0.005332429,0.007022136
1.026562,-0.06345959,0.06599656,0.03995026,-0.001623425,-0.0008017711
1.02463,-0.06027006,0.07705099,0.0444638,-0.007438415,-0.01194465
1.023231,-0.05303947,0.07326682,0.04599896,-0.006129752,-0.01032599
1.022329,-0.04872107,0.07138527,0.03893036,0.0004736879,-0.003688567
1.025504,-0.04459521,0.07610035,0.02965661,0.00309098,-0.001102097
1.029167,-0.04782053,0.07481917,0.01559491,0.001351421,0.0007369888
1.025938,-0.05366784,0.0810173,0.009232909,-0.003086321,-0.002084124
1.023525,-0.05037738,0.08724551,0.01446399,-0.01532941,-0.005209132
1.024558,-0.05018925,0.07880617,0.01274139,-0.03099712,-0.004667618
1.023535,-0.05099539,0.06826214,0.002180406,-0.03533519,-0.005378744
1.023322,-0.05231169,0.06309314,-0.008189163,-0.01946537,0.003656891
1.024563,-0.06221676,0.0642229,-0.009143716,0.0002557646,0.01371781
1.0234,-0.06733283,0.06512955,-0.007484082,0.007707193,0.003966705
1.021594,-0.06371458,0.06120136,-0.01866489,0.01249437,-0.003785775
1.022777,-0.06092082,0.06424243,-0.02760021,0.01959414,0.003932652
1.026156,-0.06267314,0.07168939,-0.01957199,0.02170019,0.009825135
1.028331,-0.0634168,0.07455871,-0.007876153,0.0217813,0.009944776
1.026374,-0.06143275,0.07537729,-0.0009305428,0.02639806,0.004599318
1.023765,-0.06300912,0.07708177,0.004564904,0.02391352,-0.003993363
1.02509,-0.06273519,0.08163611,0.006821808,0.0142986,-0.003883208
1.025593,-0.06087885,0.08008362,0.008906235,0.008646043,0.001603683
1.024216,-0.05846576,0.07431418,0.01242255,-3.992757e-07,0.007032795
1.024172,-0.05228157,0.07507678,0.003762896,0.002693932,0.01622754
1.022053,-0.05403216,0.07517792,-0.00673482,0.012149,0.01629093
1.018819,-0.06017092,0.07990132,-0.000484089,0.0002335319,0.009690768
1.018548,-0.06116889,0.08587367,0.01020566,-0.01937965,0.002641577
1.023767,-0.06225548,0.08202067,0.02702597,-0.06545436,-0.03324425
1.03483,-0.06397467,0.08468535,0.04978637,-0.1515935,-0.1034108
1.038837,-0.06869835,0.08247771,0.04945825,-0.201021,-0.1882802
1.025674,-0.07239137,0.06110106,0.02611299,-0.1481427,-0.2154891
1.004627,-0.06356213,0.04716712,0.009692031,-0.003715533,-0.1045001
0.9967332,-0.05163123,0.057315,0.01366477,0.1177042,0.0003255203
1.015194,-0.04685903,0.0766959,0.01422888,0.08862284,-0.04707024
1.031673,-0.03334452,0.07842314,-0.006953234,0.0121117,-0.06678988
1.018894,-0.01701007,0.07161161,-0.01802818,0.02684134,0.03701962
1.010657,-0.02570149,0.07274675,-0.009835248,0.03170847,0.1018857
1.02562,-0.04022966,0.07116676,-0.006036389,0.01633863,0.1007273
1.035767,-0.04058871,0.07183281,0.003856273,0.03843985,0.09682181
1.038327,-0.03701854,0.07215492,0.0276221,0.01936041,0.09793774
1.036701,-0.03011264,0.07222554,0.04523184,0.003698096,0.1037269
1.027784,-0.03722065,0.08069935,0.04512825,-0.01913041,0.08072235
1.025978,-0.05917416,0.08555196,0.05510342,-0.1089095,0.02862766
1.030961,-0.0755582,0.07997321,0.08387601,-0.1498691,-0.06399766
1.03344,-0.08591065,0.04860338,0.07542387,-0.1084059,-0.1689318
1.027,-0.07442584,0.01767536,0.03480505,0.02056402,-0.1705634
1.014639,-0.05051058,0.0413286,0.01382733,0.1484356,-0.0983506
1.014321,-0.03264762,0.07606439,0.005075533,0.1139306,-0.03651574
1.019155,-0.01469334,0.07596053,-0.01895359,0.04957171,0.005530587
1.019573,-0.01632655,0.07424983,-0.052362,0.04820425,0.04977782
1.021206,-0.01625427,0.07755196,-0.02597855,0.01576574,0.1087633
1.024054,-0.0001899909,0.07170634,0.02327752,0.009553231,0.1179924
1.029588,-0.007325183,0.06603217,-0.007996234,0.05492579,0.1111468
1.028559,-0.02019958,0.06199778,-0.03976413,0.05357316,0.138821
1.023899,-0.03483009,0.07113695,-0.03610844,0.03525181,0.1371262
1.026348,-0.06090538,0.08727457,-0.01576075,0.02409179,0.1137752
1.027391,-0.0643463,0.07993055,0.03638942,0.007490581,0.07211263
1.029174,-0.0565414,0.07518104,0.01676943,0.02671226,0.01990527
1.028453,-0.04984059,0.08354126,-0.02117926,0.02651054,0.004783042
1.023427,-0.0391294,0.07803684,-0.002770297,0.01650014,0.003418406
1.025278,-0.04188554,0.07176758,-0.02727684,0.02845939,0.01196774
1.025545,-0.0505193,0.06719189,-0.04137017,0.01731138,0.02305398
1.024301,-0.0567962,0.06608654,-0.02900377,0.01879853,0.01682028
1.026491,-0.06057456,0.07348844,-0.03562443,0.003702661,0.01365965
1.025546,-0.05767044,0.07154635,-0.02014556,-0.02095928,0.01065779
1.025511,-0.05778065,0.06887894,-0.01680444,-0.004159546,0.01030532
1.025639,-0.05899966,0.06941932,-0.01086401,0.002798365,0.01386716
1.02377,-0.05691062,0.07085919,0.00251844,0.005607392,0.01217485
1.023355,-0.05674856,0.07705366,-0.01061747,0.002829013,0.01276188
1.023126,-0.05722665,0.07154339,-0.005956797,-0.006648436,0.01253602
1.022124,-0.05778828,0.06552914,-0.001611691,0.002059337,0.01123756
1.020308,-0.05793153,0.07013624,-0.006877383,0.008813713,0.007901868
1.02211,-0.05483713,0.07269191,-0.01233704,0.01525291,0.002421085
1.026807,-0.05148907,0.07776457,-0.03146325,0.008612107,0.00379822
1.028423,-0.05245918,0.07947279,-0.02811531,-0.006858724,0.009464636
1.02812,-0.05524722,0.07599572,-0.01707103,-0.005945277,0.01638479
1.027116,-0.06154002,0.07650829,-0.01631488,0.003819738,0.01657259
1.02693,-0.07393683,0.07470328,-0.01107851,0.01906329,-0.001637905
1.025625,-0.07471653,0.07419369,-0.01436973,0.02303669,-0.01831495
1.021284,-0.05557019,0.07561327,-0.0181255,0.01112429,-0.005039864
1.018626,-0.04146023,0.07270122,-0.02086143,-0.0002341655,0.01365821
1.019348,-0.04746013,0.07198072,-0.02149481,-0.004636157,0.008729127
1.023009,-0.05666706,0.07454668,-0.01235668,-0.002449195,0.000887276
1.025149,-0.05625922,0.07731494,-0.009829623,-0.008073046,-0.002505305
1.024076,-0.05265356,0.07823456,-0.01174131,-0.02549749,-0.003073527
1.023547,-0.04948306,0.07497105,-0.01142978,-0.03506504,0.004789351
1.023236,-0.05169822,0.07074606,-0.0112361,-0.01992469,0.008598078
1.023718,-0.05906346,0.06950981,-0.006434531,0.00094204,0.01318563
1.022828,-0.05984546,0.07454481,0.002357945,0.001533193,0.01554857
1.021508,-0.06062064,0.08014451,0.008171062,-0.001728244,0.008077874
1.022256,-0.06095496,0.07796411,0.0003090001,-0.001120458,0.01032675
1.020359,-0.05347263,0.07629898,-0.01026417,-0.009832316,0.01886094
1.019104,-0.05265869,0.07771265,-0.009267206,-0.01491714,0.02455773
1.021479,-0.05757368,0.07504196,-0.01136574,-0.007864654,0.02171588
1.023768,-0.06060761,0.0741568,-0.01539593,0.003005067,0.01167173
1.023948,-0.05958684,0.07610305,-0.01482804,0.01200847,0.01235583
1.02224,-0.05459909,0.07645874,-0.01822487,0.004135415,0.007973762
1.022103,-0.05572092,0.07823977,-0.01724854,-0.0173733,0.001008549
1.02229,-0.05633221,0.07795998,-0.01399432,-0.02578485,0.005320517
1.022434,-0.05643541,0.07503729,-0.01746085,-0.02071468,0.001014327
1.024248,-0.0593571,0.0738227,-0.02000541,-0.01646957,0.0005488635
1.025315,-0.05520289,0.07226955,-0.02426389,-0.01391242,0.01074661
1.025317,-0.05316291,0.07190406,-0.02725835,-0.01081814,0.01850012
1.024658,-0.05546095,0.07234994,-0.02480385,-0.009735853,0.02354116
1.024994,-0.05591249,0.07109069,-0.02415666,-0.01121973,0.02074585
1.025152,-0.05745177,0.06997048,-0.01978435,-0.008985338,0.02080397
1.023516,-0.06029548,0.06717501,-0.01607403,-0.005704095,0.02044803
1.022697,-0.06400021,0.06513915,-0.01877494,0.0005548953,0.01324679
1.022217,-0.06281314,0.0694181,-0.01855401,0.01084125,0.01106713
1.023867,-0.06116023,0.0736692,-0.01811315,0.006095615,0.006283794
1.025979,-0.06242286,0.06986026,-0.01897155,-0.0008964968,0.00526954
1.024455,-0.05958769,0.06596557,-0.02076032,0.005628482,0.009081812
1.022963,-0.05891632,0.06844795,-0.02456637,0.005848235,0.004486713
1.021985,-0.05984644,0.06776889,-0.02403146,0.003641677,0.004173446
1.021817,-0.05958482,0.06616479,-0.02189518,0.004365462,0.007741386
1.022704,-0.06297328,0.07078367,-0.02031422,-0.0003346984,0.01208404
1.022382,-0.06503123,0.07339286,-0.01740548,-0.004148539,0.01751288
1.024072,-0.06451,0.07189033,-0.01571344,-0.006915749,0.009185531
1.026707,-0.06210382,0.07004064,-0.01544247,-0.006310816,0.0003163289
1.026991,-0.05868353,0.06812657,-0.01753919,-0.003499815,0.006054757
1.027975,-0.06126926,0.065009,-0.01842528,-0.005729725,0.01088675
1.029208,-0.06498183,0.0626152,-0.01660448,-0.004765487,0.01080098
1.026587,-0.06300426,0.06911676,-0.01731545,-0.003156873,0.01277783
1.022812,-0.05998138,0.07681667,-0.01739966,-0.005131626,0.01648082
1.023226,-0.05825007,0.07337118,-0.01648423,-0.004009547,0.02126083
1.024438,-0.06184997,0.06900706,-0.01631132,-0.003540071,0.0207195
1.024107,-0.07228003,0.06862929,-0.01043709,-0.003617383,0.01411206
1.025473,-0.07750379,0.06594444,-0.003898749,-0.005959649,0.005725086
1.026237,-0.07456665,0.06629025,-0.005023631,-0.01546955,-0.006280306
1.025798,-0.07144636,0.06917573,-0.006708503,-0.02161267,-0.007766395
1.024659,-0.06773957,0.06797065,-0.00560806,-0.01791928,-0.001636354
1.02107,-0.06382828,0.06765886,-0.00560463,-0.01348084,-0.002898744
1.020497,-0.06469925,0.06866135,-0.00309142,-0.01360659,0.004981883
1.024026,-0.0668237,0.06974604,0.0009914764,-0.00738,0.009809962
1.025726,-0.06645406,0.07517912,0.0001552584,0.003389497,0.00196009
1.025357,-0.06834147,0.07954773,0.000730456,0.004492751,0.002186716
1.025825,-0.06903108,0.07685808,0.00302594,0.00626207,-0.001075982
1.028601,-0.06675164,0.07033689,-0.003909063,0.01137032,-0.0004813936
1.029128,-0.06710879,0.06595802,-0.01083272,0.007931037,0.007825725
1.024174,-0.06402047,0.06675858,-0.00826383,0.003062954,0.003870908
1.019736,-0.06062909,0.0690569,-0.008300348,0.001196219,0.0051468
1.019339,-0.0626047,0.06819316,-0.0120154,0.001121476,0.01063646
1.020261,-0.06293818,0.0672965,-0.00914568,0.003519272,0.01365819
1.021307,-0.06478412,0.0685106,-0.003810632,0.003772533,0.01954606
1.024403,-0.0669418,0.06706163,0.0007306,0.004487755,0.0101185
1.026181,-0.067421,0.06581548,0.005376764,0.005811454,-0.001731095
1.024423,-0.07107736,0.06626263,0.001314092,0.00156495,-0.002569812
1.024894,-0.07030109,0.06547369,-0.005865898,-0.001396626,-0.007041982
1.025479,-0.06485445,0.06875168,-0.006261608,0.003601134,-0.00882645
1.024496,-0.06117623,0.07232544,-0.008994726,0.008190483,-0.004608721
1.025298,-0.06006144,0.07031502,-0.01178719,0.006785948,-0.002870823
1.024983,-0.06660646,0.0666911,-0.007862288,0.00744099,-0.004149605
1.024616,-0.07257193,0.06172088,-0.00499786,0.01130402,-0.00777966
1.024229,-0.06488154,0.05936089,-0.007186475,0.008331744,-0.01108442
1.022185,-0.05827496,0.06632071,-0.01190552,0.0006484126,-0.01039439
1.022328,-0.06511338,0.07515091,-0.01412464,-0.003937802,-0.008557611
1.024137,-0.06911446,0.07545226,-0.01126763,-0.0008885211,-0.008962464
1.025149,-0.06498811,0.07406414,-0.008147726,0.007909482,-0.006055076
1.023295,-0.06279649,0.07575034,-0.01045257,0.007591037,0.001722336
1.020463,-0.06093953,0.07515106,-0.0125883,-0.004259978,0.009159664
1.021534,-0.06118074,0.0764959,-0.008102375,-0.01477469,0.01122817
1.02284,-0.06467928,0.07740983,-0.007169017,-0.01369046,0.001892488
1.022078,-0.06454426,0.07039922,-0.0133922,-0.005405854,-0.01064691
1.022115,-0.06600937,0.06426971,-0.01788487,-0.0007846772,-0.01276582
1.022522,-0.06948821,0.06608434,-0.01690702,0.008240541,-0.007398051
1.023078,-0.06764045,0.06798955,-0.01563685,0.01359657,-0.004973741
1.023674,-0.06442186,0.06500686,-0.02184161,0.006491079,-0.009399116
1.022869,-0.05905056,0.06467278,-0.02904002,0.005647878,-0.01147813
1.021728,-0.05371128,0.06609683,-0.03127435,0.002596748,-0.00517953
1.022191,-0.05946869,0.06466794,-0.02836841,-0.004731856,-0.0006590717
1.022699,-0.07002195,0.06562336,-0.02007132,-0.002530408,-0.004230298
1.02339,-0.07364549,0.06751752,-0.01241115,-0.002093677,-0.008755216
1.02664,-0.07030206,0.07230768,-0.003605652,-0.003557565,-0.008197334
1.028088,-0.0652331,0.07939832,-0.001187809,-0.00609605,-0.003892947
1.02414,-0.06496801,0.07710399,-0.005377498,-0.01514472,0.00314447
1.020939,-0.06755797,0.0699279,0.002046412,-0.02110525,0.005833793
1.023152,-0.06708252,0.06363515,0.005403942,-0.01717934,-0.002438021
1.025406,-0.06208931,0.05844638,-0.006494333,-0.007310256,-0.008172673
1.023924,-0.05700828,0.06281892,-0.0183853,0.002726317,-0.002993027
1.023241,-0.06201861,0.07069208,-0.02539669,0.01014961,0.002746532
1.023793,-0.06844611,0.06948786,-0.02491029,0.005761521,0.006839503
1.023505,-0.06468297,0.06577813,-0.0192173,-0.002571196,0.01525562
1.02369,-0.06417567,0.06520208,-0.008427381,-0.0009299095,0.0215773
1.024124,-0.06737861,0.06472188,0.0001758851,-0.002885627,0.01622328
1.026228,-0.0685907,0.06601039,-0.000308775,-0.003925277,0.007590965
1.028728,-0.07461558,0.06727112,0.008646276,0.0001818437,0.002674633
1.027421,-0.07587084,0.0679784,0.0206088,-0.00103401,-0.0004847913
1.024562,-0.06937745,0.0692412,0.01915833,0.001700105,0.002896655
1.023102,-0.06692867,0.06916444,0.01653835,0.002361733,0.006045603
1.023329,-0.0678735,0.07157384,0.01460162,-0.001060373,0.00113093
1.024014,-0.06858196,0.07251765,0.006954097,-0.0002840392,-0.002269104
1.023496,-0.06810295,0.07041768,0.0003733778,-0.003445839,-0.001624494
1.023264,-0.06878295,0.06825314,0.005582375,-0.003613221,0.001428146
1.02297,-0.07111712,0.06190994,0.01329257,-0.0004677103,0.005529573
1.021798,-0.07053144,0.06095714,0.008858528,0.0008558109,0.003822328
1.021743,-0.06892836,0.06483534,0.00504471,0.00495201,7.731091e-05
1.02078,-0.06770631,0.06528839,0.005286525,-0.0006872373,0.000212651
1.018817,-0.06829996,0.06866698,0.003358201,-0.0115926,0.004049295
1.020533,-0.07226966,0.06700463,0.007540428,-0.0111428,0.008441084
1.023432,-0.07422013,0.0617202,0.01068511,-0.005071349,0.002907798
1.024047,-0.07210691,0.06479391,0.008753377,-0.0007047385,-0.008015007
1.024579,-0.06706999,0.06785869,0.009056714,-0.002276722,-0.00917331
1.025137,-0.06379201,0.06835235,0.007200593,-0.004695207,-0.002176509
1.025104,-0.06570275,0.06799194,0.004235744,-0.0003582637,0.004689029
1.024575,-0.06774617,0.06588834,-0.0005589541,0.004995351,0.004713106
1.023148,-0.06929973,0.06547548,-0.008167162,0.008507596,0.00126447
1.022167,-0.07124755,0.06439184,-0.01051505,0.004793098,-0.001769779
1.023702,-0.07268638,0.06369149,-0.008827821,-0.003435166,-0.009386482
1.026134,-0.0731009,0.06549328,-0.00828036,-0.001049229,-0.009852644
1.025997,-0.0684316,0.06583526,-0.01331388,0.003654716,-0.001599839
1.026036,-0.06482666,0.06491193,-0.01981433,0.003786982,0.004850765
1.026849,-0.07292878,0.06570052,-0.01853263,0.004439581,0.01268293
1.02443,-0.08113831,0.06831509,-0.01230254,0.001773704,0.008221319
1.021042,-0.07545656,0.06946887,-0.004667676,0.0007430694,-0.002465794
1.019193,-0.06892202,0.06688541,-0.001318482,-0.0003945476,0.0007139717
1.021657,-0.06988262,0.06320392,-0.00213989,-0.003304397,-0.0003225581
1.026277,-0.07002735,0.06363078,0.00266787,0.0003879678,-0.00487683
1.025188,-0.0708288,0.06653191,0.006099954,0.002008656,-0.005286268
1.024547,-0.07041836,0.06622228,-5.859994e-06,0.002118251,-0.01282471
1.027193,-0.06740874,0.06409742,-0.008097627,0.006142375,-0.01751735
1.02599,-0.06781725,0.06156225,-0.01154948,0.008393778,-0.01488147
1.023706,-0.0664533,0.06095705,-0.01094978,0.0118289,-0.0123729
1.023238,-0.06450194,0.06187769,-0.01126201,0.01196022,-0.01167197
1.024964,-0.0669669,0.0606221,-0.01185028,0.00582478,-0.008455395
1.027436,-0.06986962,0.06204761,-0.006148011,0.001262204,-0.00154282
1.027574,-0.07253175,0.06295816,0.00216377,0.0003885381,-0.003588546
1.02628,-0.07270498,0.06008148,0.004124837,0.001378113,-0.008348965
1.024208,-0.07187989,0.06002709,0.002013032,-0.0005912555,-0.007253003
1.024698,-0.07339219,0.06220077,0.002070719,-0.002473741,-0.006106679
1.026144,-0.07385501,0.06467281,0.004263667,-0.0007487355,-0.003533782
1.025814,-0.07324304,0.0635091,0.005631616,0.002485443,-0.008576476
1.026677,-0.07177823,0.0613353,0.005468639,0.01037332,-0.01664519
1.024603,-0.06918252,0.06438358,0.00568971,0.01382122,-0.01274991
1.022097,-0.06538266,0.06573519,0.007036953,0.004298716,-0.005074268
1.023076,-0.06167663,0.06477337,0.007642734,-0.004397404,0.001144494
1.02366,-0.0649436,0.06307716,0.004029907,-0.002656879,0.0003453547
1.02647,-0.07117624,0.0611317,-0.0002904507,0.002236581,-0.00630855
1.027181,-0.07059267,0.06222551,0.001287502,0.004032201,-0.005238483
1.02453,-0.06801288,0.06101403,0.003498029,0.002966517,-0.001483109
1.024821,-0.06611157,0.06124601,0.0027811,-0.002539616,0.0008446795
1.023232,-0.06013172,0.06645782,0.002497572,-0.006998063,0.002719209
1.021579,-0.05730009,0.06858768,0.0005736511,-0.003949006,0.001641248
1.023337,-0.06380269,0.06638432,-0.002510495,-0.0007229335,0.002987189
1.024087,-0.07083711,0.06233543,-0.003644505,0.0002576908,0.001550673
1.024225,-0.07184376,0.0615615,-0.001801963,-0.001347251,-0.003857172
1.023286,-0.06934332,0.06201386,0.003660397,-0.004529701,-0.002980721
1.021838,-0.06533282,0.05859635,0.006858496,0.0006014439,-0.0008010315
1.022499,-0.06064426,0.0581008,0.003868774,0.005772072,-0.0003704285
1.025142,-0.05949319,0.06038185,-0.0005329727,0.002805559,0.003414727
1.02692,-0.06166779,0.06171421,-0.002261182,0.002582485,0.009803143
1.024474,-0.06353676,0.06237634,-8.615041e-05,0.002794702,0.01081471
1.021774,-0.06616336,0.06216961,0.000692694,-0.00339661,0.002943603
1.021848,-0.06820009,0.06292089,-0.006239679,-0.006797232,-0.004431585
1.021387,-0.06844477,0.06242407,-0.01272299,0.001431058,-0.01149728
1.019611,-0.06406968,0.06288405,-0.01000454,0.009327612,-0.01540827
1.018956,-0.05730116,0.06658046,-0.008225416,-0.0002702782,-0.01055997
1.019702,-0.06107722,0.06803833,-0.01403443,-0.01468444,-0.009244442
1.01946,-0.06651062,0.0648356,-0.01580334,-0.01724665,-0.006105522
1.019809,-0.06549643,0.05987578,-0.01054432,-0.01511194,0.001987371
1.022322,-0.06888059,0.06010302,-0.007613693,-0.01326753,0.001962818
1.02429,-0.06926615,0.06092356,-0.0124505,-0.01083679,-0.002374372
1.024156,-0.06741881,0.05852939,-0.02220469,-0.005480235,-0.01000311
1.023566,-0.07139497,0.06068097,-0.02674091,0.005873906,-0.01340158
1.024052,-0.07305585,0.06054941,-0.02546296,0.0162446,-0.009300989
1.023805,-0.07529213,0.05775904,-0.0238352,0.01437849,-0.0115422
1.025402,-0.07631954,0.05811386,-0.01700094,-0.0004480469,-0.01158095
1.029651,-0.07380144,0.05563002,-0.002471086,-0.00817115,-0.007288928
1.030263,-0.07583779,0.05715715,0.007422823,0.00131216,-0.006382889
1.026898,-0.07390536,0.06291755,0.003967121,0.007074438,-0.004199392
1.021999,-0.06792965,0.06439538,0.002174356,-0.002780394,0.0009018391
1.021454,-0.06873239,0.06486119,0.007285836,-0.01302974,0.01084405
1.026238,-0.07440737,0.06229677,0.007828112,-0.01029373,0.01418295
1.027751,-0.07985204,0.05917935,0.009308402,-0.00558874,0.008966217
1.027961,-0.07722863,0.06041474,0.008986658,-0.00372109,0.004825565
1.028029,-0.06986666,0.0632282,0.00697903,0.002749282,-0.003321007
1.027733,-0.06863167,0.06527259,0.01924012,0.005525573,-0.003141005
1.030987,-0.07464036,0.05924306,0.02848774,0.00739106,0.001232462
1.032585,-0.08296165,0.05172448,0.02260486,0.01654447,-0.006233391
1.030604,-0.07986942,0.05408143,0.01650615,0.02434653,-0.009001197
1.024663,-0.06834934,0.05660969,0.007035532,0.01982816,-0.00899836
1.018468,-0.06374235,0.05678027,-0.001284752,0.007010833,-0.007744404
1.021271,-0.06434328,0.05874294,0.002261188,0.006675473,-0.0002979064
1.026643,-0.06750677,0.05691463,0.005597364,0.01606958,-0.003458767
1.028349,-0.06804564,0.0542684,0.004143046,0.02244791,-0.004524486
1.028087,-0.06713754,0.05651181,0.003670086,0.02201167,0.005963985
1.026335,-0.07036801,0.05958146,-0.001681036,0.01094444,0.01260059
1.026192,-0.07276597,0.06162426,-0.009088886,0.006268112,0.01546907
1.026603,-0.07788176,0.06116005,-0.006751042,0.01085778,0.01211759
1.026028,-0.07895742,0.05670824,-0.004419387,0.01383667,0.005771939
1.025239,-0.07458559,0.05588068,-0.00787097,0.01405088,0.000597893
1.02295,-0.07384033,0.06185611,-0.007903794,0.007662337,-0.003298033
1.021477,-0.06838692,0.06732785,-0.008229619,0.003880754,0.0004241052
1.022687,-0.0708088,0.0660933,-0.006535991,0.005073214,3.122784e-05
1.024249,-0.07989644,0.06395702,0.001527439,0.006876578,-0.004505249
1.024768,-0.07668765,0.06793199,0.007348005,0.007825097,-0.00562654
1.022624,-0.07477349,0.06877651,0.008644043,0.006384243,-0.008872898
1.020006,-0.07391053,0.06630587,0.006019771,0.01153153,-0.007250358
1.022575,-0.07339492,0.0677116,0.003464356,0.01423686,-0.006204879
1.025845,-0.07892745,0.06990063,0.006015802,0.008547968,-0.008161195
1.024915,-0.07958684,0.07334811,0.009476735,0.005630226,-0.004245096
1.024572,-0.07928281,0.07302128,0.01102173,0.007264623,-0.000928013
1.024431,-0.07431494,0.07025517,0.007341272,0.009400746,0.003123251
1.023278,-0.06624736,0.07047873,0.001161201,0.003565828,0.003286493
1.024481,-0.07095859,0.06718592,0.003154957,-0.0008139425,-0.001135764
1.025186,-0.07629616,0.06711106,0.006541376,0.002748247,0.0008491714
1.023073,-0.07569867,0.06986997,0.00442362,0.002485978,0.000176672
1.021577,-0.074356,0.06891337,0.004185977,0.0006946254,-0.003528915
1.022133,-0.07098486,0.07144942,0.002842289,-0.0005481802,-0.006574038
1.022591,-0.07143769,0.07089979,-0.003141386,0.0003004228,-0.01036292
1.021992,-0.07133703,0.06608281,-0.007530519,0.003889442,-0.006914223
1.022187,-0.0674128,0.06478246,-0.00549372,0.004323703,-0.002689296
1.023144,-0.06892347,0.06402989,0.000826507,-0.0006831952,-0.001774176
1.025579,-0.07222055,0.06511437,0.003787616,-0.01012939,-0.0007835666
1.028796,-0.07268551,0.06650788,0.006455995,-0.01333796,-0.002486102
1.027171,-0.07419946,0.06663681,0.01329371,-0.01084663,-0.001590217
1.024254,-0.07501337,0.06745162,0.01783451,-0.006608039,-1.353029e-05
1.025186,-0.07337001,0.06801264,0.01786811,0.001182309,-0.0007157118
1.025341,-0.07187596,0.06957151,0.01765195,-0.0005967114,0.0009753908
1.025907,-0.07371018,0.06724418,0.01842845,-0.002703098,-0.001623923
1.028776,-0.07638195,0.06357112,0.01450626,0.008331651,-0.01147297
1.029475,-0.07570634,0.06558391,0.01109683,0.01482115,-0.01965946
1.028243,-0.07475003,0.06544645,0.01070977,0.01362257,-0.01754448
1.027371,-0.06959703,0.06284345,0.002777723,0.01356251,-0.00897752
1.02699,-0.06073416,0.06234561,0.0005020728,0.01358861,0.000982583
1.024171,-0.06158713,0.0622096,0.005691253,0.009031687,0.01779394
1.01908,-0.06671685,0.06261075,0.006056183,-0.0009962409,0.02327183
1.018701,-0.0689194,0.06176826,0.008209452,-0.005495735,0.01010148
1.022174,-0.0739228,0.06149911,0.003594552,-0.0002390255,0.001642139
1.026242,-0.07576903,0.06332833,0.0009363478,0.009501044,-0.004245878
1.030012,-0.07418861,0.06457239,0.0100815,0.01462086,-0.002750638
1.026168,-0.07548127,0.06661534,0.009901222,0.005745939,0.005161975
1.020418,-0.07504476,0.06840901,0.009588722,-0.003474355,-0.002367915
1.022971,-0.07456189,0.06887892,0.01159373,0.001048103,-0.00812712
1.023913,-0.07499226,0.06958895,0.007612162,0.007508463,-0.007755542
1.021126,-0.07197727,0.06869512,0.01021643,0.007401067,-0.008639193
1.022695,-0.07022866,0.06799849,0.0105921,0.004719376,-0.001791855
1.024443,-0.07234741,0.07084527,0.009249187,-0.0001141989,-0.001188468
1.024855,-0.07635188,0.072344,0.01151642,-0.003098457,-0.003929342
1.02464,-0.0785984,0.06783433,0.008363983,-0.002202411,-0.004977844
1.023039,-0.07560766,0.0637808,0.005867441,-0.0028903,-0.008525338
1.024473,-0.07222199,0.06684069,0.002179761,-0.001203938,-0.003403613
1.025772,-0.07180284,0.06967286,-0.0005937875,0.003025089,-0.0009353732
1.024232,-0.07252729,0.06769725,-0.0003368216,0.007784759,-0.004353125
1.023086,-0.07324149,0.06855839,-0.007480269,0.01322937,-0.003989082
1.020759,-0.07386937,0.06898944,-0.00879743,0.00776471,-0.002806634
1.019241,-0.07455981,0.06189938,0.002554161,-0.002612361,-0.0004944734
1.020014,-0.07415746,0.05605276,0.0114741,-0.004386166,-0.003094352
1.021033,-0.07346683,0.0579827,0.01009995,-0.0007993278,-0.005702504
1.022798,-0.07346203,0.06075025,0.006082409,0.003658158,-0.004483361
1.022585,-0.07351411,0.06043008,0.007980145,0.002666066,-0.009309969
1.021584,-0.07228549,0.0622129,0.006036636,0.001347202,-0.0140371
1.022599,-0.06872336,0.06421359,0.002746335,0.003855407,-0.01229617
1.022433,-0.06546944,0.06278446,0.004104096,0.002068771,-0.007472195
1.022636,-0.06570942,0.06330334,0.002339,-0.0002158615,-0.005973978
1.023327,-0.07080027,0.06423936,0.003580815,-0.002847272,-0.008303419
1.021862,-0.07532263,0.06391419,0.004807453,-0.005532891,-0.0098394
1.022079,-0.0730146,0.06461135,0.003057026,-0.001864213,-0.0124518
1.023584,-0.07088761,0.06390318,0.005290379,0.0005866583,-0.01252064
1.023437,-0.07277538,0.06431576,0.005088823,0.0008119387,-0.007620867
1.022823,-0.07157913,0.06728259,0.005828346,0.002648382,0.0004175912
1.02191,-0.06719278,0.06870273,0.006945978,-0.001118132,0.008629836
1.022381,-0.06504572,0.06515903,-5.9221e-05,-0.01226568,0.00953977
1.024378,-0.06913497,0.05855295,-0.009849861,-0.01954187,0.005108914
1.025311,-0.07721425,0.05504331,-0.01511926,-0.006724127,-0.003008566
1.025212,-0.07866497,0.05588875,-0.01023438,0.01361397,-0.01300749
1.024756,-0.07256855,0.06004014,-0.004811806,0.0127965,-0.01564433
1.024994,-0.0666715,0.0648405,-0.004805395,0.0035187,-0.0163537
1.025221,-0.06413089,0.06850873,-0.002039357,0.002917957,-0.0198012
1.024749,-0.06706204,0.06847223,-0.001920551,0.002187576,-0.0146454
1.024943,-0.06926254,0.06457941,-0.001981685,0.002150382,-0.005987173
1.024164,-0.06659315,0.06167398,0.002418941,0.001767445,-0.005238566
1.023157,-0.06642829,0.05616928,0.004890114,0.0006651746,-0.004355154
1.023168,-0.06842659,0.05496036,0.007195478,0.004324389,-0.003526883
1.021017,-0.07081635,0.05936867,0.007438928,0.004548874,-0.005238084
1.018528,-0.073433,0.05689654,0.006004583,-0.0007379942,-0.002944452
1.019893,-0.07317532,0.05872695,0.006923518,-0.004783337,-0.002404682
1.023796,-0.07353824,0.0636552,0.006514447,-0.001141075,-0.001875251
1.026516,-0.07484243,0.06423897,0.006796458,0.004524592,0.001934635
1.026053,-0.07318322,0.06645837,0.008558902,-0.0001562386,0.002437438
1.024364,-0.06894646,0.0629528,0.008989817,-0.001065288,0.002692197
1.024258,-0.06522029,0.06231471,0.008214468,0.006698001,0.001629531
1.022873,-0.06674417,0.06901182,0.005110854,0.008169025,0.000444085
1.01964,-0.07043329,0.07166945,0.003235479,0.001359286,0.001486941
1.020853,-0.07084102,0.07179035,0.004705917,-0.005775173,-0.000754194
1.023564,-0.0701499,0.068894,0.005528402,0.001808629,-0.001980049
1.023458,-0.0691158,0.06639002,0.004199016,0.01130793,-0.001495028
1.02395,-0.06924753,0.06349775,0.002116149,0.005532575,-0.0005863595
1.023,-0.07111666,0.06279536,0.000771131,0.00264127,8.844199e-05
1.020631,-0.07165705,0.06934537,0.0009222223,0.0009879496,-0.002849068
1.019456,-0.07286813,0.06997231,0.005516881,-0.006191233,-0.003655439
1.020904,-0.07430951,0.0693715,0.01283909,-0.00417952,-0.004546295
1.025439,-0.07445151,0.07193918,0.01206396,0.007918304,-0.005478764
1.026366,-0.07206071,0.07310333,-0.001646952,0.01813153,0.0001502572
1.024382,-0.06505945,0.07938201,-0.01515377,0.01201106,0.006913226
1.021718,-0.062695,0.08332598,-0.0138549,-0.001398459,0.00932063
1.018571,-0.067319,0.08078269,-0.01097742,-0.00528206,0.004625916
1.023351,-0.07045652,0.0728535,-0.01643379,-0.007562756,-0.0009009967
1.029815,-0.0727975,0.06381524,-0.0146563,-0.002783832,-0.002457436
1.028976,-0.0760186,0.06350907,-0.009544915,0.00800363,-0.004269741
1.026113,-0.07822349,0.06456357,-0.005975503,0.007778581,-0.00510652
1.02312,-0.07787831,0.06486996,0.002832033,0.005810185,-0.007671371
1.022114,-0.07669429,0.0674347,0.00413731,0.003126383,-0.007610287
1.022572,-0.07443219,0.06805767,0.002306319,-0.001576002,-0.003139573
1.021846,-0.06999985,0.06559434,0.01113216,0.001526152,-0.001289876
1.02271,-0.07028335,0.06269974,0.01736528,0.001533778,0.003005387
1.024159,-0.07270665,0.06482451,0.01332972,-0.0006197464,0.004513502
1.025613,-0.07194948,0.06623523,0.008759808,0.0007495553,0.003249192
1.026898,-0.07198006,0.06555266,0.009571563,-0.002013809,0.007309954
1.025832,-0.07037139,0.0688743,0.007715794,-0.00407134,0.009485172
1.023755,-0.06772523,0.0684605,0.003460519,-0.005438168,0.01173059
1.022043,-0.06822285,0.06352468,0.006302525,-0.0055324,0.01277322
1.02243,-0.07032695,0.06439176,0.008156324,-0.0007701417,0.009169144
1.024651,-0.07335946,0.06878961,0.006684439,0.001101723,0.007119372
1.027036,-0.07502649,0.06809246,0.006212089,0.0004082009,0.004813566
1.027988,-0.07382705,0.06747772,0.005094235,-0.001223895,0.003766906
1.024045,-0.07116009,0.06854617,0.009843622,-0.00216874,0.00252812
1.020706,-0.06800862,0.06561125,0.01564483,-0.0002939195,-0.001229597
1.022351,-0.06575848,0.06450442,0.01320596,-0.001221101,-0.001137689
1.022889,-0.06517563,0.0640564,0.008984448,-0.001322973,6.725834e-05
1.022719,-0.0671756,0.06344342,0.005711296,3.029113e-05,0.0003086077
1.023964,-0.07014217,0.06640246,0.002423935,8.798465e-05,0.001293964
1.023844,-0.07151454,0.06732199,0.002323935,0.003783479,-0.0004706598
1.023441,-0.072822,0.06806886,0.002144838,0.005954147,-0.004879394
1.024643,-0.07435442,0.06900593,-0.001593054,0.006259334,-0.008296118
1.02503,-0.07515198,0.06926037,-0.003421693,0.009978315,-0.01083971
1.023091,-0.07497046,0.07162702,-0.003147475,0.01153039,-0.01297969
1.022001,-0.07296248,0.07059307,-0.005777802,0.01005361,-0.007106115
1.024228,-0.07161479,0.06748379,-0.008300849,0.008727301,0.006746464
1.027315,-0.07174482,0.06667432,-0.005419527,0.007510394,0.01303747
1.026257,-0.06969964,0.06803726,-0.001914844,0.006104137,0.009030249
1.02233,-0.06783454,0.07026854,-0.00739664,0.006189413,0.005531324
1.022044,-0.07168606,0.06833239,-0.01776845,0.01236593,0.002384077
1.025202,-0.07713479,0.06530629,-0.02316662,0.02229791,-0.004067932
1.027642,-0.07651279,0.06520113,-0.02035697,0.02666679,-0.006478364
1.027791,-0.07294043,0.06583135,-0.01408012,0.02490232,-0.000719256
1.026119,-0.07178584,0.0693011,-0.01210191,0.02120356,0.004649226
1.022983,-0.07229936,0.07383341,-0.007254723,0.01026158,0.005582595
1.021292,-0.07434284,0.07432916,-3.916489e-06,-0.001694317,0.006548008
1.024906,-0.07574268,0.07249635,0.001642867,0.0006103234,0.005000703
1.028717,-0.0757757,0.06997076,0.004051819,0.008323929,0.0005941801
1.02892,-0.07662454,0.0672282,0.003735685,0.01437071,0.002045604
1.02687,-0.07651309,0.06797661,0.003705319,0.01952831,0.004820737
1.023747,-0.07564357,0.07156577,0.008454383,0.01111691,0.003455924
1.02472,-0.0738574,0.07224282,0.006744215,-0.001189323,0.004668729
1.025983,-0.07151515,0.06952085,0.004073429,0.0006591455,0.006583986
1.023845,-0.07334406,0.06789421,0.003109389,0.004931984,0.009918123
1.023422,-0.07720353,0.0712218,0.002533832,0.008041527,0.01367097
1.021821,-0.07800251,0.074944,0.006423937,0.01732329,0.007350795
1.02056,-0.07585524,0.07098913,0.006789274,0.02242007,-0.001821091
1.021451,-0.0727907,0.06864005,0.005136476,0.01338781,-0.004768398
1.020318,-0.07054055,0.07581106,0.004487607,-0.003262197,-0.002584289
1.020688,-0.06901949,0.0813008,0.003786658,-0.009333576,0.002163023
1.020356,-0.06933653,0.08027285,0.004824283,-0.0004211953,0.005314741
1.018959,-0.07211755,0.07795378,0.001994946,0.008211982,0.007648318
1.021715,-0.0744499,0.076753,-0.003275718,0.008902106,0.001587136
1.02378,-0.07546251,0.07378205,-0.008709239,0.00183288,-0.007763631
1.02396,-0.07503002,0.07116401,-0.01360934,-0.004833636,-0.001489363
1.024699,-0.07364469,0.07588277,-0.01361592,-0.002830266,0.009022263
1.025941,-0.07449599,0.08143166,-0.00746381,-0.002625483,0.01393981
1.026849,-0.07805785,0.08127805,0.002254671,-0.006047421,0.01377864
1.024908,-0.0816208,0.07600322,0.002341374,-0.001615514,0.003058006
1.022597,-0.07955096,0.07045785,-0.001088608,0.002399151,-0.003540645
1.021021,-0.07315771,0.07527558,0.00428276,-0.003538272,-0.0001925369
1.020422,-0.07134265,0.08057063,0.003431938,-0.008150806,0.001850492
1.022442,-0.07221006,0.07627275,-0.001461826,-0.007112223,0.001213585
1.024273,-0.07235053,0.073349,-0.003078145,-0.00613541,-0.003460091
1.025426,-0.07258948,0.07146633,-0.005369804,-0.004268953,-0.006929272
1.024759,-0.07325594,0.070343,-0.002894685,-0.001711971,-0.002902503
1.021795,-0.07684838,0.07403893,-0.001035497,-0.000345824,0.000746387
1.020333,-0.07873508,0.07637263,5.90521e-06,-0.001330533,-0.003268632
1.020896,-0.07756114,0.07938069,0.001517853,-0.004202039,-0.007561004
1.022977,-0.07787332,0.07970033,-0.002882278,-0.006237375,-0.005521513
1.024165,-0.07869336,0.07144547,-0.002919254,-0.006076563,-0.005676269
1.023676,-0.07916513,0.0672667,0.003341855,-0.002256684,-0.00673345
1.024286,-0.07742274,0.06951421,0.008946452,0.0001537957,-0.005270409
1.024577,-0.07575279,0.07404503,0.0104615,-0.004251639,-0.007501177
1.02416,-0.07735943,0.07924652,0.007255677,-0.009426298,-0.007789824
1.02428,-0.07827982,0.07433056,0.006421486,-0.008863059,-0.003937526
1.024554,-0.07789751,0.06681655,0.004485237,-0.003348183,-0.0005374303
1.025015,-0.07882722,0.0680622,0.002389972,0.001837125,-0.0005700209
1.025178,-0.08139658,0.06939008,0.004038648,0.003600059,-0.004742043
1.024775,-0.08153585,0.06932096,0.004133296,0.003883865,-0.006126074
1.023992,-0.07641984,0.06981533,0.004298315,0.003339898,-0.005648533
1.023831,-0.07169928,0.0691271,0.002740422,-0.0005351963,-0.006414424
1.025263,-0.07217808,0.06951918,0.00202874,-0.003973836,-0.006725541
1.026502,-0.07317446,0.06995617,0.002715678,-0.0005835056,-0.005686913
1.023992,-0.07219684,0.07098132,0.00166708,0.002117734,-0.003639311
1.020988,-0.07610962,0.07189714,0.004329374,-0.001333718,-0.006256487
1.023147,-0.08129871,0.06700793,0.002553819,-0.003674952,-0.009238786
1.024573,-0.08044504,0.06319921,-0.0004222348,-0.004752745,-0.008474874
1.023238,-0.07852883,0.071094,0.001641596,-0.006398664,-0.009934469
1.024562,-0.07733745,0.08016382,-0.001259908,-0.00541171,-0.01041266
1.025319,-0.07746922,0.07840862,-0.001676862,-0.004039326,-0.01024637
1.023758,-0.07746251,0.07628351,0.001371965,-0.005244793,-0.01161953
1.022427,-0.07291611,0.07874828,0.001941545,-0.008962791,-0.008904487
1.022063,-0.06969258,0.07628852,0.0008591907,-0.01851823,-0.005444714
1.023394,-0.07232082,0.06970546,-0.004756239,-0.02542601,-0.006078553
1.024857,-0.07766152,0.06340223,-0.007616335,-0.0103183,-0.007058018
1.025249,-0.08039937,0.06328728,-0.00634947,0.01212728,-0.006970637
1.024639,-0.07864017,0.07235318,-0.006055888,0.01254888,-0.008529558
1.02307,-0.07606946,0.07897125,-0.006322558,-0.0005741011,-0.01076397
1.021989,-0.07439857,0.0786338,-0.005626511,-0.01234954,-0.01230834
1.02286,-0.07474191,0.07217181,0.001101452,-0.01688643,-0.01473093
1.02425,-0.0754757,0.06557817,0.0109707,-0.005906913,-0.01388229
1.023429,-0.0747412,0.07127582,0.01432949,0.0023618,-0.006378696
1.021986,-0.0749768,0.0778687,0.006232683,-0.007854846,-0.002129206
1.020538,-0.07535082,0.07622072,-0.0006035724,-0.01234133,-0.006238075
1.019532,-0.07572346,0.0755898,0.005061437,0.002553619,-0.00815069
1.023813,-0.07692569,0.07662503,0.007543073,0.01404091,-0.007507025
1.028296,-0.07739179,0.07856932,0.003302085,0.007735345,-0.01040859
1.026276,-0.0777915,0.0787822,0.001920065,-0.00140651,-0.01123073
1.024424,-0.07804082,0.07453191,0.002133229,-0.003222021,-0.01006341
