accx,accy,accz,gyrox,gyroy,gyroz
1.017143,-0.1304419,0.1259597,0.02672913,0.06355361,-0.0141438
1.018568,-0.1304813,0.1234491,0.02477483,0.06173898,-0.01407904
1.016183,-0.1303706,0.1234107,0.02306502,0.05982144,-0.009729753
1.014581,-0.1290004,0.1251689,0.01621554,0.05928213,-0.009140803
1.014851,-0.129022,0.1269772,0.007371428,0.05835831,-0.008145433
1.015053,-0.1309863,0.1274397,0.009189604,0.06071617,-0.003782973
1.013488,-0.1314179,0.1234827,0.01327966,0.06124543,-0.002468958
1.01578,-0.1317953,0.1190294,0.01085242,0.05587584,-0.003563483
1.018661,-0.134012,0.120572,0.009138417,0.05076128,-0.005779674
1.017248,-0.1336029,0.1222709,0.007652224,0.04979465,-0.006810998
1.014491,-0.1315131,0.1222032,0.004640375,0.04884746,-0.0102822
1.011954,-0.1311788,0.1262101,0.002955018,0.04696279,-0.01609311
1.015042,-0.1302825,0.1282711,-0.001869094,0.04950029,-0.01509983
1.020242,-0.1307756,0.1260795,-0.006196808,0.05134098,-0.01033773
1.018838,-0.1344748,0.1245505,-0.004166717,0.04806732,-0.00669497
1.014538,-0.1394809,0.1239053,-0.0006336943,0.04378495,-0.005841489
1.01198,-0.1452665,0.1281737,0.008903393,0.04119528,-0.007046781
1.014513,-0.1468232,0.1339615,0.02590296,0.04387227,-0.003005996
1.018522,-0.1441221,0.1314707,0.03779899,0.04742823,5.646763e-05
1.016376,-0.1416401,0.1256686,0.03933197,0.04490643,-0.003216023
1.014844,-0.1375991,0.124047,0.03669449,0.0430007,-0.002955564
1.016327,-0.1348949,0.125036,0.03673227,0.04808033,-0.004402681
1.016895,-0.1355368,0.124334,0.03644251,0.05569117,-0.010699
1.020409,-0.1339484,0.1193414,0.03213324,0.06058234,-0.01151464
1.022018,-0.1302911,0.1150284,0.02654938,0.05912882,-0.01313538
1.018819,-0.1277759,0.117308,0.0211944,0.05253525,-0.01454645
1.014757,-0.1225355,0.1230388,0.01749277,0.04811237,-0.009859813
1.010862,-0.117992,0.1257856,0.01382505,0.0455302,-0.007834717
1.017114,-0.1247063,0.1236398,0.01123515,0.04327015,-0.006213393
1.025861,-0.1314106,0.120988,0.01573576,0.04417398,-0.007547061
1.019841,-0.1297872,0.1225234,0.02078463,0.04421426,-0.0123105
1.014092,-0.1305077,0.12478,0.01797705,0.04097663,-0.009746434
1.015132,-0.1258084,0.1248717,0.01287659,0.03690321,-0.01019796
1.013291,-0.1156631,0.1253627,0.006692731,0.03430461,-0.01635454
1.014776,-0.1169814,0.1249288,-0.003048895,0.0336829,-0.01897944
1.017408,-0.1195828,0.12502,-0.01436781,0.03356283,-0.02077403
1.017143,-0.1140905,0.1269291,-0.03495938,0.03341928,-0.02457274
1.018621,-0.1090045,0.1261959,-0.06202672,0.02963049,-0.03451989
1.017628,-0.1043762,0.1246749,-0.08508389,0.02518084,-0.04041538
1.014689,-0.1052781,0.1253774,-0.1065853,0.02519217,-0.03316574
1.012892,-0.1137633,0.1287793,-0.1109967,0.02237212,-0.02825782
1.012311,-0.1191528,0.1307838,-0.09951195,0.017269,-0.02860798
1.01415,-0.1253555,0.1251978,-0.09675272,0.01756573,-0.02940717
1.01425,-0.1339849,0.1207769,-0.09390686,0.02032224,-0.03483083
1.01496,-0.136469,0.1255697,-0.08892541,0.02223548,-0.04032231
1.016024,-0.1367678,0.1299813,-0.08186311,0.02180607,-0.04133809
1.012696,-0.1359659,0.1273667,-0.06791256,0.017574,-0.04124636
1.011967,-0.1302467,0.1258855,-0.06622585,0.01690128,-0.03987579
1.012887,-0.1250388,0.1271839,-0.06608926,0.02117191,-0.03413572
1.012163,-0.1262681,0.1249437,-0.0618305,0.02043124,-0.02754476
1.013326,-0.1301623,0.1218687,-0.0663172,0.01451154,-0.02142793
1.015397,-0.1304743,0.1189987,-0.06270687,0.009216559,-0.01603655
1.019188,-0.1289016,0.1203565,-0.05793602,0.009544075,-0.01423698
1.020227,-0.12721,0.1257034,-0.05958331,0.0131522,-0.009536192
1.016731,-0.1278207,0.1239424,-0.054292,0.01225793,-0.006648826
1.015374,-0.1312785,0.1229188,-0.04928901,0.01272168,-0.01307788
1.014687,-0.1322971,0.1242767,-0.0416929,0.01361371,-0.01790701
1.013421,-0.1325077,0.1198317,-0.03091853,0.009815429,-0.01648732
1.012267,-0.1336267,0.1199743,-0.02878954,0.008570607,-0.01071025
1.012309,-0.1349914,0.1230119,-0.02607803,0.008837578,-0.004349417
1.014884,-0.1354171,0.1217512,-0.01247797,0.00803789,0.002655501
1.015647,-0.1339476,0.1212623,0.004637678,0.005658866,0.01145677
1.014866,-0.1344183,0.1208365,0.01529509,0.003183109,0.01371561
1.013543,-0.132423,0.1204491,0.02121772,0.003176307,0.01285074
1.01231,-0.1294141,0.1211742,0.02542109,0.002021424,0.01166332
1.015182,-0.1326002,0.1216581,0.03183677,0.001514467,0.008791993
1.018153,-0.1335757,0.125129,0.04214185,0.0003612132,0.01020785
1.018316,-0.1287625,0.1293795,0.04295336,-0.0008604161,0.01107326
1.018603,-0.1230195,0.1274546,0.03551199,-0.001712218,0.007908895
1.017941,-0.1211409,0.1231476,0.02915101,-0.006650203,0.005558234
1.015819,-0.1248494,0.1219645,0.02445873,-0.007044471,0.006464428
1.014856,-0.1284782,0.1227175,0.02617581,-0.004063594,0.00723624
1.015302,-0.1325458,0.1233636,0.02788322,-0.001792855,0.004805428
1.015354,-0.1354949,0.1189791,0.02869707,0.003870615,0.004434035
1.014898,-0.1308323,0.1128894,0.03225875,0.006073797,0.005137297
1.013838,-0.1244099,0.113324,0.02710715,0.005143868,0.004754186
1.013899,-0.1233368,0.1154967,0.01995662,0.005639932,0.004117537
1.016574,-0.1235727,0.1181673,0.02073426,0.004989629,-0.0007372848
1.017484,-0.1211835,0.1232915,0.02041812,0.002429843,-0.004796326
1.016199,-0.1176992,0.1244257,0.01605127,-0.001596111,-0.003765504
1.016605,-0.1129642,0.1245798,0.005993083,-0.004561046,-0.005779568
1.016998,-0.1105818,0.127437,-0.008322688,-0.002062503,-0.01016141
1.016559,-0.1154926,0.1266842,-0.01563344,0.002025459,-0.007078428
1.017633,-0.120066,0.1253338,-0.01806808,-0.0006460209,-0.002285657
1.018459,-0.118886,0.1258113,-0.0215939,-0.003264054,-0.001429228
1.017767,-0.1216497,0.1228163,-0.01992469,-0.002168332,0.003094132
1.016767,-0.1308254,0.122654,-0.01646143,-0.00271441,0.003699334
1.014666,-0.133806,0.1298769,-0.01358672,-0.001036378,-0.001895299
1.013194,-0.1298048,0.1334776,-0.003480737,-0.001296301,-0.002316545
1.0141,-0.1272018,0.1242213,0.004498213,-0.004537122,-0.002836304
1.015052,-0.1250059,0.1148429,0.006058944,-0.004678545,-0.00271415
1.015346,-0.1238069,0.1237632,0.009938865,-0.007443951,0.002154688
1.015398,-0.1228011,0.1324448,0.008047413,-0.01084686,0.005002986
1.015008,-0.120626,0.1265819,0.001085135,-0.0114432,0.007175138
1.014363,-0.123932,0.1275607,-0.001067108,-0.01324713,0.01065293
1.013881,-0.1283214,0.1310683,-0.004452449,-0.01422834,0.01423492
1.014608,-0.1270735,0.1271311,-0.005869636,-0.01379542,0.01394478
1.01576,-0.1290485,0.1275747,3.561746e-05,-0.01323494,0.008092292
1.015163,-0.1340084,0.1287958,0.009971755,-0.01327189,0.00427646
1.014058,-0.1330625,0.1299216,0.02489404,-0.01329066,0.004294647
1.014063,-0.1313874,0.1331963,0.02965056,-0.01070809,0.005332902
1.014794,-0.128994,0.1320447,0.02388322,-0.008447606,0.007446583
1.016345,-0.1233053,0.1304037,0.02677684,-0.01060412,0.01219784
1.016434,-0.1260412,0.1279989,0.02447678,-0.01518623,0.01454678
1.016305,-0.1309268,0.1234712,0.01848754,-0.0158536,0.00969269
1.020472,-0.1279277,0.124181,0.02202846,-0.01041254,0.006798328
1.023727,-0.1289742,0.1246261,0.01911847,-0.005500627,0.004900258
1.020927,-0.1318217,0.1191145,0.01557048,-0.007581481,-0.0003691227
1.015343,-0.1301844,0.1173992,0.01662252,-0.01083174,-0.0008385818
1.01108,-0.1302632,0.1227479,0.01520322,-0.009465224,0.0007129053
1.012051,-0.1297121,0.1284296,0.01763683,-0.01178276,-0.0002591658
1.015484,-0.1278067,0.1299108,0.01855935,-0.01593196,0.000692889
1.015418,-0.1275426,0.1260407,0.01796722,-0.01664009,0.003202966
1.014864,-0.1277704,0.1228183,0.01827809,-0.02090613,0.002686842
1.014732,-0.1275955,0.1232573,0.01545047,-0.02321583,0.0007370092
1.0133,-0.1256571,0.1220159,0.01483901,-0.02032916,0.001562675
1.014068,-0.1234041,0.1205089,0.01401816,-0.01927736,0.003238595
1.015145,-0.1223487,0.1226391,0.008683456,-0.02001275,0.005292278
1.015126,-0.1218965,0.1257957,-0.001409717,-0.02208686,0.005795871
1.015659,-0.1219171,0.1271095,-0.01143512,-0.02162844,0.003388023
1.015561,-0.1235563,0.1278761,-0.01416332,-0.01677559,0.0002363473
1.017729,-0.1275429,0.128263,-0.01812129,-0.012839,-0.005721268
1.01966,-0.1288432,0.1273413,-0.0238458,-0.01420335,-0.007684291
1.016866,-0.1275651,0.1281698,-0.02102248,-0.01769522,-0.004787921
1.013084,-0.129166,0.1295306,-0.01466967,-0.01807194,-0.006299892
1.010598,-0.1292904,0.1290639,-0.0119123,-0.0224479,-0.005410101
1.012403,-0.1253562,0.1286271,-0.01317753,-0.02786739,-2.398423e-07
1.016761,-0.1241199,0.1287802,-0.01563261,-0.02629446,0.005593813
1.018135,-0.1267204,0.1288058,-0.0146013,-0.02551183,0.01137314
1.019473,-0.1285942,0.1246646,-0.01370484,-0.02502196,0.01154023
1.019044,-0.1292502,0.1207539,-0.01536156,-0.02385925,0.01019783
1.015178,-0.1282261,0.1244146,-0.01536294,-0.02323187,0.01124351
1.013905,-0.1251516,0.1280413,-0.01542134,-0.02146929,0.0103799
1.011235,-0.1235749,0.1279503,-0.01293371,-0.02727331,0.0101258
1.007189,-0.1235081,0.1275801,-0.007098194,-0.03356834,0.008417121
1.010843,-0.1231581,0.126779,-0.006272279,-0.02831086,0.00560101
1.01524,-0.1220219,0.1260485,-0.0085683,-0.02354818,0.006517069
1.013988,-0.1198039,0.1253431,-0.01589744,-0.02436121,0.006898991
1.014316,-0.1188062,0.1249026,-0.02706221,-0.02386801,0.006698991
1.015991,-0.1180788,0.1248785,-0.02595702,-0.02669574,0.009966513
1.015224,-0.1178065,0.1248834,-0.02035619,-0.03269648,0.01491731
1.015145,-0.1211966,0.1242051,-0.02160816,-0.03246727,0.01865821
1.016311,-0.1262093,0.1233346,-0.02014903,-0.03185702,0.018724
1.016095,-0.1304173,0.1245338,-0.01835883,-0.03423043,0.01202657
1.016288,-0.1295118,0.125472,-0.01611675,-0.03336772,0.004339967
1.018596,-0.1245671,0.1245324,-0.01082041,-0.03335992,0.005308584
1.02023,-0.1244066,0.1231359,-0.01605019,-0.02967873,0.003862166
1.018942,-0.1248896,0.1226432,-0.02285937,-0.02209646,-0.005365713
1.016316,-0.1210538,0.1264719,-0.01904861,-0.02257425,-0.006286922
1.014822,-0.1195632,0.1305495,-0.01897353,-0.02327117,-0.004587667
1.014911,-0.124419,0.1277388,-0.01882422,-0.02119693,-0.007035265
1.015678,-0.1302666,0.1243782,-0.01092282,-0.02238528,-0.004974314
1.014924,-0.1298181,0.1247217,-0.007364465,-0.02039672,-0.005883697
1.013151,-0.1314246,0.1217636,-0.004906599,-0.01823346,-0.008232597
1.012872,-0.1369158,0.119312,0.006627141,-0.01963118,-0.005466551
1.014793,-0.1331817,0.1227876,0.01844485,-0.01917482,-0.004407526
1.017791,-0.1281036,0.1272497,0.01944923,-0.01882218,-0.001639762
1.017082,-0.1279262,0.1316861,0.01498914,-0.01948451,7.100723e-06
1.015464,-0.1266197,0.131,0.01037583,-0.01970018,-0.003274255
1.016499,-0.12649,0.1271263,0.004181546,-0.02228796,-0.002008187
1.014936,-0.1246911,0.1290403,0.004873556,-0.02600736,0.0019153
1.014892,-0.1243927,0.1263495,0.01020349,-0.02747167,0.003899214
1.017006,-0.1279688,0.1212731,0.007601136,-0.02809185,0.00404775
1.016554,-0.1277365,0.1241101,0.001360152,-0.02810635,0.003353465
1.01775,-0.1274299,0.1251181,-0.004910382,-0.02674116,0.005390174
1.018255,-0.1262898,0.1263485,-0.006011947,-0.02695103,0.007846663
1.016898,-0.1242461,0.1271251,0.001047468,-0.0264675,0.007839858
1.016801,-0.1271166,0.1181381,0.003969255,-0.02172377,0.005771115
1.017267,-0.1284952,0.1134357,0.007569222,-0.01797451,0.004664692
1.01843,-0.1274578,0.1177508,0.01334976,-0.01875051,0.004339433
1.017075,-0.1268214,0.119428,0.01076449,-0.01988218,0.0008744748
1.015038,-0.1265926,0.1224626,0.00916889,-0.01831326,-0.0002822466
1.015542,-0.1291797,0.1254472,0.01034105,-0.01765539,0.0008491292
1.016034,-0.1317093,0.1218583,0.0103374,-0.0171504,-0.0003952352
1.017007,-0.1322874,0.1221819,0.01210335,-0.01390839,-0.001121417
1.016684,-0.1308319,0.126808,0.01222043,-0.012937,-0.004743413
1.015353,-0.126813,0.1277651,0.01010789,-0.0124403,-0.008838157
1.015697,-0.1237562,0.1261088,0.00498071,-0.01211392,-0.007097978
1.01703,-0.1257787,0.121225,0.0007015862,-0.0162345,-0.003711363
1.019418,-0.1287929,0.1191025,0.002444604,-0.0185051,-0.0005068721
1.018793,-0.128291,0.1195195,0.004269696,-0.01662212,0.0001016845
1.015438,-0.1289939,0.1181532,0.005225511,-0.01048363,-0.003214496
1.01486,-0.1279661,0.121875,0.009701276,-0.004418519,-0.006809529
1.015701,-0.1250337,0.1247241,0.01432599,-0.007260927,-0.01064853
1.017143,-0.1267007,0.1244619,0.01433738,-0.01096395,-0.01329219
1.018596,-0.1267759,0.125936,0.01552614,-0.01123749,-0.00972302
1.018158,-0.1254427,0.1245592,0.01731348,-0.01137278,-0.004095047
1.017788,-0.1248889,0.1254216,0.00951624,-0.008837088,-0.005664795
1.018172,-0.1219583,0.1292827,0.001244333,-0.00796278,-0.007010652
1.018119,-0.1220672,0.1302723,0.002309517,-0.009262525,-0.00415106
1.018108,-0.1246787,0.1277094,0.003824308,-0.009070793,-0.005548296
1.019018,-0.1262049,0.1231938,0.003602511,-0.01022631,-0.006283138
1.019748,-0.1268944,0.1240606,0.00433432,-0.01172495,-0.004964988
1.019274,-0.125799,0.1228547,0.001278671,-0.01056213,-0.003752516
1.018445,-0.1245201,0.1143906,-0.001096909,-0.007427957,-0.002086552
1.017302,-0.1236529,0.1139256,0.002436911,-0.004522689,-0.004933498
1.015284,-0.1251539,0.1219645,0.003685105,-0.005004833,-0.005329594
1.013244,-0.1283407,0.1288882,0.003765108,-0.00825202,-0.003917799
1.013471,-0.1280787,0.129222,0.002584226,-0.009225604,-0.005942885
1.01522,-0.1260498,0.126019,-0.004013902,-0.008127615,-0.004433937
1.01704,-0.1218486,0.1266868,-0.006589579,-0.007311282,-0.004609199
1.019453,-0.115891,0.1231065,-0.008373446,-0.005452334,-0.005635368
1.018239,-0.1162962,0.1185962,-0.01107234,-0.006110676,-0.003939744
1.014661,-0.1180497,0.1214686,-0.00918199,-0.01135877,-0.004167304
1.013654,-0.1158492,0.1212715,-0.009850098,-0.01747479,-0.0001315281
1.012287,-0.1180923,0.1197381,-0.009035217,-0.02094555,0.003564267
1.013747,-0.1217464,0.1196173,-0.005629517,-0.01827877,0.001925594
1.016774,-0.121223,0.1185017,-0.002655584,-0.01630963,0.003557082
1.014863,-0.1174462,0.1240833,0.001985231,-0.01984514,0.008929542
1.014865,-0.1118038,0.1302712,0.00226663,-0.02032027,0.01242542
1.015979,-0.1127689,0.1281073,0.003189171,-0.01801177,0.00849596
1.014354,-0.1139276,0.1264199,0.00475305,-0.01763312,0.001874615
1.013725,-0.1102038,0.1296896,0.001145467,-0.02015625,-0.0006547239
1.012054,-0.1154639,0.1325371,-0.001135411,-0.0243662,-0.002527435
1.012336,-0.1209671,0.1334662,-0.002969458,-0.0224879,-0.006462458
1.015053,-0.1195127,0.1308202,-0.0066607,-0.01586626,-0.01170719
1.014652,-0.1227465,0.1292819,-0.01038402,-0.01217431,-0.01014319
1.011741,-0.1249741,0.1354007,-0.009176843,-0.01293664,-0.001399028
1.007637,-0.1230542,0.1373441,-0.004816913,-0.02003369,0.002171021
1.007446,-0.1234813,0.1342771,-0.001884527,-0.03095517,0.001744013
1.010844,-0.1235916,0.1340981,0.008751737,-0.03579202,0.005046322
1.014972,-0.1207298,0.1297741,0.01509016,-0.02990153,0.01108376
1.021456,-0.1158012,0.125553,0.00496989,-0.02297375,0.01318544
1.020679,-0.1124635,0.1259719,-0.002625128,-0.02194739,0.007395447
1.016323,-0.113805,0.1264866,-0.00461166,-0.02143451,0.001355816
1.018908,-0.115837,0.1256144,-0.01133795,-0.01952736,0.001491151
1.018484,-0.1171728,0.1232579,-0.01530085,-0.01754988,0.002623607
1.017779,-0.1231876,0.1237876,-0.004313687,-0.02026694,0.0006929717
1.019883,-0.1285202,0.1254072,0.01166926,-0.02509586,-0.001829898
1.0166,-0.1256449,0.128988,0.01691658,-0.02136978,-0.003217032
1.014076,-0.1227292,0.1343885,0.01869541,-0.01978584,-0.00138951
1.013021,-0.1208479,0.1319835,0.01912125,-0.02669475,0.005581012
1.015035,-0.115394,0.1256831,0.01116271,-0.02928673,0.01170301
1.021417,-0.115322,0.1229066,0.002738956,-0.02589448,0.0105838
1.020714,-0.1191028,0.1250832,0.00299713,-0.02222109,0.006295969
1.019654,-0.1173131,0.1294652,0.006907362,-0.02274115,0.004295581
1.02064,-0.1175812,0.1302711,0.006251966,-0.02260978,0.003049885
1.015795,-0.1214831,0.1265663,0.006019051,-0.01950077,0.003256469
1.0143,-0.1224648,0.1216489,0.008563174,-0.02161725,0.00458929
1.015733,-0.12349,0.1236702,0.01017203,-0.02449496,0.00234774
1.015296,-0.1205596,0.12747,0.01131435,-0.02434234,0.001094018
1.016288,-0.1161625,0.1256203,0.006293301,-0.01971129,0.001764542
1.01647,-0.1192299,0.1248472,-0.0003931053,-0.01174111,-0.001102911
1.015021,-0.1206333,0.1238156,-0.001510174,-0.01118383,-0.003324862
1.013056,-0.119593,0.1235641,-0.007679105,-0.01007653,-0.00315067
1.013033,-0.1217485,0.1260724,-0.01843181,-0.006306384,-0.003341794
1.0147,-0.1232961,0.1271741,-0.02179047,-0.008351657,-0.003814207
1.015598,-0.1264599,0.1272653,-0.01889467,-0.007862483,-0.002108798
1.017528,-0.1289143,0.123939,-0.01218063,-0.009004409,0.0005721681
1.018385,-0.1265134,0.1209552,0.001987087,-0.01379595,-0.001096718
1.017839,-0.123881,0.1192299,0.01190931,-0.01470731,-0.00235076
1.017258,-0.1206077,0.11611,0.01078548,-0.0167599,0.001093473
1.016168,-0.1166485,0.1180574,0.01255851,-0.01548512,0.005543029
1.017301,-0.1183695,0.1191342,0.01169597,-0.0102296,0.006110151
1.019705,-0.1243938,0.1176017,0.004738368,-0.005630682,0.001393301
1.022258,-0.1293094,0.1211015,0.00443177,0.003412699,-0.0003757909
1.02272,-0.13166,0.1237784,0.006755751,0.008692765,0.0004562697
1.019229,-0.1284322,0.1247704,0.01070592,0.005633723,0.0008269525
1.016334,-0.1243241,0.1266222,0.01420083,0.001160898,0.005282331
1.014935,-0.1237143,0.1246937,0.01143778,-0.001783296,0.01085441
1.016678,-0.1205654,0.1207381,0.008768736,0.003831945,0.01544401
1.019206,-0.1183894,0.1207359,0.00412001,0.01048606,0.01474948
1.016695,-0.1197053,0.1239651,-0.000840208,0.003868177,0.008554143
1.015067,-0.1195265,0.1251546,0.001693546,-0.003417609,0.005790674
1.015862,-0.1190233,0.1225328,0.003784768,-0.001893352,0.003271712
1.016754,-0.1176444,0.1199616,-2.091271e-05,-0.001843708,0.001791426
1.018449,-0.1162986,0.122579,-0.002121965,-0.004196458,0.004478517
1.016489,-0.1177946,0.126099,0.0006916592,-0.006951601,0.005777045
1.014135,-0.1203594,0.125892,0.006353375,-0.009746792,0.008594914
1.01551,-0.1216327,0.1271634,0.01479501,-0.007279896,0.01143204
1.01577,-0.1215614,0.1274636,0.01950197,-0.00512513,0.009910022
1.015797,-0.1223741,0.1247635,0.01910557,-0.007551849,0.007878701
1.01712,-0.1219845,0.1247248,0.01906853,-0.01086945,0.005355318
1.016806,-0.118287,0.1250527,0.01431805,-0.01541067,0.00390212
1.016319,-0.1126116,0.124701,0.005435175,-0.01587813,0.006173918
1.016719,-0.1076423,0.1273381,-0.003633309,-0.01106,0.00713778
1.015943,-0.1082839,0.1324084,-0.01120239,-0.005312108,0.002722422
1.01575,-0.1118708,0.1355065,-0.01130873,0.0003477833,-0.001815579
1.017011,-0.1144043,0.1345735,-0.008675886,-0.001020105,-0.001966732
1.016697,-0.117156,0.1339323,-0.003128199,-0.006301397,-0.002798806
1.01528,-0.1183763,0.1348873,0.01130119,-0.008925821,-0.003792683
1.014442,-0.117183,0.1360568,0.02399899,-0.01296939,-0.001513113
1.014441,-0.1152402,0.1372661,0.02512559,-0.0117654,-0.0002056534
1.015522,-0.1143379,0.1372696,0.01403143,-0.007023255,0.00296545
1.015601,-0.1125963,0.1349914,-0.001781674,-0.007964449,0.008023781
1.014891,-0.1083546,0.1289958,-0.009414126,-0.007415277,0.006410405
1.015419,-0.1074073,0.1240296,-0.01239529,-0.008405248,0.002957067
1.015402,-0.1094754,0.1250475,-0.0235587,-0.01152046,0.002786326
1.015394,-0.1112559,0.125969,-0.03629905,-0.009849867,0.00203366
1.017257,-0.1158184,0.1224266,-0.03725997,-0.01219943,0.003925828
1.018369,-0.1215645,0.120734,-0.0330437,-0.01479749,0.01081506
1.017115,-0.1269408,0.1238374,-0.02618706,-0.01184793,0.01775399
1.015236,-0.1311353,0.1259733,-0.01096548,-0.01142252,0.01985483
1.014967,-0.1308468,0.1278504,0.001483355,-0.01087714,0.0188187
1.015525,-0.1301174,0.1281454,0.01177345,-0.008898091,0.02039296
1.015353,-0.1301786,0.1250992,0.02591864,-0.01039407,0.02162212
1.016145,-0.1261203,0.1273816,0.02830507,-0.01525992,0.02298665
1.017049,-0.1202957,0.128634,0.01753179,-0.02021544,0.02951494
1.016817,-0.1182692,0.124035,0.005631451,-0.02016112,0.03359071
1.017457,-0.1214382,0.1205123,-0.002994047,-0.01654686,0.03388002
1.017857,-0.1270292,0.1169061,-0.003283951,-0.01412669,0.03584177
1.01549,-0.1330997,0.1192242,0.004371885,-0.01215476,0.03741988
1.012831,-0.1357612,0.1228606,0.01463619,-0.01300113,0.04095289
1.013853,-0.1300265,0.1202931,0.02469733,-0.01972136,0.04505295
1.015844,-0.1260712,0.1224402,0.03332468,-0.02757592,0.04254048
1.016851,-0.1308852,0.1250406,0.0424501,-0.03507354,0.0343413
1.019271,-0.1331907,0.124004,0.05501806,-0.03975554,0.02242731
1.021048,-0.1303272,0.1252844,0.05844453,-0.03075428,0.008513719
1.022168,-0.1278363,0.1259516,0.03560143,-0.009782406,-0.006548121
1.021071,-0.1256916,0.1275417,0.007064153,0.0116054,-0.02503413
1.014515,-0.1232887,0.1287844,-0.001459031,0.02930455,-0.03796518
1.011142,-0.11851,0.1269874,-0.003002035,0.03715199,-0.03878341
1.014366,-0.110074,0.1288703,-0.00847607,0.03049359,-0.03715592
1.016336,-0.10717,0.1316463,-0.01101389,0.01340756,-0.03131914
1.015216,-0.1161127,0.1299675,-0.007323668,-0.009195301,-0.01461294
1.014391,-0.1224752,0.1315659,0.003976662,-0.02262807,0.005190631
1.013781,-0.1189714,0.1376073,0.02157928,-0.0193939,0.0200646
1.010823,-0.1155709,0.1414149,0.02984659,-0.01614657,0.02992482
1.009592,-0.1086549,0.1404295,0.02001409,-0.01570477,0.04213618
1.011101,-0.09857696,0.1346275,0.004912244,-0.0139095,0.05089425
1.011497,-0.1003722,0.131536,-0.01607903,-0.01789742,0.04623294
1.014326,-0.1065701,0.1306561,-0.03599236,-0.0241347,0.04016834
1.01797,-0.1051829,0.1264777,-0.04490025,-0.02858126,0.03439626
1.018029,-0.1064624,0.1254634,-0.06144146,-0.02528823,0.0270469
1.015026,-0.1143248,0.1258449,-0.07032264,-0.01774494,0.02786033
1.010925,-0.128025,0.1246772,-0.05916283,-0.01997046,0.02718272
1.011083,-0.1400092,0.1244132,-0.04740139,-0.02005268,0.02401893
1.015087,-0.1351356,0.1212785,-0.02574376,-0.01992428,0.02997601
1.020397,-0.1316381,0.1147699,-0.006295574,-0.02676826,0.03311183
1.023777,-0.1372661,0.110578,-0.008652241,-0.02342148,0.02897528
1.020513,-0.1340767,0.1133895,-0.01536071,-0.01938255,0.02670559
1.016241,-0.1337389,0.1152782,-0.02012493,-0.02088697,0.02567271
1.014775,-0.1363279,0.112962,-0.02329581,-0.0211913,0.02679415
1.014811,-0.1354145,0.1128076,-0.02232509,-0.02551908,0.02805506
1.015856,-0.144988,0.1080008,-0.01901385,-0.02406472,0.02750885
1.015137,-0.1547991,0.1024357,-0.009289106,-0.02121915,0.03023358
1.015337,-0.158216,0.1074126,0.01123833,-0.02484495,0.03359508
1.017689,-0.165394,0.1122721,0.03837844,-0.02384321,0.03287089
1.019188,-0.1689076,0.1102668,0.06612055,-0.02265733,0.02926843
1.020146,-0.1628653,0.110463,0.0878733,-0.02027248,0.02692738
1.020398,-0.155615,0.1118579,0.0895103,-0.01154663,0.02620845
1.021717,-0.1489373,0.1087312,0.07218489,-0.004825087,0.01934781
1.022473,-0.1372437,0.107962,0.04388074,-0.001797316,0.006438213
1.018104,-0.1235146,0.110932,0.004305398,-0.0002536648,-0.0005922051
1.011784,-0.1139209,0.1142478,-0.03070564,0.0007368999,-0.0008487508
1.008466,-0.1151934,0.1219277,-0.04185217,-0.00545037,-0.002390688
1.011491,-0.1248087,0.1326104,-0.02914235,-0.01527063,0.0004138287
1.016341,-0.1312293,0.1378325,-0.01517701,-0.01101312,0.006029385
1.016716,-0.1373168,0.1302584,-0.005180936,-0.003107153,0.002812521
1.016568,-0.1437427,0.1227618,0.0194728,-0.00269935,-3.767148e-05
1.014447,-0.1489541,0.1279322,0.04293574,-0.003372028,4.980608e-05
1.009772,-0.151235,0.1293856,0.054531,-0.008847119,-0.004657023
1.008746,-0.1442184,0.1262911,0.06014761,-0.01095069,-0.005707116
1.012478,-0.1360323,0.1275342,0.04725587,-0.004543883,-0.002420446
1.018955,-0.1287884,0.1234544,0.0303379,-0.001837145,-0.0008820325
1.019011,-0.1256604,0.1180219,0.01894325,-0.002457317,-0.0006188594
1.014508,-0.130087,0.1164034,-0.001256677,-0.002985129,-0.001068105
1.01465,-0.1302798,0.1132283,-0.01471291,-0.002620947,-0.0002050709
1.013561,-0.1306613,0.1134147,-0.01229382,-0.003362974,0.0002830204
1.013591,-0.1330484,0.1175905,-0.0137687,-0.00664013,0.001591615
1.015852,-0.1338399,0.1184902,-0.02304517,-0.006801233,0.005140818
1.015513,-0.1384835,0.1166393,-0.02770611,-0.0070599,0.00484304
1.016413,-0.1439654,0.1148052,-0.02760092,-0.008003423,0.003356937
1.014996,-0.1475495,0.1135528,-0.02263995,-0.00743705,0.004031143
1.013581,-0.1464297,0.1128973,-0.01189029,-0.008085098,0.003002852
1.014574,-0.1463215,0.110585,-0.008229756,-0.007991133,0.001068864
1.013237,-0.1492373,0.1093034,-0.01037108,-0.007792107,-0.001234814
1.014242,-0.1427395,0.1105508,-0.009105824,-0.005906169,-0.003046327
1.015139,-0.1363898,0.111522,-0.005683717,-0.004439234,-0.002856297
1.014919,-0.1390966,0.1176003,-0.002033085,-0.00544748,-0.002562373
1.015951,-0.141215,0.1243132,-0.001123982,-0.002825589,-0.001231917
1.014629,-0.1402412,0.1224911,-0.0001377229,-0.001285836,-0.0005911034
1.01439,-0.1387956,0.121565,0.001532455,-0.002102904,-0.002051038
1.014008,-0.1389815,0.1250583,0.004384715,-0.002515624,-0.0006756005
1.013603,-0.1390666,0.1272199,0.008829116,-0.004384635,0.0004146341
1.016298,-0.1393685,0.1273929,0.00858256,-0.003743361,-0.002105137
1.016792,-0.1396813,0.1230526,0.008429988,-0.001387155,-0.00502154
1.015804,-0.1364459,0.1174999,0.008397404,-0.0006323795,-0.009605195
1.015019,-0.1344346,0.1179452,0.004827276,-0.001334119,-0.01142827
1.014943,-0.1347287,0.1196356,0.001353509,-0.0006713441,-0.008296211
1.015821,-0.1355258,0.1171027,-0.003495697,0.001319227,-0.007413028
1.015472,-0.1393625,0.1144733,-0.005447176,0.00248864,-0.00763612
1.017929,-0.1428801,0.1119996,-0.004766814,0.005504917,-0.008658815
1.02005,-0.1411704,0.1098788,-0.005767565,0.005142547,-0.01177849
1.016674,-0.1353545,0.112154,-0.004967918,0.002645083,-0.01270569
1.014313,-0.1331101,0.1151442,-0.002193348,0.004699356,-0.01099256
1.016079,-0.1387888,0.1172369,0.00568931,0.006449122,-0.008615403
1.017551,-0.1456482,0.1184634,0.01509575,0.00812624,-0.009036661
1.016376,-0.1442903,0.1174281,0.01549082,0.007456296,-0.01021166
1.016205,-0.1368109,0.1190167,0.01254805,0.004729513,-0.009697794
1.016279,-0.1334071,0.121988,0.009223704,0.005808683,-0.01125951
1.014616,-0.1348361,0.1236556,0.0003130433,0.004880274,-0.01082739
1.015272,-0.138034,0.1228306,-0.002623457,0.002798114,-0.00772642
1.015661,-0.1392273,0.1183925,0.003328235,0.002508596,-0.006848711
1.0145,-0.1358933,0.116298,0.002697597,0.001656513,-0.008936375
1.013748,-0.1339332,0.1136185,-0.002294752,0.002639259,-0.01294152
1.012269,-0.1353893,0.1130836,-0.003911642,0.002843724,-0.01294712
1.014129,-0.1396103,0.1199863,0.0004507117,0.00197022,-0.01178139
1.017328,-0.1430127,0.1218182,0.00867918,0.002325444,-0.01388294
1.01677,-0.1408963,0.1199983,0.006774017,0.002207598,-0.01393514
1.016199,-0.136678,0.1184294,-0.001146987,0.003684938,-0.01349612
1.015993,-0.1334134,0.1153453,-0.005678824,0.005052003,-0.01363031
1.014921,-0.1335673,0.1170128,-0.007325164,0.004813577,-0.01271679
1.015149,-0.1350131,0.1180409,-0.002217632,0.007498046,-0.01242028
1.015732,-0.1352739,0.1177043,0.0007889692,0.01050944,-0.01244903
1.016009,-0.1359621,0.1184795,-0.002028179,0.009427286,-0.01361467
1.016923,-0.1326627,0.1168637,-0.006398839,0.007509389,-0.01404561
1.016723,-0.1291498,0.1176031,-0.01051345,0.005926794,-0.01104336
1.015431,-0.1316496,0.1196693,-0.005431183,0.0002511029,-0.004473167
1.015352,-0.134651,0.1214314,-0.001295595,-0.005356202,0.002145524
1.016482,-0.1376831,0.1218861,-0.00435098,-0.002424423,0.0007084544
1.01874,-0.141071,0.1166764,-0.003518298,0.002971212,-0.007124076
1.01965,-0.1375528,0.1121462,-0.003828142,0.003645821,-0.01497913
1.016636,-0.1305348,0.1137629,-0.007008063,0.002188729,-0.01899494
1.014234,-0.1306176,0.1167963,-0.008464889,0.0005598509,-0.01621137
1.015568,-0.1354627,0.1163436,-0.007760022,0.001485784,-0.01428515
1.017385,-0.1386932,0.1145741,-0.005803937,0.005058133,-0.01528637
1.017569,-0.1381382,0.1126277,-0.00648396,0.0100461,-0.01211975
1.017458,-0.136927,0.1106821,-0.005016395,0.01586692,-0.006885438
1.018247,-0.1410268,0.1114045,0.003728779,0.01515087,-0.005252094
1.019214,-0.1446151,0.1105478,0.02222911,0.01238018,-0.01199109
1.019047,-0.1439895,0.1080939,0.04209889,0.0142682,-0.02019179
1.016791,-0.1402637,0.1077376,0.04082466,0.01150099,-0.02023146
1.014061,-0.1296274,0.111526,0.02352072,0.009974711,-0.01998468
1.013172,-0.1205822,0.1176934,0.005819124,0.01387809,-0.02040198
1.013129,-0.1203183,0.1165188,-0.01684808,0.01274761,-0.01875967
1.014661,-0.1215622,0.1172376,-0.03998295,0.01231717,-0.02084691
1.018107,-0.1211412,0.1245781,-0.05169313,0.01299395,-0.02218647
1.018952,-0.1249631,0.1247327,-0.04941566,0.01249989,-0.01981455
1.018425,-0.1358056,0.1256752,-0.04027719,0.0176985,-0.0170336
1.017608,-0.1443154,0.127705,-0.02773303,0.0199937,-0.01415352
1.014112,-0.1438751,0.1225155,-0.007374744,0.01340873,-0.01322396
1.014611,-0.1394887,0.1209904,0.01197932,0.006869883,-0.01495449
1.016608,-0.1356976,0.1213629,0.02451683,0.007786401,-0.01639013
1.014375,-0.1308608,0.1199687,0.02874088,0.009656741,-0.01378488
1.015159,-0.1261257,0.1213506,0.02404372,0.005157928,-0.009619929
1.014988,-0.1246008,0.1214351,0.02301715,0.0043861,-0.01058859
1.013165,-0.1211717,0.1234056,0.01635398,0.005836778,-0.01551226
1.016154,-0.1180778,0.1284808,0.001617472,0.002185182,-0.01491352
1.017453,-0.1199843,0.1304841,-0.005271749,0.001068423,-0.005851142
1.017047,-0.1222392,0.1324731,-0.01220919,0.003185081,-0.0008273432
1.01675,-0.1262811,0.1333311,-0.01246488,0.007189504,-0.005233355
1.015232,-0.1300536,0.1279634,-0.005891471,0.01097482,-0.007946459
1.015148,-0.1290654,0.1212144,-0.005664266,0.008249268,-0.003446463
1.014678,-0.1269437,0.1203826,0.0004671355,0.003168606,0.001003204
1.014972,-0.1263405,0.1257811,0.002362154,0.001671229,1.24383e-05
1.015532,-0.1283056,0.1294339,-0.002855174,0.001607507,-0.001197202
1.013167,-0.1307673,0.1276194,0.001170173,2.225576e-05,-0.002541902
1.011877,-0.1302552,0.1259946,0.001864032,-0.002765082,-0.005168134
1.012928,-0.1261298,0.1258944,-9.452824e-05,-0.004168814,-0.003456534
1.01445,-0.1212314,0.1256938,-0.003728379,0.001256547,-0.001405323
1.015708,-0.1203536,0.1273378,-0.01431983,0.008577772,0.0002864613
1.0153,-0.1239307,0.1285921,-0.01460304,0.007708394,0.003362953
1.014059,-0.1272561,0.1273995,-0.0108172,0.006465115,0.0007424205
1.014271,-0.1274365,0.1280073,-0.01059125,0.006680189,-0.004622137
1.016575,-0.1276931,0.1299518,-0.005133528,0.00125046,-0.00705653
1.018521,-0.1277983,0.130202,-0.002419597,-0.001458914,-0.005958313
1.016631,-0.1256643,0.1282531,0.0006064109,0.0006636743,-0.002154603
1.014055,-0.1245562,0.1246881,0.007122679,0.00101479,-0.001695228
1.015384,-0.1248959,0.1233704,0.008025267,0.001162442,-0.003793783
1.015864,-0.1253842,0.1223624,0.004068345,0.00130571,-0.003857691
1.014822,-0.1258818,0.1211903,-0.001277496,0.0002375615,-0.004560107
1.016468,-0.1266538,0.1229632,-4.146232e-05,-0.0003853677,-0.005897291
1.016862,-0.1276199,0.1229975,0.002696091,-0.0007678549,-0.004078091
1.015184,-0.127717,0.1251339,-0.0004282615,-0.001720239,-0.002539774
1.013368,-0.1277701,0.1292685,0.001673959,-0.002565,-0.005959178
1.012097,-0.1265247,0.1256327,0.002255311,-0.002890296,-0.008793212
1.014325,-0.1241197,0.1210735,-0.003559169,-0.002247536,-0.007877516
1.016183,-0.1230608,0.1185332,-0.006264531,0.001048375,-0.008217082
1.015299,-0.1225325,0.1145285,-0.00738414,0.005308935,-0.009965667
1.015763,-0.1226109,0.1150629,-0.005953043,0.00649094,-0.01142624
1.015906,-0.1240069,0.1181618,-0.003970685,0.006399731,-0.01192914
1.013277,-0.1262661,0.1200319,-0.00240753,0.006205079,-0.007855507
1.011204,-0.1260184,0.1215314,-0.001166146,0.003189189,-0.002005024
1.010905,-0.1230704,0.120892,-0.00453138,0.0009784441,-0.001880945
1.010039,-0.1224896,0.120392,-0.007477492,0.003396502,-0.003154506
1.011951,-0.1222851,0.1217332,-0.01405825,0.005541967,-0.001748542
1.016248,-0.1218177,0.1237936,-0.02216693,0.002983773,-0.003881397
1.015504,-0.1224531,0.1274322,-0.02289234,-0.0003185115,-0.005842487
1.013601,-0.1211541,0.1289024,-0.02435803,0.0009653358,-0.003028908
1.014882,-0.1215307,0.1271827,-0.02251497,0.004904637,0.001594967
1.017226,-0.12707,0.1285921,-0.01501062,0.005420088,0.005646469
1.020005,-0.1342993,0.132683,-0.007395484,0.000191605,-0.0002318983
1.017423,-0.135461,0.1338611,0.00278424,-0.006799135,-0.009365075
1.01331,-0.128476,0.1265472,0.005139327,-0.009524118,-0.00619052
1.015955,-0.1245431,0.1171037,0.001251759,-0.003245443,-0.001213153
1.017626,-0.1264741,0.1202359,0.003792764,0.004262085,-0.0006037486
1.016989,-0.1269837,0.1242809,0.004495305,0.0003382409,-0.000335473
1.018178,-0.1265774,0.121406,0.001645704,-0.003692079,-0.0024267
1.018713,-0.1291326,0.1260633,0.001516216,-0.002170447,-0.001603951
1.019886,-0.1329572,0.1293624,0.001436814,-0.004488686,-0.0006174749
1.019745,-0.1340896,0.1248134,0.00517417,-0.00065246,-0.005280066
1.018782,-0.1347277,0.1227497,0.01128779,0.005292153,-0.00821228
1.019611,-0.1349198,0.1216692,0.01065183,0.002027466,-0.006819382
1.017546,-0.1317305,0.1219568,0.008786794,0.001809053,-0.00353326
1.016021,-0.1279219,0.1220281,0.007172256,0.003626482,-0.001404696
1.017805,-0.1253465,0.1207038,0.002061981,0.002224112,-8.365054e-05
1.018351,-0.1259815,0.1220155,0.002853,0.001764585,0.002306687
1.018123,-0.1269639,0.1213991,0.005821945,-0.0003899643,0.003556532
1.017858,-0.1240152,0.1200334,0.003005856,-0.0009395762,0.007548047
1.017944,-0.1230241,0.1196523,0.001662697,0.002178015,0.008515709
1.017125,-0.123879,0.119815,-0.0007326546,0.002606211,0.002263791
1.015062,-0.1232915,0.1252373,-0.003736738,0.001738364,0.001072444
1.014234,-0.1228511,0.1295239,-0.003008185,0.002548532,0.001842215
1.013633,-0.1218582,0.1283044,-0.005302811,0.001211712,0.00260083
1.01398,-0.1220936,0.1288095,-0.005367008,-0.002322317,0.005477672
1.015227,-0.1225785,0.1303857,-0.00258098,-0.004482138,0.001810967
1.016376,-0.1219062,0.1256122,-0.004096834,-0.00272718,-0.001291913
1.018057,-0.1234336,0.1204464,-0.005180677,0.001847034,0.0007183219
1.018252,-0.1276254,0.1256568,-0.005964598,0.002469718,0.001073665
1.017936,-0.1313176,0.1302174,-0.002436419,0.002352034,0.001130648
1.018319,-0.1270996,0.1265451,0.003376139,0.005555902,0.001089432
1.018681,-0.1189433,0.1236809,-0.0004149478,0.005737926,0.001991675
1.018902,-0.119668,0.1184152,-0.002318716,0.004963851,0.004352742
1.017861,-0.1254899,0.1109115,0.003426962,0.004920549,0.006151477
1.017345,-0.1290445,0.111242,0.006602871,0.003714375,0.006919825
1.016669,-0.1276787,0.1171797,0.009702935,0.002731201,0.005960807
1.015105,-0.1220638,0.1218823,0.01227898,0.001468405,0.005097877
1.017658,-0.1205007,0.1218474,0.005272743,0.003222689,0.002464728
1.020167,-0.1234158,0.1210162,-0.007633672,0.00600711,-0.0005603544
1.015812,-0.1259707,0.124662,-0.01127986,0.005305002,0.001376344
1.012695,-0.1255446,0.1258257,-0.008950398,0.004957418,0.002616347
1.016899,-0.1237659,0.123094,-0.01402052,0.005311167,0.000688023
1.020421,-0.124873,0.1221087,-0.01939298,0.004577101,0.0005884888
1.019444,-0.1253247,0.1224468,-0.0186842,0.004036052,0.002367832
1.019089,-0.128898,0.1256572,-0.0129293,0.00437301,0.005074419
1.019217,-0.133867,0.1270435,-0.001334295,0.004953153,0.006660972
1.016658,-0.1288879,0.121983,0.005628143,0.005479362,0.004210422
1.014388,-0.1250074,0.1187341,0.001817817,0.006691216,0.001765924
1.015462,-0.1271102,0.1203081,-0.004302467,0.007933055,0.00354127
1.017565,-0.1271978,0.1252262,-0.006763022,0.007302459,0.006273716
1.018159,-0.1275956,0.1312495,-0.004436056,0.003456532,0.009112171
1.017289,-0.1262421,0.1342945,-0.0005238891,-0.0001337036,0.01055987
1.016422,-0.1240999,0.1347786,-0.001326321,0.0006425814,0.007116147
1.017434,-0.1252066,0.1278925,-0.00347814,0.002224026,0.005877703
1.018676,-0.126052,0.117764,-0.003267796,0.002705072,0.007397769
1.018114,-0.1257048,0.119592,-0.005287626,0.003527672,0.004610026
1.018719,-0.1262643,0.1241918,-0.004007105,0.002576317,0.002503188
1.019844,-0.129177,0.1238822,0.003392577,0.002111394,0.001938206
1.018288,-0.1316462,0.1289424,0.007692579,0.00386402,0.001156652
1.016698,-0.1302852,0.1291623,0.006798854,0.004666917,0.002027574
1.016508,-0.128176,0.1236871,0.004788536,0.00485776,-0.0006630854
1.016998,-0.127652,0.1263179,0.006347859,0.002382485,-0.003858917
1.018579,-0.1275612,0.1287348,0.007922941,0.0007424128,-0.002082694
1.019892,-0.1277209,0.1300411,0.00766084,0.004855859,0.002903262
1.019669,-0.1268373,0.1282011,0.006145996,0.005463553,0.008471599
1.019092,-0.1249651,0.1204714,-0.007312978,0.0004397032,0.006538152
1.019023,-0.1265858,0.1221582,-0.01954881,-0.003386583,0.003025104
1.016919,-0.1340451,0.1253001,-0.01108485,-0.0008332352,0.006557305
1.014201,-0.1413601,0.124067,-0.0003937604,0.003311805,0.007296872
1.014961,-0.1377407,0.125126,0.001127212,-0.0008356116,0.005630229
1.014814,-0.12771,0.1227813,0.004442254,-0.002547192,0.006937044
1.012285,-0.1242941,0.1232922,0.0005963261,0.0001451592,0.01068713
1.012186,-0.1252311,0.1244211,-0.0109999,-0.0002204143,0.01423909
1.012799,-0.1287628,0.1218977,-0.008376861,0.002193454,0.01113879
1.01253,-0.1321486,0.1237545,-0.005327651,0.001936293,0.008292258
1.013584,-0.1302182,0.1259401,-0.008286466,-0.0007661417,0.007321379
1.014942,-0.1301762,0.1285804,-0.0001896735,-0.001773908,0.005163678
1.014858,-0.1310964,0.1293406,0.002501482,-0.005261996,0.007769666
1.01447,-0.1301253,0.124051,0.004887384,-0.005212616,0.006520659
1.015673,-0.1302639,0.1210347,0.0126883,-0.003959096,0.004509914
1.017508,-0.1278148,0.121834,0.008807016,-0.00588764,0.007211442
1.018251,-0.1260139,0.1225978,0.008419919,-0.007295398,0.005831693
1.018281,-0.1293013,0.1202594,0.0083398,-0.009116811,0.009233204
1.017885,-0.1340855,0.1193221,0.00470148,-0.008050462,0.01220299
1.018149,-0.1367718,0.1244038,0.01001524,-0.004813933,0.007444432
1.019012,-0.1367867,0.1271505,0.01060962,-0.003269467,0.005116589
1.018442,-0.133579,0.123885,0.00732901,-0.002057652,0.001225491
1.017034,-0.1292441,0.1199489,0.002363045,-0.006024273,-0.002147138
1.016209,-0.1326731,0.1211467,-0.004142498,-0.01049589,-0.003693835
1.016663,-0.1370499,0.1225729,-0.001086085,-0.003466276,-0.005410956
1.016808,-0.1337836,0.1198837,-0.000805456,0.003325952,-0.004542262
1.015452,-0.1324497,0.1210948,-0.008431742,0.0007149229,-0.009701762
1.01512,-0.129504,0.1232619,-0.01626543,0.003149868,-0.01397318
1.015293,-0.1242107,0.1234768,-0.0264872,0.009303538,-0.01148786
1.01523,-0.1263151,0.1242458,-0.03545081,0.007030694,-0.01145211
1.015418,-0.1280159,0.1232918,-0.03506263,0.002965996,-0.00886562
1.015116,-0.1281538,0.1245197,-0.0303647,0.001066934,-0.004820162
1.015359,-0.1321745,0.1258558,-0.03108014,-0.001280471,-0.003783701
1.015328,-0.1338276,0.1254572,-0.02473266,-0.001471018,-0.0002657516
1.014767,-0.1349929,0.1266746,-0.007323355,-0.002435161,0.004272618
1.013672,-0.1383701,0.1252417,0.01318,-0.004231868,0.007594997
1.012009,-0.139121,0.1225994,0.04041057,-0.003820611,0.01072011
1.013556,-0.1379631,0.1225982,0.05311877,-0.004051172,0.01040905
1.016803,-0.1332065,0.125612,0.0447902,-0.003153283,0.004645289
1.018763,-0.1266208,0.1281512,0.03482129,-6.956769e-05,0.001522157
1.020047,-0.1260863,0.1226544,0.01977377,0.001366122,0.00628053
1.019499,-0.1271615,0.1172673,0.01425716,-0.002309678,0.01154887
1.019427,-0.1275382,0.1212309,0.01839587,-0.007729838,0.01298985
1.021539,-0.1317478,0.1234008,0.007329272,-0.006048414,0.01362277
1.022158,-0.1346642,0.1188184,-0.002220323,-0.001937637,0.01366994
1.019635,-0.1333402,0.1169827,-0.006448231,0.0003030581,0.008676313
1.017189,-0.13365,0.1180302,-0.01145457,0.004366496,0.001972542
1.018694,-0.1389165,0.1163718,-0.005257476,0.006584169,-0.003302811
1.02028,-0.14523,0.1143932,0.0002686582,0.005170821,-0.01040432
1.018178,-0.1460897,0.115135,0.007802956,0.001055191,-0.01262628
1.017372,-0.1392922,0.1197426,0.01773304,-0.0004462124,-0.01351845
1.01735,-0.1309203,0.1281404,0.01488198,0.003071294,-0.01689698
1.014974,-0.1291053,0.1329161,0.0117136,0.00421845,-0.01109858
1.013126,-0.131241,0.1295476,0.008928597,0.004193735,-0.007172544
1.012859,-0.1316876,0.1276715,0.0108323,0.006166467,-0.01321225
1.015823,-0.1316624,0.1298054,0.01859987,0.00971223,-0.01721215
1.019559,-0.1311372,0.1273141,0.01231293,0.01208212,-0.01839462
1.017907,-0.1290956,0.1261461,0.008888103,0.01152517,-0.01658279
1.014668,-0.1277994,0.13138,0.01015698,0.01319102,-0.01470044
1.011792,-0.1277884,0.1344565,0.003461429,0.01217766,-0.01615632
1.008351,-0.1271195,0.1328226,0.002806354,0.005038426,-0.01528593
1.010085,-0.1246161,0.1304949,-0.00166573,-0.0003991169,-0.01275243
1.014701,-0.1202061,0.1298071,-0.01270395,-0.000664282,-0.009592016
1.017412,-0.1188402,0.126535,-0.02050018,0.001786608,-0.005787414
1.018202,-0.1238279,0.1226484,-0.02665354,0.002537505,-0.0005847814
1.013243,-0.1281559,0.1234181,-0.02426959,0.00447613,0.005191238
1.008265,-0.1282367,0.1238709,-0.02119492,0.006576674,0.003106155
1.009666,-0.1275365,0.1282383,-0.02174023,0.004518201,0.001284809
1.011484,-0.1287388,0.1323761,-0.01222437,-0.0001505088,0.008400403
1.015599,-0.1333826,0.1249526,0.006312919,-0.008116979,0.01076624
1.021475,-0.1375903,0.1196911,0.02230178,-0.008938302,0.006363991
1.019687,-0.134947,0.1209972,0.0227,-0.004176728,0.003637374
1.015251,-0.126089,0.1202325,0.006736157,-0.005494169,0.003679813
1.015203,-0.1199187,0.1182842,-0.01016034,-0.002362542,0.006244803
1.015243,-0.1218781,0.1161231,-0.0150061,-0.0008815007,0.007725309
1.015455,-0.1264611,0.1187718,-0.004050009,-0.004469502,0.008909233
1.017435,-0.1303915,0.124413,0.007452195,0.001696591,0.009625942
1.017937,-0.1347107,0.1264343,0.008490342,0.006385769,0.00471294
1.016521,-0.1340226,0.1286666,0.0102569,0.006086579,-0.0007201365
1.014559,-0.1299826,0.1305985,0.01057034,0.006931942,-0.001186604
1.014896,-0.1304813,0.1274971,0.006580547,0.006057771,0.0009023326
1.016078,-0.1299495,0.1240202,0.007476532,0.006653993,0.002811492
1.014927,-0.1287651,0.128917,0.009394313,0.001170437,0.005217056
1.016154,-0.1324502,0.1364635,0.01035655,-0.005097289,0.00721469
1.017565,-0.13399,0.1365545,0.009089796,0.0004509067,0.006646533
1.016922,-0.1332285,0.1343422,0.004685237,0.004697036,0.006937566
1.01762,-0.1323201,0.1319382,0.0063034,0.003108249,0.00640781
1.016533,-0.1312664,0.1290777,0.01015391,0.002804966,0.003528842
1.016164,-0.1312382,0.1288761,0.009881519,0.003196938,0.0005297189
1.017066,-0.1292051,0.1276276,0.008174159,0.002037327,-0.00190443
1.014922,-0.1285674,0.1269831,0.006312773,-0.0001875994,0.001311382
1.012327,-0.1286354,0.1276899,0.006173054,-0.001802206,0.003761691
1.010922,-0.1266919,0.1267708,0.005776694,-0.002234295,0.0002432178
1.013426,-0.1250193,0.1279829,0.002660147,-0.0006375846,-0.002703755
1.016808,-0.1220054,0.1294726,-0.00374253,-0.0003768449,-0.005988466
1.015172,-0.1216617,0.1297543,-0.01205571,-0.001675013,-0.005569598
1.014441,-0.1237754,0.1311139,-0.01904844,-0.003319749,-0.0006296816
1.014851,-0.1236404,0.1306465,-0.02258022,-0.005960108,0.001506594
1.012648,-0.1245199,0.1295752,-0.01751605,-0.005467673,0.002321346
1.012885,-0.1280831,0.1281046,-0.01151482,-0.004797447,0.005252927
1.014747,-0.1318469,0.1245284,-0.01311675,-0.003285875,0.01032333
1.014729,-0.1312082,0.123931,-0.0104012,-0.0002041532,0.01119411
1.015303,-0.1299358,0.1243464,-0.003147008,-0.002877555,0.0102527
1.015449,-0.1338189,0.123302,0.002255749,-0.005608832,0.01364265
1.01407,-0.135734,0.1268244,0.0110473,-0.00713021,0.0135526
1.013876,-0.1331785,0.1312154,0.0155848,-0.01154127,0.01356363
1.014799,-0.1278771,0.1309314,0.006695215,-0.01428788,0.01662713
1.015742,-0.1204919,0.1258527,-0.006517239,-0.01316474,0.01653092
1.016319,-0.1195976,0.1184904,-0.01643572,-0.01011356,0.01655954
1.016655,-0.1241328,0.1194337,-0.02761602,-0.01109134,0.01315316
1.016932,-0.126145,0.1223892,-0.03715588,-0.01128422,0.008175657
1.01668,-0.1298621,0.1159833,-0.03689516,-0.006861005,0.006678012
1.01749,-0.1377979,0.1130489,-0.03362799,-0.005421116,0.002602556
1.01837,-0.1448005,0.1162077,-0.02539046,-0.005058709,0.002144474
1.016881,-0.1456181,0.119971,-0.004068253,-0.007184009,0.007201836
1.015374,-0.1410897,0.1260877,0.01365892,-0.01018955,0.009490403
1.015248,-0.138206,0.1266121,0.01801485,-0.009299304,0.009187949
1.016331,-0.1363161,0.1222849,0.01952807,-0.01210361,0.005942442
1.017808,-0.1356953,0.1200486,0.01908059,-0.01424277,0.002912675
1.017228,-0.1394644,0.1201744,0.01472194,-0.008947033,0.003875484
1.015434,-0.1405252,0.1216008,0.01496043,-0.002914874,0.004067026
1.015036,-0.137274,0.1196159,0.01963126,-0.002503841,0.001750941
1.017016,-0.1336749,0.1187295,0.01930623,-0.005317761,0.0001323083
1.020645,-0.1304307,0.1205139,0.01281532,-0.00558113,0.0002241563
1.022321,-0.1289837,0.1214659,0.003895349,-0.006622614,0.000150424
1.018105,-0.1294129,0.1264667,0.001693501,-0.006785141,-0.002671812
1.013186,-0.1313506,0.1284146,0.003293014,-0.003600569,-0.006750631
1.01509,-0.1313534,0.1228792,0.0007963697,-0.000704605,-0.009181874
1.016505,-0.1323706,0.1193049,0.005632617,0.005506325,-0.01362818
1.014121,-0.1355955,0.1212049,0.008544872,0.00881796,-0.0202684
1.014583,-0.1312315,0.1263152,0.001462441,0.003208509,-0.02248658
1.014421,-0.1274804,0.1313682,-1.209671e-05,-0.001627019,-0.01911697
1.015081,-0.1320052,0.1336834,-0.0004299413,-0.002146204,-0.01496885
1.018624,-0.1355278,0.1274681,-0.0008656945,-0.00309866,-0.01587542
1.017606,-0.1368634,0.120554,0.0007965846,-0.004066281,-0.01727073
1.016896,-0.1371283,0.1251307,-0.0005393455,0.0001549081,-0.014135
1.019612,-0.1373509,0.1283775,-7.306498e-05,0.004467748,-0.01414354
1.019232,-0.1379378,0.1267355,0.0005230814,0.002081791,-0.01510458
1.016576,-0.1371873,0.126605,0.005858899,-0.005553913,-0.01006922
1.014835,-0.1375286,0.1235565,0.01526967,-0.01692236,-0.0012123
1.016764,-0.1371516,0.1209442,0.01693655,-0.02216431,0.006740035
1.019259,-0.1345724,0.1192579,0.01971704,-0.02078911,0.006041616
1.017868,-0.1312695,0.1189169,0.02351599,-0.0217694,0.001888563
1.017617,-0.1247331,0.123787,0.01301136,-0.01869083,0.005414752
1.018738,-0.115262,0.1278818,-0.006450264,-0.01516863,0.01570282
1.018696,-0.1118994,0.1298067,-0.018521,-0.01770231,0.02719812
1.020036,-0.1184444,0.12887,-0.02151469,-0.0164635,0.02739902
1.021542,-0.1228008,0.1261045,-0.02427372,-0.0127059,0.02031492
1.021991,-0.1233068,0.1261022,-0.0270536,-0.009648174,0.0164738
1.020332,-0.1281736,0.1230482,-0.02677283,-0.003589385,0.003296914
1.015851,-0.1315624,0.1206944,-0.02485582,0.0003088455,-0.004761647
1.014241,-0.1320125,0.122734,-0.0187276,-0.0004155014,0.003158115
1.015316,-0.1322938,0.1196601,-0.009601862,-0.001194601,0.0006903526
1.013563,-0.1305565,0.1148828,-0.006439938,-0.0006263438,-0.004374533
1.012286,-0.1310738,0.1138733,-0.005244626,-0.001065241,-0.003151475
1.01512,-0.1343356,0.1170161,-0.001997689,-0.001787405,-0.004607803
1.017654,-0.138026,0.1211524,-0.002709338,-0.001106133,-0.001741511
1.015902,-0.142137,0.117507,0.002582034,-0.001725122,0.0005148163
1.014484,-0.144756,0.1114026,0.01017286,-0.003191837,0.002406397
1.016947,-0.1433303,0.1089411,0.006319302,-0.005819491,0.004768992
1.018874,-0.1378751,0.1090749,0.004611526,-0.0100716,0.006291963
1.01915,-0.1352051,0.1119473,0.005329345,-0.0125777,0.01431089
1.017144,-0.1342255,0.1136868,0.005706574,-0.0126613,0.01728258
1.014692,-0.1329356,0.1175408,0.0108304,-0.009680443,0.01683892
1.01872,-0.1358242,0.1213718,0.009018751,-0.007658452,0.01259869
1.022713,-0.1358186,0.1191715,0.006909502,-0.007209929,0.0005536333
1.020424,-0.134072,0.1196288,0.01029053,-0.001843643,0.00198861
1.0193,-0.1335713,0.120973,0.01294865,0.003468505,0.004030796
1.019617,-0.1297595,0.1182178,0.01955443,0.002861332,0.0003474938
1.01823,-0.12983,0.1166055,0.02069116,0.0004688731,0.006497818
1.017482,-0.1296148,0.1156222,0.01561216,-0.002004919,0.005792887
1.016347,-0.1264106,0.1181919,0.01191138,-0.005616364,0.00358026
1.014691,-0.1284029,0.1217687,0.003412469,-0.004279071,0.00690102
1.015826,-0.1299441,0.1165364,-0.002395959,0.001757293,0.002475719
1.019238,-0.1305684,0.1114707,-0.004689945,0.003244967,0.0006573745
1.021699,-0.131182,0.1141802,-0.01071211,0.002335831,0.0005998777
1.020711,-0.1304615,0.1156663,-0.01300309,0.0005578171,-0.00249883
1.017472,-0.133833,0.1171052,-0.01162321,-0.0004417212,6.782798e-05
1.016109,-0.1374955,0.120741,-0.00816332,0.001510954,0.0007757743
1.016576,-0.137985,0.1182682,-0.003397872,0.0004693923,-0.001825521
1.017033,-0.137454,0.116325,-0.002501885,0.002684665,-0.00200344
1.01758,-0.1371922,0.1193926,-0.002509052,0.005206546,-0.003760855
1.018325,-0.1378277,0.1173648,-0.004766474,0.001131879,-0.002748616
1.019219,-0.1373807,0.1146043,-0.008830634,0.002132553,0.0005340241
1.019492,-0.137376,0.1146123,-0.008559145,0.00301023,-0.001564987
1.019699,-0.1377621,0.1156009,-0.007645146,0.0003478965,-0.002789943
1.020366,-0.1372481,0.1195459,-0.006189686,0.001990077,-0.002668758
1.020052,-0.1379878,0.1185102,0.0001614032,0.00324373,-0.006780023
1.016649,-0.139311,0.1170388,0.006662372,0.005786996,-0.01000215
1.012254,-0.1406811,0.1209941,0.007546767,0.007898698,-0.009838933
1.013366,-0.1399609,0.1206616,0.008373255,0.006350395,-0.008908524
1.01552,-0.1361425,0.1188596,0.009730199,0.008066516,-0.01062976
1.014854,-0.1338963,0.1178752,0.001320116,0.009314062,-0.01126953
1.01721,-0.1342311,0.1173263,-0.006262664,0.008348579,-0.005553668
1.017453,-0.1341545,0.11856,-0.002191361,0.008789002,-0.001809784
1.015573,-0.1320741,0.115901,0.0002346788,0.008636712,-0.002199696
1.017466,-0.1319588,0.1141134,-0.001986505,0.009351363,-0.00356267
1.017799,-0.1365787,0.113923,-0.002818922,0.01193383,-0.007553795
1.0187,-0.1411409,0.1117211,-0.002979546,0.01464474,-0.01072627
1.020432,-0.14217,0.1124389,-0.00222402,0.01451458,-0.01144021
1.018775,-0.1384787,0.1137623,0.0001226146,0.01263238,-0.009748005
1.018316,-0.1343621,0.1166497,0.002505816,0.01222371,-0.006805472
1.01727,-0.1344773,0.1215128,0.002514077,0.01033105,-0.003880144
1.016028,-0.1351995,0.1217039,0.003743412,0.009731008,-0.002278008
1.01796,-0.1364832,0.1200042,0.006497833,0.01041686,-0.004266461
1.018176,-0.1381202,0.1215149,0.003489149,0.007709159,-0.004612612
1.01701,-0.1379108,0.1258091,0.0009036647,0.007563043,-0.006031553
1.016483,-0.1390465,0.1273922,0.004394409,0.0104087,-0.009671442
1.016454,-0.1405741,0.1254233,0.005947434,0.0123273,-0.007515286
1.016454,-0.1383986,0.1264828,0.006784879,0.01241211,-0.006282068
1.013814,-0.1337713,0.1269027,0.009080278,0.009378227,-0.008023043
1.012163,-0.1297171,0.1246484,0.007882814,0.006744573,-0.006848286
1.015068,-0.1271389,0.1249836,0.005068767,0.003562725,-0.003072525
1.017878,-0.1288759,0.1241593,0.00286015,0.001247903,-0.001071368
1.016826,-0.1321633,0.1228042,0.0008000216,0.003049771,-0.007488074
1.015725,-0.1303168,0.1231161,-0.001054722,0.004001162,-0.01213607
1.016334,-0.1296386,0.1221298,-0.001959799,0.007118509,-0.009189771
1.014969,-0.1305898,0.1238719,-0.00217418,0.01181119,-0.008517796
1.014795,-0.1288779,0.125964,-0.004870461,0.01107727,-0.006549841
1.01597,-0.1317426,0.1249774,-0.005697246,0.01020373,-0.003401727
1.014321,-0.1344066,0.1267994,-0.002930666,0.01106811,-0.006290563
1.012589,-0.1312363,0.1321826,-0.003370451,0.009100693,-0.009304279
1.010981,-0.1297397,0.1353489,-0.00314572,0.006342712,-0.007518068
1.012331,-0.1311749,0.1290732,-0.001111789,0.003531706,-0.00647011
1.016438,-0.1335363,0.119831,-0.001398915,-0.000472665,-0.007413122
1.016089,-0.1351335,0.1191291,0.002116102,0.0001917361,-0.00588568
1.015481,-0.1339326,0.1216146,0.006265805,0.004295303,-0.004474347
1.015711,-0.1317871,0.1242784,0.004901065,0.005273378,-0.003712766
1.014591,-0.1315999,0.1277102,0.003175068,0.006832189,-0.002936304
1.015652,-0.1323152,0.1268958,0.001788646,0.00634883,-0.004311387
1.015402,-0.1317407,0.126345,0.002625297,0.003505606,-0.003021842
1.014821,-0.1317461,0.1284963,0.00524487,0.004622126,-0.002486103
1.01541,-0.1312485,0.1269758,0.004320529,0.00509508,-0.007492965
1.01321,-0.1296637,0.125499,0.003329388,0.005155151,-0.01117748
1.012657,-0.1288662,0.1268663,0.0009739916,0.003337029,-0.01208637
1.016099,-0.1273749,0.126359,-0.002648401,0.0001474547,-0.01020306
1.019419,-0.1277334,0.1261531,-0.0007437487,0.0009274646,-0.005836352
1.019429,-0.1304796,0.1259777,0.0007288506,-0.002472462,-0.004760245
1.0187,-0.1327799,0.1225874,-0.00161389,-0.002689947,-0.006288059
1.019596,-0.1347565,0.1198325,-0.002016636,0.002155923,-0.006928539
1.01669,-0.1337822,0.1213407,-0.0004824042,-0.0001371183,-0.008529609
1.014148,-0.1305704,0.1260062,0.001868795,0.0008401175,-0.009014359
1.016515,-0.1286807,0.1286969,0.002717063,-0.0001054377,-0.006110711
1.017118,-0.1289745,0.127149,0.0001665339,-0.00568974,-0.004855777
1.016329,-0.1314713,0.1255764,0.0001937145,-0.001735576,-0.004441816
1.015754,-0.1328654,0.1253488,0.00258091,-0.0003356701,-0.003286796
1.014994,-0.1329888,0.1215027,0.002692558,-0.002118078,-0.003788323
1.015289,-0.1326155,0.1159705,0.005340085,0.001514396,-0.002807692
1.015495,-0.1296174,0.1175152,0.005713291,0.002962633,-0.002788656
1.016184,-0.1285114,0.1199163,-0.0007375245,0.002208985,-0.005107931
1.016908,-0.1304823,0.1197075,-0.002585021,-4.309497e-05,-0.004304145
1.01658,-0.1307734,0.1259251,-0.0005708834,-0.002837512,-0.003040079
1.015652,-0.1305307,0.1299609,0.0004434977,-0.004167579,-0.002573056
1.014981,-0.1298209,0.1274865,0.001652168,-0.003791974,-0.001175328
1.015853,-0.1263814,0.1294097,0.0008660017,-0.001272271,-0.001134966
1.018017,-0.1213795,0.1325186,0.0005732339,-0.0007351272,-0.001977362
1.020207,-0.119617,0.1306937,-0.000979935,-0.0008268278,-0.002956126
1.018915,-0.1226561,0.1245402,-0.004447268,-0.0002412227,-0.004211834
1.014303,-0.1249101,0.1185554,-0.006288906,0.001130214,-0.004657486
1.011865,-0.1270025,0.1193519,-0.008111589,0.003084202,-0.004121811
1.013817,-0.1298988,0.1215835,-0.006221498,-0.0008432706,-0.002937327
1.016541,-0.1306055,0.1208066,-0.002063924,-0.004596874,-0.001514817
1.015489,-0.1327541,0.1238677,0.00207065,-0.001572844,-0.002601791
1.015377,-0.1332509,0.1284796,0.007351176,0.0008887717,-0.007068589
1.017522,-0.1287089,0.1298081,0.003474899,0.001677204,-0.009815431
1.015611,-0.1253857,0.1306645,-0.008450061,0.001941127,-0.007953273
1.014727,-0.1232223,0.1284452,-0.01641641,0.0001783074,-0.001964227
1.016683,-0.1230122,0.1240431,-0.01582281,0.002249244,0.00301586
1.01618,-0.1269591,0.1233519,-0.009564623,0.00788254,0.002188151
1.014093,-0.130457,0.1253553,-0.004621365,0.009006069,0.001606542
1.011797,-0.1325018,0.1272237,0.0009878834,0.009622831,0.001601158
1.013142,-0.131724,0.1266679,0.003932376,0.009988859,-0.0007553426
1.015924,-0.1294995,0.126162,0.0053616,0.00541345,-0.001281718
1.0151,-0.1317246,0.1258892,0.01169838,0.00417708,-0.0007713297
1.015185,-0.1318728,0.1221924,0.009852987,0.008635329,-0.0002823026
1.015556,-0.1265994,0.1202323,0.007235653,0.01360941,-0.001237409
1.014769,-0.1225597,0.1195195,0.01088385,0.01238717,-0.003641847
1.014804,-0.1201398,0.1176394,0.006338617,0.00659729,-0.003296218
1.014975,-0.119453,0.1185176,0.0005699443,0.006848344,-0.001069126
1.018025,-0.1206375,0.1190014,-0.00169718,0.007012885,0.001890707
1.020238,-0.1244892,0.1193037,0.00137371,0.005079367,0.001256268
1.016578,-0.1298788,0.1213198,0.004916806,0.00491309,-0.002741173
1.014195,-0.1312997,0.1251607,-0.001936195,0.004578688,-0.003032849
1.016482,-0.130134,0.1297451,-0.00690584,0.008972086,-0.003000845
1.018282,-0.1275628,0.1230982,-0.01253082,0.0126984,-0.003101062
1.017684,-0.1255495,0.1146224,-0.0188576,0.01227264,-0.002045863
1.017233,-0.1786328,0.07394167,0.05639481,0.01858075,-0.1125329
1.02078,-0.1801883,0.07420338,0.06421742,0.01412746,-0.1137051
1.022015,-0.1746056,0.07146581,0.06496385,0.015253,-0.1149292
1.013923,-0.1673363,0.07407508,0.06006233,0.01618864,-0.1190515
1.006968,-0.1617834,0.07258863,0.04896006,0.005095618,-0.1071802
1.009698,-0.1625424,0.070898,0.0387803,-0.006359265,-0.0887724
1.01524,-0.1691944,0.07349093,0.03312054,-0.002898456,-0.09352988
1.015195,-0.1740253,0.07356373,0.03154106,0.001508259,-0.09709736
1.015721,-0.1743972,0.07349235,0.034721,-0.0001813644,-0.09283408
1.01637,-0.1731687,0.07328736,0.03331216,-0.007658012,-0.09764772
1.016065,-0.1741293,0.07300456,0.03060716,-0.01784767,-0.09361844
1.016639,-0.1776702,0.0739238,0.03060365,-0.01643334,-0.08806421
1.014601,-0.1783032,0.07172931,0.02918194,-0.01258416,-0.09165496
1.016348,-0.171557,0.06966766,0.02733168,-0.01663751,-0.08919949
1.019555,-0.165456,0.06976488,0.02163969,-0.01709402,-0.08455567
1.01886,-0.1751972,0.06586934,0.01670108,-0.01862954,-0.0808291
1.018163,-0.1889846,0.06050597,0.01874303,-0.02299647,-0.07852497
1.016187,-0.1887571,0.06022309,0.02501047,-0.01521835,-0.07974697
1.018057,-0.1896414,0.06695217,0.03743506,-0.004255281,-0.07779069
1.02006,-0.1932046,0.07516997,0.05244739,-0.001951591,-0.07806432
1.014386,-0.190669,0.07656519,0.05760522,-0.005181698,-0.07987649
1.011006,-0.1927862,0.07724556,0.05500155,-0.01100028,-0.07733236
1.012932,-0.1940368,0.0775815,0.05735446,-0.01024585,-0.07886776
1.015973,-0.1920609,0.06821178,0.06144259,-0.006778691,-0.08219495
1.018142,-0.193718,0.05900912,0.0646365,-0.002812331,-0.08252097
1.018342,-0.1927059,0.05962203,0.07088536,0.004629038,-0.08188966
1.018079,-0.1913406,0.06567193,0.07191059,0.001507614,-0.07902912
1.01777,-0.1892636,0.06997103,0.06740848,-0.003408948,-0.07789097
1.018301,-0.1860231,0.06686846,0.06355728,-0.001251702,-0.07832987
1.018242,-0.1884372,0.06087734,0.06206245,-0.001328328,-0.08008383
1.018684,-0.1915711,0.05716938,0.06582259,0.002915129,-0.08345742
1.020084,-0.1930151,0.05792269,0.06856084,0.008316123,-0.08104616
1.018384,-0.1909982,0.06242226,0.06653051,0.009417551,-0.07845439
1.014829,-0.1862429,0.06367596,0.0655756,0.006712506,-0.07722106
1.011403,-0.1877694,0.06321378,0.06838883,-0.001715958,-0.07198738
1.012424,-0.1911965,0.06349733,0.07438038,-0.003726403,-0.07177727
1.01729,-0.1924869,0.06404707,0.07943482,-0.00064704,-0.07267514
1.018205,-0.1928622,0.06721367,0.07855877,-0.0008592797,-0.06976256
1.016459,-0.1895696,0.06845147,0.07392638,-8.166371e-05,-0.07049102
1.014947,-0.1869822,0.0671571,0.06932112,1.063886e-05,-0.07104773
1.016607,-0.1859538,0.06658183,0.06163557,0.003119552,-0.07117832
1.018771,-0.1846871,0.06738985,0.0543987,0.01063015,-0.07356207
1.013954,-0.1826761,0.06974832,0.05059641,0.01372381,-0.07606596
1.010055,-0.1763296,0.0690398,0.04324706,0.01258466,-0.07900683
1.011657,-0.1729172,0.06612316,0.03436276,0.01211171,-0.07937261
1.014517,-0.1745524,0.06304233,0.02550838,0.01340651,-0.0788887
1.018752,-0.1760353,0.06182138,0.02152319,0.01224344,-0.07771448
1.019932,-0.1823052,0.06685568,0.02678668,0.008588772,-0.07555027
1.016553,-0.1871497,0.07191698,0.02815507,0.00696195,-0.07960472
1.013654,-0.1852863,0.07085221,0.02724309,0.008161331,-0.08230515
1.012528,-0.1855794,0.06439632,0.03027963,0.01111827,-0.07926277
1.011806,-0.1855567,0.06127168,0.03017167,0.01053159,-0.07767994
1.014756,-0.1820944,0.06476678,0.0248777,0.009359218,-0.07492864
1.020137,-0.1805526,0.0668255,0.01762025,0.009508902,-0.07444555
1.018005,-0.1815802,0.07210393,0.01646109,0.001821324,-0.07778515
1.013823,-0.183121,0.07546833,0.01918456,-0.007867811,-0.07809744
1.015126,-0.1837155,0.06967167,0.02325619,-0.01023901,-0.07546334
1.017836,-0.1829035,0.06253594,0.02893014,-0.003556602,-0.0724935
1.021705,-0.1817467,0.05354644,0.02438842,0.0050787,-0.07454452
1.019222,-0.1823328,0.05735154,0.01657497,0.001344288,-0.07852236
1.01406,-0.1853871,0.06774847,0.01530668,-0.001254499,-0.07872889
1.017378,-0.1872163,0.06222014,0.01804163,0.008500016,-0.0809736
1.017444,-0.1858464,0.066077,0.02346066,0.01579853,-0.08378983
1.015407,-0.185867,0.07487659,0.01946841,0.02063137,-0.08326111
1.017433,-0.187043,0.06716266,0.01421342,0.02543629,-0.08230362
1.015303,-0.1847742,0.06406681,0.01874429,0.02913412,-0.08084765
1.013101,-0.1822093,0.06518642,0.01889799,0.02912174,-0.07702899
1.010711,-0.1809768,0.067273,0.01872987,0.01620112,-0.06966444
1.007664,-0.1784083,0.07319018,0.02125826,0.002754614,-0.05742716
1.010354,-0.1759101,0.07132341,0.02436813,-0.003279939,-0.04249561
1.012302,-0.1751686,0.07241766,0.03651083,-0.008090735,-0.03193671
1.012252,-0.1751166,0.08063379,0.04403335,-0.009344175,-0.02591223
1.0132,-0.1740066,0.08283012,0.04009981,-0.01110419,-0.02375627
1.013823,-0.1713555,0.07931897,0.03329623,-0.01091178,-0.03010217
1.017639,-0.1676328,0.07669856,0.02084004,-0.007782462,-0.03569972
1.020419,-0.1677412,0.07957451,0.007445524,-0.007688333,-0.03177861
1.016695,-0.1733439,0.08189592,0.0006746283,-0.006112033,-0.02733613
1.013848,-0.1779952,0.07965992,0.003393751,-0.006323448,-0.02732458
1.015473,-0.1802777,0.07951128,0.01208673,-0.006671995,-0.02620162
1.015787,-0.1782078,0.08158707,0.01735056,-0.0001839303,-0.02576309
1.015476,-0.171752,0.08282275,0.02151331,0.00530904,-0.03103417
1.019029,-0.1670495,0.0803234,0.0250842,0.004928774,-0.03624799
1.02225,-0.1651356,0.07633333,0.02414402,0.003494151,-0.03798999
1.021872,-0.1659769,0.07720142,0.01912912,0.004309069,-0.03884984
1.021173,-0.1673782,0.0799285,0.01000376,0.00170171,-0.03752055
1.019101,-0.1700617,0.08210891,0.0067985,-0.003007033,-0.03398463
1.015625,-0.1732211,0.07998651,0.01469649,-0.003695939,-0.03341305
1.016931,-0.17181,0.07384693,0.02115578,-0.006302184,-0.03588374
1.019466,-0.1713617,0.07423501,0.020432,-0.009620224,-0.03438794
1.017387,-0.1692357,0.07417965,0.02228563,-0.01081685,-0.0327512
1.01659,-0.1648504,0.07091006,0.02699969,-0.009948619,-0.03439865
1.016247,-0.1667651,0.07346367,0.02052604,-0.002621149,-0.0345508
1.014136,-0.1673799,0.07426088,0.01064101,0.001729884,-0.03492897
1.014646,-0.1665022,0.07346872,0.008100925,-0.003531144,-0.03228469
1.014498,-0.1698865,0.07571293,0.002542706,-0.007999945,-0.02659467
1.015876,-0.1724907,0.07690995,-0.002025203,-0.006656502,-0.02461167
1.018847,-0.1725371,0.07760427,-0.0008616901,-0.006495564,-0.02442122
1.014516,-0.170941,0.07764453,0.0009088614,-0.01023532,-0.0249527
1.010624,-0.1712684,0.07670416,0.003826452,-0.01069411,-0.02542713
1.013694,-0.174605,0.07162226,0.003199862,-0.008472083,-0.02493086
1.017494,-0.177137,0.06614254,0.001481645,-0.008286234,-0.02347743
1.020298,-0.1760652,0.06949265,0.002089772,-0.008725537,-0.01885239
1.019584,-0.1738193,0.07351729,-0.0001279781,-0.009111397,-0.01438458
1.015889,-0.1756294,0.07472534,-0.0001435208,-0.01054422,-0.01423909
1.014732,-0.1772897,0.07872598,0.006469611,-0.01321679,-0.01562247
1.015647,-0.17758,0.07897893,0.0139904,-0.01378889,-0.01320118
1.017512,-0.1783307,0.07636071,0.01559516,-0.0134537,-0.009632297
1.020425,-0.1763777,0.07805301,0.01434836,-0.01248984,-0.009632283
1.021474,-0.1760434,0.0774306,0.01564829,-0.008709241,-0.01387043
1.0207,-0.1769817,0.07499601,0.01309196,-0.00892074,-0.02379713
1.02067,-0.1770605,0.0760795,0.01100786,-0.009698516,-0.02860183
1.020987,-0.1792139,0.07500443,0.01543452,-0.006270778,-0.02407268
1.020641,-0.1791464,0.07544093,0.01825156,-0.004821569,-0.02298577
1.019138,-0.1767347,0.07926707,0.02130975,-0.004731151,-0.02225783
1.015513,-0.1740936,0.08191859,0.02065501,-0.008921808,-0.01915353
1.011774,-0.1717931,0.08515098,0.01456932,-0.01587224,-0.01809128
1.012486,-0.1722507,0.083277,0.01588847,-0.01592063,-0.0129083
1.01626,-0.1725045,0.07827315,0.01673726,-0.01346472,-0.00735023
1.018942,-0.172933,0.07494519,0.01471027,-0.0133382,-0.01006087
1.02019,-0.1741003,0.07042557,0.01642127,-0.01251595,-0.01535179
1.018856,-0.173536,0.07170776,0.01460364,-0.008762241,-0.01783608
1.016317,-0.1734894,0.07339001,0.01356699,-0.004356168,-0.02062267
1.015483,-0.1732103,0.06926198,0.01436835,-0.005491746,-0.02193978
1.017419,-0.1706688,0.06967752,0.01395513,-0.007976023,-0.01982386
1.020064,-0.1679556,0.07245207,0.01482788,-0.008261308,-0.01888245
1.016195,-0.16886,0.07329959,0.01161623,-0.01460281,-0.01593769
1.012085,-0.1732977,0.07026401,0.006424988,-0.02067164,-0.01194821
1.016444,-0.1763878,0.063371,0.002025661,-0.0141569,-0.01439692
1.019837,-0.1777042,0.06331747,-0.001623355,-0.0047981,-0.01867516
1.020278,-0.1780866,0.06656705,-0.002169825,-0.001634329,-0.02146001
1.020842,-0.1773964,0.06776258,-0.002035342,-0.000120332,-0.02057814
1.017826,-0.176939,0.072411,-7.651855e-05,-0.002425886,-0.0119018
1.014804,-0.1761718,0.07665963,0.003564361,-0.008416914,-0.003411134
1.014935,-0.1761701,0.07757949,0.007306796,-0.01158229,0.0003536142
1.015593,-0.1763568,0.07815145,0.008212295,-0.01612872,0.00571082
1.015272,-0.1744184,0.07890876,0.005096492,-0.01924168,0.009541515
1.01506,-0.1730492,0.07759191,0.004269399,-0.01255249,0.006253009
1.014804,-0.1739003,0.07601853,0.004135254,-0.008025268,0.004798086
1.011597,-0.176004,0.07675094,0.009210874,-0.01255518,0.008081988
1.008925,-0.1782644,0.07520992,0.02294946,-0.01547619,0.008555993
1.011434,-0.1780426,0.07375164,0.02839206,-0.01424428,0.007874037
1.015121,-0.1758151,0.07179629,0.02343053,-0.01484734,0.005161346
1.016758,-0.1758472,0.06719362,0.01916395,-0.01703959,0.001200144
1.018396,-0.1767316,0.06863343,0.01360299,-0.01582125,0.004047079
1.01875,-0.1738177,0.07197942,0.005610139,-0.01504108,0.01199851
1.017158,-0.169958,0.07332275,0.004304845,-0.01769229,0.02402183
1.017304,-0.1679867,0.0759105,0.007349037,-0.01840754,0.03163528
1.016987,-0.1680459,0.0749252,0.003347929,-0.01867335,0.02253568
1.01685,-0.171674,0.07255823,-0.0012472,-0.01833907,0.01141843
1.019131,-0.1757173,0.07191003,-0.004521088,-0.0127687,0.008020122
1.01891,-0.177755,0.07108598,-0.00819212,-0.007628506,0.005074659
1.01918,-0.1795089,0.07078426,-0.003164719,-0.00981092,0.003877431
1.019845,-0.1825878,0.07160764,0.0002393901,-0.01286673,0.0007099101
1.017029,-0.1839464,0.07535926,-0.00295932,-0.01063509,-0.003088957
1.016109,-0.1791164,0.07849071,-0.002872511,-0.01095672,0.002725785
1.015477,-0.1753806,0.07408447,-0.00311631,-0.01362299,0.009270479
1.013151,-0.1766273,0.06749949,-0.004071412,-0.01286623,0.01031721
1.012429,-0.1774211,0.06730618,-0.003423159,-0.01315442,0.01409112
1.01453,-0.1783573,0.06908476,-0.001520647,-0.01210893,0.01591967
1.018992,-0.1794848,0.06954247,0.0005866635,-0.01139568,0.0110058
1.019733,-0.180135,0.07118863,-0.0008248623,-0.01762755,0.008930628
1.016477,-0.1802416,0.06962297,-0.002310639,-0.02474323,0.01290182
1.015003,-0.1805176,0.0649581,-0.002031483,-0.02627223,0.01562688
1.017804,-0.182889,0.06324764,-0.00231712,-0.01841557,0.01420282
1.021854,-0.183723,0.06492621,-0.002166227,-0.009388569,0.01300463
1.020885,-0.1834243,0.06781001,-0.002570604,-0.009245412,0.01293859
1.019257,-0.1844886,0.06873372,-0.006276963,-0.008365155,0.009970933
1.019767,-0.1858832,0.06854213,-0.00878573,-0.005587987,0.007287766
1.018534,-0.1875676,0.06889217,-0.005741857,-0.009277906,0.00772547
1.016909,-0.187621,0.06751645,-0.00321706,-0.01464061,0.005357411
1.014626,-0.1866617,0.06593283,-0.0001885424,-0.01364651,0.001096748
1.014603,-0.184101,0.06547337,0.002105803,-0.008650477,0.0004212295
1.016246,-0.1808276,0.06702974,-0.004242365,-0.009815625,0.001889613
1.014789,-0.1825574,0.07040696,-0.008075038,-0.0145746,0.003885695
1.015124,-0.1840665,0.06957214,-0.005535087,-0.01427828,0.00751396
1.015638,-0.1809402,0.06618766,-0.005518373,-0.01319465,0.0128389
1.013835,-0.1789482,0.0662757,-0.00673148,-0.01182608,0.01658925
1.013732,-0.1797687,0.06724031,-0.00981687,-0.009284177,0.01481294
1.012924,-0.1827856,0.06761017,-0.01261549,-0.01030037,0.009531247
1.012162,-0.1858536,0.06914047,-0.01221928,-0.01017964,0.004266215
1.01299,-0.1849217,0.06960492,-0.01086599,-0.008482487,-0.001078009
1.0142,-0.1826499,0.06711984,-0.008611368,-0.009670223,-0.003103161
1.015916,-0.1817115,0.06421775,-0.007301975,-0.01008929,-0.001220878
1.015443,-0.1800325,0.0633454,-0.006486038,-0.01057043,-0.001149853
1.014815,-0.1801009,0.06340262,-0.007523353,-0.01083388,0.0003032954
1.015623,-0.1812904,0.0614471,-0.01105357,-0.009103254,0.00653479
1.015187,-0.1812104,0.05923051,-0.01127233,-0.009220652,0.0109692
1.015354,-0.1858348,0.06264468,-0.009814035,-0.01022796,0.01034317
1.016521,-0.1905827,0.06814071,-0.008318393,-0.01074774,0.01059017
1.017694,-0.1871088,0.06871046,-0.005661029,-0.01071174,0.01549471
1.018497,-0.1836884,0.06810314,-0.005344797,-0.01010652,0.01736228
1.017786,-0.1848637,0.06986414,-0.004905561,-0.01051355,0.01488674
1.017184,-0.1846909,0.07106275,-0.002176753,-0.01001655,0.01339897
1.01749,-0.1825501,0.06926329,-0.001390641,-0.008376668,0.00982903
1.018104,-0.1819406,0.06705742,-0.003165488,-0.007096651,0.006598277
1.018374,-0.1835913,0.06985019,-0.004936106,-0.006980224,0.006291365
1.017283,-0.1849147,0.07751691,-0.004051668,-0.008001075,0.003541779
1.015169,-0.1817532,0.0830932,-0.002767625,-0.007636214,-0.0009509191
1.012573,-0.1769761,0.07767586,-0.004548075,-0.007561238,-0.002127792
1.012748,-0.1783253,0.06857882,-0.005876678,-0.008056635,0.0009563742
1.015681,-0.1820724,0.06937438,-0.006688669,-0.006377855,0.005981397
1.015962,-0.1826267,0.06870409,-0.007902502,-0.00545406,0.01043893
1.01623,-0.1832328,0.06459114,-0.006992373,-0.00443334,0.009791169
1.017178,-0.1838343,0.0678046,-0.006427643,-0.0001543658,0.006864425
1.014804,-0.183075,0.06851433,-0.006823936,0.002894108,0.006835395
1.014571,-0.1828451,0.06753975,-0.007358572,0.002163063,0.004839543
1.015937,-0.1818541,0.06894051,-0.008967389,0.001878941,0.005701647
1.014021,-0.1799746,0.06826633,-0.009523105,0.003560318,0.01041886
1.013466,-0.1814014,0.07003671,-0.006593011,0.004295953,0.009891012
1.014359,-0.183726,0.07011425,-0.001713579,0.004616887,0.01145732
1.014636,-0.1832601,0.07076591,8.753536e-05,0.004859542,0.01427301
1.015415,-0.1833071,0.07537129,0.0002852347,0.003958979,0.01013272
1.014345,-0.1834624,0.07405842,0.001194311,0.004969478,0.007304382
1.012433,-0.1834865,0.0685153,-0.0004119808,0.006650715,0.00884672
1.012856,-0.1854959,0.06356685,-0.004619692,0.005958551,0.008702788
1.015781,-0.187618,0.06443036,-0.01058869,0.004775832,0.004429302
1.020185,-0.1888668,0.06795875,-0.01201804,0.005790848,0.002039354
1.021772,-0.1884334,0.06667452,-0.008135611,0.01281267,0.005924
1.019443,-0.1859747,0.07013414,-0.006988045,0.01939194,0.007161458
1.018003,-0.1831229,0.07387961,-0.004910846,0.01296178,0.006101369
1.018069,-0.1825875,0.07085699,-0.002982254,0.003272017,0.01086911
1.01741,-0.1839593,0.07032069,-0.002243118,0.004368229,0.01295078
1.015276,-0.1832351,0.07106437,0.003232189,0.00692237,0.007384545
1.012382,-0.182103,0.07136382,0.005036885,0.00759438,0.003777533
1.012695,-0.1793389,0.07387941,0.002754885,0.01171654,0.00530514
1.014968,-0.1755879,0.07747676,0.0004716134,0.01154702,0.01042297
1.014556,-0.181447,0.07884974,-0.004877233,0.008586914,0.01548204
1.01438,-0.1921785,0.07720044,-0.003842081,0.006211217,0.01566308
1.014923,-0.19749,0.07752396,0.004353384,-0.003400084,0.01762347
1.014284,-0.1989205,0.07715345,0.01387051,-0.01511727,0.02392417
1.014694,-0.1947581,0.07492283,0.02446346,-0.01727854,0.02620375
1.014693,-0.1874435,0.07579692,0.02700489,-0.007961379,0.02421731
1.014515,-0.1826149,0.07674245,0.02335146,0.0004417934,0.02126766
1.016082,-0.1785463,0.07534783,0.01904071,-0.0014737,0.01828563
1.018071,-0.1780971,0.07058464,0.004165843,-0.004129837,0.01546769
1.019923,-0.1804374,0.06458564,-0.02361962,-0.003213801,0.007187369
1.017701,-0.1799346,0.06425304,-0.05334735,0.000578558,-0.005925629
1.01088,-0.1820007,0.06615499,-0.07014924,0.006997268,-0.01231674
1.007191,-0.1869605,0.06512933,-0.07115067,0.008299616,-0.01350602
1.01054,-0.1897582,0.064907,-0.06596316,0.006801364,-0.01539935
1.014558,-0.1917865,0.06697576,-0.05493536,0.007742714,-0.01007563
1.013246,-0.1927513,0.07131852,-0.038384,0.004391888,-0.002991362
1.013218,-0.1947414,0.07681262,-0.0145906,-0.006871435,-0.003746087
1.014817,-0.1955022,0.0758587,0.02161249,-0.01786687,-0.001902593
1.012358,-0.1933372,0.07235607,0.05231344,-0.01999257,0.004014172
1.012112,-0.1947801,0.07420785,0.06890789,-0.01719323,0.007410454
1.014446,-0.190285,0.07383288,0.07934793,-0.01235933,0.01030887
1.019163,-0.1698246,0.07264239,0.06198445,-0.003273794,0.01268954
1.02609,-0.1492872,0.07355771,0.01522997,0.004083349,0.01452087
1.023379,-0.1501106,0.07149957,-0.02041406,0.009112794,0.01344059
1.016345,-0.158164,0.07291399,-0.04263082,0.01115843,0.007558271
1.014835,-0.1532791,0.07739715,-0.07993566,0.01025562,0.0007911249
1.014627,-0.162734,0.07981444,-0.1163509,0.01719143,-0.01015519
1.01577,-0.1808556,0.07956736,-0.1200987,0.02137538,-0.02500706
1.015518,-0.1802443,0.07598195,-0.1130947,0.01740262,-0.03005064
1.014193,-0.1887874,0.07706949,-0.110042,0.0170945,-0.02388192
1.014165,-0.2012723,0.08029032,-0.09214813,0.01079908,-0.02025184
1.011722,-0.2010518,0.07864757,-0.06835832,0.003652078,-0.01513281
1.012024,-0.2060695,0.0756881,-0.04618499,0.004442424,-0.001912385
1.013462,-0.2072124,0.07156768,-0.02847198,0.003611291,0.004258106
1.012129,-0.2026793,0.06942087,-0.011761,0.003548707,0.00763072
1.01447,-0.1999438,0.06914598,0.006529645,0.000118786,0.01942585
1.016121,-0.1982676,0.06679011,0.008196195,-0.004927578,0.02886198
1.014974,-0.1994796,0.06601236,0.02176406,-0.003603352,0.03471533
1.015856,-0.1958256,0.06749408,0.0466538,-0.000987291,0.03284568
1.01794,-0.1920756,0.06948381,0.04409529,0.006142308,0.02258529
1.019401,-0.1848317,0.0722569,0.03533724,0.01255103,0.01651868
1.015314,-0.1721379,0.07578517,0.02011932,0.009086997,0.01244805
1.010587,-0.1724327,0.07822224,-0.006054452,0.001147014,0.01132853
1.013512,-0.1765005,0.07571714,-0.01938955,-0.004200299,0.01086398
1.016057,-0.1783634,0.0693118,-0.02241495,-0.001566917,0.006670994
1.01506,-0.1871441,0.06687078,-0.01833482,0.001626545,0.004224827
1.016196,-0.194026,0.0714464,-0.00998975,-0.002987109,0.00306663
1.017014,-0.1958406,0.07831383,0.0008800265,-0.009915454,0.01242994
1.015027,-0.1970952,0.08422837,0.01442392,-0.01426686,0.02679109
1.012306,-0.1993768,0.08535648,0.03159503,-0.01359663,0.02889589
1.010485,-0.1998462,0.0810245,0.05722415,-0.008690784,0.02611359
1.011754,-0.1952582,0.07089309,0.07412897,-0.00164874,0.02493348
1.013757,-0.1913131,0.05933428,0.07446801,0.006516288,0.02551716
1.013997,-0.1905059,0.06616269,0.06891884,0.006854017,0.02272334
1.014522,-0.1882997,0.07904194,0.05482993,0.005298748,0.01883005
1.010369,-0.183519,0.07413837,0.03713229,0.01285595,0.02517001
1.00368,-0.1814899,0.07018854,0.02974177,0.01319206,0.03651169
1.004944,-0.1822208,0.06664794,0.02483722,0.0140241,0.04982812
1.008132,-0.1818395,0.05531869,0.01571063,0.01753409,0.06024456
1.010968,-0.182987,0.05109631,0.01708276,-0.01810677,0.06423059
1.017229,-0.1828213,0.04504977,0.01971075,-0.06695797,0.07254566
1.01616,-0.1770401,0.04309402,0.006716125,-0.07667144,0.08500019
1.011272,-0.1657369,0.05118932,-0.0181336,-0.07935348,0.0968606
1.012129,-0.1535907,0.04800392,-0.06239652,-0.09979365,0.1037188
1.011439,-0.1507504,0.04750636,-0.116142,-0.1100306,0.1024522
1.013396,-0.1542447,0.05380478,-0.1607526,-0.1156235,0.1000263
1.01893,-0.1593612,0.05102318,-0.1878593,-0.1297297,0.09973518
1.018072,-0.1721583,0.05082505,-0.1839198,-0.1282355,0.09716778
1.015332,-0.1911771,0.05207388,-0.1753603,-0.1268176,0.09064442
1.009671,-0.2073248,0.05050358,-0.1751913,-0.1383969,0.08698146
1.002166,-0.2165123,0.04978266,-0.1607234,-0.138434,0.09303515
1.001605,-0.2224698,0.04606696,-0.1378191,-0.1450522,0.1098274
1.000397,-0.2250841,0.04179117,-0.1109826,-0.1614479,0.1262408
0.9985728,-0.2219336,0.03594445,-0.09942604,-0.168574,0.1270432
1.000368,-0.2160058,0.0309264,-0.110734,-0.1613596,0.1171396
0.997426,-0.2111439,0.0303258,-0.1159215,-0.1407215,0.1086209
0.9949989,-0.2134454,0.0301516,-0.1256375,-0.1354602,0.1045649
1.002306,-0.2193472,0.03092318,-0.1410128,-0.1289035,0.1009665
1.015313,-0.2227764,0.0307913,-0.1471222,-0.09704512,0.09702425
1.024228,-0.2303426,0.03103756,-0.1549283,-0.0722699,0.09513131
1.020053,-0.2338016,0.03269137,-0.1559724,-0.06573053,0.09094443
1.015082,-0.2253332,0.03088091,-0.153903,-0.06209445,0.09323404
1.023283,-0.2225945,0.02725447,-0.1609734,-0.03598957,0.1067402
1.037573,-0.2309553,0.02541045,-0.1661345,0.004774064,0.1156666
1.056023,-0.2418303,0.03258014,-0.1748135,0.03785205,0.1103379
1.060885,-0.2504957,0.04571949,-0.1851085,0.06987383,0.08350669
1.03688,-0.2541716,0.04720857,-0.1814231,0.07835679,0.04555494
1.016872,-0.260941,0.03977355,-0.1708382,0.06615992,0.0252615
1.015394,-0.2716761,0.03618523,-0.1556268,0.06809978,0.02414462
1.015257,-0.2770881,0.03866209,-0.1289482,0.0828352,0.02322286
1.009789,-0.278162,0.04699967,-0.09041946,0.1004774,0.02045546
1.001048,-0.2771326,0.0519547,-0.05093192,0.1061506,0.01846635
0.9969218,-0.275549,0.04735999,-0.03474662,0.09909416,0.00824162
0.9940689,-0.2755031,0.04394425,-0.0233535,0.09560569,-0.001718073
0.9964915,-0.2763217,0.04695802,0.01338477,0.09613568,-0.005662573
1.00597,-0.2808643,0.05200522,0.05849983,0.09894675,-0.01668503
1.005834,-0.2857868,0.06152284,0.1122049,0.1034885,-0.02694094
1.003282,-0.2786073,0.06973587,0.157342,0.1025985,-0.03161075
1.00249,-0.2626383,0.06289515,0.1612539,0.09449999,-0.03440612
1.000137,-0.2501585,0.05373903,0.1611523,0.08319309,-0.03122918
1.001497,-0.2433332,0.053998,0.1675523,0.06970236,-0.02875149
1.001479,-0.2474167,0.05241301,0.1648488,0.0666654,-0.0280693
1.004238,-0.2540499,0.05345621,0.1833573,0.07423834,-0.02764162
1.00671,-0.2524044,0.06158303,0.2175896,0.07354954,-0.0292977
1.004008,-0.255769,0.06797835,0.2388361,0.07148174,-0.03371996
1.004344,-0.2558957,0.06948173,0.2416432,0.06837444,-0.04208043
1.004891,-0.2433596,0.06537557,0.2342876,0.05898159,-0.04577279
1.005879,-0.2344364,0.06460606,0.2301707,0.05589397,-0.05062297
1.006479,-0.2315823,0.06911791,0.2196023,0.05369638,-0.05829525
1.007478,-0.235194,0.07334491,0.2109386,0.05053575,-0.05021075
1.010137,-0.238515,0.07658471,0.2158356,0.04653929,-0.03742848
1.004407,-0.2364664,0.06799898,0.2087798,0.04007879,-0.0308898
0.9993116,-0.2397613,0.05833001,0.1965213,0.05342866,-0.01308675
1.003321,-0.2386339,0.06591182,0.1985063,0.07292822,0.01677459
1.005538,-0.2320695,0.07825001,0.209547,0.06219983,0.04429186
1.00274,-0.2316876,0.08764618,0.2330932,0.02962634,0.0484852
0.9977952,-0.2375327,0.08895753,0.2505241,-0.002894539,0.003585725
0.9921624,-0.2446781,0.07951022,0.2327806,-0.01015556,-0.06037785
0.9922092,-0.233041,0.07589556,0.2034679,0.00477233,-0.08160119
1.004775,-0.2119549,0.07973164,0.1907386,0.00384641,-0.07589741
1.017301,-0.2056297,0.08267327,0.1721652,0.003339734,-0.0856654
1.016193,-0.2030301,0.08549705,0.1390229,0.009698006,-0.0997124
1.011162,-0.1991128,0.08481709,0.1140605,-0.003651353,-0.1103754
1.011629,-0.1930167,0.08126832,0.09817074,-0.004493066,-0.1214701
1.01744,-0.1873891,0.07911288,0.07772358,0.01209531,-0.1219125
1.024618,-0.1910792,0.07631951,0.04858681,0.03040267,-0.1053867
1.026117,-0.1915511,0.07396859,0.02215375,0.0649445,-0.07843267
1.019338,-0.1885499,0.07611581,0.003804118,0.07863082,-0.06298667
1.007991,-0.1911747,0.08188622,-0.008416049,0.04926169,-0.05835336
0.999906,-0.1978469,0.08619201,-0.008158967,0.0215807,-0.04539238
1.003389,-0.2098426,0.08545838,-0.001719471,0.02162442,-0.04133274
1.012269,-0.2190436,0.08360777,0.01320218,0.02493377,-0.04570905
1.013342,-0.2199496,0.08450869,0.04018015,0.02735377,-0.04094201
1.013084,-0.2141494,0.0825509,0.05406756,0.05179076,-0.0458213
1.014664,-0.2012796,0.08128115,0.03876765,0.06307887,-0.06407337
1.013097,-0.1872854,0.0923289,0.01604914,0.05222941,-0.08522371
1.012961,-0.1768905,0.1024724,0.01096853,0.04302824,-0.09336236
1.010554,-0.1747393,0.09637683,0.002549647,0.01713249,-0.07709552
1.008547,-0.1795196,0.08641523,-0.01101738,0.004251101,-0.0637521
1.011134,-0.1859466,0.08070079,-0.01153016,0.01253134,-0.05856447
1.013041,-0.1944241,0.07609236,-0.02209159,0.007329064,-0.05732452
1.016318,-0.1959458,0.07782201,-0.03450358,0.003850411,-0.06632171
1.015614,-0.1900816,0.08104839,-0.04762824,-0.002141085,-0.06588697
1.012263,-0.1881676,0.07591157,-0.07254107,-0.01479569,-0.05642763
1.012775,-0.1889898,0.06991087,-0.0753237,-0.01944929,-0.04454456
1.012154,-0.1921782,0.06646661,-0.0745525,-0.01688859,-0.03624949
1.012184,-0.1990176,0.07061277,-0.084794,-0.01021796,-0.04386007
1.011051,-0.2042911,0.08328544,-0.06968668,-0.01817264,-0.04693453
1.009734,-0.2020319,0.08409362,-0.05055594,-0.0329162,-0.04243356
1.015643,-0.1937978,0.07440598,-0.05489628,-0.04032748,-0.03137232
1.021742,-0.1899456,0.06245691,-0.06177383,-0.0413611,-0.005477692
1.021334,-0.19079,0.05289401,-0.07171378,-0.01785245,0.003647717
1.017332,-0.1943233,0.06100705,-0.09314919,0.001154123,-0.005720728
1.013162,-0.2010276,0.07142698,-0.09614493,-0.01771871,-0.006141899
1.010344,-0.2027361,0.0722327,-0.08777969,-0.03237314,-0.005368577
1.012191,-0.2016032,0.07057929,-0.09493363,-0.01664075,-0.008979529
1.015442,-0.2023852,0.06349471,-0.09565409,-0.004699072,-0.008482623
1.012643,-0.2026609,0.06070421,-0.1002497,-0.009366664,-0.008027697
1.011513,-0.2054826,0.06218545,-0.1144239,-0.007735224,-0.01300858
1.013391,-0.208286,0.05989444,-0.1083284,-0.007704288,-0.01463657
1.011685,-0.2089294,0.06083829,-0.09836615,-0.014173,-0.01103065
1.010707,-0.2139869,0.06417241,-0.09042895,-0.0131535,-0.009644525
1.009511,-0.2221337,0.06600411,-0.0761231,-0.01663788,-0.0103376
1.009589,-0.2269788,0.06425254,-0.06060893,-0.02518556,-0.01187247
1.014267,-0.232585,0.06071474,-0.03232858,-0.02725729,-0.01176144
1.019685,-0.2387832,0.05927985,-0.003875528,-0.008363919,-0.01313563
1.024223,-0.2340567,0.05763993,0.005316882,0.03028731,-0.02270763
1.023588,-0.2228224,0.05815387,-0.001565831,0.04864029,-0.03601787
1.020673,-0.2127154,0.06075271,-0.01833613,0.04299684,-0.03825411
1.015106,-0.2001744,0.06723086,-0.03433383,0.02686743,-0.01736647
1.002553,-0.1912564,0.07874628,-0.03655153,-0.001911605,0.009405109
0.998838,-0.1951276,0.08287958,-0.02063847,-0.01765204,0.01448207
1.003646,-0.2033233,0.08152213,-0.01161902,-0.01442712,-0.002079498
1.008623,-0.1977988,0.07926312,-0.0214809,-0.01170482,-0.01624128
1.01831,-0.1901122,0.07282693,-0.03841872,-0.006108587,-0.01363267
1.017919,-0.1882984,0.07260595,-0.06912131,0.003897627,-0.01198334
1.01448,-0.177492,0.07101204,-0.09792898,0.005710552,-0.01821767
1.022181,-0.1792548,0.06192469,-0.1083549,0.005037499,-0.02797132
1.019236,-0.1920183,0.06629024,-0.1104655,0.01236544,-0.04655986
1.012565,-0.1908887,0.07692413,-0.1045492,0.01480893,-0.05207425
1.013333,-0.1899559,0.08059048,-0.09755334,0.00815049,-0.03849889
1.011068,-0.1836194,0.08136421,-0.09479646,-0.004262303,-0.02887714
1.013061,-0.1733222,0.07623735,-0.1018381,-0.01722258,-0.02155012
1.013798,-0.1732305,0.07229467,-0.1223914,-0.01114175,-0.02152214
1.01438,-0.1780465,0.06464343,-0.131896,0.0009951532,-0.02801876
1.022406,-0.1914852,0.05428954,-0.1195398,0.000287353,-0.02647522
1.02221,-0.1983429,0.0634724,-0.09891058,0.0010282,-0.02975588
1.016438,-0.1978165,0.07549825,-0.08351811,-0.0006153944,-0.03274348
1.010826,-0.1991764,0.07638134,-0.08261154,-0.01261232,-0.02624964
1.00791,-0.189971,0.07413836,-0.09167298,-0.02342402,-0.02372945
1.012798,-0.1865791,0.06651059,-0.09808193,-0.0241871,-0.01959892
1.014029,-0.1943783,0.06441791,-0.09494174,-0.01501623,-0.01854722
1.013596,-0.1999233,0.06615734,-0.08743965,-0.008908126,-0.02385205
1.014663,-0.2003237,0.06443795,-0.08039804,-0.008516552,-0.02370214
1.014135,-0.1977934,0.065625,-0.07543323,-0.007985843,-0.02693726
1.015957,-0.2031217,0.06435689,-0.07354963,-0.008163032,-0.03126078
1.015365,-0.2048259,0.06390383,-0.06801698,-0.006465376,-0.03464712
1.01439,-0.2019348,0.06800016,-0.05557824,-0.01009277,-0.04324724
1.014084,-0.203705,0.06910184,-0.03812534,-0.01570298,-0.0445457
1.012443,-0.200467,0.06469148,-0.02774643,-0.01140413,-0.03855623
1.016876,-0.1985194,0.0595648,-0.02787978,-0.005521369,-0.03451536
1.020812,-0.1968802,0.0651215,-0.01932018,-0.001648477,-0.03245833
1.01683,-0.1943196,0.07116737,-0.007107285,-0.003461877,-0.02768019
1.013799,-0.1933621,0.06683736,-0.0005532294,-0.007859655,-0.02156073
1.016924,-0.1873768,0.06592753,0.004076566,-0.002453013,-0.02295352
1.020324,-0.1879921,0.06759939,-0.00082577,0.002158193,-0.02484293
1.020273,-0.1895757,0.06766022,-0.005062205,0.002289339,-0.02556967
1.017699,-0.1858624,0.06868889,-0.002892229,0.003760189,-0.03274339
1.014565,-0.1880221,0.06622006,-0.003577163,0.006447299,-0.03878928
1.018296,-0.1878434,0.06348201,-0.001648565,0.01802291,-0.04055313
1.022698,-0.1865921,0.063605,0.003577811,0.02774719,-0.04245066
1.0175,-0.1869588,0.06897151,0.01100998,0.02109305,-0.04605336
1.01419,-0.183245,0.07530964,0.0161894,0.01241077,-0.04611687
1.015673,-0.1804788,0.0679881,0.01467144,0.009590559,-0.04074166
1.015195,-0.1774805,0.06048738,0.01282666,0.006724836,-0.04085351
1.015254,-0.17554,0.06726508,0.006453099,0.00988585,-0.04175693
1.015339,-0.1774553,0.07051545,0.0005550567,0.01748562,-0.03418966
1.015187,-0.1782736,0.0692033,0.002750727,0.02238099,-0.02915972
1.014323,-0.1768153,0.07416526,-0.001048536,0.02597439,-0.03150438
1.0098,-0.1731017,0.07647796,-0.01149752,0.01043279,-0.03271107
1.005753,-0.1703836,0.07315994,-0.01396013,-0.01381976,-0.02698074
1.008058,-0.1745616,0.06824696,-0.006461284,-0.008203387,-0.01292109
1.011485,-0.1819418,0.06160072,0.003529944,-0.002006673,0.005715173
1.010113,-0.1829951,0.05951174,0.01162612,-0.01430511,0.01480949
1.012538,-0.1802686,0.06225864,0.01154041,-0.01694939,0.01034889
1.017345,-0.1804865,0.06262947,0.006281838,-0.02193969,0.008295021
1.016038,-0.1805988,0.0628546,0.008341718,-0.02200537,0.008564565
1.018866,-0.1804734,0.06555683,0.007619848,-0.003507093,0.007920626
1.023583,-0.1809198,0.07081491,0.003226165,0.003248474,0.01495812
1.01787,-0.1813849,0.07557839,0.006516767,-0.002927213,0.01852061
1.012988,-0.1831209,0.07255482,0.008244014,-0.009782646,0.01244669
1.016657,-0.1829521,0.0688764,0.01124945,-0.01147004,0.008740196
1.018731,-0.1825297,0.07003986,0.01556385,-0.003095815,0.01184614
1.017018,-0.1844992,0.07003997,0.01854594,0.004301461,0.01626768
1.015545,-0.1852387,0.07103305,0.03059417,0.007233478,0.01535633
1.01381,-0.1840398,0.07135661,0.03863218,-0.0007513268,0.01524031
1.016206,-0.1815178,0.07064856,0.03715859,-0.01129475,0.01623321
1.02163,-0.1781738,0.07396076,0.03424283,-0.009693414,0.01521642
1.021449,-0.177181,0.07456544,0.02981248,-0.01024142,0.01960449
1.021067,-0.1798849,0.06801443,0.03139523,-0.01193327,0.0240085
1.02301,-0.181402,0.0596221,0.03496696,-0.009651221,0.02459655
1.022074,-0.1800836,0.05749073,0.03525394,-0.008123705,0.02066777
1.022011,-0.1795894,0.05920194,0.03759499,-0.005452812,0.01317331
1.022516,-0.1790737,0.05628071,0.04163517,-0.006252328,0.013266
1.021102,-0.1789031,0.05715362,0.04468801,-0.009555489,0.01463204
1.01734,-0.1785878,0.06353567,0.04360426,-0.0142752,0.01309921
1.011212,-0.1745365,0.06616993,0.03845928,-0.01866653,0.01450701
1.010424,-0.1708405,0.06682546,0.03029374,-0.01732717,0.01532608
1.015491,-0.1719964,0.06900085,0.02657928,-0.01484304,0.01694912
1.017595,-0.1745404,0.07302335,0.02985942,-0.01005593,0.01774283
1.015766,-0.1761568,0.06989067,0.02811299,-0.0009188044,0.01626629
1.015478,-0.1784613,0.06108532,0.02425895,0.004640604,0.01528104
1.019889,-0.178803,0.06126742,0.02314282,0.003855262,0.01227363
1.023144,-0.1791259,0.06373564,0.02373885,0.001250773,0.009296474
1.018671,-0.1842398,0.06489197,0.03207904,-0.003400079,0.004623373
1.013797,-0.1858108,0.06672052,0.04185466,-0.008474213,-0.0004770556
1.015516,-0.1830946,0.06126983,0.04320492,-0.005248803,0.00129429
1.017798,-0.1830788,0.05680838,0.03806009,0.002629489,0.0003255917
1.017653,-0.1824347,0.06150992,0.03458781,0.00764965,-0.003885702
1.016636,-0.1816573,0.06785932,0.03538254,0.01125787,0.001865652
1.014532,-0.1819815,0.06864917,0.03361479,0.01535299,0.009590433
1.01545,-0.1819005,0.06576016,0.02689168,0.02138233,0.01203044
1.018731,-0.1820884,0.06489139,0.01694711,0.02462962,0.0135848
1.019742,-0.1810647,0.06525542,0.007739182,0.02447406,0.01283743
1.019252,-0.17844,0.06645543,-0.000120675,0.02419199,0.01178737
1.016499,-0.1762745,0.06714841,-0.003338329,0.01818184,0.01122558
1.014483,-0.1812958,0.06730213,0.007226259,0.01011077,0.01187632
1.01629,-0.1911142,0.06893852,0.02181935,0.007368697,0.01561022
1.016806,-0.1934586,0.06976361,0.03705998,0.007331881,0.01603382
1.014804,-0.1916547,0.07172105,0.05671534,0.005955109,0.01906532
1.013379,-0.191022,0.07473131,0.06909462,0.002316925,0.02553961
1.015185,-0.1879347,0.07869853,0.08057412,0.0008367916,0.02389728
1.018736,-0.1843565,0.0823661,0.09213363,-0.001000353,0.02488358
1.019792,-0.1825624,0.0800151,0.09330038,-0.006536009,0.02487476
1.018392,-0.1813964,0.07687902,0.09466057,-0.01034726,0.01435083
1.015667,-0.1808257,0.07277228,0.09887674,-0.01272845,0.008763577
1.014666,-0.1811768,0.06714271,0.1012899,-0.01224474,0.001297556
1.016073,-0.1830019,0.06843805,0.09957256,-0.001663086,-0.007743645
1.018095,-0.1854093,0.0672936,0.09219345,0.02070001,-0.01157676
1.021305,-0.18434,0.06221914,0.0852807,0.04239593,-0.02454819
1.022378,-0.1818106,0.06691805,0.08066896,0.0473345,-0.02935129
1.021885,-0.1813736,0.07284821,0.08035268,0.04310093,-0.02330885
1.021303,-0.1755562,0.07226154,0.07883517,0.04207976,-0.02449512
1.015869,-0.1638096,0.07260544,0.069736,0.03660765,-0.0203723
1.010456,-0.1559861,0.07440448,0.05480635,0.02433159,-0.01464121
1.012345,-0.1557795,0.07712471,0.02855943,0.01436839,-0.01307271
1.015552,-0.1567162,0.07954664,0.004820432,0.004563248,-0.008874305
1.015174,-0.1529552,0.08092277,-0.008375269,-0.0004415374,-0.002637749
1.015077,-0.1531782,0.08425903,-0.02696846,0.008428628,0.00707756
1.014129,-0.1541963,0.08472228,-0.04143192,0.01015317,0.009767801
1.010541,-0.147743,0.0847934,-0.05038529,-0.002245821,0.007344845
1.00977,-0.1470669,0.08874014,-0.06599077,-0.007821551,0.01110382
1.014097,-0.1534658,0.08712012,-0.07413535,-0.003009381,0.01398871
1.021088,-0.1621338,0.0842176,-0.06517159,0.002517233,0.01908436
1.022772,-0.1704912,0.08514948,-0.049467,-0.002679899,0.02467746
1.015401,-0.1715217,0.08192625,-0.03817382,-0.008249792,0.01894606
1.010981,-0.1747447,0.07758038,-0.02015348,-0.00378893,0.01350689
1.016051,-0.1806596,0.07337115,0.007596738,-0.001431919,0.01540581
1.021121,-0.1808322,0.07063927,0.0193317,0.003808876,0.01432454
1.019362,-0.1783714,0.07487838,0.01766963,0.005824221,0.013347
1.01761,-0.1732911,0.07699071,0.01569123,-0.001848367,0.01564573
1.018655,-0.1655967,0.07584109,0.00660908,-0.003271641,0.01609867
1.017631,-0.1595468,0.07705433,-0.001873532,-0.003068704,0.01743467
1.018001,-0.1652182,0.07706439,0.003875234,-0.002933869,0.01845449
1.018174,-0.17635,0.0770228,0.0140007,-0.001384516,0.01698644
1.016208,-0.1767522,0.07380479,0.01544035,-0.0005810202,0.01515246
1.01764,-0.1770736,0.06918781,0.02086523,0.004284235,0.01194939
1.019102,-0.1806713,0.07300305,0.02910644,0.007218665,0.01297119
1.017895,-0.1804598,0.07788533,0.0297086,0.0114341,0.01776652
1.015756,-0.179846,0.07799165,0.03362469,0.0138266,0.02004068
1.014431,-0.1734005,0.07787872,0.03304382,0.005669446,0.02309351
1.013715,-0.1623269,0.07816489,0.02432909,-0.00124582,0.02556383
1.012185,-0.1573202,0.08080527,0.0166642,-0.003375934,0.0265588
1.014128,-0.1603773,0.08470354,0.005623869,-0.002479929,0.02633356
1.016319,-0.1629218,0.08558791,-0.007569072,-0.002129417,0.0219282
1.01488,-0.1601075,0.08512626,-0.02757717,-0.00525806,0.01962802
1.014181,-0.1617956,0.08468004,-0.0485033,-0.004366138,0.02072746
1.014535,-0.1675995,0.08068761,-0.05678287,0.0005688182,0.02088995
1.0173,-0.1750342,0.07491831,-0.05731543,0.007884484,0.0201863
1.019811,-0.1855216,0.07496375,-0.04612877,0.01311676,0.01899313
1.01533,-0.1885978,0.08002692,-0.02331366,0.01049609,0.01926224
1.01031,-0.187253,0.08322522,-0.004670736,0.004157298,0.0182221
1.012381,-0.187812,0.08267572,0.002080069,-0.00391303,0.01760213
1.013716,-0.1880795,0.08288017,0.008736525,-0.01003762,0.02386646
1.011683,-0.1895156,0.08530786,0.02803836,-0.008862298,0.0304148
1.013597,-0.1883184,0.08320565,0.0461481,-0.00539738,0.02975848
1.01446,-0.1840314,0.07900194,0.04660119,-0.00495543,0.02567099
1.012384,-0.1755011,0.07805487,0.03593352,-0.004088894,0.02554312
1.012914,-0.1673658,0.07601369,0.02985661,-0.0006485162,0.0300045
1.014142,-0.1705566,0.07687709,0.02568591,0.001408572,0.0344348
1.015836,-0.1727081,0.08086729,0.01334374,-0.005718261,0.03581056
1.015707,-0.1702878,0.08120743,0.006952806,-0.01848472,0.03402941
1.013799,-0.1755777,0.08240704,0.02047426,-0.01980032,0.03199231
1.012213,-0.1795555,0.08164463,0.03900009,-0.01365927,0.03060987
1.009667,-0.1753576,0.07450922,0.03655039,-0.006215917,0.02833699
1.014319,-0.1693394,0.06895186,0.008518494,0.005110587,0.02113056
1.020804,-0.1663716,0.06738571,-0.02373791,0.00137532,0.01575113
1.016868,-0.173868,0.0683077,-0.02717241,-0.0163979,0.02361355
1.01313,-0.1877239,0.07226498,0.0006578407,-0.03197756,0.0328669
1.010734,-0.1922486,0.07826349,0.0189643,-0.04365376,0.03768498
1.005357,-0.1888866,0.08179479,0.02322017,-0.0412704,0.0427856
1.008246,-0.1882507,0.07815869,0.03272848,-0.03344897,0.04122726
1.014652,-0.1899269,0.07520066,0.03605411,-0.02704513,0.03342645
1.016702,-0.1925,0.08033766,0.03096279,-0.01199665,0.02443253
1.020528,-0.1953727,0.08371963,0.02780146,-0.004824748,0.02052204
1.019845,-0.194964,0.08151169,0.0296412,-0.005230734,0.01902617
1.014074,-0.1934692,0.08174699,0.03130884,-0.004041572,0.01415737
1.012738,-0.1936711,0.08332616,0.03266082,-0.009621668,0.016597
1.012754,-0.1919781,0.08316659,0.03803833,-0.009250513,0.02040118
1.015906,-0.1898968,0.08166778,0.03943251,-0.005885776,0.02033434
1.019503,-0.1902881,0.07711159,0.03898506,-0.00871773,0.02576311
1.015773,-0.189341,0.07351158,0.0387512,-0.007939562,0.0300914
1.013342,-0.1882633,0.07477824,0.03611549,-0.008205656,0.02973221
1.014374,-0.1878524,0.07581786,0.03581811,-0.006247141,0.02526454
1.015578,-0.1853512,0.07505673,0.0308412,-0.001724371,0.0236539
1.017013,-0.1848089,0.0775819,0.02537323,-0.003749308,0.0271277
1.014934,-0.1883351,0.0804176,0.03197486,-0.005817662,0.02250014
1.012999,-0.19156,0.07818935,0.03862971,-0.00784061,0.01946163
1.013945,-0.1906268,0.07493463,0.03327272,-0.01022885,0.01765478
1.014207,-0.1893292,0.07488459,0.02447979,-0.008789726,0.008953602
1.013671,-0.1899985,0.07814655,0.01786718,-0.003887941,0.005654212
1.013662,-0.1849457,0.07973394,0.009207125,0.0008993665,0.001578923
1.013218,-0.1770269,0.07979772,-0.003140064,0.0002952836,0.001037649
1.012371,-0.1754031,0.08551003,-0.01785556,-0.0003404333,0.0082953
1.014249,-0.1785212,0.08770912,-0.02195356,0.0008547274,0.007794885
1.016134,-0.1815013,0.08286293,-0.02111244,0.00544108,0.005549891
1.015183,-0.1825392,0.08176871,-0.03417546,0.01796954,0.002270708
1.014666,-0.1844878,0.08018625,-0.04197508,0.0233571,-0.0008328254
1.013347,-0.1860942,0.07922897,-0.03977548,0.01397363,0.002053182
1.010128,-0.1868265,0.08493503,-0.04043247,0.000714347,0.001709856
1.009246,-0.1897974,0.08804683,-0.03847655,-0.008651383,0.002981451
1.011787,-0.1894842,0.082104,-0.03975932,-0.01106911,0.006866041
1.013249,-0.1880417,0.07344468,-0.04204594,-0.01103285,0.009498398
1.012365,-0.1904087,0.07250632,-0.04212159,-0.01348564,0.01274616
1.01232,-0.1905483,0.07430563,-0.04268854,-0.01891771,0.01236494
1.012677,-0.1906789,0.07147097,-0.03773993,-0.02357138,0.01379087
1.012444,-0.1941445,0.06894458,-0.03357368,-0.02159192,0.01467039
1.012468,-0.1963483,0.06791226,-0.03194656,-0.01907188,0.01261292
1.012722,-0.1945615,0.07240902,-0.03087911,-0.02114425,0.01604148
1.013209,-0.1915597,0.07767026,-0.02890691,-0.02171906,0.0176904
1.013235,-0.1920147,0.07633252,-0.02274709,-0.02426852,0.01611153
1.012378,-0.1912725,0.07771933,-0.02014173,-0.03083836,0.01653113
1.012161,-0.1890908,0.07822403,-0.02190586,-0.03055632,0.01679377
1.012798,-0.1910997,0.07418151,-0.02370955,-0.02550572,0.01752425
1.012481,-0.1923262,0.07317366,-0.0215957,-0.02301862,0.01648485
1.012291,-0.1929846,0.07341655,-0.01887581,-0.02135982,0.01359823
1.012755,-0.1943753,0.07528529,-0.02023305,-0.02057566,0.01142549
1.012356,-0.1950421,0.08082367,-0.01715952,-0.01918765,0.01167027
1.012475,-0.1978235,0.08619992,-0.0124412,-0.018113,0.0132023
1.013009,-0.1952498,0.08293902,-0.01077087,-0.01639811,0.0110593
1.0141,-0.1882083,0.07325054,-0.01464058,-0.01210262,0.01022098
1.015954,-0.1879553,0.0701841,-0.02583226,-0.01344184,0.01201246
1.014574,-0.1946704,0.06886681,-0.03088051,-0.01466732,0.008402136
1.01032,-0.2048131,0.06561059,-0.02523484,-0.007659931,0.0004680091
1.007662,-0.2080075,0.06825902,-0.0106097,-0.004247624,-0.006514951
1.010076,-0.2043005,0.07602942,0.008936304,-0.008624738,-0.006796848
1.015755,-0.2053347,0.08186025,0.02235127,-0.01215629,0.0008344704
1.018679,-0.2053317,0.07533628,0.02672261,-0.009018254,0.007448093
1.019297,-0.2026702,0.06651412,0.02421484,-0.005049005,0.008576484
1.017265,-0.2017727,0.06942246,0.02153849,-0.006654152,0.007016742
1.014317,-0.1993432,0.06919144,0.0199254,-0.009750919,0.004066579
1.017913,-0.1993816,0.06611616,0.01701012,-0.01309132,0.002978631
1.021122,-0.1999747,0.06972079,0.01713447,-0.01221895,0.006236977
1.018414,-0.1951006,0.0705068,0.01713256,-0.006865731,0.007740132
1.016471,-0.1921268,0.07031702,0.01393185,-0.00322226,0.003340702
1.014934,-0.1955858,0.07005377,0.01191893,0.001760103,0.0002596641
1.014465,-0.1983599,0.06716495,0.01254345,0.001203498,0.004786286
1.015271,-0.1954037,0.06861252,0.01299525,-0.002477528,0.009030886
1.014269,-0.1931335,0.06963346,0.01041664,0.00199792,0.005998075
1.015209,-0.1949225,0.07029736,0.0036033,0.002764429,0.003238098
1.016027,-0.1946754,0.07142441,-0.00509561,0.0003665288,0.002502775
1.01498,-0.1941293,0.06578396,-0.008096447,-0.001027647,0.0002126437
1.017231,-0.195736,0.06377993,-0.007754899,-0.005923983,0.0002213179
1.018168,-0.195426,0.0662117,-0.01106027,-0.00547416,0.0008225631
1.014241,-0.1931664,0.06496112,-0.01296468,-0.005458931,0.000473863
1.011525,-0.1913984,0.06542579,-0.01572872,-0.008258778,0.001891271
1.013423,-0.1946171,0.06634784,-0.02115065,-0.004740749,0.003209407
1.016727,-0.2010267,0.06670769,-0.01908466,-0.00419603,0.004610462
1.016583,-0.2016489,0.06701694,-0.01457185,-0.005821497,0.004736291
1.014675,-0.1975106,0.06517709,-0.0133431,-0.002859053,0.003367612
1.013736,-0.1948441,0.06153775,-0.01005709,-0.0004299182,0.003748553
1.014351,-0.1963677,0.05744082,-0.008274755,0.001982244,0.002035591
1.016087,-0.1978552,0.06122141,-0.009197134,0.002225137,-0.0008786049
1.01523,-0.1941194,0.06740466,-0.01071606,-0.001302169,-0.001157252
1.015141,-0.1924591,0.06496324,-0.01295899,-0.003115326,-0.001052054
1.017657,-0.1963939,0.06350162,-0.01386455,-0.003606415,0.0005271624
1.017889,-0.2001217,0.06474077,-0.01417355,-0.002286933,0.001545405
1.016129,-0.2018029,0.06454766,-0.01159938,-0.0006464727,0.0003833141
1.012804,-0.2021816,0.06767021,-0.005450396,-0.002272766,0.001519935
1.012104,-0.2028744,0.06970676,0.0005474257,-0.002488744,0.003680512
1.015767,-0.2019669,0.0679967,0.004533838,-0.0044671,0.004931461
1.017343,-0.1997605,0.0652833,0.006696185,-0.007729523,0.005026344
1.017008,-0.1999462,0.06006779,0.01060932,-0.004992081,0.003261714
1.0174,-0.199704,0.05868177,0.01029793,-0.00340468,0.001832398
1.019071,-0.1981133,0.06724302,0.003810972,-0.002181432,-0.000359447
1.018527,-0.1968403,0.07462092,0.002448987,-0.000503386,-0.002827235
1.013704,-0.1964711,0.06850666,0.004979968,-0.00268988,-0.002409583
1.011436,-0.1959726,0.06172575,0.006051778,-0.0007674636,-0.002349587
1.012643,-0.1936841,0.06679813,0.001972321,0.0002262572,-0.003568287
1.014136,-0.1944054,0.07006724,-0.005252478,-0.0019743,-0.003803419
1.015826,-0.1970397,0.07025294,-0.006209263,-0.0002779246,-0.00351309
1.016726,-0.1973855,0.07228151,-0.006621396,-0.000647468,-0.002066913
1.01507,-0.1994712,0.06871285,-0.005955438,-0.001038162,-0.001019246
1.011917,-0.2041391,0.06430863,0.00106478,0.0005163826,-0.001198049
1.012209,-0.2080987,0.06061904,0.00462955,0.001172668,0.0005249951
1.013227,-0.205112,0.06102593,0.005333747,0.003685411,0.003011067
1.01293,-0.1976694,0.06649382,0.004575472,0.00439183,0.003209492
1.014204,-0.1967541,0.06349671,-0.001190395,0.004276571,0.002849448
1.013146,-0.1995373,0.06253831,-0.005762199,0.005147979,0.002974223
1.011787,-0.2028061,0.06553005,-0.004486647,0.003951977,0.0003302611
1.012791,-0.2064891,0.06177476,0.0002036326,0.004126368,-0.004453765
1.012512,-0.2064752,0.06240501,0.002574907,0.004494196,-0.00840655
1.012739,-0.2027992,0.06310023,0.002520776,0.00329728,-0.01003901
1.014396,-0.1955929,0.06161936,-0.001551114,0.002833449,-0.008023468
1.015749,-0.1924543,0.06297,-0.00764675,0.002080602,-0.006864017
1.015365,-0.1954414,0.06025304,-0.004508706,0.002372734,-0.006393717
1.013926,-0.1952868,0.05913212,-0.0005929458,0.003560205,-0.005011441
1.014209,-0.1949155,0.06015243,-0.002400429,0.004422421,-0.008358051
1.015642,-0.1952516,0.06056516,-0.00369769,0.005872133,-0.01083657
1.017167,-0.1935641,0.06297654,-0.00903184,0.006579055,-0.009411486
1.016851,-0.1921283,0.06432979,-0.01377501,0.006210579,-0.0089656
1.015189,-0.1911125,0.06621927,-0.01481042,0.004915103,-0.007350439
1.015481,-0.1927211,0.06696337,-0.0165357,0.00441869,-0.006892479
1.016349,-0.1940743,0.06599061,-0.01532697,0.006203991,-0.008051497
1.017515,-0.1947401,0.06443401,-0.01328141,0.007630169,-0.009312931
1.017606,-0.1985267,0.06185584,-0.01149064,0.008141528,-0.01150397
1.015189,-0.2001291,0.0626479,-0.01150204,0.006929328,-0.01130237
1.015216,-0.1982766,0.06366808,-0.01332929,0.005775563,-0.01215375
1.017409,-0.1948957,0.06642033,-0.009578769,0.01077563,-0.01521763
1.018431,-0.1917422,0.0708105,-0.007203605,0.01553404,-0.0148722
1.018133,-0.1937747,0.06701444,-0.009779039,0.01133137,-0.01287892
1.016598,-0.198289,0.06318335,-0.008664732,0.00795631,-0.01177151
1.01546,-0.2004595,0.06543066,-0.00216785,0.01190169,-0.01046435
1.014169,-0.1988109,0.06618953,0.006369709,0.01329453,-0.00879561
1.013408,-0.1959132,0.06568031,0.009266097,0.01025369,-0.00726559
1.014858,-0.1971812,0.06478175,0.008382802,0.00784876,-0.005880932
1.017443,-0.1980394,0.06456617,0.006653925,0.005838529,-0.005372658
1.019696,-0.1959137,0.06549696,0.001135149,0.006602358,-0.007261743
1.016297,-0.1948095,0.06253746,0.001600129,0.009664395,-0.009610545
1.010919,-0.1924929,0.05975582,0.003223368,0.01153044,-0.009220024
1.012651,-0.1923959,0.06232033,-0.001624953,0.01162669,-0.008103262
1.015356,-0.1950363,0.06588866,-0.001574822,0.00880349,-0.008044222
1.015979,-0.1942092,0.06897206,-0.001792921,0.006202818,-0.007327702
1.016865,-0.1943262,0.06891074,-0.002588355,0.0009331609,-0.007214597
1.013865,-0.1943519,0.06617528,0.003028587,-0.006912897,-0.006637604
1.011299,-0.1912227,0.06495842,0.003974816,-0.001256446,-0.004122852
1.013587,-0.1898318,0.0628194,0.001864193,0.00832961,-0.003554901
1.017259,-0.1899055,0.06757806,0.001449798,0.006666009,-0.003461623
1.019991,-0.1910116,0.0784212,-0.0002492753,0.008299793,-0.001610439
1.017397,-0.1921516,0.07876382,-0.0007485079,0.009943043,-0.0006959551
1.013098,-0.1929454,0.07457642,-0.001571711,0.006279747,-0.003197579
1.013621,-0.1928987,0.07260916,-0.001308025,0.008453616,-0.008856193
1.012983,-0.1907185,0.06868304,-0.001009254,0.008767881,-0.01110549
1.012318,-0.1916529,0.06753701,-0.002411363,0.007846425,-0.00877854
1.014568,-0.1923409,0.06989232,-0.001406251,0.01013712,-0.005717948
1.012198,-0.1910658,0.07415092,-0.001290968,0.00664526,-0.001231062
1.010341,-0.1930255,0.07698849,-0.0009337765,0.00402154,0.0002904576
1.014343,-0.1931441,0.07322948,0.0002277618,0.004813519,-0.00297117
1.015979,-0.1917338,0.0661606,-0.0006182103,0.003422111,-0.00417382
1.014372,-0.190786,0.06070669,0.001530708,0.002721294,-0.001674584
1.01352,-0.1895997,0.06142,0.002021325,0.002295834,0.000970608
1.014748,-0.1905865,0.06481497,-0.004356634,0.002714973,0.001780995
1.015966,-0.1903567,0.06476663,-0.01050257,0.003397554,0.0003910103
1.014804,-0.1903281,0.06576065,-0.01219989,0.001592655,-0.003159459
1.01431,-0.1925925,0.06639188,-0.01067163,-0.001499896,-0.005458255
1.014065,-0.1942414,0.06715429,-0.005814016,-0.004188879,-0.003466726
1.01438,-0.1950191,0.06950722,0.0002797267,-0.004290328,-0.002487869
1.015962,-0.1940299,0.0654029,-0.001524526,-0.003632126,-0.004032206
1.014867,-0.1935489,0.06318947,-0.008571377,-0.004256369,-0.002256431
1.013521,-0.1944191,0.06635869,-0.01072738,-0.004105507,-0.0001512268
1.014122,-0.196055,0.06807497,-0.0111394,-0.002489054,-0.0005846193
1.015551,-0.1980493,0.07417574,-0.01059175,2.38631e-05,0.0001037089
1.016847,-0.1963063,0.07705792,-0.01029542,0.0007419367,0.0001363032
1.016058,-0.1949898,0.07577137,-0.01073323,-0.002431411,-0.001165419
1.014956,-0.1972204,0.0779924,-0.00337102,-0.006024862,-0.003455086
1.013765,-0.2002106,0.07423061,0.005574571,-0.005808552,-0.005366221
1.014159,-0.2034425,0.06941948,0.00717957,-0.003647423,-0.003138204
1.016288,-0.2003455,0.06982632,0.004938995,-0.002580133,-0.003581086
1.015113,-0.1938595,0.06971574,0.002213058,-0.001110028,-0.006487711
1.014798,-0.1939348,0.07052326,-0.001834486,0.0008164068,-0.005619456
1.01611,-0.1949432,0.07250448,-0.00722292,0.002769898,-0.007762398
1.015724,-0.194111,0.07248087,-0.005691978,0.004582945,-0.008476893
1.017021,-0.1944514,0.06908995,-0.00147213,0.003371234,-0.003271954
1.016828,-0.1935046,0.06733198,-0.001891881,0.002099568,-0.002472965
1.015188,-0.1927035,0.06698067,-0.001692067,0.003326742,-0.005165538
1.015441,-0.1931094,0.0651743,-0.00615168,0.001979194,-0.007037732
1.015048,-0.1930918,0.06683973,-0.009559124,-0.002212238,-0.005963285
1.014976,-0.1934245,0.06741904,-0.00272507,-0.00581394,-0.003376152
1.013676,-0.1947811,0.06549701,0.002281623,-0.006028797,-0.005675315
1.011644,-0.1962467,0.06526046,0.003308671,-0.003174555,-0.006430063
1.012908,-0.1951718,0.06343718,0.00543563,0.0004868148,-0.005482646
1.014602,-0.1936733,0.06332059,0.006498737,0.005742667,-0.007968183
1.015537,-0.1946477,0.06484375,0.005585427,0.004755749,-0.008847384
1.015609,-0.1944807,0.06455439,0.00503625,-0.0004722072,-0.009705705
1.014878,-0.193229,0.06654341,0.003120972,0.002572039,-0.00971744
1.015421,-0.1933539,0.06848623,-0.001292868,0.00413227,-0.008731648
1.015047,-0.1946946,0.06873948,-0.001318843,0.00222114,-0.009784977
1.013606,-0.196675,0.06991912,-0.0008489229,0.003939353,-0.008120887
1.013936,-0.1969746,0.06916032,-0.002724133,0.003968252,-0.004591643
1.016079,-0.1969289,0.06728517,-0.00436345,0.004736436,-0.002123564
1.018531,-0.1973368,0.06648239,-0.009241454,0.003519497,-0.004213469
1.019581,-0.1952287,0.06610558,-0.009957238,0.000353847,-0.008343812
1.018886,-0.1941018,0.0661411,-0.008356812,0.002018485,-0.005997667
1.017526,-0.1963615,0.06498602,-0.009971133,0.001347682,-0.004973312
1.01712,-0.197884,0.06487885,-0.007859757,0.0005697893,-0.006468357
1.015028,-0.1973379,0.06585909,-0.004149326,0.004817409,-0.004375183
1.011211,-0.1968245,0.06583192,0.001109375,0.007644665,-0.005122042
1.012956,-0.1970822,0.06970548,0.004682325,0.006272867,-0.006725778
1.015315,-0.1955314,0.07335777,0.003018529,0.004407485,-0.00702728
1.013181,-0.1936163,0.06971204,0.001556177,0.006288523,-0.008416513
1.013785,-0.1944943,0.06518971,-0.003073474,0.00674395,-0.007804064
1.01443,-0.1947605,0.06195525,-0.006079668,0.004853574,-0.008027503
1.013509,-0.1939705,0.05872199,-0.003959954,0.005375932,-0.008770113
1.015095,-0.1933209,0.06531512,-0.004986161,0.005847802,-0.00672539
1.015546,-0.1911926,0.07636155,-0.00579129,0.006368312,-0.004029253
1.015167,-0.1902615,0.07253924,-0.004412662,0.004716672,-0.003384454
1.015361,-0.1911116,0.06607498,-0.003236694,0.00209117,-0.008757827
1.01533,-0.1900333,0.06899384,-0.001899481,0.004223126,-0.01363435
1.016127,-0.1875773,0.06837037,-0.002419151,0.005509284,-0.01190865
1.015977,-0.1855212,0.06916303,-0.003416898,0.004104618,-0.007784577
1.01472,-0.1843813,0.07235201,-0.003727544,0.002213172,-0.001294084
1.013297,-0.1867412,0.07026274,-0.004999351,-0.0007214764,-0.001460525
1.012475,-0.1903708,0.07070368,-0.00845532,-0.0003233602,-0.007095512
1.014121,-0.1906099,0.0714626,-0.01136704,0.0019039,-0.005494464
1.016051,-0.1901384,0.07158402,-0.00775936,0.003351463,-0.00659095
1.015455,-0.1903241,0.07467056,-0.002411912,0.005821303,-0.007511826
1.014741,-0.1901919,0.07509562,-0.002468515,0.0029044,-0.00114254
1.01561,-0.1900503,0.07321443,-0.002529931,-0.002511592,0.002635457
1.015335,-0.1883926,0.07189042,-0.002433487,-0.0001309444,0.004475272
1.015135,-0.1867787,0.07378401,-0.006391989,0.000169566,0.0005719548
1.016515,-0.1863147,0.07546387,-0.008588492,-0.005320941,-0.003768899
1.016406,-0.1852075,0.07114365,-0.0110541,-0.006155048,-8.759008e-05
1.014935,-0.1848075,0.06787877,-0.01633748,-0.003447064,0.002926138
1.013533,-0.1875403,0.06907826,-0.01504331,0.0008719181,0.005197441
1.015123,-0.1912609,0.07048168,-0.01139948,0.003006806,0.001519562
1.019766,-0.1924147,0.07045683,-0.01129027,0.001134466,-0.005283586
1.020597,-0.1931008,0.06981008,-0.010273,0.00151802,-0.004722784
1.015617,-0.1931975,0.069659,-0.01089695,0.0008773729,-0.004195203
1.010863,-0.1911808,0.06743397,-0.01115015,-0.0006810046,-0.002095421
1.014037,-0.1916002,0.06354142,-0.009523036,-0.0003099342,0.0002072836
1.019162,-0.1936253,0.06229209,-0.01014883,-0.0008159477,-0.001379809
1.017647,-0.1933436,0.06425057,-0.0100274,-0.000150773,0.001053333
1.016721,-0.1930341,0.06732022,-0.009892153,-0.00050497,0.004986547
1.016083,-0.1950932,0.0691681,-0.009390236,-0.002604884,0.004899539
1.014274,-0.1974663,0.07034286,-0.00493906,-0.003493995,-0.0017193
1.015947,-0.1969365,0.07113415,-0.001124112,-0.003542391,-0.008676537
1.016261,-0.1939733,0.0689361,-0.003138075,-0.001374227,-0.004633434
1.016487,-0.1901796,0.06714412,-0.01062107,-0.0001974613,0.001071097
1.017301,-0.1877866,0.06831952,-0.01540717,-0.001594365,0.0009498719
1.016087,-0.1882617,0.06784185,-0.01222147,-0.002898785,0.002599225
1.016695,-0.189765,0.06601578,-0.007945321,-0.004008365,0.002898974
1.015605,-0.1930087,0.06511912,-0.00677134,-0.004678243,-0.0005837145
1.012808,-0.1972017,0.06601444,-0.002563923,-0.006916,-0.002012281
1.012431,-0.197561,0.06828806,0.003701063,-0.008390344,-0.002211062
1.013155,-0.1941436,0.06825739,0.002225777,-0.006658926,-0.001586395
1.014657,-0.1915257,0.06744031,-0.000831522,-0.004606533,-0.000844524
1.014824,-0.1904403,0.06595885,0.0002712138,-0.001830662,7.109633e-05
1.015294,-0.1884479,0.06189902,-0.0005512966,-0.001635307,0.002210852
1.016737,-0.1887689,0.06084588,0.0006817497,-0.002745491,-0.0007383882
1.016132,-0.1923038,0.06482978,0.001617357,-0.000463314,-0.003635879
1.01506,-0.1936371,0.06787602,-0.0007271426,-0.00155355,-0.00125887
1.013576,-0.1929403,0.06595328,0.001365603,-0.003651959,-0.0009957103
1.014279,-0.1921677,0.06417279,0.004280391,-0.00222597,-0.0001654425
1.016316,-0.1922527,0.06576569,0.007519068,-0.002686141,0.002455051
1.014958,-0.193429,0.06526785,0.01217191,-0.0006725454,0.003467633
1.014811,-0.1931739,0.06373152,0.01034564,0.002812311,0.003239233
1.014906,-0.1929686,0.06314608,0.004542299,0.0004946009,0.002247176
1.013189,-0.1943126,0.06229925,0.001285883,-0.001672564,0.002757528
1.014309,-0.1955577,0.06519923,0.006100731,-0.001687227,0.0005270819
1.01615,-0.1961765,0.07062926,0.01354166,-0.002079631,-0.002709976
1.017761,-0.195441,0.07251753,0.01068396,0.0001693421,-0.001504435
1.018762,-0.1928153,0.06774438,0.009212067,0.00124722,-0.003248257
1.017868,-0.1873254,0.06093261,0.01163532,-0.002531672,-0.00656028
1.018882,-0.182608,0.06041977,0.004637008,-0.004542713,-0.004887454
1.018948,-0.1841207,0.06341257,-0.001078844,-0.002721647,-0.001863711
1.013532,-0.1868651,0.06933265,-0.0006518375,-1.924718e-05,-0.0006479123
1.007639,-0.1874238,0.07651693,-0.0009247135,0.003244539,-0.001435667
1.007973,-0.1880732,0.07414875,-0.002853404,0.005411638,-0.002483999
1.013749,-0.187787,0.07181242,-0.006187934,0.006718584,-0.003354321
1.019286,-0.1898797,0.07597826,-0.004808889,0.005633933,-0.004841842
1.020914,-0.1934015,0.07468276,-0.001864139,0.0007385755,-0.00395949
1.014896,-0.1937134,0.07257969,-0.0005729721,-0.001830115,0.0002183512
1.008195,-0.1962022,0.07250054,0.002812755,-0.001036903,0.003426654
1.011213,-0.1984007,0.07031618,0.004868021,-0.0008104553,0.003511187
1.013507,-0.1958188,0.06693245,0.008626544,-0.001572137,0.003129368
1.011483,-0.1953445,0.0596096,0.01161061,-0.001979846,0.004041214
1.012987,-0.1962091,0.05840369,0.009778687,-0.002313943,0.005081844
1.013419,-0.1956527,0.06494279,0.01156052,-0.00472914,0.005997759
1.015451,-0.1951668,0.06589009,0.01211457,-0.006633158,0.009017133
1.019234,-0.1915678,0.06486403,0.006913263,-0.00674621,0.01267271
1.015484,-0.1855621,0.06353703,-0.003272459,-0.004582288,0.009500501
1.012354,-0.1832649,0.06161739,-0.02241258,0.001141327,-0.0002978209
1.015202,-0.1848895,0.06242359,-0.03783402,0.002209913,-0.007942555
1.015944,-0.1841193,0.06077782,-0.04806942,-0.002736846,-0.01181666
1.014891,-0.1815669,0.05916208,-0.06606668,-0.006037023,-0.01206715
1.014929,-0.1829344,0.06063487,-0.07997104,-0.006108313,-0.00290112
1.013677,-0.1882001,0.06138796,-0.08650361,-0.004046937,0.007629895
1.012492,-0.1952839,0.05995161,-0.09152474,-0.003254373,0.002912962
1.015916,-0.1977455,0.05727963,-0.08484426,-0.00330477,-0.00349843
1.019094,-0.1945497,0.05730757,-0.0790469,-0.005082461,0.004069899
1.01547,-0.1931188,0.06209799,-0.08448807,-0.01452415,0.01043791
1.012446,-0.189683,0.07170144,-0.08775047,-0.02168606,0.01667796
1.015237,-0.1855289,0.07673622,-0.09320563,-0.01172681,0.02534656
1.017355,-0.1879344,0.06827926,-0.100269,0.001970731,0.02126675
1.018212,-0.1895199,0.06033509,-0.1047302,0.0001672779,0.01271333
1.019264,-0.1900832,0.06134533,-0.1137282,-0.002409825,0.006510968
1.015209,-0.1924065,0.05905042,-0.1211239,0.0002422149,0.006550322
1.010719,-0.1895729,0.05350056,-0.1305417,-0.00831317,0.01120957
1.013643,-0.1855485,0.05506455,-0.1427971,-0.01813584,0.002285424
1.01693,-0.184189,0.05665221,-0.149112,-0.02167689,-0.003069868
1.016575,-0.1834333,0.0525784,-0.1600283,-0.02206772,0.002778449
1.016789,-0.1878786,0.05142336,-0.1697669,-0.01762806,0.002940429
1.015808,-0.1957651,0.05168673,-0.1714484,-0.01950207,0.005437707
1.011994,-0.198932,0.05181229,-0.1784437,-0.02710474,0.00734727
1.009671,-0.1964325,0.05196586,-0.1857266,-0.03223632,0.004393542
1.014414,-0.1929043,0.04458445,-0.1885253,-0.02797898,0.002487213
1.020345,-0.1911742,0.03768623,-0.1931623,-0.01745418,0.002936492
1.016553,-0.1915308,0.0406804,-0.2016906,-0.01951103,0.008048731
1.013093,-0.1939359,0.04272098,-0.2159658,-0.02154174,0.0104438
1.016917,-0.1952015,0.03743667,-0.2286978,-0.01725759,0.009458378
1.018098,-0.1956543,0.0345055,-0.2320001,-0.0165184,0.005624728
1.019803,-0.198827,0.03697639,-0.2352342,-0.003461372,-0.005739541
1.022401,-0.2009428,0.03810376,-0.2425138,0.01358556,-0.0164141
1.020602,-0.1998672,0.03902504,-0.2394174,0.01950253,-0.01588301
1.017373,-0.1988874,0.03909033,-0.2300659,0.02314723,-0.00927906
1.012858,-0.1994297,0.03648339,-0.2235211,0.02648492,-0.01120179
1.015661,-0.2011816,0.03601401,-0.2138436,0.02934844,-0.01534764
1.022673,-0.2045069,0.03727778,-0.2105223,0.03319083,-0.01967533
1.01989,-0.2081959,0.03961468,-0.2036961,0.03831536,-0.02692584
1.015531,-0.2077219,0.04145241,-0.1835635,0.03866765,-0.0221237
1.035544,-0.06211943,0.01136178,-0.02430836,0.1225722,0.0376272
1.035459,-0.06014067,0.01129518,-0.03153207,0.14149,0.0388234
1.036439,-0.07153289,0.02310032,-0.008329275,0.1458053,0.02527097
1.035594,-0.08004954,0.03374707,0.006116485,0.1510139,0.01455502
1.028153,-0.06790223,0.0232761,-0.02675259,0.164639,0.03436418
1.025223,-0.04864294,0.0152284,-0.05601908,0.1708828,0.06370993
1.013626,-0.04710113,0.02913467,-0.01056615,0.1161317,0.06780248
1.001872,-0.05658234,0.03605074,0.06021103,0.04189917,0.0657339
1.02296,-0.06447996,0.01193373,0.09978018,0.01193597,0.07516267
1.041126,-0.06924166,-0.008728881,0.1043713,-0.0286017,0.07743074
1.018433,-0.06763005,-0.0006175915,0.06115296,-0.09165866,0.06460917
1.001579,-0.07284111,0.01122511,0.02190403,-0.1098366,0.05446281
1.019068,-0.07978533,0.01134372,0.01290595,-0.02967584,0.06132255
1.034501,-0.07068449,0.004187157,-0.04149203,0.1092577,0.07366728
1.037735,-0.06439627,-0.002564507,-0.1279547,0.1969372,0.07091777
1.039472,-0.07466358,0.00852621,-0.12954,0.2376786,0.03223804
1.036253,-0.08407725,0.03160228,-0.03293418,0.3034005,-0.0290813
1.037901,-0.08236377,0.03775749,0.02565841,0.3431274,-0.04673107
1.040007,-0.0806367,0.03604339,-0.04659717,0.2860876,-0.02180621
1.036234,-0.08191221,0.04167499,-0.1146408,0.1991211,-0.005251562
1.03678,-0.07964451,0.04200954,-0.0419485,0.1624573,0.01814959
1.030938,-0.07809427,0.03607827,0.01598275,0.1424982,0.03066478
1.024582,-0.07539215,0.02662829,-0.01766336,0.1115409,0.01462986
1.028528,-0.06958929,0.02017969,-0.005245833,0.1118891,0.01964673
1.027228,-0.06609711,0.02273892,0.006840741,0.1232001,0.02503017
1.024361,-0.06450535,0.02347124,-0.01208811,0.1048122,0.01896553
1.025767,-0.06649529,0.01990996,0.00443811,0.09896928,0.03058639
1.027525,-0.06936876,0.0190749,0.001323938,0.1063423,0.02995411
1.029578,-0.06928304,0.02349939,-0.003808221,0.098191,0.02517344
1.026734,-0.06882226,0.02631076,0.005317537,0.09801051,0.02694207
1.023546,-0.06778695,0.02446418,-0.005875465,0.09733701,0.01931092
1.025089,-0.06907572,0.02281065,-0.00281123,0.0873445,0.02070552
1.025582,-0.07205001,0.02104225,-0.0007224496,0.08928054,0.01772049
1.024521,-0.07207479,0.02385169,0.000884615,0.09384179,0.01333015
1.026835,-0.06914035,0.03520702,0.01665131,0.09461945,0.02855092
1.028344,-0.06304036,0.04408676,0.02691269,0.08923786,0.04179919
1.014602,-0.06300985,0.03572384,0.02783374,0.05954636,0.04018482
0.99967,-0.07179657,0.02451594,-0.007684228,0.01893719,0.01792287
1.014543,-0.07524695,0.02966287,-0.04567882,0.0186691,-0.002467952
1.027402,-0.08014818,0.03203128,-0.04853511,0.07441682,0.0008762085
1.015796,-0.08740183,0.03139498,-0.03022708,0.1087614,-0.009622221
1.026742,-0.06731703,0.03669199,0.001409609,0.06296956,-0.02871492
1.039356,-0.03949634,0.02676869,-0.02527782,0.02256794,-0.004680597
1.027702,-0.04689209,0.01492988,-0.07154128,0.06497785,0.03418102
1.030848,-0.06661768,0.02087359,-0.0511552,0.1099213,0.03703372
1.026047,-0.07772447,0.02790086,-0.04759928,0.09845173,0.03205465
1.013789,-0.08810481,0.03236395,-0.03811308,0.06520669,0.03202118
1.021233,-0.09193926,0.03472394,0.03628296,0.02066211,0.01228999
1.021082,-0.09062354,0.0276298,0.06516783,0.01916336,-0.01285972
1.023485,-0.08088637,0.01547778,-0.0132624,0.05892983,-0.02099643
1.031245,-0.07133262,0.005366649,-0.1116664,0.02841247,-0.006665541
1.028802,-0.07977145,0.009270867,-0.1014675,-0.04607809,-0.006592479
1.025997,-0.08377293,0.02978373,-0.03783267,-0.1057443,-0.05437691
1.020012,-0.07082135,0.04697722,0.007027706,-0.1427144,-0.08176554
1.016515,-0.05130359,0.04649112,0.1093335,-0.1353495,-0.0138815
1.019624,-0.0408308,0.02200628,0.2001532,-0.1369664,0.06916178
1.034522,-0.06245487,-0.00757841,0.2240084,-0.1421894,0.04875664
1.054452,-0.08950006,-0.006934997,0.2123131,-0.1335494,0.003478872
