accx,accy,accz,gyrox,gyroy,gyroz
1.018851,-0.123976,0.09792958,0.01711106,0.006122797,0.01226815
1.02238,-0.1268078,0.09935086,0.02417851,0.009710357,0.01614958
1.020781,-0.1277862,0.09811381,0.03022889,0.01032192,0.01589471
1.020218,-0.1266547,0.09751712,0.03202858,0.01341607,0.01267118
1.021344,-0.1236336,0.0974719,0.03126624,0.01685763,0.008774044
1.020522,-0.1249187,0.09657678,0.02825407,0.01593049,0.005685091
1.01979,-0.1243005,0.09774064,0.01964329,0.01353088,0.006092832
1.019216,-0.1197982,0.09730921,0.01117694,0.0117392,0.008383453
1.018307,-0.1192223,0.09815882,0.01112387,0.0115503,0.01113997
1.017996,-0.120174,0.1011657,0.01062127,0.01049437,0.01240639
1.017932,-0.1213162,0.1016211,0.009929081,0.007872243,0.0119422
1.018121,-0.1222915,0.1015734,0.01242206,0.008399571,0.01425919
1.018305,-0.1264941,0.1011669,0.01275073,0.00848392,0.01532931
1.018458,-0.132631,0.1013595,0.01346378,0.007177491,0.01358108
1.018201,-0.1286242,0.1011384,0.01419488,0.005249931,0.01666432
1.017129,-0.122015,0.09923839,0.01341148,0.003183719,0.0195562
1.017814,-0.1218544,0.1005806,0.0101479,0.005777743,0.01841148
1.0188,-0.1212108,0.1025034,0.004553559,0.006040837,0.01835649
1.017601,-0.120603,0.1001684,0.001828984,0.006527122,0.01396835
1.01797,-0.1209479,0.09859667,0.001266265,0.009679867,0.008665903
1.018489,-0.1212181,0.1007798,0.001610473,0.004460567,0.01096347
1.017787,-0.1236811,0.1003598,0.001983985,0.001063257,0.01193223
1.019167,-0.1255531,0.09920002,0.00255801,0.004586615,0.009651963
1.019789,-0.1241987,0.1017142,0.004083133,0.006931871,0.009057493
1.019462,-0.1221575,0.101472,0.002218837,0.007198959,0.008856516
1.020433,-0.1233974,0.1012259,-0.002512723,0.003840993,0.01126824
1.021189,-0.127263,0.1026532,-0.003862224,0.003656627,0.01425713
1.021903,-0.1302381,0.1016078,0.00587006,0.007268424,0.01478594
1.021936,-0.1312862,0.1006335,0.0175175,0.008982496,0.0141587
1.02055,-0.1299998,0.09614245,0.01472689,0.01067894,0.008383668
1.018878,-0.1277708,0.09032558,0.01049375,0.009521739,0.001907059
1.018548,-0.1239092,0.0899055,0.01147891,0.007313028,0.004132293
1.017389,-0.1197379,0.0931167,0.008531017,0.006596727,0.007871423
1.015021,-0.121468,0.09574084,0.009196276,0.003339415,0.007842663
1.01931,-0.1260118,0.09424991,0.01103959,0.0008215767,0.008190243
1.024606,-0.1282198,0.09448054,0.009542012,0.002325922,0.007085829
1.021863,-0.1263671,0.09775536,0.01117277,0.004577473,0.00553753
1.020201,-0.1217475,0.09900205,0.01041176,0.00461956,0.005446472
1.020573,-0.1218799,0.09852306,0.008657758,0.003402756,0.004285669
1.018729,-0.1239658,0.09542946,0.008613045,0.002954428,0.003559909
1.01936,-0.1242567,0.0942117,0.004610851,0.002540035,0.002001571
1.019954,-0.1261499,0.09773522,0.0004212006,0.002452076,-1.681245e-05
1.018969,-0.1276499,0.1021875,-0.00127174,0.002373748,0.002037589
1.019633,-0.1295878,0.1034573,0.002563105,0.001153177,0.003736043
1.019553,-0.1303476,0.09961019,0.01010207,-0.000685483,0.003147507
1.019179,-0.1299795,0.09758879,0.01322245,-0.005259755,0.005214139
1.019695,-0.1321647,0.09861568,0.01421953,-0.009021585,0.0078021
1.019145,-0.12887,0.09788232,0.01517764,-0.006504263,0.006516378
1.018516,-0.124246,0.09687653,0.01800735,-0.00410332,0.004947088
1.017926,-0.1267462,0.09700962,0.02088455,-0.00399123,0.006478854
1.01778,-0.1270445,0.09758221,0.01797445,-0.004002698,0.006763766
1.018917,-0.1256371,0.09707332,0.0143596,-0.005715448,0.006273074
1.020606,-0.12678,0.09742485,0.01362942,-0.00393037,0.00576341
1.022583,-0.1258547,0.0993411,0.01391303,-0.00122575,-2.357261e-05
1.020981,-0.1234932,0.1000578,0.01266673,-0.002877947,-0.006041726
1.018065,-0.1219945,0.09856404,0.01047506,-0.002945334,-0.006890512
1.019638,-0.1239103,0.09317716,0.01109821,-0.003434303,-0.004902893
1.020017,-0.1279703,0.08874205,0.01341119,-0.005050563,0.001353933
1.018766,-0.1282954,0.09050464,0.01845437,-0.00498768,0.008032537
1.019815,-0.1270103,0.09484291,0.02519675,-0.005165791,0.007355378
1.01929,-0.1261848,0.09835045,0.03232826,-0.001298482,0.002668618
1.018445,-0.1240696,0.1003852,0.03985177,0.001909445,-0.002170124
1.019372,-0.1227451,0.09987355,0.03744932,-7.982483e-05,-0.005642633
1.021171,-0.121326,0.09498741,0.02881781,-3.7718e-05,-0.001446006
1.023127,-0.1200157,0.09111667,0.02618877,-0.000238341,0.002158897
1.021882,-0.1214994,0.0926756,0.02165149,-0.0004275982,-0.0002724752
1.019178,-0.1228407,0.09606378,0.01455062,0.000761135,0.002630986
1.015861,-0.1237173,0.09989713,0.0148146,-0.003025767,0.003376336
1.012893,-0.1238168,0.0976265,0.01669362,-0.00598819,5.681774e-05
1.016451,-0.1213038,0.08829054,0.01463423,-0.003049946,0.001268394
1.020331,-0.1212583,0.08224058,0.01526959,-0.001156794,-0.001208593
1.020266,-0.125411,0.08109954,0.02135,-0.002648259,-0.002289726
1.021759,-0.1294583,0.08129546,0.02962472,-0.00380607,0.0004513401
1.018649,-0.1298562,0.08192691,0.0392016,-0.003979572,-0.0003893631
1.013117,-0.1277827,0.08754584,0.04937295,-0.007079904,-0.0009014012
1.016167,-0.1256833,0.09374196,0.05524938,-0.01255675,-0.001957633
1.018977,-0.121083,0.09105401,0.05236689,-0.01619175,0.0007061559
1.016653,-0.1178711,0.08817375,0.04583526,-0.01782415,0.004903018
1.017782,-0.1181788,0.08861402,0.04138619,-0.01974448,0.002407896
1.020528,-0.1174953,0.09200702,0.03618486,-0.02411394,0.002691734
1.021877,-0.1174196,0.09805868,0.02788845,-0.02875897,0.007056559
1.022096,-0.1165236,0.09542812,0.01641926,-0.03016049,0.01049125
1.020731,-0.116636,0.09248751,0.007413898,-0.02911921,0.01146491
1.020761,-0.1209724,0.0956355,0.004286593,-0.02471796,0.007355353
1.020405,-0.1256922,0.09434238,0.005198183,-0.01617533,0.0009583832
1.020213,-0.129232,0.09421302,0.01204652,-0.008561859,-0.005726921
1.021675,-0.126144,0.09695504,0.01488067,-0.004781796,-0.007843674
1.019989,-0.1194885,0.09729701,0.01134024,-0.009407094,-0.006568326
1.017997,-0.1173506,0.09752661,0.01076365,-0.01993241,-0.007551694
1.017391,-0.1177075,0.09736884,0.009604963,-0.0171096,-0.006523715
1.017994,-0.1205666,0.09889255,0.009376151,-0.009112074,-0.007353411
1.021661,-0.1216256,0.1005364,0.0084531,-0.01117432,-0.009759107
1.022348,-0.120834,0.09808253,0.006821686,-0.009510978,-0.004647387
1.020336,-0.1215108,0.0973082,0.009167407,-0.01059464,0.002526866
1.019066,-0.1205366,0.1017617,0.008278431,-0.01835304,0.008457181
1.018882,-0.1226586,0.1057878,0.009356156,-0.01965788,0.0119378
1.020013,-0.1250758,0.1045294,0.01423601,-0.01968344,0.009866396
1.018262,-0.12342,0.1014726,0.01739073,-0.01993941,0.009630664
1.017474,-0.1199092,0.09628423,0.01837319,-0.02236767,0.01106699
1.018954,-0.1130717,0.08711603,0.01224271,-0.02361459,0.009372117
1.019628,-0.1126833,0.08820557,0.008090739,-0.01565791,0.006184999
1.022794,-0.1187733,0.09679566,0.009138692,-0.01027518,0.001904874
1.024238,-0.1236332,0.09681245,0.01104749,-0.01086791,0.0001896787
1.022783,-0.1286601,0.09896355,0.0157888,-0.01089597,-0.000413756
1.020487,-0.1216789,0.1045728,0.01527003,-0.009381334,-0.004500497
1.018146,-0.1085598,0.1034254,0.01070733,-0.01087366,-0.005280215
1.019779,-0.1088185,0.1007337,0.005974643,-0.0173863,-0.0001609478
1.019922,-0.1119293,0.097965,0.003354033,-0.02042611,0.00579408
1.018709,-0.1133349,0.09971603,0.009455401,-0.01788994,0.009647028
1.01998,-0.1183985,0.1044111,0.01679166,-0.01339324,0.009009163
1.019301,-0.1204352,0.1033368,0.0212339,-0.01348585,0.008348743
1.019243,-0.1191445,0.1036703,0.02384828,-0.01441123,0.01021238
1.020169,-0.1172693,0.1030473,0.02533646,-0.007153807,0.01073727
1.020892,-0.1156951,0.09924684,0.02804052,-0.002987779,0.01229083
1.022771,-0.1140429,0.1006844,0.02625157,-0.004341001,0.01544924
1.021553,-0.1116856,0.1009733,0.0186163,-0.005510326,0.02050345
1.019811,-0.1127778,0.09797125,0.005086769,-0.008609702,0.02513287
1.020246,-0.1157433,0.09568395,-0.008618098,-0.01246909,0.02091334
1.019291,-0.1176716,0.09453667,-0.01366737,-0.013522,0.01654362
1.019258,-0.1198846,0.09875904,-0.02085735,-0.009679536,0.01855607
1.020736,-0.1220551,0.1019772,-0.02934219,-0.01003361,0.01817258
1.02095,-0.1229782,0.09536033,-0.03003676,-0.01233109,0.01804618
1.020491,-0.1229688,0.0894662,-0.02948027,-0.01057604,0.01939349
1.018685,-0.1273395,0.09512551,-0.02617248,-0.01063039,0.01806965
1.01566,-0.1323291,0.09949626,-0.02640589,-0.008098137,0.01462772
1.014788,-0.1290268,0.0935352,-0.03474078,-0.008694754,0.00504473
1.016499,-0.1264244,0.08903516,-0.03797305,-0.01165249,-0.004424329
1.017849,-0.1305193,0.09061235,-0.03864973,-0.009440197,-0.002797817
1.017682,-0.1334039,0.0951518,-0.03751574,-0.01288632,-0.0008727416
1.018149,-0.1343639,0.09541539,-0.033097,-0.01691822,-0.00548197
1.019854,-0.1352028,0.08827355,-0.03036013,-0.01618518,-0.00467823
1.01988,-0.134048,0.08632477,-0.02500934,-0.0120633,-0.0002210346
1.019121,-0.130632,0.08841135,-0.01926447,-0.006651224,0.001587686
1.020479,-0.1237461,0.08892948,-0.01017652,-0.01244035,0.009021307
1.020595,-0.1187719,0.09169096,-0.001797719,-0.01869854,0.02095275
1.01634,-0.1228884,0.09336454,-0.005482441,-0.01729011,0.02821217
1.010611,-0.1271927,0.09647738,-0.007691706,-0.02039631,0.02860941
1.009013,-0.1263233,0.09873661,-0.003542818,-0.02332382,0.02445626
1.015016,-0.1272799,0.09565399,0.003283969,-0.01974539,0.01841538
1.024026,-0.1282842,0.09367285,0.01036105,-0.01199548,0.01196289
1.027664,-0.1268202,0.09123625,0.005508295,-0.006423146,0.0131306
1.022425,-0.1237509,0.09207211,-0.004770016,-0.01238612,0.01762248
1.015007,-0.1184518,0.09727551,-0.01085442,-0.01877187,0.01398782
1.014774,-0.1167494,0.09721817,-0.02038051,-0.01485568,0.01319211
1.017851,-0.1195661,0.09511668,-0.0293615,-0.01444504,0.01480165
1.019387,-0.122615,0.09318756,-0.02890334,-0.01711497,0.01071687
1.021093,-0.127409,0.09117061,-0.02720769,-0.01448319,0.007661086
1.022092,-0.1329988,0.08834874,-0.02777876,-0.01300332,0.003065528
1.024232,-0.1371418,0.08291186,-0.02634784,-0.01070677,0.002589248
1.025311,-0.1370559,0.08417797,-0.02653885,-0.009098077,0.01033914
1.022033,-0.1326478,0.08893409,-0.02925588,-0.01102559,0.01147186
1.020125,-0.1313045,0.09058986,-0.03191293,-0.009340873,0.002817474
1.02158,-0.1313929,0.09359861,-0.03111694,-0.008213288,-0.007158472
1.022957,-0.1304528,0.08988711,-0.02710511,-0.008560041,-0.005931069
1.022148,-0.1311713,0.08314939,-0.02328726,-0.007383578,-2.550833e-05
1.021799,-0.129933,0.08544598,-0.01890386,-0.007872981,-0.002707846
1.022725,-0.12945,0.08920975,-0.01902006,-0.007756098,-0.002539594
1.02178,-0.1298041,0.09270112,-0.02446015,-0.009637307,-0.003190793
1.020903,-0.1291798,0.09538713,-0.02749654,-0.01420584,-0.007055314
1.019081,-0.1314214,0.09300598,-0.02466923,-0.01359462,-0.0053171
1.017221,-0.1307161,0.08966654,-0.01640741,-0.008229862,-0.006089144
1.019547,-0.1297491,0.0850963,-0.009304374,-0.004519803,-0.002328616
1.02177,-0.1314277,0.08486652,-0.006801064,-0.005202828,0.003785776
1.022134,-0.1300428,0.09020624,-0.006188071,-0.006868842,-0.001736605
1.020713,-0.12967,0.09193836,-0.006304192,-0.008104836,-0.005535586
1.018487,-0.1264872,0.09482185,-0.01217011,-0.01058811,-0.003725289
1.020331,-0.1216853,0.09602326,-0.02721833,-0.00976624,-0.004714061
1.024399,-0.1237275,0.09321579,-0.03497128,-0.006867264,-0.006092199
1.026768,-0.1256856,0.09616013,-0.03086509,-0.008822332,-0.004015603
1.023704,-0.1266484,0.09626289,-0.03052088,-0.01431289,0.002861788
1.016694,-0.1295852,0.0936784,-0.02943968,-0.02243559,0.01124546
1.014855,-0.1305618,0.09637986,-0.0211729,-0.02933957,0.0137158
1.017545,-0.1307506,0.09372395,-0.01366752,-0.03298886,0.01044578
1.022063,-0.132542,0.08767998,-0.01141247,-0.03750257,0.01081324
1.026897,-0.1333249,0.08567856,-0.01071211,-0.02818941,0.01043909
1.025257,-0.1305165,0.08656764,-0.007396116,-0.01122052,0.006563466
1.022442,-0.1272591,0.09069055,-0.008562034,-0.01459084,0.007487823
1.022451,-0.1272733,0.09289061,-0.0168069,-0.01725376,0.004233493
1.020104,-0.1283251,0.0938754,-0.02417346,-0.009329368,-0.002323247
1.02014,-0.1283409,0.09409445,-0.02798213,-0.01277453,-0.002383047
1.020892,-0.1312988,0.08774074,-0.02819325,-0.01366365,-0.003674499
1.018699,-0.1355125,0.08286672,-0.02670861,-0.009464953,-0.004933494
1.020304,-0.1344378,0.08534326,-0.02265879,-0.009236177,-0.003350959
1.021516,-0.1330899,0.08715508,-0.01685054,-0.005055375,-0.002691199
1.019417,-0.1343694,0.08454642,-0.01753979,-0.007446832,-0.0002831523
1.019312,-0.1330156,0.08216647,-0.01921383,-0.01227895,0.0004036654
1.019448,-0.1309374,0.08197219,-0.0170941,-0.008943227,-0.001556269
1.019434,-0.1304731,0.08141334,-0.01879399,-0.01019227,-0.001239235
1.019916,-0.1303047,0.08193577,-0.02059945,-0.01218098,-0.00303179
1.021041,-0.1308757,0.08301135,-0.02090983,-0.01005391,-0.005566286
1.022935,-0.1312099,0.08233391,-0.02211369,-0.009717281,-0.003701625
1.022019,-0.1301826,0.08148748,-0.02023537,-0.008831462,-0.002644745
1.019952,-0.1287306,0.0808414,-0.01942932,-0.008612378,-0.00157401
1.019616,-0.1278461,0.07912684,-0.01909099,-0.008146719,0.0002007077
1.020933,-0.12823,0.07829138,-0.01481631,-0.00537662,-0.0009700938
1.023061,-0.1298541,0.08406305,-0.01397905,-0.003738178,-0.0006730903
1.022242,-0.1327524,0.08944957,-0.01798378,-0.00321001,-0.0006928184
1.020867,-0.1339906,0.08930405,-0.02128201,-0.004133074,-0.002041379
1.021939,-0.1311592,0.09046032,-0.0221773,-0.005087663,-0.0002646857
1.0223,-0.1299701,0.08898517,-0.02168455,-0.003321364,-0.0002166353
1.022302,-0.1318892,0.08799444,-0.02305333,-0.0022787,-0.001553926
1.022254,-0.1332979,0.08816496,-0.02374575,-0.003340397,-0.0008952386
1.021854,-0.1345662,0.08428234,-0.01934459,-0.003775458,-0.001405698
1.02155,-0.1345454,0.08217843,-0.01434636,-0.003317613,-0.001195786
1.020452,-0.1327403,0.07869633,-0.01371008,-0.003565549,-0.0005789687
1.020845,-0.1305122,0.08222699,-0.01472702,-0.005201733,-0.002825694
1.022117,-0.1299787,0.09207467,-0.01421722,-0.005150277,-0.003764462
1.02201,-0.1310084,0.09071004,-0.01449733,-0.001729117,-0.001579606
1.021345,-0.1304504,0.08943905,-0.01569374,0.0003093256,-0.0007348377
1.019568,-0.1309109,0.08990725,-0.01509863,-0.0004354718,-0.004878707
1.018964,-0.1335309,0.08475873,-0.01394481,-0.001767048,-0.008576417
1.019953,-0.134933,0.08210002,-0.01350426,-0.004178556,-0.002905701
1.020229,-0.1333701,0.08282999,-0.01406092,-0.004274501,0.002852321
1.021055,-0.1308107,0.0833716,-0.01609727,-0.003949423,0.0006593508
1.021071,-0.1317208,0.08116628,-0.01907047,-0.01058227,0.001587809
1.020661,-0.1317594,0.08155611,-0.02287743,-0.01614002,0.004387022
1.021936,-0.1295996,0.08296459,-0.02490169,-0.01383519,0.001890948
1.022134,-0.1307231,0.08172553,-0.01887779,-0.01039578,0.00132264
1.020409,-0.1309249,0.08590207,-0.009240632,-0.008157137,0.001530382
1.018856,-0.130051,0.0888332,-0.006409626,-0.00628399,-0.002582179
1.019397,-0.1323367,0.08674576,-0.003054371,-0.004692428,-0.00466437
1.020827,-0.1376059,0.08469208,0.001201571,-0.002031867,-0.004718089
1.020824,-0.1435455,0.08264005,-0.0001377585,0.002810945,-0.006202821
1.020529,-0.1415072,0.08415007,0.003428959,0.007471593,-0.008205194
1.019106,-0.1359702,0.085247,0.001425367,0.007778423,-0.01125805
1.017155,-0.1356582,0.0835779,-0.008685232,0.005385726,-0.01130158
1.01749,-0.1323452,0.08392508,-0.007466372,0.003951252,-0.01043999
1.018337,-0.1286947,0.08773506,-0.009431126,0.004750221,-0.0120877
1.018905,-0.129707,0.09207862,-0.01684163,0.005176377,-0.00978944
1.018994,-0.1296935,0.09097123,-0.01770179,0.002716288,-0.008615691
1.01826,-0.1313971,0.08822138,-0.01902371,0.0001182932,-0.00883228
1.018166,-0.1338985,0.08713036,-0.01587189,-0.001981912,-0.001895873
1.018076,-0.1356536,0.08494207,-0.01281615,-0.003256389,0.001873121
1.019054,-0.1372654,0.08294387,-0.01148091,-0.002614697,-0.001333422
1.020879,-0.1353187,0.07941934,-0.004276661,-0.002094315,-0.002343538
1.020772,-0.1344627,0.07688773,-0.004250235,-0.002412418,-0.001664854
1.019931,-0.1325045,0.08010541,-0.007175448,-0.003496587,-0.001345921
1.019357,-0.1288813,0.08462501,-0.005461178,-0.005415162,-0.001697437
1.020142,-0.1308347,0.08718603,-0.007880848,-0.008068159,-0.003775801
1.021285,-0.1311539,0.08799834,-0.008620544,-0.009002269,-0.005683045
1.01964,-0.1297853,0.08708227,-0.006980584,-0.004780998,-0.004501593
1.018241,-0.1308924,0.08552785,-0.007683533,-0.0005397305,-0.002337768
1.018862,-0.1293406,0.08522969,-0.007058944,-0.002132619,-0.00222691
1.019617,-0.1280308,0.08895445,-0.008940122,-0.003882146,-0.002969221
1.019715,-0.1283974,0.09317888,-0.01343258,-0.002370161,-0.005609582
1.019507,-0.1283714,0.09121262,-0.01660352,-0.002988493,-0.00860554
1.021295,-0.1278936,0.08811196,-0.01942375,-0.003030841,-0.009408765
1.022934,-0.1276289,0.08732186,-0.02011425,0.00186859,-0.01120791
1.022183,-0.1298882,0.08373844,-0.01954049,0.0047104,-0.01322325
1.021637,-0.1308192,0.0827008,-0.01705672,0.003312574,-0.01312072
1.020598,-0.1284513,0.08449026,-0.01391085,0.002958553,-0.01211442
1.018887,-0.126481,0.08278491,-0.01531618,0.00337228,-0.009982768
1.019161,-0.1275068,0.08408426,-0.01781555,0.002577072,-0.00753362
1.019916,-0.1319863,0.08576054,-0.02015042,0.001401018,-0.00840847
1.019602,-0.1345073,0.08327454,-0.01695977,0.0004472376,-0.01115822
1.020735,-0.1333157,0.08140418,-0.007120059,0.001950985,-0.01298664
1.021278,-0.1327355,0.07878516,-0.005801088,0.005577377,-0.01738067
1.018878,-0.1326756,0.08098401,-0.01043543,0.005155942,-0.02114078
1.019219,-0.131761,0.08581952,-0.01325185,0.0009489843,-0.01863582
1.021986,-0.1319502,0.08452033,-0.01517549,-0.0005949478,-0.01646047
1.022246,-0.134115,0.08541258,-0.01512395,0.005061966,-0.01933909
1.02124,-0.1344598,0.08738365,-0.01836376,0.01216234,-0.0208393
1.019609,-0.1311532,0.08693078,-0.02219568,0.009037424,-0.01774803
1.018947,-0.1281725,0.08858837,-0.02263612,0.003781956,-0.01547147
1.019762,-0.1295836,0.08909786,-0.02061835,0.003279869,-0.01367028
1.019384,-0.1317978,0.09038661,-0.01707557,-0.0001028602,-0.007915115
1.019324,-0.1301619,0.09029783,-0.01777985,-0.002405344,-0.001016499
1.019633,-0.1301412,0.08450735,-0.01678639,-0.003579837,0.002833813
1.019283,-0.1316379,0.08087192,-0.01390288,-0.005693897,0.005059027
1.019523,-0.1317867,0.08160151,-0.01426722,-0.005884579,0.008346946
1.020173,-0.1342005,0.08420486,-0.01044519,-0.007790285,0.007663498
1.022936,-0.1346883,0.08477148,-0.006127128,-0.0068518,0.002400249
1.026194,-0.1341317,0.08319102,-0.004535671,-0.003077834,-0.001660275
1.025169,-0.1347348,0.08445544,-0.004334887,-0.0006855852,-0.006191075
1.022234,-0.1306302,0.08451391,-0.007559857,0.003932562,-0.009584925
1.01841,-0.1270172,0.08492865,-0.008612419,0.006569513,-0.01373558
1.013645,-0.1273701,0.08635853,-0.009285883,0.006311251,-0.01867893
1.014617,-0.1273091,0.08418038,-0.01166988,0.005726558,-0.01301987
1.017864,-0.1274314,0.08511177,-0.0101943,0.00442962,-0.006247621
1.017225,-0.1296548,0.08642056,-0.005983562,0.005392627,-0.007597491
1.019428,-0.1326851,0.08410816,-0.00094335,0.01079469,-0.006110417
1.022263,-0.1330224,0.08310888,0.002280741,0.01744664,-0.0030736
1.021587,-0.132084,0.08016301,0.001962616,0.01653347,-0.002103318
1.020767,-0.128511,0.07662198,0.001731949,0.01377279,-0.001788067
1.017805,-0.1229166,0.07827945,0.0007750856,0.01430543,-0.004469318
1.017798,-0.1249864,0.08425404,-0.002415915,0.009461706,-0.006647218
1.021836,-0.1295362,0.08564798,-0.004416682,0.008412698,-0.007967995
1.023378,-0.1303909,0.08148957,-0.002559013,0.01433464,-0.01124158
1.024073,-0.1305909,0.08467484,0.0001340721,0.01565493,-0.01196831
1.022197,-0.1260802,0.08821116,-0.001478348,0.01301636,-0.01189373
1.020102,-0.1231668,0.08647065,-0.003303073,0.008911537,-0.01353831
1.021246,-0.1262211,0.08750284,-0.002177359,0.008616129,-0.01110269
1.022246,-0.1268935,0.08295305,-0.001507549,0.01319447,-0.009440909
1.022881,-0.1277444,0.07912545,-0.0006150625,0.01611117,-0.01227322
1.021635,-0.1289315,0.08473824,-0.00405544,0.01567606,-0.01347166
1.020924,-0.1284659,0.08717847,-0.01101136,0.01151008,-0.01335491
1.019791,-0.1295346,0.08536979,-0.01241911,0.01016189,-0.01080646
1.01609,-0.1277364,0.08491139,-0.01392624,0.009859228,-0.007125784
1.016643,-0.1266287,0.09015359,-0.01799241,0.0002990359,-0.003543852
1.018899,-0.1288373,0.09338777,-0.01793267,-0.009437556,0.004032125
1.020067,-0.1274818,0.08302154,-0.011486,-0.01183287,0.0124049
1.021257,-0.1284242,0.07459499,0.006145503,-0.01511101,0.0195073
1.020614,-0.1338588,0.07991183,0.03044191,-0.02058165,0.01989048
1.019587,-0.1368123,0.08517682,0.04370605,-0.01830683,0.01503638
1.017337,-0.1344476,0.08289455,0.04222952,-0.01239785,0.01405731
1.016364,-0.1276174,0.08407489,0.03964511,-0.0139191,0.009737257
1.018771,-0.1240074,0.08564776,0.03758581,-0.01000595,0.008354122
1.020942,-0.1232476,0.08209955,0.0309707,-0.00317421,0.01249199
1.021323,-0.122098,0.08619578,0.02639069,-0.009964275,0.009669777
1.020792,-0.1226953,0.08971486,0.02299066,-0.01340007,0.01056589
1.022687,-0.1218514,0.08802763,0.01967574,-0.005312117,0.01229513
1.02367,-0.1220874,0.09031209,0.02030411,-0.001134701,0.00903051
1.019899,-0.1233369,0.08871301,0.01878417,-0.00481264,0.009102737
1.017381,-0.124236,0.08695664,0.01599203,-0.006486921,0.005473311
1.020389,-0.1276007,0.08652167,0.01433005,0.002018838,0.003101021
1.023884,-0.1267521,0.08163972,0.01244413,0.007382888,0.0004697414
1.021753,-0.1248237,0.07965219,0.01246088,-0.0005364669,-0.00690617
1.019425,-0.1245585,0.08132876,0.01145144,-0.005571703,-0.004491357
1.018896,-0.1214556,0.08539719,0.01268365,0.003417937,-0.003441367
1.016787,-0.123494,0.08881566,0.01560483,0.01079681,-0.01008158
1.016458,-0.1260839,0.08734129,0.0140708,0.004111184,-0.01208732
1.016084,-0.1216043,0.08477703,0.01228023,0.001004703,-0.01175323
1.018847,-0.1188487,0.08260607,0.006892319,0.008076805,-0.01152303
1.023973,-0.1193653,0.08173948,-0.003039056,0.009099608,-0.01399123
1.019743,-0.1197754,0.08398118,-0.009559774,0.00202811,-0.01562952
1.016427,-0.1212244,0.08740009,-0.01232091,-0.004282905,-0.01187094
1.021919,-0.1254559,0.0881028,-0.0128003,-0.001859204,-0.009659269
1.025077,-0.1293792,0.08714885,-0.0137989,0.004274333,-0.01127065
1.025249,-0.128045,0.0868901,-0.0165448,0.006764186,-0.01435383
1.024711,-0.1262703,0.08377249,-0.01960095,0.0117739,-0.01620353
1.022941,-0.1262819,0.08005285,-0.02132292,0.01464141,-0.0194395
1.021915,-0.125463,0.07997915,-0.02107189,0.01251248,-0.02489629
1.021757,-0.1278541,0.07905167,-0.02306482,0.0125624,-0.02497604
1.021835,-0.1292022,0.07723353,-0.02288458,0.01194304,-0.02095966
1.021238,-0.1262278,0.08217728,-0.01615435,0.01145869,-0.01867445
1.020903,-0.1261381,0.09058179,-0.0133324,0.01310797,-0.01914994
1.019398,-0.1248183,0.09380889,-0.01726086,0.01271252,-0.01792248
1.0169,-0.1224034,0.09314177,-0.01936785,0.006720332,-0.01083692
1.018283,-0.1244925,0.08993386,-0.01844745,-0.002331107,-0.003453018
1.019588,-0.1250943,0.08793666,-0.01807458,-0.003646756,-0.001353303
1.01885,-0.1249237,0.08813772,-0.01819522,-0.000122333,-0.00275101
1.018999,-0.1239843,0.08795653,-0.01982167,0.0006355591,-0.002242728
1.017655,-0.1209807,0.09043269,-0.02131693,0.002713506,-0.001386197
1.017879,-0.1207328,0.09057128,-0.01641462,0.002386487,-0.004382962
1.019592,-0.1211662,0.09116625,-0.01034781,-0.0008944542,-0.007472534
1.019244,-0.123753,0.09240398,-0.01039056,-0.0003021707,-0.009342694
1.019651,-0.1270086,0.08586243,-0.009834376,0.002348588,-0.008489969
1.019465,-0.1264638,0.08320327,-0.006107622,0.005650474,-0.00628293
1.019173,-0.1264944,0.08329193,-0.003891649,0.00544172,-0.006924365
1.019809,-0.1272418,0.08107823,-0.003166775,0.0002714724,-0.003204641
1.019181,-0.1277077,0.08268112,-0.003436566,-0.0005087605,0.002930084
1.019495,-0.1262277,0.0835521,-0.001859503,0.001183367,0.004638027
1.019778,-0.1243435,0.08525853,0.002870713,0.0009055291,0.006983289
1.020253,-0.127305,0.08611201,0.005411275,0.00223253,0.007492093
1.022243,-0.1304138,0.08824243,0.007572076,0.003422624,0.005468366
1.022296,-0.1304232,0.09293447,0.01304742,0.004626435,0.005769583
1.021207,-0.127181,0.08740894,0.01567458,0.004967378,0.004463215
1.020592,-0.1217094,0.08250078,0.01133924,0.002947642,0.002284615
1.020688,-0.1200573,0.08716869,0.00740831,0.003079714,0.001985789
1.021118,-0.1227065,0.09013824,0.009055417,0.004263253,0.001721855
1.020648,-0.1242503,0.09086485,0.007450933,0.004952037,0.002535384
1.020834,-0.1215108,0.09084389,0.003193748,0.005094705,0.00299963
1.020796,-0.118966,0.08779013,0.004742397,0.003742809,0.004023833
1.019934,-0.1199858,0.08679176,0.005717887,0.002651202,0.00681583
1.020202,-0.122183,0.09207658,0.006580125,0.0005869627,0.00617314
1.021135,-0.1243844,0.09525821,0.0120888,-0.000836625,0.005423966
1.021995,-0.1239865,0.09411021,0.01497406,-0.002054228,0.006508175
1.022282,-0.122905,0.09242473,0.0137664,-0.006386714,0.004376624
1.02229,-0.124012,0.08634736,0.01168516,-0.008077013,0.001876445
1.022236,-0.1236643,0.08175773,0.008905726,-0.007041073,-0.001319384
1.022095,-0.1231035,0.08471664,0.004508853,-0.005769358,-0.00378061
1.022009,-0.1230613,0.08768471,0.001003897,-0.00255977,0.001910462
1.02038,-0.1219493,0.08610855,0.003003589,-0.001593042,0.007564328
1.018655,-0.12298,0.08618254,0.004313885,-0.001200168,0.003827509
1.018125,-0.1239044,0.08887408,0.002680333,-0.0003119257,0.0007892295
1.016268,-0.1216302,0.08810863,0.003269177,-0.003029422,0.003660418
1.014853,-0.1203501,0.08868306,0.002081938,-0.004803496,0.003432474
1.016995,-0.1220635,0.08923717,0.0006160101,-0.004437788,0.001735319
1.019053,-0.1245664,0.08536501,0.0004361438,-0.003766052,0.001686264
1.018119,-0.1249478,0.08460996,-0.00209002,-0.00239946,0.0002552968
1.018539,-0.1222743,0.0863954,-0.001264261,-0.004302652,0.003124902
1.020341,-0.1195249,0.08812156,0.00165192,-0.01032725,0.009726943
1.020415,-0.118807,0.08816615,0.003842529,-0.01468221,0.01790335
1.021908,-0.1181566,0.08748509,0.009031974,-0.01171324,0.02442312
1.023996,-0.1174678,0.08833936,0.0121685,-0.006969374,0.01717108
1.024485,-0.1183863,0.08184867,0.01188859,-0.001483408,0.008784918
1.02512,-0.1182194,0.07650382,0.01098272,0.00802562,0.009499296
1.023884,-0.1179613,0.08660638,0.00567566,0.006393155,0.006485307
1.021244,-0.1202422,0.09842158,-0.004072155,0.0004471028,0.006752021
1.019876,-0.1217883,0.09839518,-0.0101449,0.0006672731,0.01147948
1.018095,-0.1246265,0.09210567,-0.007814014,-0.01115769,0.01078584
1.016068,-0.1310968,0.08445234,-0.0006546706,-0.02064755,0.01328375
1.016961,-0.1348248,0.0776377,0.007719535,-0.01736934,0.01852152
1.020785,-0.1316228,0.08516029,0.01235833,-0.02027082,0.0222029
1.023171,-0.1279894,0.09973782,0.0148321,-0.0197387,0.02426765
1.021861,-0.1294266,0.09984689,0.01552639,-0.01143077,0.01916318
1.019083,-0.1291929,0.09571305,0.004801211,-0.006309873,0.01363604
1.017954,-0.1267318,0.09043149,-0.006746128,-0.001196145,0.008801375
1.020559,-0.1265624,0.08151422,-0.0138016,0.003680395,0.0006960388
1.023772,-0.1270419,0.08438227,-0.02214805,0.002935715,-0.001736598
1.024165,-0.1297363,0.08961326,-0.01621345,0.0002778998,-0.00393155
1.024125,-0.1324101,0.08828405,-0.005749682,0.004545536,-0.008984179
1.022127,-0.1333738,0.08947643,-0.005159389,0.007564377,-0.005060196
1.017759,-0.1329774,0.08938337,0.0005827786,0.002237645,-0.0002233861
1.018164,-0.1293422,0.08784779,0.003027571,0.0002313455,-0.0007045036
1.019983,-0.1267334,0.0883145,-0.0006300471,0.0003567169,0.00465805
1.018756,-0.1251868,0.08865366,0.006533787,-0.004696776,0.01276354
1.019756,-0.127554,0.08864789,0.01514645,-0.01091765,0.01644279
1.019756,-0.1326878,0.08730715,0.01912665,-0.01119709,0.01862089
1.018933,-0.1296181,0.0863843,0.02019744,-0.00760753,0.01992989
1.021144,-0.1278359,0.08504438,0.01569215,-0.008976146,0.01998195
1.021757,-0.1322964,0.08262065,0.01616621,-0.009575984,0.01706205
1.022396,-0.1357794,0.08175314,0.01763075,-0.007662975,0.01143786
1.022788,-0.1391595,0.08068004,0.01565075,-0.005779639,0.004149555
1.022324,-0.1334205,0.08366568,0.01624692,-0.0001641584,-0.003400509
1.023615,-0.1245207,0.08772072,0.008140882,0.00013621,-0.002126091
1.022696,-0.1268266,0.08411364,-0.0005233866,-0.001979742,-1.086912e-05
1.022405,-0.1275599,0.08259914,0.002624734,0.0002506608,-0.004732973
1.021916,-0.125181,0.08656909,0.004767025,-0.0002188071,-0.001516849
1.016982,-0.1279452,0.08815594,0.004684322,-0.0006735809,0.005002697
1.014804,-0.1282375,0.08656321,0.006363548,-0.003338066,0.01002278
1.017978,-0.1272308,0.08371628,0.007433465,-0.006175497,0.01726496
1.02257,-0.1278494,0.08108275,0.009271252,0.0008448115,0.01410072
1.023087,-0.1257885,0.07861166,0.01186024,0.005202207,0.01039958
1.020983,-0.1249446,0.08028532,0.007676999,-0.004444243,0.01641572
1.020867,-0.1278697,0.08337648,0.00104943,-0.01317551,0.01758241
1.019158,-0.1310137,0.08071335,0.00439323,-0.007357131,0.01837607
1.019881,-0.1311566,0.07988247,0.006390422,-0.002693965,0.02494207
1.022919,-0.1298859,0.08213536,0.00335585,-0.00875245,0.02840155
1.021859,-0.1308096,0.08191352,0.000827476,-0.01372039,0.02672264
1.020885,-0.1307489,0.0816655,-0.009362412,-0.02320717,0.02473779
1.019057,-0.1310253,0.08016942,-0.02061656,-0.03342406,0.02544684
1.01704,-0.1357661,0.07846077,-0.02453928,-0.03166961,0.02184515
1.01835,-0.1404726,0.07901254,-0.0230713,-0.0294172,0.01436542
1.018236,-0.1412901,0.07778195,-0.02020178,-0.02556148,0.01087515
1.017752,-0.1404002,0.07325466,-0.01958127,-0.01837933,0.005679814
1.018462,-0.1436743,0.06887585,-0.01747031,-0.01998257,-0.002906415
1.01938,-0.1464588,0.07012072,-0.01517892,-0.02171161,-0.008681843
1.022407,-0.1399941,0.07591562,-0.01181071,-0.01763738,-0.008456961
1.024753,-0.132902,0.07957953,-0.00468773,-0.01599178,-0.00302626
1.024566,-0.131462,0.08095504,-0.0006414544,-0.01635909,0.004782759
1.024441,-0.1306973,0.08122584,-0.005732279,-0.01878424,0.01430687
1.023631,-0.1310493,0.08093684,-0.01382598,-0.02380771,0.01708304
1.021504,-0.1343655,0.08226968,-0.01039536,-0.02569535,0.01420169
1.021849,-0.1386746,0.08238871,-0.004484598,-0.02525513,0.01851859
1.023488,-0.1430795,0.08043603,-0.001209368,-0.02519416,0.02647146
1.024454,-0.1459939,0.07778891,0.01109062,-0.01933155,0.02952505
1.027167,-0.1475441,0.07410929,0.01803845,-0.007570004,0.02225426
1.026736,-0.1508084,0.07640137,0.0193523,-0.0006373676,0.01483507
1.023176,-0.1495573,0.08244215,0.0244408,-0.002161241,0.01945103
1.02186,-0.1441922,0.08154024,0.02405094,-0.003777881,0.02030669
1.020367,-0.1439265,0.07784658,0.02380402,-0.00240331,0.01691746
1.021373,-0.1420675,0.07426736,0.02418774,-0.003765449,0.01727777
1.023305,-0.1371993,0.07120461,0.02046654,-0.007445972,0.01436432
1.021698,-0.1368006,0.07120263,0.01777656,-0.009764341,0.01368558
1.022153,-0.1427302,0.07117411,0.01804183,-0.00737739,0.01394609
1.022636,-0.1495131,0.07209255,0.02102009,-0.002666833,0.01255551
1.021395,-0.1440441,0.0701243,0.020747,-0.003244763,0.01292368
1.020755,-0.1375944,0.0662862,0.01835904,-0.001346195,0.01019114
1.018996,-0.1411849,0.06874041,0.01561747,0.00483047,0.006771543
1.019993,-0.1406597,0.07043117,0.01011725,0.004880083,0.002934576
1.021769,-0.1393835,0.07076005,0.009031938,0.005771695,-0.00133221
1.020489,-0.1410746,0.0725077,0.00982156,0.01100488,-0.007281912
1.021054,-0.1398758,0.07223797,0.007503543,0.0152342,-0.01486549
1.022932,-0.1402652,0.074205,0.004225188,0.01732484,-0.01033261
1.023723,-0.1402023,0.07570737,-0.0006321046,0.01501207,-0.00496436
1.023038,-0.138135,0.0744166,-0.003640955,0.01414599,-0.00979723
1.020668,-0.1375858,0.07326648,-0.004926807,0.01639041,-0.007852583
1.017759,-0.1389575,0.07214635,-0.005563518,0.01568536,-0.001982238
1.014837,-0.1411977,0.07546475,-0.004566296,0.01254499,-0.0005270195
1.017029,-0.1404289,0.08050477,-0.006571847,0.009165583,-0.004488859
1.021478,-0.1397909,0.07926054,-0.009082518,0.009980103,-0.01255709
1.019325,-0.1420907,0.07362213,-0.008313423,0.01120719,-0.01279847
1.018399,-0.1435559,0.07024209,-0.007404467,0.006558688,-0.01180942
1.020553,-0.1449044,0.06950133,-0.005571209,0.004059761,-0.01255013
1.018936,-0.1455204,0.06909397,-0.002640665,0.005797546,-0.006274493
1.019081,-0.147395,0.07103561,0.0005757252,0.007584767,-0.006202748
1.019148,-0.150936,0.0709672,0.004249052,0.00993749,-0.01098303
1.017163,-0.1475942,0.06943003,0.006970124,0.01095327,-0.01134307
1.018301,-0.1429756,0.07357591,0.01080493,0.009947578,-0.0130813
1.018454,-0.144636,0.07683562,0.01444604,0.007486499,-0.01210377
1.019086,-0.1448829,0.07768339,0.01479175,0.005270785,-0.01045009
1.022756,-0.1439115,0.07817467,0.01159491,0.006118501,-0.01138947
1.024152,-0.1447761,0.0744613,0.005801346,0.007304805,-0.01211441
1.02286,-0.1440279,0.07268436,0.00672152,0.006414088,-0.01435155
1.021539,-0.1419849,0.07372939,0.01170393,0.006083873,-0.01307756
1.021926,-0.1382919,0.07269446,0.01111919,0.006611864,-0.01072937
1.020828,-0.1345144,0.07196462,0.01125113,0.005978919,-0.0093471
1.018435,-0.1346973,0.07226021,0.009880294,0.004645141,-0.006004031
1.019487,-0.1374591,0.07384044,0.00678078,0.002340054,-0.007275435
1.019893,-0.1415534,0.07656938,0.008651938,0.00120004,-0.008670717
1.018998,-0.144364,0.07849786,0.009591211,0.004524495,-0.007159934
1.019661,-0.1430633,0.07797282,0.01063406,0.007825145,-0.008852311
1.019461,-0.1411873,0.07602266,0.01180836,0.008702775,-0.01028482
1.019302,-0.1372998,0.0755589,0.009798721,0.009806432,-0.01086122
1.01978,-0.1318656,0.07478972,0.007563438,0.0102067,-0.01080635
1.020237,-0.1352211,0.07463523,0.004991557,0.009694391,-0.008917811
1.020954,-0.1407973,0.07555159,0.005734934,0.00960718,-0.009198747
1.020077,-0.1371371,0.07483302,0.00657166,0.008047837,-0.009024544
1.018554,-0.1337564,0.07587342,0.004134562,0.005186103,-0.005928319
1.017701,-0.1336311,0.07679268,0.004553056,0.005479422,-0.002696768
1.016524,-0.1334434,0.0752032,0.004553066,0.006938539,0.0006404236
1.017306,-0.1355881,0.07481162,0.001733366,0.006205238,0.0002597726
1.019716,-0.1347079,0.07491799,-0.000936503,0.004895796,-0.002776651
1.019323,-0.1332084,0.0751168,-0.002213755,0.001796609,-0.002351095
1.017351,-0.1344091,0.07467759,-0.002761791,0.0002047862,-0.004271518
1.01671,-0.1327017,0.07302094,-0.004768817,0.003911866,-0.009719146
1.01814,-0.1316008,0.07191392,-0.006561776,0.007950298,-0.01230961
1.02037,-0.1324194,0.0722113,-0.007389351,0.009623788,-0.01351743
1.019584,-0.1345625,0.0740713,-0.00664112,0.0105823,-0.0137475
1.01879,-0.1370743,0.07404372,-0.004793323,0.01388685,-0.01119056
1.019997,-0.1351569,0.07339988,-0.005356274,0.01756218,-0.007536175
1.019289,-0.1343615,0.07531443,-0.009675544,0.01496756,-0.00689927
1.019233,-0.1368448,0.07591377,-0.01382584,0.009419482,-0.006752819
1.019822,-0.1378271,0.07628165,-0.009792307,0.006544515,-0.002038098
1.019299,-0.1364286,0.07840084,-0.004009801,0.005227139,0.001912842
1.020475,-0.1336307,0.07822336,-0.003277687,0.00420605,0.005030236
1.020996,-0.1329225,0.07710193,0.001251181,0.001955286,0.005253311
1.019846,-0.1334015,0.0780748,0.004824699,-0.0005581371,-0.002007196
1.019367,-0.1329982,0.07796333,0.002000091,-0.001803813,-0.003477111
1.020357,-0.1316229,0.0762752,0.0008623807,-0.002210574,0.000786173
1.022286,-0.1307386,0.07278632,-0.0006255269,-6.082892e-05,0.002300457
1.022278,-0.1349475,0.06787617,-0.00364781,0.002060114,0.005961241
1.021153,-0.1389019,0.06953145,-0.003607685,0.002712684,0.004889174
1.020673,-0.1359318,0.07267315,-0.003800087,0.007471255,-0.00237421
1.020645,-0.1332384,0.07091466,-0.004480627,0.01308155,-0.004808246
1.021089,-0.1350833,0.07499965,-0.004202665,0.01040666,-0.004256735
1.020556,-0.1352253,0.08015592,-0.006815228,0.004211843,-0.00345724
1.019839,-0.1340301,0.07845136,-0.009729292,0.002836737,-0.001082855
1.01974,-0.1351119,0.07907822,-0.009493836,0.002765027,0.001855511
1.02093,-0.135311,0.08171343,-0.007146299,0.004960042,0.002372728
1.023064,-0.1368622,0.08189199,-0.001139883,0.009093364,-0.001953003
1.022372,-0.1392355,0.08069371,0.00328772,0.007965532,-0.006491406
1.021637,-0.1372785,0.0769303,0.0001681335,0.006880239,-0.01022178
1.022514,-0.1366139,0.07326319,-0.003929757,0.006343572,-0.01276023
1.021025,-0.1371326,0.07414969,-0.005288639,0.004953895,-0.01098645
1.019498,-0.1346817,0.07760411,-0.005259373,0.006528042,-0.01017295
1.019352,-0.1342002,0.07882568,-0.004125706,0.003496865,-0.009985994
1.019667,-0.1354846,0.07775962,-0.006280044,0.001211069,-0.00877316
1.021429,-0.1372655,0.07433817,-0.008507426,0.004549582,-0.008861586
1.022677,-0.1424436,0.06925904,-0.005676015,0.003055308,-0.00734951
1.022196,-0.1452771,0.07073309,-0.001515851,0.00197193,-0.007846135
1.021249,-0.1399752,0.07424789,0.006680008,0.001326522,-0.01092826
1.021502,-0.1348094,0.07139767,0.01456284,-0.003572948,-0.01159209
1.022552,-0.1343764,0.07120782,0.01143843,-0.002642061,-0.009287717
1.021966,-0.1307789,0.07188807,0.005465124,-0.001156072,-0.003121105
1.01988,-0.1272049,0.07307677,-0.0005379797,-0.006572157,0.002685161
1.01722,-0.1298506,0.08239952,-0.01210031,-0.01296688,0.007482563
1.016617,-0.1328447,0.08334509,-0.01641951,-0.01899799,0.01174206
1.020583,-0.1407934,0.07430983,-0.008101582,-0.01755796,0.009059925
1.024263,-0.1520718,0.0717141,0.0005333676,-0.008292663,0.002917965
1.02278,-0.1488794,0.07186395,0.004848885,0.0005356161,-0.003468751
1.019566,-0.1401926,0.07255037,0.002239343,0.008865756,-0.008564391
1.019212,-0.1384521,0.07331292,-0.003593498,0.009216937,-0.00406349
1.020475,-0.1360577,0.07236416,-0.005605036,0.006319824,0.00102531
1.021108,-0.1355849,0.07251882,-0.01064731,0.007730468,-0.002316035
1.020587,-0.1352365,0.07255992,-0.01227226,0.002018952,-0.002118114
1.018627,-0.1337373,0.07579149,-0.005736097,-0.002516936,0.0012971
1.016919,-0.1379883,0.07857631,-0.004330973,-0.002929874,0.002146728
1.017141,-0.1407599,0.07407057,-0.004851463,-0.008646128,0.004693412
1.018809,-0.1420509,0.07032275,-0.004329919,-0.009471778,0.004782454
1.020668,-0.1436789,0.07074475,4.596974e-05,-0.005783737,0.003394793
1.023582,-0.14311,0.07086121,0.01381241,-0.0007927019,0.003262147
1.02593,-0.1440494,0.06960436,0.02230641,0.003650053,-0.002394313
1.02284,-0.1382577,0.06810958,0.02146334,0.002104372,-0.007900447
1.019177,-0.1311455,0.06692758,0.01941968,0.002723032,-0.006686611
1.019385,-0.1341974,0.06663895,0.01381934,0.003218942,-0.004324844
1.019726,-0.136168,0.06861026,0.003475494,0.002019075,-0.004253782
1.021275,-0.1360271,0.07039318,-0.001570772,0.002561332,-0.004647861
1.022888,-0.1379848,0.07057477,-0.0003177572,-0.0001976504,-0.005596383
1.02237,-0.1386169,0.0693172,-0.003318441,0.0002599164,-0.008446529
1.022934,-0.1406263,0.06728232,0.002606472,0.004473163,-0.008526967
1.023982,-0.1434727,0.06874864,0.01376533,0.006613677,-0.009353654
1.024099,-0.140222,0.07307697,0.01079074,0.002682376,-0.01518554
1.025135,-0.1352114,0.07599545,0.009806578,-0.01425158,-0.01809143
1.027036,-0.137993,0.07555214,0.01029893,-0.0309996,-0.02062724
1.025473,-0.1416741,0.07453064,0.008530243,-0.03243686,-0.02166662
1.019491,-0.1458623,0.0770592,0.01741838,-0.02676116,-0.01558095
1.015506,-0.1511128,0.07864804,0.02546787,-0.02694071,-0.01280395
1.018452,-0.1417079,0.07744821,0.02836278,-0.02629066,-0.01516105
1.024693,-0.1296369,0.07773493,0.03011453,-0.01145644,-0.01662196
1.02561,-0.1333071,0.07581548,0.02684708,0.008611489,-0.01862143
1.0227,-0.1428482,0.066876,0.01682298,0.02297385,-0.02749612
1.022235,-0.1490614,0.05868553,0.001697347,0.03106761,-0.04257558
1.023739,-0.1436716,0.06475687,-0.006562177,0.03113045,-0.04322442
1.025894,-0.1290586,0.07741084,-0.008099897,0.0207642,-0.02377973
1.023959,-0.1219308,0.07955869,-0.01095551,0.004916794,-0.005658577
1.017969,-0.1231212,0.07830124,-0.007515912,-0.004939498,0.001509139
1.01388,-0.1256091,0.07863913,0.006781247,-0.01055117,0.007443318
1.013391,-0.1282016,0.07794198,0.02212623,-0.0109023,0.01701627
1.015214,-0.1331546,0.081315,0.02834005,-0.008445425,0.02082912
1.016215,-0.1385105,0.08158643,0.03272694,-0.01681845,0.02084615
1.021132,-0.1370421,0.07882527,0.04019045,-0.02169092,0.02262379
1.026166,-0.1358616,0.07772717,0.03922901,-0.01626256,0.0162043
1.022978,-0.1389018,0.06802327,0.03757141,-0.0128954,0.0005146246
1.023444,-0.1387655,0.05999279,0.0405905,-0.01034539,-0.01279149
1.027358,-0.1383109,0.06736973,0.03119343,-0.009472793,-0.005716995
1.027447,-0.1343107,0.07404096,0.01806667,-0.004959672,0.01316106
1.026603,-0.1248722,0.06965931,0.009848551,0.003855103,0.01546031
1.023803,-0.1191788,0.06816807,-0.003351339,0.007928456,0.01118737
1.023801,-0.1184379,0.07350647,-0.01109509,0.01604438,0.002411106
1.024315,-0.1198457,0.07419606,-0.01096945,0.02821586,-0.01546072
1.022278,-0.1187403,0.07341315,-0.01226163,0.02785058,-0.02010421
1.022375,-0.1191027,0.07488236,-0.01902686,0.01841031,-0.01905772
1.020388,-0.1284056,0.07485543,-0.03092159,0.01481022,-0.02287841
1.020063,-0.13571,0.07574439,-0.02961505,0.01742608,-0.02208369
1.021539,-0.1316126,0.07660081,-0.01312412,0.02056185,-0.01674477
1.017524,-0.1274859,0.07756073,0.006154863,0.01972512,-0.007963556
1.013031,-0.1349903,0.07547555,0.01944064,0.01655617,0.001394649
1.01161,-0.1397203,0.07006659,0.02065354,0.01168205,0.006702665
1.018623,-0.1329384,0.07026099,0.03029849,0.002986885,0.003190288
1.02821,-0.1308424,0.0703428,0.04052393,0.003925336,-0.001793281
1.025535,-0.1344606,0.06778871,0.02663345,0.008089433,-0.001070396
1.02326,-0.1368473,0.06800683,0.01443535,0.003795268,-0.002223103
1.027313,-0.1366205,0.06800661,0.01357743,0.008047131,-0.005909433
1.025845,-0.1337244,0.06812989,0.01287207,0.01428903,-0.01368007
1.022879,-0.1318295,0.06880267,0.01484628,0.01461238,-0.01957457
1.020244,-0.1280978,0.07252361,0.01179961,0.0157077,-0.01536664
1.018097,-0.1259594,0.08102363,0.008911814,0.01193905,-0.00787834
1.020021,-0.1260074,0.0866607,0.008586835,0.008566311,0.0005397375
1.019525,-0.1225498,0.08526401,0.001026744,0.002985732,0.008897228
1.01789,-0.1233867,0.08194239,-0.003322072,-0.007321872,0.01738466
1.018561,-0.1268501,0.08228697,-8.667432e-06,-0.01143232,0.02008109
1.018752,-0.1286992,0.07945262,0.00627681,-0.01210268,0.01633719
1.021253,-0.1337923,0.07117351,0.01759956,-0.01017052,0.01773617
1.024128,-0.1371924,0.06686348,0.03013827,-0.006380945,0.01346595
1.025298,-0.136862,0.06527802,0.03296566,-0.00277057,0.001533778
1.025407,-0.1343127,0.06882314,0.02368657,0.002810039,-0.004509125
1.023292,-0.1294664,0.07764013,0.01415196,0.007499864,-0.004949266
1.022227,-0.125784,0.0790217,0.004404708,0.009796891,-0.003745413
1.02025,-0.1212887,0.07820061,-0.008451729,0.006426918,-0.006391563
1.017532,-0.1189347,0.08335442,-0.01417,0.0007373503,-0.003554158
1.018646,-0.1223993,0.08763644,-0.01146799,-0.004149946,0.002851112
1.020794,-0.1241663,0.08666681,-0.007873091,-0.00708934,-0.0007973938
1.022905,-0.1280073,0.08378151,-0.007777945,-0.001770857,-0.0003143855
1.022754,-0.1367354,0.08386174,-0.005271683,0.001444072,0.002297045
1.021006,-0.1397633,0.08255002,-0.001328785,0.002143786,0.001444027
1.020917,-0.1361446,0.08064469,-0.001683185,0.004250539,0.005631682
1.018978,-0.1301731,0.0818149,-0.0002887422,-0.001425837,0.00566071
1.018788,-0.1273727,0.07943561,-0.00364942,-0.002730476,0.005812177
1.020709,-0.1273855,0.07647216,-0.01038199,0.001604088,0.009390605
1.020728,-0.1257962,0.07494759,-0.01094802,0.001817781,0.00956197
1.022704,-0.1287001,0.07478262,-0.01225145,0.00325619,0.01171891
1.022694,-0.1320567,0.07738036,-0.01317484,0.003239345,0.009768759
1.020416,-0.1318489,0.0744915,-0.01463288,0.0027021,0.00227733
1.021613,-0.1329653,0.07242009,-0.01649592,0.004302379,-0.001330586
1.023455,-0.1343542,0.07533557,-0.01602812,0.007385319,0.0004764256
1.025244,-0.1376889,0.07500485,-0.01777415,0.01255283,0.002460193
1.023925,-0.1374183,0.07463637,-0.0158128,0.01376448,-0.005923374
1.02034,-0.1338175,0.07332636,-0.01423476,0.01182099,-0.01437724
1.020684,-0.1344246,0.07157445,-0.01684771,0.008592069,-0.01023383
1.018993,-0.1321616,0.07326639,-0.01677398,0.001980836,-0.006233281
1.01574,-0.1293866,0.074542,-0.01614618,-0.003154652,-0.002284972
1.015745,-0.1306764,0.07629319,-0.0119856,-0.001273577,0.006542134
1.016651,-0.1308048,0.07842383,-0.006965884,0.002954574,0.008706998
1.019938,-0.1304382,0.07691976,-0.005309073,0.001023756,0.006472353
1.021153,-0.1304634,0.07191602,-0.002043094,-0.005041977,0.007539235
1.020318,-0.1310555,0.07068122,-0.0001262105,-0.01030576,0.00597939
1.022209,-0.1323134,0.07594786,0.001295045,-0.009070096,0.003115849
1.021228,-0.1337431,0.07621983,0.005616113,-0.0008539754,0.004996484
1.019447,-0.1337798,0.07165972,0.00680974,0.007756481,0.00763791
1.019458,-0.1330652,0.07325624,0.003343595,0.01458686,0.008511307
1.019467,-0.1350545,0.07895482,0.002515949,0.01205513,0.006851832
1.021617,-0.1346623,0.08333156,0.004312671,0.007886929,0.003698532
1.022265,-0.1306264,0.08231072,0.003582706,0.01031585,0.005367036
1.020469,-0.1290735,0.07583797,0.0008706311,0.00129294,0.007971962
1.018873,-0.1298015,0.07037875,-0.001728709,-0.008174103,0.006375123
1.019398,-0.1302645,0.06666255,0.002098609,-0.002444156,0.00463387
1.021952,-0.1301608,0.06750148,0.009157763,0.002021739,0.002859625
1.022531,-0.1324492,0.07164508,0.009651808,0.002894293,0.0007171513
1.023229,-0.1353246,0.07264928,0.00876259,0.004178781,0.0002608906
1.023935,-0.1345892,0.07864934,0.006731048,0.006061353,0.001232159
1.022857,-0.1325213,0.08373059,3.545836e-05,0.009420345,0.0007955121
1.021136,-0.1279284,0.07711028,-0.005212473,0.006840969,-0.0007379525
1.01848,-0.1238283,0.07294119,-0.006286084,0.002235885,-0.00026843
1.019117,-0.1283634,0.07638229,-0.006242216,0.00415105,-0.000754159
1.020255,-0.1337142,0.08199794,-0.008248991,0.006843831,-0.001573818
1.019201,-0.1322808,0.08562372,-0.007904283,0.006112272,-0.001050783
1.021377,-0.1329406,0.0820606,-0.004190812,0.006006346,-0.0001207734
1.022984,-0.1360193,0.07621583,-0.003286094,0.006923852,0.002688294
1.022081,-0.1348214,0.07540304,-0.004132225,0.00664083,0.002409682
1.021746,-0.135025,0.07822254,-0.005339633,0.004989197,0.002004783
1.020504,-0.1370054,0.08153674,-0.005675157,0.002384868,0.00558453
1.018777,-0.135731,0.08572749,-0.004872964,0.0009367783,0.006213082
1.018234,-0.1349648,0.084107,-0.004841301,0.0004017914,0.005732713
1.018429,-0.1348126,0.07821358,-0.003282366,0.0001023108,0.003912135
1.018682,-0.1343617,0.07547026,-0.002574604,0.001404705,-0.00204751
1.020081,-0.1350083,0.06937052,-0.003202474,0.002350113,-0.006774018
1.021598,-0.1346809,0.0691059,-0.002002895,0.003188848,-0.005967985
1.022055,-0.1340223,0.07632459,0.0005950585,0.005186617,-0.001975574
1.021653,-0.1322737,0.07853337,0.003440973,0.005899982,-0.002238645
1.019333,-0.1297478,0.08445306,0.0003074175,0.006509076,-0.004378326
1.018934,-0.1311699,0.08714827,-0.004554981,0.007168734,-0.004896423
1.020357,-0.1323793,0.08268363,-0.002584521,0.005266685,-0.003468171
1.020879,-0.1289342,0.07943156,-0.0009950605,0.001845701,0.002287513
1.022474,-0.1267465,0.07091946,-0.001048755,-0.003061318,0.00446742
1.020838,-0.1278463,0.07103642,0.0003544161,-0.004763332,0.00376381
1.018164,-0.1288429,0.07633935,0.002362818,-0.001139937,0.005123028
1.019736,-0.1310908,0.07062072,0.006339395,-0.001113516,0.004714329
1.019956,-0.1342545,0.07309296,0.007628768,-0.002365029,0.005739527
1.019887,-0.1328444,0.08119076,0.007830969,-0.002238833,0.00697468
1.021387,-0.1296054,0.08289593,0.008864319,-0.005567113,0.006443686
1.020704,-0.1297571,0.08223304,0.003119118,-0.005993914,0.006636407
1.019645,-0.1292091,0.07891713,2.616139e-05,-0.001125754,0.005391502
1.0194,-0.128588,0.07872325,0.003297174,0.002883959,0.003028906
1.019465,-0.1297452,0.07702548,-0.001468074,0.002167184,0.0007346918
1.020643,-0.1289535,0.07528321,-0.006687127,0.0008140757,-4.684179e-05
1.022011,-0.1289702,0.07929707,-0.006652613,0.003478279,0.001206027
1.022496,-0.1301224,0.08005674,-0.009487984,0.002297208,0.002821563
1.022227,-0.1314521,0.08192308,-0.007739944,-0.001239472,0.002920915
1.022079,-0.1339839,0.08234582,-0.002964349,-0.001930876,0.002347912
1.022326,-0.1317532,0.07672755,-0.004114603,-0.003493601,0.004424963
1.022229,-0.1280682,0.07502708,-0.005880518,-0.003427148,0.005020543
1.022135,-0.1283875,0.07542078,-0.007354028,-0.004031816,0.004063359
1.022319,-0.1277255,0.07597652,-0.009420683,-0.004919757,0.004815722
1.022175,-0.1282768,0.07813399,-0.009072387,-0.003561963,0.004020201
1.022559,-0.1326668,0.07778649,-0.007052179,-0.005091511,0.002871753
1.024077,-0.1358853,0.07364507,-0.004471123,-0.00507235,0.002172817
1.025468,-0.1361044,0.07154289,-0.00321568,-0.00396626,0.003855889
1.024908,-0.1383272,0.07524243,-0.004215716,-0.005860367,0.007583239
1.02279,-0.143184,0.07818954,-0.007063659,-0.007194052,0.007691536
1.021849,-0.1410773,0.07724826,-0.011035,-0.008145715,0.008331706
1.022145,-0.1362393,0.07570106,-0.01181684,-0.007899126,0.009938884
1.022178,-0.1386434,0.07631878,-0.006669347,-0.009822296,0.008641358
1.021354,-0.1402069,0.07602683,-0.001575838,-0.01160135,0.006789534
1.02077,-0.1386392,0.07139458,-0.00635203,-0.006851089,0.003184413
1.022645,-0.1385253,0.06830497,-0.01338408,-0.004564293,-1.511382e-05
1.024348,-0.1381882,0.06976069,-0.01002609,-0.003503662,0.001280171
1.02344,-0.1381525,0.07404458,-0.006706579,-0.0005912301,0.003727613
1.022417,-0.1381434,0.07776549,-0.007091062,-0.00296234,0.004173072
1.022147,-0.1378805,0.07828847,-0.007511473,-0.004699478,0.004320781
1.02213,-0.1366731,0.07705832,-0.01246118,-0.004398394,0.006411649
1.022294,-0.1357242,0.07510434,-0.0129217,-0.004268883,0.007422522
1.022241,-0.1378201,0.0771238,-0.009920431,-0.002852192,0.005450531
1.021979,-0.1379673,0.08079301,-0.008445441,-0.004047565,0.003764213
1.021549,-0.1359966,0.07749559,-0.002335225,-0.003686423,0.003735378
1.021469,-0.1361808,0.07241957,-0.001853706,-0.002785491,0.003719405
1.02233,-0.1370737,0.07187804,-0.006497736,-0.004413849,0.0005641175
1.02242,-0.1375604,0.07151321,-0.006853841,-0.003584026,-0.001937951
1.020811,-0.136549,0.07118779,-0.007325394,-0.004700877,0.001668416
1.019889,-0.1349165,0.07354219,-0.007234362,-0.007423904,0.004159414
1.020347,-0.1355113,0.07584141,-0.007198801,-0.008096932,0.002423198
1.021821,-0.1374136,0.07808265,-0.00660726,-0.007741233,0.001142146
1.022886,-0.1373614,0.07692424,-0.005114411,-0.005995369,-4.162098e-06
1.021973,-0.1346326,0.07326719,-0.00767747,-0.006616926,0.000261851
1.022052,-0.1330291,0.07546478,-0.009247493,-0.006467674,0.001611298
1.022217,-0.136326,0.07735917,-0.007606584,-0.004922442,0.001119031
1.02014,-0.1415457,0.07923219,-0.007462061,-0.005400039,-3.722508e-05
1.01901,-0.1425236,0.08345993,-0.01017452,-0.00131315,-0.0006756495
1.019309,-0.1410715,0.07881542,-0.01198594,0.002326185,-0.0003584218
1.01967,-0.1407864,0.07043108,-0.006442765,-0.001370128,0.0007175586
1.01926,-0.1401391,0.06751884,0.000956622,-0.00354455,0.00168338
1.018701,-0.1400525,0.07166811,0.002989525,-0.001136579,0.001778982
1.019819,-0.1398322,0.07717135,0.004790041,-0.0004654155,0.00179881
1.021144,-0.1365817,0.07234155,0.007571447,-0.002803995,0.002924707
1.021024,-0.1339544,0.06902327,0.006227346,-0.003435148,0.002748013
1.019429,-0.1361905,0.07465254,0.002715006,-0.00144148,0.001048346
1.017873,-0.1387788,0.07570352,0.0009128454,0.0001232286,-0.001735392
1.016584,-0.1369906,0.07376241,-0.0002493567,-0.0006501934,-0.003480451
1.016271,-0.135144,0.07359349,-0.0002850507,-0.002754755,0.0007232254
1.018988,-0.1349841,0.07428854,0.001848039,-0.003452193,0.002451976
1.020634,-0.1356502,0.07566325,0.005523881,-0.003008148,-0.001128952
1.021252,-0.1393672,0.07521919,0.007813246,-0.0006524919,-0.001169535
1.022075,-0.1409854,0.07653249,0.006369625,0.003586403,-0.003728563
1.019258,-0.1378172,0.07870532,0.005817487,0.00541547,-0.005391587
1.017782,-0.1354204,0.07697594,0.005855037,0.002750837,-0.0005932153
1.018658,-0.1362768,0.07390996,0.004526457,-0.001397387,-0.0007542088
1.018698,-0.1399288,0.07175283,0.006385254,-0.000671735,-0.0004866381
1.02077,-0.1413055,0.07348688,0.007766364,0.002477364,0.000550786
1.021561,-0.1393785,0.0763496,0.004682105,0.001642569,-0.004258256
1.021268,-0.1384885,0.07449944,0.001884023,-0.0003443949,-0.004679636
1.022727,-0.1372284,0.07208269,0.002287774,-0.004108262,-0.001751804
1.022307,-0.1369975,0.06963762,0.003331201,-0.008803018,0.002191989
1.021894,-0.1386217,0.06709502,0.001639001,-0.005900401,0.004272813
1.022508,-0.1399437,0.07000403,-0.0006086257,0.0001822858,0.0008044152
1.021737,-0.1418027,0.07302011,-0.002867915,0.001520422,0.001313597
1.020421,-0.1396399,0.07200233,-0.004546307,0.0018983,-8.165014e-06
1.019524,-0.1357663,0.07217219,-0.0001972359,0.002317695,-0.005236916
1.021811,-0.1376034,0.07259087,0.005927077,0.002699399,-0.004779649
1.024737,-0.1383164,0.07377165,0.008516866,0.002587481,-0.002537173
1.022451,-0.1366676,0.07908044,0.008157291,-0.001534708,-0.0006850233
1.019446,-0.1378623,0.08461387,0.002316594,-0.004089954,-0.00101654
1.019363,-0.1371069,0.08494946,-0.002845362,-0.002753935,-0.002489256
1.019323,-0.1344021,0.07975146,-0.0009193176,-0.002030567,-0.001325727
1.019683,-0.1331073,0.07530902,0.0008698796,-0.001074319,-0.0007444421
1.020637,-0.1342205,0.07292888,-0.0001019286,0.0008781702,-0.0008658072
1.021779,-0.1382776,0.06832657,0.0007262127,0.002318251,-0.0035174
1.022596,-0.138634,0.06709058,0.002076439,0.001229603,-0.006894779
1.021199,-0.1332653,0.07154154,0.00214463,-3.462495e-05,-0.004463912
1.020342,-0.1289392,0.07321356,0.00228746,-0.0004951088,-0.002012956
1.021051,-0.1300645,0.07189052,0.0008107925,-0.001605977,-0.003433685
1.020814,-0.1334673,0.0725062,-0.0005811577,-0.001157232,-0.002202086
1.020776,-0.1351731,0.07417073,-0.0005264376,-0.001828608,0.001015206
1.020728,-0.1383479,0.0757851,-0.003625441,-0.003176032,0.002758173
1.019867,-0.1385958,0.07706321,-0.004743033,-0.002921581,0.005387743
1.019596,-0.135806,0.07841091,0.0002683749,-0.001559275,0.005619277
1.021074,-0.1373503,0.0803531,0.004852604,0.001508666,0.002927849
1.022817,-0.1359659,0.07993776,0.006698479,0.0008858803,0.003253358
1.02146,-0.134338,0.07722035,0.006555869,-0.0004953402,0.002139176
1.02023,-0.1365228,0.07382737,0.006051416,0.0006776927,-0.001255551
1.022005,-0.1356535,0.06887172,0.005702627,-0.0003826312,-0.000824972
1.02263,-0.1354139,0.06682038,0.005434645,0.001626276,-0.0007599642
1.022053,-0.131979,0.07028309,0.006117455,0.005455705,-0.003258175
1.022225,-0.127627,0.07247085,0.005709806,0.004994621,-0.003869261
1.022259,-0.1320125,0.07313492,0.004966337,0.003124433,-0.002364409
1.022207,-0.1346621,0.07668345,0.002607272,0.001414777,-0.002440704
1.022394,-0.1321328,0.07662064,-0.002624873,0.001827928,-0.005910508
1.022944,-0.1316653,0.07189831,-0.00523547,0.003476539,-0.00800214
1.022642,-0.1339426,0.07099247,-0.004553165,0.005729621,-0.006496668
1.020247,-0.135691,0.07505602,-0.002817004,0.009498893,-0.005158329
1.018788,-0.1354208,0.07827211,-0.001918935,0.008688075,-0.005167643
1.020597,-0.1366021,0.07207976,-0.003243661,0.004298201,-0.005957279
1.022175,-0.1378496,0.06542775,-0.004373515,0.001971519,-0.006337508
1.021183,-0.1378153,0.07237392,-0.004975969,0.002103811,-0.00767325
1.01968,-0.1383197,0.07883415,-0.00585563,0.005990025,-0.01031546
1.018896,-0.1386354,0.07760605,-0.006600863,0.007758522,-0.00982224
1.018581,-0.137476,0.07694617,-0.006528462,0.005386494,-0.008246401
1.017991,-0.1348521,0.07335209,-0.004910407,0.006047928,-0.007561443
1.018265,-0.1344946,0.0694672,-0.002336521,0.005301709,-0.006076579
1.021029,-0.1349296,0.07144846,-0.0003428926,0.002351655,-0.006148554
1.023006,-0.1343956,0.07331747,0.001632102,0.001989965,-0.005204938
1.022349,-0.1350649,0.07209015,0.00505608,0.002311699,-0.001516335
1.021502,-0.1345654,0.07327981,0.005141152,0.00540092,-0.0006826985
1.020571,-0.1345932,0.07711129,0.00293466,0.006893434,-0.00404923
1.019036,-0.1350684,0.0776757,0.00430223,0.005863007,-0.007551829
1.019362,-0.1343373,0.07426284,0.004577888,0.007544432,-0.006234488
1.021775,-0.1349666,0.07092604,0.004434254,0.004040689,-0.0005533576
1.022605,-0.1343548,0.0717761,0.005341631,-0.001952316,0.001320981
1.022188,-0.132734,0.07365069,0.00354265,-0.0007290362,-0.002660181
1.022221,-0.1317043,0.07333959,0.001421975,0.002820155,-0.003250224
1.02212,-0.1311004,0.07547599,-0.002471821,0.003764711,0.002388124
1.02218,-0.1307122,0.07633473,-0.004281772,0.003828749,0.006101551
1.021283,-0.1284483,0.07659664,6.692419e-05,0.002958892,0.003955764
1.020644,-0.1285248,0.0805843,0.003133184,0.002254239,-0.0002905021
1.021809,-0.1291424,0.07958175,0.00423134,0.007461685,-0.004145026
1.02234,-0.1274467,0.07744008,0.003575484,0.01228363,-0.007864438
1.021423,-0.1306013,0.07744948,0.002708264,0.009274137,-0.005289022
1.020351,-0.1345559,0.07477298,0.00447605,0.002122959,0.001485833
1.020804,-0.1351415,0.07885509,0.005390131,-0.003803487,0.0007274393
1.021512,-0.1364532,0.08431721,0.00673754,-0.001505033,-0.0005914337
1.021947,-0.1362483,0.08023861,0.006494581,0.001698225,0.0003773635
1.022509,-0.1348074,0.07668285,0.004078924,0.002126989,-0.002082335
1.020385,-0.1346305,0.07655323,0.001755411,0.004009655,-0.002009234
1.019122,-0.134852,0.07735401,-0.002689769,0.0009539489,-0.002895452
1.020713,-0.1358472,0.08054375,-0.002077919,0.001233133,-0.0048388
1.022652,-0.1372883,0.07952002,0.0008698843,0.004358469,-0.002943379
1.026011,-0.1374678,0.07317479,-0.001107998,0.00208262,-0.001049787
1.024944,-0.1354843,0.07062878,-0.0003919062,0.003000416,0.001674152
1.019079,-0.1333397,0.07261059,-0.0001521709,0.0007815382,0.0004420163
1.016448,-0.1342239,0.07303982,-0.002895193,-0.004108756,-0.004948578
1.016421,-0.1370461,0.07308866,-0.003187132,-0.001997045,-0.006667621
1.019036,-0.1381195,0.07398628,-0.003394663,-0.0005681948,-0.005431712
1.022174,-0.1364995,0.0720401,-0.002827679,0.0001387544,-0.001514655
1.022153,-0.1328523,0.07143801,-0.002307781,0.00265429,0.001059095
1.021564,-0.1291936,0.07402096,-0.002108435,0.003625876,0.0002945345
1.02054,-0.1290735,0.07384348,-0.000814948,0.003821263,0.001626201
1.02151,-0.1298816,0.07419456,-0.003538254,0.00252597,0.003293788
1.023086,-0.1289877,0.07571513,-0.006246024,0.0001612903,0.001686117
1.02198,-0.1310823,0.07472886,-0.005029878,-0.0005051888,-0.001499743
1.022925,-0.1338591,0.07529571,-0.005073498,0.0005961235,-0.00549526
1.023262,-0.1334883,0.0771934,-0.005766959,0.003136273,-0.008593347
1.02135,-0.133978,0.07894934,-0.005000823,0.006696993,-0.005080446
1.020231,-0.1343868,0.0791563,-0.002065297,0.005467682,-0.00106666
1.018171,-0.1337303,0.07499469,0.002387681,0.0003507497,-0.001524267
1.017668,-0.1341324,0.07125534,0.004084347,-0.000707521,0.001620701
1.019247,-0.1340737,0.07038789,0.002948646,-0.0008462463,0.00273539
1.019735,-0.1337455,0.0715973,0.003978108,-0.002472315,-0.0002354391
1.019413,-0.1334064,0.07544141,0.006149515,-0.004471289,0.0006972896
1.019322,-0.1330249,0.0785946,0.005208557,-0.0065554,0.00348519
1.019927,-0.133321,0.07913572,0.003847582,-0.006772636,0.007004473
1.021181,-0.1325058,0.08000902,0.002893694,-0.007651991,0.006983654
1.022554,-0.13149,0.082107,0.001903931,-0.006237441,0.003718445
1.021453,-0.1319856,0.08218283,0.0012296,-0.002688034,0.00367764
1.019154,-0.1322951,0.08164603,-0.001686754,-0.001096481,0.003555327
1.019338,-0.1326692,0.08149495,-0.001503843,0.0005168994,0.002998343
1.019965,-0.1338484,0.07803293,0.002757139,0.0009413599,0.002163126
1.021078,-0.1345502,0.07441135,0.003700486,0.003987316,0.0003547951
1.022883,-0.1355934,0.07515119,0.001846008,0.005368297,0.0004235999
1.022382,-0.1366714,0.07908386,-0.0003516054,0.002408719,0.000287335
1.02179,-0.1358382,0.08146325,-5.043422e-05,0.005268203,-1.539721e-05
1.022495,-0.1344463,0.0782953,-2.360051e-05,0.005115054,-8.185644e-05
1.021508,-0.1320618,0.07130969,-0.004119127,0.002712349,-0.001343602
1.018479,-0.1296471,0.06690968,-0.004991062,0.005030006,-0.004215969
1.016118,-0.132034,0.07261354,-0.003082934,0.00272774,-0.008247074
1.017932,-0.1364494,0.08136282,-0.001918075,0.0001648185,-0.006223138
1.020801,-0.138186,0.0810401,-0.0003334401,-0.001630051,0.001106221
1.019344,-0.137822,0.07798477,-0.001256036,-0.001991166,0.004436087
1.018934,-0.1369949,0.07744603,-0.002025064,0.001779337,0.002285394
1.021253,-0.1376234,0.07678272,-0.0009890574,-0.001771107,-0.0007020913
1.021669,-0.1377829,0.07730387,-0.0003817251,-0.007180373,0.002376962
1.022459,-0.1367284,0.07792641,-0.0003452856,-0.006180413,0.005860729
1.022543,-0.1359787,0.07802386,-0.0005250845,-0.004820113,0.00373355
1.021152,-0.1336504,0.07868343,0.002724822,-0.004343457,0.004719195
1.019922,-0.1315948,0.07947153,0.005277659,-0.001689666,0.007148675
1.017543,-0.1304616,0.08032938,0.001561259,0.0008610221,0.006642057
1.019463,-0.12998,0.08181507,-0.002301374,-0.003470821,0.004901045
1.008712,-0.2528722,-0.01013614,0.02910554,0.09385273,-0.1039089
1.00952,-0.2513164,-0.0111351,0.02740325,0.09551107,-0.1054117
1.010496,-0.2514933,-0.008086015,0.0215123,0.09228726,-0.1062399
1.00887,-0.2513984,-0.007619001,0.01313118,0.08771608,-0.1069873
1.009009,-0.2519909,-0.009524877,0.01839586,0.09036579,-0.1110146
1.008574,-0.2513408,-0.01167545,0.02367133,0.09432451,-0.1138757
1.008522,-0.2492376,-0.01433536,0.01898357,0.09241593,-0.1127121
1.010732,-0.2488043,-0.0117177,0.01904048,0.09255743,-0.1068778
1.009681,-0.24828,-0.01181955,0.0171421,0.09233914,-0.1018587
1.01005,-0.2456279,-0.01411745,0.01196731,0.09576825,-0.1028389
1.011277,-0.2442394,-0.01287323,0.01088167,0.09940157,-0.105042
1.010125,-0.2471528,-0.01743347,0.007257794,0.09153817,-0.1048668
1.012188,-0.2506941,-0.01700719,0.005630231,0.08547554,-0.1040773
1.012545,-0.2504456,-0.009347925,0.007760782,0.08829528,-0.1030288
1.008494,-0.24937,-0.008724447,0.008220389,0.08917329,-0.1028527
1.005921,-0.250299,-0.01013783,0.008357763,0.08484656,-0.1065893
1.006617,-0.2504679,-0.009943675,0.006926053,0.08315882,-0.1097708
1.00768,-0.2514466,-0.00940547,0.007387611,0.08598333,-0.1061938
1.006563,-0.2532936,-0.009724039,0.01010658,0.08636756,-0.100203
1.0068,-0.2510561,-0.01044439,0.01125024,0.08368298,-0.09611529
1.007568,-0.2489719,-0.01099499,0.01447788,0.08016832,-0.09162827
1.007413,-0.2500237,-0.0130643,0.01938473,0.07906119,-0.08952299
1.008796,-0.2493694,-0.01087228,0.0236493,0.07729781,-0.08992033
1.008523,-0.2485915,-0.008490266,0.02544011,0.06973005,-0.08371224
1.008581,-0.2514607,-0.01105466,0.02484331,0.06446826,-0.07839527
1.012292,-0.2545866,-0.01426585,0.02574791,0.06462212,-0.08193614
1.013591,-0.2532891,-0.01728404,0.02773169,0.06423462,-0.08275797
1.007973,-0.2502278,-0.01467814,0.03018557,0.06097563,-0.08199157
1.001638,-0.2495821,-0.01055495,0.03040006,0.06113274,-0.08029924
1.003972,-0.2500374,-0.01257684,0.03032515,0.06867285,-0.0738068
1.008062,-0.2499513,-0.0121866,0.03352284,0.07204107,-0.07252647
1.008254,-0.2490379,-0.0085943,0.03108276,0.06535485,-0.07189292
1.011422,-0.2482853,-0.007006483,0.02601305,0.05795356,-0.06828372
1.011617,-0.2491548,-0.005893066,0.02577312,0.05880207,-0.06904636
1.008251,-0.2515865,-0.01028228,0.02580685,0.06075162,-0.06986217
1.00847,-0.2544028,-0.01918388,0.02831909,0.05817764,-0.07050314
1.008043,-0.2547765,-0.02043117,0.03228449,0.06067273,-0.07128634
1.008332,-0.2538515,-0.01586246,0.03325467,0.06120929,-0.07204075
1.008748,-0.2551367,-0.01357748,0.03196607,0.05796551,-0.07405034
1.007735,-0.2555206,-0.0136953,0.02887469,0.0600267,-0.07186609
1.008962,-0.2525134,-0.01531674,0.02816107,0.05956688,-0.07042418
1.009137,-0.2496407,-0.01638887,0.03015071,0.05818704,-0.07141815
1.009722,-0.2495136,-0.01611704,0.03149458,0.05649986,-0.06937895
1.010297,-0.2504264,-0.01330193,0.02988563,0.05437514,-0.06827046
1.009077,-0.2495928,-0.009687028,0.02661663,0.05640632,-0.06581074
1.010053,-0.2479749,-0.01070077,0.02598323,0.05399183,-0.0618507
1.009449,-0.246973,-0.01109133,0.02359074,0.05372252,-0.0623958
1.007562,-0.2468406,-0.008819976,0.0220987,0.05769576,-0.06408411
1.006842,-0.2474365,-0.01042524,0.02576533,0.05884654,-0.06568622
1.006771,-0.2462887,-0.01379259,0.02484291,0.06334485,-0.06707163
1.009238,-0.2452775,-0.01552857,0.02086425,0.0629348,-0.06469404
1.010188,-0.246097,-0.01376681,0.01776463,0.05729933,-0.06259539
1.009601,-0.2456338,-0.009419686,0.01170953,0.05485276,-0.0624448
1.009799,-0.2450045,-0.009493382,0.006596519,0.05343783,-0.05911375
1.009552,-0.2452327,-0.01210232,0.004080511,0.05564194,-0.05569765
1.010087,-0.2460155,-0.01268189,0.00331813,0.05574778,-0.05668432
1.010546,-0.2471527,-0.0122717,0.002437301,0.05523304,-0.05921147
1.0111,-0.2469734,-0.009535904,-0.002356589,0.05851763,-0.06085926
1.010557,-0.2462711,-0.0074644,-0.00459931,0.05579983,-0.05984691
1.009173,-0.2447191,-0.008172421,-0.001638439,0.05178085,-0.05776988
1.01094,-0.2438334,-0.007677544,0.001757795,0.04960959,-0.0570586
1.012528,-0.2448095,-0.00693263,0.005394002,0.04640822,-0.05448497
1.012525,-0.2442284,-0.008730182,0.003610453,0.04681158,-0.05209834
1.012303,-0.2430098,-0.01128437,-0.0005871364,0.04532233,-0.05223347
1.010334,-0.2414333,-0.01043167,0.002135729,0.04087497,-0.05081937
1.008379,-0.2403087,-0.008080581,0.003895832,0.04001887,-0.04982679
1.008078,-0.2420263,-0.008412775,0.004911468,0.04201069,-0.04879981
1.009918,-0.2421209,-0.009475985,0.008451355,0.04378801,-0.04262063
1.012846,-0.2410907,-0.01119331,0.006906102,0.04300586,-0.03689378
1.014341,-0.2419508,-0.01390376,0.006878448,0.04382491,-0.03759462
1.012963,-0.2422579,-0.0167044,0.01031207,0.04627664,-0.03896261
1.010247,-0.2437517,-0.01820806,0.01171387,0.04454501,-0.03781007
1.010894,-0.2450963,-0.01621144,0.01449127,0.04379931,-0.04051241
1.012533,-0.2427218,-0.01406347,0.01364417,0.04488225,-0.04329538
1.011668,-0.2421869,-0.0103382,0.01076817,0.04180711,-0.03728124
1.011269,-0.2438958,-0.0052841,0.01176173,0.03698467,-0.03082192
1.00987,-0.2428491,-0.008137885,0.01016536,0.0319553,-0.0298742
1.006409,-0.2426985,-0.0119554,0.01004381,0.02852447,-0.02832956
1.004966,-0.2435931,-0.00985769,0.0141525,0.03014953,-0.02553714
1.006429,-0.2423349,-0.01131762,0.01614619,0.03237573,-0.02363131
1.007549,-0.2407705,-0.01334493,0.01782838,0.03248831,-0.02272904
1.006832,-0.237645,-0.01139513,0.01777529,0.03179221,-0.02173701
1.007261,-0.2365285,-0.0115706,0.01453144,0.02944037,-0.02022118
1.009703,-0.2397909,-0.01120786,0.009560243,0.02796362,-0.02061765
1.011092,-0.2396196,-0.007709485,0.003857344,0.02816519,-0.02182388
1.01063,-0.2386947,-0.006261441,0.002828729,0.02720391,-0.02048663
1.010948,-0.2403605,-0.009767652,0.00340695,0.02416802,-0.01878603
1.012517,-0.2398085,-0.01279603,0.002112072,0.01841888,-0.01784652
1.012812,-0.2407869,-0.01157786,0.001103057,0.01536451,-0.01537943
1.013414,-0.2429104,-0.01240656,-0.001990613,0.01991005,-0.01338884
1.015246,-0.2421897,-0.01323288,-0.004230295,0.02417412,-0.01241958
1.015505,-0.2430557,-0.01178568,-0.002961539,0.02226019,-0.01159639
1.014138,-0.2436846,-0.01192964,-0.001219567,0.01768919,-0.01209888
1.009917,-0.24244,-0.008144076,-0.0006217691,0.01318423,-0.01175818
1.005449,-0.2434542,-0.00435058,-0.002715179,0.01363356,-0.0103161
1.007283,-0.2439642,-0.008118185,-0.005093546,0.02043899,-0.008373411
1.009773,-0.2437789,-0.01129879,-0.004788924,0.0219614,-0.006625848
1.007846,-0.2455735,-0.009957613,-0.005554767,0.01465608,-0.007571712
1.008292,-0.2485831,-0.01079869,-0.008866269,0.009321795,-0.00697082
1.010992,-0.2512721,-0.01459921,-0.007420866,0.01298676,-0.005976633
1.012082,-0.2500682,-0.01702529,-0.0001729251,0.02000756,-0.01141841
1.012486,-0.2491681,-0.02006027,0.002789051,0.01908699,-0.01649405
1.00982,-0.2507836,-0.02124921,-0.002583427,0.01383152,-0.01565906
1.007097,-0.2497156,-0.02093209,-0.007170756,0.0112808,-0.01525026
1.008312,-0.2499429,-0.02571587,-0.002593865,0.01347246,-0.01738477
1.007819,-0.251225,-0.02548063,0.002901459,0.02159618,-0.017921
1.006464,-0.2502865,-0.01989761,0.004942737,0.02426166,-0.01626865
1.008274,-0.2499006,-0.01924344,0.008195642,0.02209958,-0.01489915
1.010591,-0.2486602,-0.01973249,0.004337457,0.02335986,-0.01336299
1.011414,-0.2474963,-0.02321434,-0.002430481,0.02274724,-0.01273849
1.010074,-0.2474624,-0.02506436,-0.00253182,0.01878048,-0.01484699
1.007958,-0.2490616,-0.01752939,-0.004871385,0.0129534,-0.01532225
1.006335,-0.2527451,-0.01150624,-0.003773812,0.01133903,-0.0138872
1.005093,-0.2536886,-0.01326156,0.003627417,0.01171809,-0.01649192
1.00573,-0.2542541,-0.01612729,0.003653041,0.007202916,-0.0183799
1.007872,-0.2563933,-0.0171193,0.002467943,0.00538516,-0.01403981
1.00961,-0.2565976,-0.02183448,0.005889211,0.005060319,-0.01168902
1.009945,-0.256865,-0.02429567,0.009224901,0.006680035,-0.01049245
1.008543,-0.257226,-0.02067914,0.01452415,0.01200839,-0.007523521
1.007005,-0.2565978,-0.02283015,0.01778787,0.01266796,-0.009505933
1.007135,-0.2555016,-0.02481964,0.01851807,0.01444463,-0.01077158
1.008737,-0.2527026,-0.0243433,0.02020861,0.01720668,-0.01063217
1.009954,-0.2502161,-0.02615563,0.01899836,0.01348282,-0.01308373
1.008161,-0.2501924,-0.02426661,0.01810784,0.01118459,-0.0141135
1.00591,-0.2494273,-0.02452993,0.0180063,0.01243447,-0.01463353
1.007193,-0.247809,-0.02417474,0.01692982,0.01321372,-0.01269865
1.008487,-0.2492657,-0.02160812,0.02150799,0.01411459,-0.01375677
1.009021,-0.2516812,-0.02433908,0.02563674,0.01502719,-0.01758165
1.010311,-0.2523859,-0.02417802,0.02200775,0.01923004,-0.01542923
1.009875,-0.2498233,-0.02426306,0.01873518,0.02448806,-0.01567681
1.010281,-0.2455082,-0.02859974,0.01684147,0.02304002,-0.01785656
1.011755,-0.2468728,-0.02887809,0.01154336,0.02173598,-0.01926261
1.010484,-0.2488382,-0.0246511,0.00875924,0.02423772,-0.02078861
1.008202,-0.2480207,-0.01962029,0.01132985,0.02063567,-0.01776478
1.006932,-0.2507607,-0.01941095,0.01237739,0.0168197,-0.01936219
1.009143,-0.2510147,-0.01807431,0.01372207,0.02027829,-0.02612895
1.012576,-0.2506757,-0.01169671,0.01857352,0.02149125,-0.02788981
1.01066,-0.2537182,-0.01207694,0.02108395,0.01906948,-0.02426571
1.007583,-0.2503907,-0.01624015,0.02172681,0.0177381,-0.01999978
1.007041,-0.2450542,-0.01767081,0.02225119,0.01892221,-0.02107289
1.007297,-0.2439337,-0.02054163,0.02180382,0.02336069,-0.02237834
1.008979,-0.2442365,-0.02264771,0.0224287,0.02335591,-0.01900923
1.008405,-0.2457158,-0.02029541,0.02228504,0.01977906,-0.01584203
1.006559,-0.2452346,-0.01570532,0.02116492,0.01900693,-0.01245056
1.006543,-0.2448663,-0.0141196,0.01960195,0.01197803,-0.01001724
1.006267,-0.2462956,-0.01447161,0.0170668,0.003095712,-0.007805814
1.009559,-0.2458597,-0.01219931,0.01826479,0.004176122,-0.003109829
1.014518,-0.2454863,-0.0125695,0.02365119,0.00516574,-0.003161522
1.015463,-0.2443559,-0.01751919,0.02613969,0.002606018,-0.00288265
1.013865,-0.2410584,-0.01994729,0.02331646,0.0006830339,0.001720489
1.011463,-0.2398966,-0.01855906,0.02307828,-0.002919763,0.0007588402
1.01233,-0.2412641,-0.01751804,0.02538639,-0.003777546,0.0005554652
1.013331,-0.2409665,-0.01817769,0.02450273,-0.002852474,0.002402456
1.011382,-0.2407947,-0.01838241,0.02633494,-0.004356943,0.0009161102
1.010993,-0.2427304,-0.01820619,0.0292963,-0.003425068,0.001189858
1.009404,-0.2415081,-0.01753458,0.03072454,-0.0002553325,-0.0008640411
1.009178,-0.2409318,-0.01631545,0.03305097,0.0009937183,-0.00399577
1.011352,-0.2426495,-0.01802559,0.03165969,-0.0003074477,-0.00295636
1.01001,-0.241074,-0.01908665,0.03150728,-0.001664912,-0.002652441
1.009458,-0.2416025,-0.01728016,0.03335466,-0.0008922233,-0.005430928
1.009883,-0.24225,-0.01737197,0.03180048,-0.0002168788,-0.00913904
1.009499,-0.2403949,-0.01499272,0.03058942,-0.0006807613,-0.008312903
1.010001,-0.2395109,-0.01081848,0.02890826,-0.00277822,-0.005896718
1.009518,-0.2365705,-0.01238607,0.02608894,-0.00479496,-0.002997895
1.009741,-0.2370709,-0.01339969,0.02210412,-0.006521473,0.009177944
1.009897,-0.2398795,-0.01175853,0.02017445,-0.01316993,0.01828532
1.009622,-0.2405124,-0.01271505,0.02299713,-0.0180936,0.01349998
1.010869,-0.2444361,-0.01361533,0.02393203,-0.01680195,0.01223172
1.011259,-0.2462472,-0.01657844,0.02716087,-0.01346155,0.01597641
1.011359,-0.2454525,-0.02075875,0.0321914,-0.00585184,0.01105599
1.01196,-0.2460502,-0.01755042,0.03031861,-0.0003779741,0.004276825
1.012667,-0.2436298,-0.01231652,0.02823666,0.0006800409,0.0009220548
1.012281,-0.2388017,-0.01216608,0.02745869,0.001751971,0.001414291
1.009425,-0.2347644,-0.01262042,0.02392183,-3.092083e-05,0.006180333
1.00786,-0.2368059,-0.01244077,0.02310958,-0.001995572,0.005155656
1.009563,-0.242025,-0.01261946,0.02544914,-0.003400484,0.004240843
1.01301,-0.2427193,-0.01200262,0.02696715,-0.002340386,0.005979538
1.01461,-0.2436234,-0.0107819,0.02868546,0.0001458813,0.003098195
1.011948,-0.2448154,-0.0094045,0.02772884,-0.001551271,0.003945996
1.007555,-0.244331,-0.01062065,0.02293182,-0.0010721,0.004875609
1.005006,-0.2450036,-0.01373742,0.01966184,-0.0006285358,0.006924696
1.008706,-0.2461657,-0.01406803,0.01762741,-0.003216531,0.01248866
1.013162,-0.249096,-0.01291282,0.02043284,-0.00478572,0.008639513
1.010798,-0.2507172,-0.01223424,0.02683346,-0.007426388,0.005651029
1.009137,-0.2498205,-0.01266878,0.02576332,-0.007519595,0.008654067
1.009429,-0.249539,-0.0151679,0.02340495,-0.008216602,0.008443934
1.00781,-0.2471938,-0.01812182,0.02411401,-0.01413217,0.009642004
1.009119,-0.2447322,-0.01953602,0.02125995,-0.0169727,0.01207475
1.010547,-0.2443619,-0.0179155,0.01869715,-0.01252134,0.01130237
1.009307,-0.2455428,-0.01691111,0.01897216,-0.005660037,0.006832263
1.009906,-0.2478367,-0.01685334,0.01862004,-0.005826184,0.003307808
1.011016,-0.2472712,-0.01361752,0.01780768,-0.008174102,0.003860263
1.01201,-0.2449566,-0.01380698,0.01768111,-0.00387567,0.003370258
1.01307,-0.2440133,-0.01830908,0.01736119,-0.003137383,0.001722695
1.011622,-0.2449282,-0.01956439,0.017739,-0.00645401,0.001359982
1.008409,-0.2477232,-0.01591136,0.01900674,-0.00595796,0.004126309
1.004336,-0.251024,-0.007704593,0.02129142,-0.005675711,0.008255227
1.00334,-0.2517866,-0.00423016,0.02461655,-0.005225897,0.007650558
1.006653,-0.2481568,-0.0112345,0.02303997,-0.002697848,0.008709594
1.007537,-0.2453104,-0.01911593,0.01946532,-0.001352812,0.01325796
1.006679,-0.2456729,-0.02169574,0.01831234,-0.00204084,0.01184956
1.00774,-0.2458185,-0.02001759,0.01646611,-0.004460296,0.01135764
1.01047,-0.2447891,-0.0169908,0.01670019,-0.005419855,0.01630531
1.013625,-0.2431431,-0.01451748,0.01588183,-0.00361951,0.01775561
1.012944,-0.2427734,-0.01462458,0.01342537,-0.003382693,0.01512479
1.011582,-0.2431785,-0.01635584,0.01225389,-0.004354116,0.009506394
1.013037,-0.2430323,-0.01583333,0.007593857,-0.005264372,0.004816221
1.012553,-0.2430743,-0.01679787,0.005522892,-0.006905279,0.007793284
1.011906,-0.2430158,-0.01847909,0.008723694,-0.006306752,0.01166029
1.011868,-0.243089,-0.0184816,0.01074677,-0.004267935,0.01100485
1.00936,-0.2430622,-0.01957322,0.01226274,-0.003432711,0.01064003
1.007517,-0.2433569,-0.0168883,0.0129696,-0.002859852,0.009318429
1.007078,-0.2452823,-0.01348775,0.01250735,-0.002734619,0.006494019
1.008721,-0.2480907,-0.01416216,0.01285619,-0.002621313,0.006427013
1.0125,-0.2490489,-0.01403675,0.01348368,-0.002769859,0.005316897
1.013098,-0.2462814,-0.01559627,0.01374834,-0.003757921,0.004104929
1.011778,-0.2432328,-0.01773355,0.01675007,-0.003412184,0.005668679
1.010823,-0.2430127,-0.01737484,0.01896338,-0.001063431,0.005657005
1.009189,-0.2448368,-0.01851743,0.01444404,-0.0003299781,0.0105291
1.009818,-0.2465853,-0.02014548,0.01101316,-0.004322582,0.01632713
1.011979,-0.2459106,-0.02106431,0.01076347,-0.006754761,0.01021892
1.012246,-0.2448459,-0.02029169,0.01218025,-0.003042831,0.00212531
1.01001,-0.2433373,-0.01633462,0.01668235,-0.001410871,0.001364715
1.007644,-0.2398714,-0.0151368,0.01521762,-0.006472661,0.007136164
1.009816,-0.2400712,-0.02076456,0.01002217,-0.01121194,0.01268624
1.012451,-0.2437067,-0.02538793,0.00729898,-0.00901153,0.009126351
1.010813,-0.2449856,-0.02200922,0.004019295,-0.004672499,0.004745837
1.0105,-0.2445956,-0.01806011,0.003367981,-0.00334144,0.005131673
1.010804,-0.2441848,-0.01611024,0.004034447,-0.001942179,0.003962011
1.009097,-0.2444447,-0.01118727,0.005025844,-0.001223819,0.003277689
1.009273,-0.2441474,-0.01153927,0.008201739,-0.002139923,0.003714013
1.00837,-0.2414961,-0.01605513,0.007345244,-0.004973465,0.003209421
1.006718,-0.2395777,-0.01505824,0.004262959,-0.008823385,0.007132597
1.010471,-0.2400392,-0.0150698,0.004991818,-0.008846753,0.01262037
1.014069,-0.2406906,-0.01570061,0.007236475,-0.01076944,0.01514056
1.012535,-0.2409004,-0.01369635,0.008848004,-0.01561289,0.02052474
1.011778,-0.2436098,-0.01403316,0.007480379,-0.01566451,0.02390865
1.013028,-0.2472514,-0.01470224,0.004741182,-0.01723039,0.02020835
1.012472,-0.2460877,-0.01816509,0.006182222,-0.02052372,0.01747025
1.011996,-0.2449305,-0.02262443,0.007821935,-0.01459089,0.01557516
1.011984,-0.2464912,-0.02074552,0.007374583,-0.004207929,0.01312226
1.010641,-0.2453646,-0.0191337,0.005827727,0.0004344186,0.01129007
1.010775,-0.2437505,-0.01957869,-0.001258235,0.00164031,0.007529502
1.01065,-0.2429222,-0.01797616,-0.008312944,0.002966135,0.00833619
1.00909,-0.2425511,-0.01601973,-0.009627016,0.0007738356,0.01041244
1.010096,-0.243544,-0.01455584,-0.009241476,-0.005728254,0.005768701
1.011819,-0.2434994,-0.01425707,-0.00701197,-0.008857702,0.005365242
1.012544,-0.2458124,-0.01398803,-0.004009782,-0.007437819,0.008564097
1.011995,-0.2502343,-0.01372388,-0.003802419,-0.009697158,0.01187909
1.010415,-0.250399,-0.01498691,-0.004448665,-0.01218812,0.01753581
1.010933,-0.2485683,-0.01559859,-0.003989509,-0.007617528,0.01549951
1.010634,-0.2473207,-0.01519026,-0.005628342,-0.002285434,0.01258497
1.00902,-0.2460191,-0.01489078,-0.01056042,-0.002582561,0.01432188
1.009817,-0.2452612,-0.0128203,-0.01477824,-0.006168663,0.01251101
1.009991,-0.2443778,-0.008714567,-0.01429969,-0.008518529,0.01174773
1.0094,-0.2440624,-0.007437463,-0.01074482,-0.008115694,0.00975529
1.009916,-0.2446682,-0.01060276,-0.009538054,-0.005611756,0.006825162
1.009697,-0.2448909,-0.01236118,-0.007862612,-0.003827076,0.008922446
1.009629,-0.2456438,-0.01230908,-0.006009057,-0.005403328,0.009364907
1.008963,-0.2464897,-0.01458849,-0.007052787,-0.008071625,0.008918349
1.00515,-0.245569,-0.01767769,-0.005886953,-0.009937392,0.01108029
1.002174,-0.245544,-0.02025467,-0.005593006,-0.01014403,0.0137398
1.005831,-0.2459944,-0.02017854,-0.003726203,-0.00906705,0.01510733
1.010413,-0.2436924,-0.01840324,0.001122104,-0.008461558,0.01214138
1.008488,-0.2425079,-0.0195046,0.0007506576,-0.007475145,0.009436141
1.008497,-0.2427893,-0.01801622,0.003246049,-0.007537568,0.01055066
1.012793,-0.2412821,-0.01536683,0.005997609,-0.008219292,0.01009321
1.012815,-0.2396376,-0.017105,0.002419041,-0.006637703,0.008532849
1.012007,-0.2390321,-0.01756499,0.0009201542,-0.004857925,0.01070617
1.011917,-0.2399881,-0.01980881,-0.00145427,-0.003801114,0.01492728
1.010547,-0.2431286,-0.02372947,-0.003092153,-0.003700601,0.01664735
1.011543,-0.2471188,-0.02237996,-0.002817841,-0.00448356,0.01371272
1.013109,-0.2465423,-0.02040478,-0.006028781,-0.004435975,0.009416446
1.013794,-0.2435173,-0.01734898,-0.005024381,-0.004755504,0.009530942
1.012188,-0.2450422,-0.0120604,-0.0003296484,-0.004126351,0.01096078
1.008241,-0.2455432,-0.01244935,0.002317129,-0.003057873,0.01107378
1.007788,-0.2461332,-0.01640504,0.004972501,-0.004810419,0.0128608
1.008519,-0.2502754,-0.01949911,0.008366054,-0.007121528,0.01248883
1.007114,-0.2514682,-0.02328522,0.01197573,-0.009342803,0.01054399
1.005821,-0.2497387,-0.02134967,0.01071491,-0.009529084,0.01080223
1.00517,-0.245563,-0.01671788,0.008764764,-0.008153476,0.01043612
1.006172,-0.2433606,-0.01750069,0.01160321,-0.009021018,0.01051011
1.008393,-0.2452216,-0.01506367,0.01020116,-0.006333799,0.01053934
1.010676,-0.2460685,-0.01379063,0.006069811,-0.002978025,0.009146738
1.01163,-0.2480111,-0.01616707,0.002910593,-0.004920907,0.009005401
1.010768,-0.2480769,-0.01226417,0.0005031176,-0.005895146,0.01007383
1.010541,-0.2465366,-0.01416413,0.0007208512,-0.006437345,0.01287369
1.010975,-0.2462278,-0.02010434,-0.003184382,-0.00819594,0.01630881
1.011218,-0.24302,-0.0167416,-0.006096003,-0.01076416,0.01809767
1.01025,-0.2398682,-0.01457149,-0.006182993,-0.01399862,0.01689848
1.009126,-0.2382996,-0.01553917,-0.01240453,-0.01217017,0.01220519
1.009951,-0.2398395,-0.01443526,-0.0154806,-0.007878635,0.009518725
1.009997,-0.2434922,-0.01719073,-0.01334574,-0.004600268,0.009772387
1.01035,-0.244858,-0.02107462,-0.01213484,-0.0009904251,0.007722869
1.012021,-0.2465409,-0.01851184,-0.009269789,-0.002277867,0.004487701
1.012465,-0.2458487,-0.01494093,-0.00715206,-0.00570426,0.004980481
1.012473,-0.2442566,-0.01475598,-0.006855597,-0.005510064,0.007329059
1.010988,-0.2453476,-0.01589399,-0.005993091,-0.005933159,0.007042577
1.010337,-0.2469041,-0.01840108,-0.00547168,-0.00609326,0.007965195
1.01198,-0.2504359,-0.01996806,-0.005659874,-0.005807437,0.008889826
1.01169,-0.2508331,-0.0209135,-0.002977417,-0.007069166,0.006799731
1.011364,-0.2490506,-0.02176461,0.001701361,-0.007705804,0.006955707
1.010533,-0.2503134,-0.02193852,0.005442931,-0.01026135,0.007361
1.008804,-0.2491473,-0.02077535,0.009326308,-0.01125214,0.007253971
1.010158,-0.2481465,-0.01670131,0.006597961,-0.009298624,0.008229315
1.011121,-0.2498275,-0.01400818,0.0005729593,-0.009782081,0.00922457
1.011742,-0.2498349,-0.01115117,0.001427242,-0.008610434,0.01195697
1.012925,-0.2481095,-0.01013537,-0.0003311217,-0.007244115,0.0117167
1.010504,-0.2456507,-0.01439589,-0.005120605,-0.007971388,0.00904082
1.008909,-0.2451784,-0.01592179,-0.003926027,-0.008141634,0.007762989
1.009592,-0.2457419,-0.01730868,-0.002361228,-0.009481012,0.006379273
1.008005,-0.2454116,-0.01942691,-0.002455674,-0.00916966,0.006728281
1.006674,-0.2461862,-0.0208552,0.0002619728,-0.00757847,0.004893357
1.008529,-0.2464543,-0.02323553,0.003327323,-0.006136381,0.002109608
1.010698,-0.247749,-0.02019267,0.002489948,-0.003351688,0.003224413
1.009932,-0.2492606,-0.01825463,-0.0004166131,-0.001850106,0.002765599
1.009863,-0.2455834,-0.01995639,-0.00283899,-0.001687812,0.001992223
1.011025,-0.2435225,-0.01796003,-0.004082302,-0.002642897,0.002655687
1.009367,-0.2470013,-0.01596515,-0.004721961,-0.003046253,0.002682369
1.009425,-0.2496736,-0.01479621,-0.007553435,-0.003461007,0.003855888
1.011267,-0.2505096,-0.01556701,-0.00851539,-0.006389885,0.003737126
1.010825,-0.2499909,-0.01869955,-0.005749259,-0.007648912,0.001275012
1.010328,-0.2493235,-0.02053607,-0.004658092,-0.007645495,0.0005482651
1.008956,-0.2485501,-0.02065583,-0.005082748,-0.007502629,0.005271189
1.00673,-0.2465167,-0.0186432,-0.006140057,-0.007064062,0.01008854
1.005199,-0.2467772,-0.01823535,-0.00589489,-0.007629335,0.005548301
1.004961,-0.246937,-0.01850484,-0.004971141,-0.007408656,0.001125467
1.00616,-0.2451379,-0.01737894,-0.005506303,-0.009166104,0.005587209
1.006013,-0.2457921,-0.01894917,-0.003107349,-0.01017049,0.007880222
1.008191,-0.2464188,-0.02086971,-0.001781949,-0.005472367,0.005232737
1.012863,-0.2463481,-0.02257932,-0.005034621,-0.001437554,0.001969009
1.013026,-0.2476522,-0.02267809,-0.006382632,-0.002399567,-0.001566962
1.011736,-0.2473907,-0.01916989,-0.004750983,-0.003753338,-0.001227312
1.010701,-0.2468407,-0.01741027,-0.002973876,-0.001375634,-0.0001810115
1.00806,-0.2473124,-0.01716462,-0.001357663,-0.001373048,-0.0008200416
1.006796,-0.2462861,-0.02066016,0.001203725,-0.005052389,0.001808367
1.006071,-0.2454322,-0.02557545,0.002586025,-0.006912842,0.002877943
1.005347,-0.2457269,-0.02240304,0.00368475,-0.008765954,0.001079045
1.007133,-0.2450225,-0.01909151,0.00667245,-0.009939199,5.613356e-06
1.010999,-0.2440956,-0.01974439,0.005415251,-0.009381781,-0.002052549
1.013556,-0.2441782,-0.01926548,0.002867748,-0.005478356,-0.002009649
1.012707,-0.2437756,-0.02082472,0.004053643,-0.0007779682,-0.001099805
1.011888,-0.242309,-0.02306519,0.002382823,-0.003227273,-0.001278233
1.012471,-0.2411136,-0.02339245,-0.0002499174,-0.005261514,0.002130523
1.010814,-0.2400816,-0.02123817,-0.001327248,-0.003477307,0.005802164
1.008855,-0.2405466,-0.01817738,-0.004173083,-0.004163971,0.006891087
1.009779,-0.2442727,-0.01860386,-0.004435507,-0.004725064,0.006487209
1.010074,-0.2468797,-0.01663542,-0.003125813,-0.004418652,0.002794966
1.00938,-0.2459798,-0.01252314,-0.005213106,-0.003435512,-0.00206044
1.00969,-0.2453621,-0.01542238,-0.005873028,-0.001471141,-0.003725647
1.008874,-0.2456698,-0.01808489,-0.004060831,0.0005346397,0.001755789
1.008454,-0.2440167,-0.01502726,-0.003545601,0.001863292,0.008111692
1.011049,-0.2413521,-0.01346884,-0.002271806,-1.848476e-05,0.005875799
1.013264,-0.2413307,-0.01264813,-0.001824037,-0.001396971,0.005735675
1.011659,-0.2423843,-0.01293213,-0.003590024,0.00104757,0.00995716
1.00932,-0.2432608,-0.0190663,-0.003875133,0.002623742,0.006707246
1.009704,-0.2448374,-0.02374123,-0.0061333,0.001339315,0.002898609
1.009901,-0.2436651,-0.02168477,-0.008027544,0.0005736299,0.00234749
1.009482,-0.2413548,-0.01895377,-0.004424873,0.001041992,0.001638891
1.009925,-0.2419582,-0.01771816,-0.003584093,-0.0003655938,0.004032696
1.009638,-0.243567,-0.01761121,-0.007161795,-0.002130418,0.004398693
1.009668,-0.2448815,-0.01852024,-0.009453597,-0.001577187,0.003764258
1.009694,-0.2447479,-0.01710384,-0.007277895,-0.001210243,0.008051621
1.008661,-0.2437961,-0.01329322,-0.0008808494,-0.0008733497,0.01042214
1.008173,-0.2435856,-0.01012489,0.003389907,0.001584489,0.006866188
1.008385,-0.2420031,-0.01089431,0.004314404,0.002031968,0.001051795
1.009725,-0.2408272,-0.01533716,0.003737147,-0.001531943,-0.001216358
1.011436,-0.2409429,-0.01847666,0.003401521,-0.001165255,0.000451159
1.011393,-0.239129,-0.02029782,0.002554755,0.002810363,0.001628293
1.010258,-0.2393549,-0.0209672,-0.002001551,0.002719616,0.003758476
1.01075,-0.2447808,-0.02114652,-0.003285639,0.00301773,0.005636841
1.011689,-0.2496979,-0.02291835,0.001776058,0.003797113,0.004900379
1.009702,-0.2492305,-0.02064736,0.005426169,0.001277921,0.004548967
1.008303,-0.2461964,-0.01701742,0.002582266,0.0009436809,0.005614259
1.008329,-0.244382,-0.01754641,-0.001275939,0.0002200186,0.007513837
1.007078,-0.2414595,-0.01678411,0.0001685406,-0.002146671,0.009204017
1.00691,-0.2399159,-0.01365392,-0.000746503,-0.002478245,0.008604548
1.007258,-0.2417707,-0.01229494,-0.003138741,-0.003519779,0.005256027
1.008626,-0.2419926,-0.0142246,-0.003208088,-0.001053233,0.003252309
1.010538,-0.2433647,-0.01515268,-0.006238748,0.003829208,0.003600187
1.009652,-0.245141,-0.01810052,-0.005843688,0.002600987,0.002195109
1.009439,-0.2429646,-0.02337658,-0.00472796,-0.0006601832,0.001682292
1.010011,-0.2407197,-0.02012168,-0.007524298,-0.00290323,0.003653624
1.009558,-0.2389054,-0.01765146,-0.006011997,-0.004149417,0.004842995
1.009773,-0.2384424,-0.01784095,-0.004409418,-0.001407794,0.005867073
1.009734,-0.2399668,-0.01335079,-0.004419446,0.001483122,0.006075458
1.009686,-0.2422873,-0.01399525,-0.003542134,0.002528941,0.004559996
1.009592,-0.2457276,-0.01567692,-0.003282388,0.002668526,0.001967863
1.008416,-0.2458594,-0.01756355,0.000251665,0.0008334105,-0.002941699
1.006333,-0.2451236,-0.02114835,0.003796491,0.0008755072,-0.004894007
1.00539,-0.2465078,-0.01845516,0.00473774,0.001312605,0.0003302277
1.008254,-0.2453133,-0.01636581,0.005388,6.550692e-05,0.001529221
1.010685,-0.2437356,-0.0149645,0.004417521,0.001362466,-0.001702162
1.008865,-0.2424512,-0.01364369,0.003190634,0.001987668,0.001411209
1.007701,-0.2398194,-0.01548845,0.001487295,0.00155279,0.004124393
1.010044,-0.2390924,-0.01522507,0.0005839153,0.0001107744,0.005771952
1.012866,-0.2412093,-0.01641705,0.001574381,-0.003609009,0.008913485
1.013932,-0.2445058,-0.01829883,0.0001633339,-0.001580097,0.005906444
1.011383,-0.2453103,-0.01862722,-0.002972674,0.002875276,0.003739298
1.007637,-0.2453368,-0.01938135,-0.004655121,0.0032628,0.003483987
1.00884,-0.2467192,-0.01882069,-0.0006762558,0.002141029,0.001101077
1.011437,-0.2454518,-0.02122039,0.006295429,0.0009927787,0.0005229399
1.012901,-0.2451287,-0.02237914,0.006801737,0.002914515,-0.001363688
1.015896,-0.2446117,-0.01640463,0.00527902,0.002451549,0.001529136
1.014252,-0.2409688,-0.01336874,0.002081732,-0.003044391,0.005771757
1.010633,-0.2415833,-0.01982741,-0.005539462,-0.006496306,0.00355042
1.01197,-0.2431107,-0.02508287,-0.005087108,-0.00699155,0.004981143
1.011235,-0.2429903,-0.01670811,-0.00183087,-0.005445064,0.003813479
1.009155,-0.2445696,-0.008976204,-0.004304543,-0.005974989,0.0004047488
1.00906,-0.2452971,-0.01532503,-0.002831082,-0.005924246,0.002652947
1.006928,-0.2456768,-0.02025847,-0.002711563,-0.002253279,0.003072802
1.007157,-0.2431535,-0.02079907,-0.006847174,-0.001802133,0.005517095
1.011009,-0.2392835,-0.02311464,-0.00793791,-0.0009186189,0.006089381
1.012928,-0.2392438,-0.02135732,-0.008726018,-0.0006988397,0.0008358246
1.011218,-0.2391213,-0.01988615,-0.007766917,-0.003745313,0.0003973072
1.008465,-0.2396497,-0.02069955,-0.005891215,-0.00369593,0.005250135
1.009687,-0.2422534,-0.0171453,-0.004559426,-0.002525843,0.01026233
1.010537,-0.2446116,-0.0129244,-0.0009762539,0.001617873,0.005415718
1.008371,-0.24564,-0.009782595,-0.0008584627,0.005208994,-0.0008580353
1.007385,-0.241655,-0.006262776,-0.004281175,9.147121e-05,0.005395103
1.005467,-0.2373351,-0.008312708,-0.006912494,-0.004838333,0.008959539
1.007404,-0.2404094,-0.01424929,-0.006781618,-0.003297378,0.007617718
1.011863,-0.2435295,-0.01607348,-0.004454964,-0.000540794,0.006079256
1.010334,-0.2419836,-0.01762171,-0.004559026,-0.0001938693,0.001446571
1.010621,-0.2429339,-0.02014913,-0.004419024,-0.0003992249,0.002471579
1.012312,-0.2437178,-0.01629634,-0.00516492,-0.001776603,0.004504868
1.01126,-0.2415887,-0.01162634,-0.006452961,-0.00404439,0.002642369
1.01292,-0.2423406,-0.01328322,-0.003262991,-0.004124858,0.002384912
1.012762,-0.2431373,-0.01613357,-0.001877437,-0.004230975,0.0007688821
1.010714,-0.2433448,-0.01582478,-0.0007264514,-0.002101819,0.0005251401
1.010444,-0.2443502,-0.01504064,0.001981604,-0.0003630479,0.002135494
1.009241,-0.2426885,-0.01819538,0.002471638,-0.002726401,0.001855967
1.009603,-0.242563,-0.0206138,0.002981682,-0.003351696,0.003155379
1.010174,-0.2437298,-0.01917866,-2.860448e-05,-0.005658802,0.003489194
1.009295,-0.242676,-0.01925061,-0.001999905,-0.006343283,0.002358943
1.009913,-0.2430329,-0.02003937,-7.329683e-05,-0.001711917,0.002459792
1.009794,-0.2431572,-0.02109051,-0.001209863,-0.0001835589,0.001959592
1.009488,-0.2422007,-0.02283576,-0.001416965,0.001034374,0.003665423
1.010333,-0.2430181,-0.02185182,-0.001100643,-0.0003902623,0.005340933
1.011348,-0.2437928,-0.01845885,-0.002347435,-0.004551463,0.004054734
1.012889,-0.2446421,-0.01384459,-0.003513375,-0.002293915,0.004566882
1.011561,-0.2459569,-0.01168321,-0.004523965,-0.001196027,0.00567887
1.008481,-0.2442483,-0.015218,-0.00326368,-0.002196801,0.00508001
1.008204,-0.2411053,-0.01793452,-0.005691117,-0.00148998,0.002942436
1.009229,-0.2411694,-0.01558107,-0.007961475,-0.004676173,0.001470358
1.010069,-0.2412887,-0.01444726,-0.004371465,-0.005989027,0.002297579
1.009859,-0.2396568,-0.01630558,-0.004864636,-0.004456123,0.001413259
1.009381,-0.2402332,-0.01791109,-0.004710797,-0.004262577,0.0008546072
1.010144,-0.2410148,-0.02003797,-0.002836675,-0.001398971,0.001710442
1.010596,-0.2418705,-0.01826766,-0.00751879,-0.0002235532,0.002923093
1.011044,-0.2448578,-0.009681075,-0.009148728,-0.002423139,0.006090563
1.010543,-0.2463824,-0.004097803,-0.005744566,-0.004688644,0.00493688
1.009262,-0.2483205,-0.009483259,-0.002541663,-0.007274745,0.002098037
1.010648,-0.250397,-0.01726658,-0.0003105122,-0.00437038,0.002919834
1.01153,-0.2462286,-0.01576275,-0.002236925,-0.0004949395,0.002709247
1.009616,-0.2409035,-0.01384843,-0.004853822,-0.001206778,0.002989891
1.007462,-0.2411662,-0.01663423,-0.006324641,0.001016377,0.001521073
1.005517,-0.2422378,-0.01616904,-0.00547354,0.001042618,-0.001613786
1.005171,-0.2414161,-0.01829896,-0.001878897,-0.003141331,-6.355725e-05
1.006357,-0.2416114,-0.0202006,0.0009697373,-0.003630905,0.001531664
1.008178,-0.2411549,-0.01513641,0.004706797,-0.001957013,0.00190645
1.010468,-0.2379002,-0.01336535,0.003673299,0.001951134,0.003184502
1.010147,-0.2368993,-0.01651061,-0.0006993129,0.003978613,0.005759351
1.009025,-0.2446346,-0.01921855,0.0005278841,-0.0004944028,0.0105672
1.010055,-0.2523957,-0.01784096,0.001728601,-0.004951307,0.01075317
1.009858,-0.2452345,-0.01436002,0.003383387,-0.005513757,0.008172475
1.00988,-0.2368059,-0.01368098,0.003487964,-0.003249348,0.008954868
1.012736,-0.2408822,-0.01254473,-0.005083904,-0.00377046,0.008774936
1.014231,-0.2414526,-0.01257529,-0.0117727,-0.008081442,0.008305014
1.012139,-0.239137,-0.01366921,-0.009481587,-0.009756219,0.006662281
1.009278,-0.2433104,-0.01475843,-0.005094275,-0.007909007,0.00428319
1.00968,-0.2455289,-0.01980891,-0.004508426,-0.002914579,0.006103808
1.012054,-0.2469177,-0.02310887,-0.004877118,0.001060428,0.004114187
1.012546,-0.2480313,-0.02046978,-0.004057125,0.0005344971,0.001759749
1.011638,-0.2465831,-0.01544302,-0.003427151,-0.0001085282,0.008517559
1.009952,-0.2469166,-0.01462867,0.0001658866,-0.002845362,0.01249668
1.010124,-0.244703,-0.01799369,0.002343395,-0.007809557,0.009519088
1.011799,-0.2418486,-0.01915136,0.001166714,-0.007642813,0.007059586
1.010852,-0.2427895,-0.01971608,0.001659335,-0.005042285,0.00685495
1.009965,-0.2416241,-0.018573,0.001549342,-0.004912089,0.007650352
1.009759,-0.2405456,-0.0173045,0.001835011,-0.003462185,0.008159296
1.009397,-0.2454476,-0.01856348,0.002590735,-0.0025223,0.007238493
1.010375,-0.2504006,-0.01802647,0.002144913,-0.004386981,0.002906331
1.01143,-0.247205,-0.01781623,0.001592966,-0.00411677,-0.0008955484
1.012019,-0.2439044,-0.015692,5.658013e-05,-0.004640619,-0.00299314
1.008481,-0.2465968,-0.01404936,-0.0001212527,-0.005851188,-0.002575785
1.003571,-0.2461689,-0.01840311,0.001004565,-0.003137616,0.001129615
1.005677,-0.2450448,-0.0184327,0.001701186,-0.002123753,0.0001728758
1.008854,-0.2466724,-0.01522533,0.0002390055,-0.00244944,0.001029763
1.009802,-0.246652,-0.01496654,-0.003536968,-0.001416024,0.004791043
1.011652,-0.2484232,-0.01313055,-0.004324773,-0.001807791,0.005500384
1.00953,-0.2502436,-0.01366935,-0.003519544,-0.001314759,0.008620963
1.007029,-0.2498103,-0.01581164,-0.003367842,-0.0005642686,0.005134416
1.008938,-0.2498563,-0.01473463,-0.002369435,-0.002040667,0.0009927305
1.009106,-0.2479573,-0.01550424,-0.0004708637,-0.005993909,0.006755496
1.008104,-0.245668,-0.01524306,0.002066274,-0.01086651,0.008210527
1.008488,-0.2455807,-0.01280675,0.0009383408,-0.009474161,0.006083049
1.008973,-0.2457399,-0.01348752,-0.002687524,-0.004890131,0.005489174
1.009642,-0.2450578,-0.01648909,-0.003514896,-0.00463157,0.005886063
1.009828,-0.2443691,-0.02083919,-0.0008968862,-0.003954525,0.006098949
1.011291,-0.2461856,-0.01941013,0.002585161,-0.00256056,0.0004913642
1.011673,-0.2484061,-0.01643873,0.001191198,-0.001563827,-0.005267949
1.009476,-0.2486086,-0.02085162,-0.0007343656,-0.0007482146,-0.004007812
1.009318,-0.2484481,-0.02173153,0.0009533278,-0.004319165,0.002810196
1.008114,-0.2467874,-0.02087737,-0.0003102955,-0.00546512,0.00479625
1.005742,-0.2447518,-0.02251105,-0.001651053,-0.003870503,0.001387424
1.005974,-0.2449664,-0.02081145,-0.001313687,-0.004468148,0.003347727
1.007063,-0.2470785,-0.01791625,-0.001436967,0.0001071003,0.003356608
1.008953,-0.2501953,-0.01353254,0.003328195,0.001883346,0.0005176735
1.008424,-0.2493684,-0.01450329,0.007876131,-0.003390529,0.001804816
1.005763,-0.244679,-0.01999748,0.005023976,-0.003212462,0.003844513
1.005666,-0.2428883,-0.01948357,0.001400586,-0.00174726,0.006883065
1.006267,-0.2429379,-0.02022653,0.0002956047,-0.001991977,0.004775631
1.007601,-0.243503,-0.02200053,-0.001936416,-0.001307312,0.0006382868
1.009091,-0.2460111,-0.02198387,-0.002636405,-0.002893282,0.003151892
1.009688,-0.2477874,-0.02413918,-0.0004472596,-0.003203115,0.002763206
1.010297,-0.2479647,-0.02169225,-0.0007524185,-0.003184087,0.001051426
1.009334,-0.2479983,-0.01742002,-0.001602354,-0.004237834,0.001886914
1.0096,-0.2480832,-0.01616022,-0.00124704,-0.002933587,0.0006206229
1.010213,-0.2464944,-0.0148107,-0.002056935,-0.0009582854,0.0006884154
1.009206,-0.246467,-0.01611163,-0.001964829,0.001599826,-0.0009991469
1.01016,-0.2493169,-0.01770478,-0.001935025,0.002754744,-0.003592914
1.010882,-0.2488678,-0.01817567,-0.001889168,0.003325625,-0.001109045
1.011759,-0.2492258,-0.01996959,-0.00140356,0.004562018,-0.0007718667
1.012564,-0.2491258,-0.0197701,-0.0009962099,0.0004993981,-0.00420314
1.010998,-0.2443051,-0.01858903,0.0007986218,-0.002531859,-0.005935224
1.010828,-0.2452082,-0.01771502,0.0008954812,0.001364287,-0.004608402
1.009791,-0.2469635,-0.01530367,0.000587639,0.003831162,-0.0009118168
1.008851,-0.244216,-0.01457186,0.0008829465,0.002711788,-0.0006056041
1.009915,-0.2452503,-0.01611866,-0.0006194035,0.002898955,-0.002336283
1.006905,-0.2463291,-0.01703376,-0.001310087,0.004584996,0.001331882
1.00473,-0.2461952,-0.01760768,-0.001586717,0.004054925,0.003076061
1.00755,-0.2487518,-0.01503173,-0.00184608,0.003312598,-0.001534433
1.009121,-0.2516327,-0.01079693,-0.002388857,0.004546144,-0.002573604
1.008867,-0.2515417,-0.01279957,-0.003062582,0.005684719,-0.00252173
1.010641,-0.2481402,-0.0162698,-0.002649746,0.006323743,-0.004432443
1.013226,-0.2464723,-0.01643628,-0.003142971,0.002103226,-0.002039138
1.010891,-0.2468751,-0.01630546,-0.001496692,-0.003071044,-0.0004443933
1.007403,-0.2456224,-0.01472331,4.855292e-05,-0.000985281,0.0007601665
1.008617,-0.2445957,-0.01546396,-0.001079994,0.0001787099,0.004528924
1.009508,-0.2478229,-0.01872086,0.00148441,-0.00170184,0.00544321
1.009969,-0.2525687,-0.01948683,0.003347006,-0.0007524261,0.005075055
1.011561,-0.2516723,-0.01900719,0.002071597,-0.0009338159,0.002359375
1.011273,-0.2486682,-0.01870139,0.00194536,-0.001997665,-0.0004601187
1.010888,-0.2459057,-0.02402001,0.0005441125,-0.0005383438,-0.001646775
1.010815,-0.2421825,-0.03008089,-0.0006119319,0.001988199,-0.00450532
1.009723,-0.2463676,-0.02611319,-0.0001197675,0.004662554,-0.003511086
1.009021,-0.2528633,-0.02316409,0.0004572964,0.005184026,-0.003908974
1.008877,-0.2514629,-0.0252634,0.001414827,0.005219139,-0.006405923
1.007408,-0.2509892,-0.02249563,0.0006821001,0.006050461,-0.002513902
1.006497,-0.2524828,-0.01983289,-0.001504264,0.001322607,0.001941138
1.009098,-0.2509435,-0.02270262,-0.002665381,-0.003837042,0.004968342
1.010248,-0.2496182,-0.02469764,-0.001112028,-0.003049126,0.004270714
1.008593,-0.2497072,-0.02335336,0.004787874,-0.002889043,-0.001574988
1.008263,-0.2503176,-0.02330247,0.01095629,-0.002304299,-0.004904139
1.009462,-0.2500093,-0.02384228,0.01130631,0.001015837,-0.004556394
1.012012,-0.2490009,-0.0212411,0.008449478,0.004708384,-0.004210989
1.012725,-0.2467514,-0.01568702,0.005203826,0.006360597,-0.006348359
1.010202,-0.2426591,-0.01171441,-0.0001323815,0.002727825,-0.00573924
1.007364,-0.2412643,-0.017132,-0.001869867,0.0003813335,-0.003142622
1.006181,-0.2405273,-0.02394719,0.0003447152,0.001816467,-0.004900006
1.00756,-0.2407103,-0.02033597,-0.0004004135,0.004261808,-0.004967148
1.008909,-0.2482325,-0.01667312,0.0001624882,0.007734328,-0.005735212
1.009928,-0.2544247,-0.01535942,0.001645449,0.005714922,-0.008749417
1.009686,-0.252008,-0.01312643,0.001418148,0.002975043,-0.006692854
1.00614,-0.2477242,-0.01713109,0.002954925,0.004782674,-0.004020822
1.003127,-0.2446754,-0.01691493,0.0009689842,0.002918391,-0.002833158
1.003019,-0.2426353,-0.01324421,-0.001886738,0.0007143882,-0.002307489
1.007259,-0.2447797,-0.01993356,-0.001033262,0.002024722,-0.002856997
1.011529,-0.2498929,-0.02436271,-0.001807608,0.001978521,-0.002883644
1.009979,-0.2507732,-0.0248686,-0.001299981,0.001331042,-0.002659405
1.009928,-0.2487961,-0.02466572,-0.0007283808,0.00250292,-0.001886273
1.012941,-0.2464945,-0.01577679,-0.001779105,0.004448989,-0.005378012
1.012392,-0.2423601,-0.01028695,-0.0005322722,0.004226619,-0.008602474
1.010357,-0.2428518,-0.01261592,-0.001751335,0.002939776,-0.005362173
1.009769,-0.2473547,-0.01537067,-0.003342322,0.003359074,-0.003268545
1.011234,-0.2511435,-0.01850821,-0.001538794,0.003397536,-0.001220739
1.013388,-0.2538186,-0.02259876,-0.00102736,0.002217334,-0.002409992
1.01228,-0.2510822,-0.02704317,-0.0004859355,0.0005402636,-0.006515109
1.010288,-0.248606,-0.02532589,0.0009019676,0.001627616,-0.00308797
1.010547,-0.2499954,-0.02169923,4.771122e-05,0.007583252,-0.001654294
1.011078,-0.2474954,-0.02012689,-0.001323393,0.007454935,-0.00269643
1.010864,-0.2447695,-0.01798993,-0.0009698996,8.971571e-05,0.001089972
1.008368,-0.2472751,-0.02013162,-0.00226069,-0.002850651,0.002379785
1.006599,-0.2506825,-0.01950376,-0.003535077,-0.003378535,0.0007624129
1.010537,-0.2514044,-0.01660374,0.002178943,0.001264019,-0.002319945
1.014014,-0.2488452,-0.01731129,0.007544382,0.009313939,-0.003796926
1.012577,-0.2459233,-0.01685463,0.004215417,0.006880736,-0.001118691
1.011781,-0.2461067,-0.01824148,0.0003692169,0.00361034,-0.0008943479
1.012791,-0.2463173,-0.01605199,0.0004143956,0.004917013,-0.003017724
1.011664,-0.2452136,-0.01015918,-0.0007676244,0.004607333,-0.005575353
1.010269,-0.2463943,-0.01015946,-0.001954767,0.005141012,-0.009789972
1.010499,-0.2480725,-0.01421704,-0.001227331,0.003202774,-0.01042796
1.009509,-0.2495646,-0.02091059,-0.001251258,0.004224479,-0.00871889
1.009378,-0.2506863,-0.02419557,0.0007965795,0.007919574,-0.01200299
1.010194,-0.2483511,-0.02471052,0.004395053,0.007346681,-0.01277216
1.009435,-0.2467124,-0.02600447,0.004830303,0.006933122,-0.00882511
1.010093,-0.2471323,-0.02328316,0.0042843,0.0006466385,-0.007261519
1.011696,-0.2472248,-0.02304898,0.004097398,-0.00460703,-0.001643881
1.012436,-0.2478379,-0.02343621,0.004100095,-0.0006528394,0.00193328
1.011126,-0.2488925,-0.02155651,0.005033153,0.001523907,-0.001529444
1.00868,-0.2518679,-0.02438254,0.008229539,0.003449046,-0.0007475591
1.009673,-0.2529934,-0.02499458,0.0113767,0.00402516,-0.001476221
1.010519,-0.2498988,-0.02118783,0.00731632,0.003734435,-0.0026609
1.010218,-0.2473193,-0.0184403,0.001847031,0.006492238,-0.0006622745
1.012503,-0.2453407,-0.01867158,0.0009193378,0.005529648,-0.004349641
1.013005,-0.2435741,-0.01943071,-0.001900572,0.005052895,-0.007425785
1.012094,-0.243345,-0.01615969,-0.002546573,0.006931375,-0.009065216
1.012328,-0.2457369,-0.01517965,0.0002401879,0.006462869,-0.01041728
1.010351,-0.2467607,-0.01562462,-0.002572159,0.004453856,-0.007041899
1.007295,-0.2450132,-0.01366586,-0.006142223,0.001864315,-0.007852796
1.006666,-0.2461279,-0.01406636,-0.006184605,0.002393718,-0.00992828
1.008831,-0.2460915,-0.01381189,-0.004132485,0.003448418,-0.007721611
1.010534,-0.245606,-0.01403549,0.0004776381,0.002119829,-0.008991863
1.009647,-0.248214,-0.01718924,0.0007115539,0.002630897,-0.009934068
1.009416,-0.2488084,-0.02212016,0.001255214,0.003890123,-0.005168372
1.010193,-0.2488216,-0.0258451,0.005268146,0.005209197,-0.002044331
1.010509,-0.2479596,-0.01902632,0.001468812,0.007885128,-0.005873127
1.011325,-0.2449891,-0.01256799,-0.001274499,0.008150564,-0.008670085
1.011344,-0.2405146,-0.01828109,0.002388037,0.004579206,-0.006587243
1.010802,-0.2375907,-0.02055259,0.002683602,0.001854285,-0.00979697
1.01107,-0.2419268,-0.01418918,0.001820607,0.004114032,-0.01306043
1.010286,-0.2441971,-0.01086542,0.0003410364,0.007835376,-0.009560501
1.009278,-0.2406876,-0.01257686,-0.001890814,0.007134272,-0.006944323
1.009766,-0.2407589,-0.01349137,-0.003135554,0.003747725,-0.001914907
1.009876,-0.2456334,-0.01397337,-0.004528108,0.001292623,-0.000105292
1.009572,-0.2505142,-0.01694836,-0.002650719,0.001980519,-0.004459538
1.009786,-0.2487645,-0.0181275,0.000479606,0.004216164,-0.00494549
1.009737,-0.2454349,-0.01699271,8.385903e-05,0.00397341,-0.00905639
1.009673,-0.2462171,-0.01684958,-0.001021404,0.005547883,-0.01004198
1.009767,-0.2457482,-0.01499955,-0.0005342119,0.006343615,-0.004734354
1.009523,-0.2465769,-0.01256391,0.0001376762,0.0003700769,-0.005271697
1.008827,-0.2474443,-0.0123394,0.001606447,-0.003360154,-0.003231513
1.008074,-0.2441351,-0.01170668,0.003650363,-0.001858804,-0.001823818
1.00839,-0.2424792,-0.01145082,0.004018107,-0.0009184177,-0.0004693643
1.009445,-0.2437935,-0.01237339,0.003800463,-0.002283156,0.003221559
1.00989,-0.2443622,-0.01255956,0.002678949,-0.003650434,-0.00103354
1.009786,-0.2409213,-0.01404387,0.001511336,-0.002764891,0.001854109
1.009634,-0.2373135,-0.01785777,0.001903257,-0.003060006,0.005568408
1.009899,-0.2392872,-0.02226602,0.00233369,-0.002864085,-0.002926348
1.010692,-0.2413438,-0.02225092,0.005733225,0.0002960182,-0.00780391
1.011483,-0.2419812,-0.0170208,0.00886197,0.002147515,-0.008445452
1.012139,-0.2438733,-0.01809167,0.008131069,0.0007334899,-0.003762039
1.012064,-0.2446822,-0.02177537,0.008425163,-0.001558745,-0.004126836
1.009603,-0.2444611,-0.01838138,0.00708277,-0.0004807195,-0.01057889
1.005803,-0.2433928,-0.01887581,0.006610165,0.0001440126,-0.002700902
1.005542,-0.2425158,-0.02081923,0.01014863,-0.00106008,-1.61714e-05
1.007932,-0.2419504,-0.01828046,0.01048381,0.0007936275,-0.002171343
1.008129,-0.2399444,-0.01981287,0.01080766,0.001196007,0.001973688
1.008973,-0.239993,-0.01987977,0.01228351,-0.0001165513,-0.002234312
1.010907,-0.2422637,-0.01823529,0.01006928,-0.0009710472,-0.0002621321
1.01126,-0.2426524,-0.0184413,0.008224151,-0.003305918,0.002487476
1.01281,-0.2435858,-0.01610451,0.008573092,-0.003404817,-0.002540131
1.012762,-0.2459392,-0.01811614,0.009005423,-0.00140257,-0.003783931
1.009985,-0.2447211,-0.0207054,0.009851065,-0.0008749137,-0.009337923
1.009305,-0.2435186,-0.01798893,0.01243714,-0.0003851016,-0.008224027
1.008789,-0.2461036,-0.01770016,0.01334825,0.001158923,-0.004011187
1.008232,-0.2450515,-0.01826452,0.01143508,-4.805672e-06,-0.007347095
1.009303,-0.2399905,-0.01725757,0.01137947,-0.002352355,-0.003104457
1.009948,-0.2363493,-0.01456419,0.01016751,-0.001635351,-0.001277801
1.009888,-0.2372653,-0.01253025,0.007863128,-0.001482512,-0.002210733
1.010031,-0.2423444,-0.01846332,0.006542757,0.000574003,-0.0008980064
1.01244,-0.2432332,-0.02345484,0.004145344,0.003955255,-0.007366385
1.01488,-0.2401935,-0.01539784,0.006845045,0.002890255,-0.01007202
1.013777,-0.2375408,-0.007415751,0.01017171,0.003219825,-0.007631435
1.011838,-0.2346416,-0.01199623,0.006023715,0.005024977,-0.0056638
1.008941,-0.2331843,-0.01637207,0.003621005,0.005403413,-0.0006537448
1.005741,-0.2338073,-0.01600405,0.005224654,0.004781945,0.002467708
1.00729,-0.2400007,-0.01672673,0.006010199,0.0006328303,0.0029351
1.011382,-0.2453829,-0.01463928,0.007802016,-0.002644662,0.001695741
1.01311,-0.2429096,-0.01503326,0.009912917,-0.001253461,0.0002060278
1.012812,-0.2416278,-0.0182034,0.009845436,0.001348911,6.433662e-05
1.01213,-0.240031,-0.01773292,0.008903347,7.649463e-05,-0.0004349867
1.012472,-0.2369756,-0.01773865,0.00689787,-0.003413917,0.0005947955
1.012655,-0.240589,-0.01451719,0.001998965,-0.003024116,0.002206366
1.0111,-0.2442922,-0.01122889,-0.001024844,-0.002264876,0.003463254
1.010036,-0.2395834,-0.0151145,-0.001375806,-0.003785931,0.002612942
1.009876,-0.2354614,-0.01829512,-0.006500359,-0.002945293,0.0005063677
1.011297,-0.2390789,-0.01744892,-0.01266184,0.0004453432,0.003397078
1.013421,-0.2407204,-0.01437682,-0.01164308,0.002803306,0.004819072
1.012473,-0.2404394,-0.01336895,-0.006533761,0.00279604,0.0004273245
1.011701,-0.2443668,-0.01382849,-0.002821582,0.001929357,-0.001773799
1.011162,-0.24633,-0.01160172,-0.0009526177,0.002051436,0.0009410741
1.009305,-0.2440153,-0.01275751,0.0009154413,0.001722743,0.004645449
1.011287,-0.2400447,-0.0149977,0.002953347,-0.001865075,0.005949792
1.013614,-0.2386548,-0.01472185,0.002715329,-0.004186321,0.00688407
1.012323,-0.239254,-0.01374373,0.0008166931,-0.0007440804,0.004023565
1.012141,-0.2388038,-0.009793682,0.0008006868,0.003264666,-0.002468303
1.012879,-0.2410836,-0.008822439,0.000921315,0.004419964,-0.002463389
1.012362,-0.2432229,-0.009539979,7.727146e-05,0.003842486,-0.001975655
1.0124,-0.2431629,-0.00492463,-0.0003853415,0.001551169,-0.001714897
1.012701,-0.2431784,-0.002676076,-0.001882973,-0.002155627,0.004219294
1.011808,-0.2424115,-0.008684156,-0.000555465,-0.004578477,0.004510588
1.009856,-0.2416671,-0.01464579,0.004731885,-0.001223167,0.003993905
1.007596,-0.2406272,-0.01030196,0.008833985,0.001842975,0.007510259
1.008765,-0.2420395,-0.006593464,0.009056936,-0.005093184,0.005969585
1.013549,-0.2451906,-0.01398084,0.00411675,-0.01110292,0.008551161
1.015918,-0.2454368,-0.01802492,0.001089461,-0.007067183,0.01226595
1.013882,-0.243598,-0.01637489,0.003681507,-0.003706358,0.007082368
1.011341,-0.2402232,-0.01665623,0.004557418,-0.003440373,0.002521783
1.012396,-0.2393342,-0.01660846,0.002422314,-0.003077762,-0.0003680476
1.013301,-0.2395051,-0.01678197,0.0007828966,-0.005460447,0.0005747899
1.011795,-0.2387725,-0.01663689,0.001473151,-0.005539423,0.004492647
1.012324,-0.2438231,-0.01617449,0.002930485,-0.0004445612,-0.0003664609
1.011041,-0.2475216,-0.01513803,0.004209535,0.001333867,-0.005476976
1.008621,-0.2446912,-0.01361889,0.004192712,-0.0003959606,-0.006155441
1.010326,-0.2410582,-0.01649702,-0.001285171,0.0006631791,-0.008224119
1.01176,-0.2386122,-0.01860787,-0.008508847,-9.860144e-05,-0.006030395
1.012687,-0.2428538,-0.01442015,-0.01256447,-0.005277165,-0.0006654572
1.012625,-0.2481531,-0.01183144,-0.01482795,-0.009147393,0.004023373
1.009627,-0.2458225,-0.01688286,-0.01720433,-0.009841199,0.003718108
1.006729,-0.2447643,-0.02164405,-0.01707867,-0.007957641,-0.000668303
1.00465,-0.2472347,-0.019336,-0.01146072,-0.00498576,0.001199552
1.005868,-0.2483583,-0.0186527,-0.00759017,-0.001173369,0.002814775
1.008962,-0.2497032,-0.02088103,-0.006619008,-0.0005292811,0.001013337
1.009808,-0.2471052,-0.01900939,-0.004046619,-0.005515121,0.0001385427
1.009251,-0.2415185,-0.01702976,-0.002734682,-0.006902293,-0.00161081
1.007711,-0.2428097,-0.01612597,-0.001160439,-0.005217165,0.003422114
1.008484,-0.2450936,-0.01308835,0.002780468,-0.003232976,0.009118598
1.010584,-0.2432674,-0.008908798,0.006883328,0.0003905106,0.005725746
1.010571,-0.241978,-0.006504484,0.004466865,-0.001120447,0.002872035
1.01161,-0.2384673,-0.01045004,-0.002028493,-0.00324461,0.004763833
1.01275,-0.2369381,-0.01657328,-0.001126554,-0.002780857,0.009330557
1.012706,-0.2384886,-0.01762827,0.0007363839,-0.003642409,0.009972141
1.012085,-0.238335,-0.01836022,-0.0001435812,-0.00346406,0.003706717
1.010471,-0.2418901,-0.02138227,-0.0002355059,-0.006144041,0.0007419154
1.009871,-0.2442341,-0.02262022,-0.001421561,-0.008567422,0.003124677
1.011126,-0.2416691,-0.02141169,-0.0005620786,-0.004200213,0.003668066
1.013173,-0.2413334,-0.01663414,-0.0006694559,-0.0007914117,5.608565e-05
1.011934,-0.2421252,-0.01266783,-0.001570501,-0.003183861,-0.0027705
1.010347,-0.2434927,-0.01626901,-0.00166267,-0.004181762,-0.0008973672
1.01344,-0.2446398,-0.01948148,-0.003688095,0.001621672,-0.0001265721
1.014173,-0.2427473,-0.01583829,-0.002446498,0.00488564,-0.003742857
1.01167,-0.2405378,-0.01316912,-0.001887602,-0.001149623,-0.005500419
1.0096,-0.2397188,-0.01445182,-0.005147416,-0.007242798,-0.001924629
1.0082,-0.239059,-0.0159287,-0.006807347,-0.007338171,0.002495469
1.009065,-0.239397,-0.01770395,-0.006090471,-0.005611811,0.002441378
1.010839,-0.241994,-0.01788722,-0.002511033,-0.001823193,0.0008032036
1.013255,-0.2430667,-0.01594318,-0.000264356,0.004327087,0.001986923
1.012771,-0.2431206,-0.017442,-0.001174498,0.001809324,0.00220352
1.009705,-0.2453014,-0.02165875,-0.002059977,-0.003278512,0.001250529
1.009926,-0.246122,-0.02378412,-0.002245174,0.0009418913,0.001294038
1.010673,-0.2459397,-0.01969867,-0.002274506,0.002299317,0.0005512254
1.012157,-0.2452582,-0.01136773,-0.004186648,0.002414487,0.002501657
1.013279,-0.2431171,-0.01113527,-0.005910074,0.004644191,0.005481693
1.011586,-0.2420827,-0.01559521,-0.006005271,0.0003609503,0.005771295
1.010869,-0.2429476,-0.01552062,-0.006252914,-0.001220324,0.00585092
1.00937,-0.244675,-0.02077184,-0.006909423,0.0001323917,0.004366314
1.009486,-0.2444361,-0.02774195,-0.007269348,0.001566451,0.004979842
1.012301,-0.2440191,-0.02221149,-0.005456852,0.008178333,0.004735462
1.012432,-0.2440026,-0.01365144,-0.002767013,0.0104444,0.001076878
1.011584,-0.2423666,-0.01211727,0.0003375306,0.00742897,0.004552462
1.009915,-0.2430983,-0.01374188,0.002265034,0.006680255,0.005019725
1.0091,-0.2434494,-0.01634536,0.001714119,0.00733852,0.001767629
1.010203,-0.2423659,-0.01586766,0.003507428,0.006991964,0.004787528
1.009538,-0.2423667,-0.01521459,0.003252266,0.005408629,0.002957152
1.009813,-0.2403657,-0.01870958,-0.002337946,0.00498979,0.00314463
1.01087,-0.2392525,-0.01831847,-0.008797818,0.003751191,0.006960983
1.011095,-0.2379651,-0.01738381,-0.01506522,0.002031146,0.007938163
1.011249,-0.2363509,-0.01878991,-0.01672402,0.002994257,0.01161285
1.009942,-0.2421149,-0.01719021,-0.01697739,0.00448677,0.007366272
1.009836,-0.2483702,-0.01638545,-0.017479,0.004796913,0.002804354
1.011606,-0.2462172,-0.01482159,-0.01241924,0.001755093,0.005902312
1.012603,-0.2439917,-0.01385539,-0.00831955,-0.001791808,0.004161573
1.011053,-0.2450016,-0.01506356,-0.006932995,-0.0004948408,0.001687342
1.008648,-0.2425894,-0.0131484,-0.004942109,0.001642803,-0.001471024
1.009742,-0.2420766,-0.0120318,0.0003595165,0.002196029,-0.002980176
1.010301,-0.2442949,-0.01153982,0.009626943,0.004283078,-5.925116e-05
1.009132,-0.2424372,-0.01111592,0.01072059,0.00555978,-0.0005941241
1.009998,-0.2428468,-0.01385544,0.005525312,0.002064232,0.001283447
1.009797,-0.2437891,-0.01708648,0.004277217,-0.002738307,0.004598045
1.009439,-0.2422763,-0.01693376,0.006444565,-0.002561027,0.002655747
1.010029,-0.2435046,-0.011084,0.009466801,0.003459348,0.0003337265
1.009708,-0.2432516,-0.009271168,0.008578346,0.007060774,-0.0003867996
1.010823,-0.2435612,-0.01254341,0.008340696,0.000768951,0.0001441903
1.012384,-0.2450656,-0.01078631,0.009913552,-0.005751584,0.001749357
1.012355,-0.2428756,-0.01057859,0.008130085,-0.003011224,0.001990217
1.010762,-0.24096,-0.01210579,0.007433058,-0.001535921,0.001464017
1.009171,-0.2398333,-0.01138753,0.006625384,-0.004159624,0.003646461
1.010716,-0.2401964,-0.01332677,0.006155657,-0.000204996,0.00227263
1.012515,-0.2418885,-0.01458223,0.006919276,0.006507959,-0.006978077
1.011844,-0.2422581,-0.01486855,0.005059831,0.009070107,-0.01132028
1.011166,-0.2424466,-0.01418542,0.004073425,0.005757518,-0.004512636
1.009999,-0.240046,-0.01207689,0.0007466034,0.0001036775,0.00276609
1.007802,-0.2368173,-0.01595516,-0.004764184,0.001678559,0.001007098
1.007921,-0.2372216,-0.01990485,-0.00668496,4.286143e-05,-0.001160836
1.00988,-0.2430202,-0.01778738,-0.008057162,-0.006003591,0.002548512
1.009676,-0.2507422,-0.01731923,-0.005634834,-0.000539172,0.0008351996
1.008608,-0.2493458,-0.01772166,-0.001357284,0.003311205,-0.0007663594
1.008312,-0.2449206,-0.01600828,-0.002211463,-0.0003532873,0.0023652
1.008048,-0.245998,-0.01520445,-0.002992061,-0.0005357445,0.001249902
1.008564,-0.2439707,-0.01346615,-0.002232923,-0.000437716,0.004338649
1.009257,-0.2422295,-0.01087401,-0.003082575,0.000270359,0.00690008
1.012546,-0.244454,-0.01188605,-0.005256525,0.0004386655,8.199982e-05
1.016228,-0.2440278,-0.01407329,-0.005254641,-0.001046544,-0.002920291
1.012062,-0.2418227,-0.01365479,-0.001819285,0.0001388075,-0.004980008
1.007571,-0.239437,-0.01204526,-0.002137183,-0.0002510425,-0.008681296
1.010166,-0.2399704,-0.0105792,-0.004754818,-0.002091287,-0.00557252
1.01124,-0.2422817,-0.01103331,-0.003362138,-0.002476108,-0.001252792
1.009679,-0.2422354,-0.01179185,-0.003289092,-0.003214294,0.001912913
1.009846,-0.2434355,-0.009974889,-0.003000737,-0.003071813,0.0007845666
1.009627,-0.2437522,-0.01075173,0.001681378,-0.002249298,-0.003729024
1.009596,-0.2441802,-0.01402222,0.004418164,9.998815e-05,-0.000578704
1.009654,-0.2465541,-0.01231804,0.006597579,0.003436115,0.000879115
1.008036,-0.2435628,-0.00937346,0.006899165,0.003012546,-0.001663895
1.008616,-0.2392145,-0.008346302,0.00122659,0.001231826,0.0008227808
1.011972,-0.2384547,-0.005414703,-0.002981045,-0.0008680204,0.0006057476
1.013075,-0.2390452,-0.008985736,-0.005345739,-0.00297394,-0.0002771834
1.010529,-0.2412531,-0.01700503,-0.002764424,-5.243705e-05,0.0004895517
1.008783,-0.2429241,-0.01655363,0.00345196,0.0005710406,-0.0004171985
1.010155,-0.2430493,-0.01719337,0.001719334,-0.002422288,0.001350138
1.010841,-0.2410987,-0.01783221,0.0007826422,-0.0006558407,0.00226672
1.011027,-0.2385387,-0.01260365,0.0009702969,-0.001056898,0.002242354
1.011305,-0.2387238,-0.01441505,-0.004931316,-0.00116524,0.00316024
1.009911,-0.2394183,-0.01513837,-0.007245684,0.002312423,0.002634719
1.009504,-0.2405834,-0.009929834,-0.006546719,0.000190273,0.001773428
1.010147,-0.2422691,-0.009842721,-0.007466607,0.0005704559,-0.0002950834
1.011452,-0.2418214,-0.01332165,-0.009509319,0.004046283,-0.0005956343
1.012979,-0.2413074,-0.02028209,-0.008810816,0.003485624,-0.00026543
1.01152,-0.2416654,-0.02251888,-0.003021602,0.001826097,-0.002110426
1.009587,-0.2408347,-0.012849,-0.001035985,-0.002349075,-0.0003175405
1.009589,-0.2401953,-0.0062624,-0.004497839,-0.002465286,0.003937721
1.009785,-0.2420773,-0.01304436,-0.008329254,-0.001721711,0.006878707
1.010094,-0.243809,-0.0204385,-0.009755753,-0.004287593,0.006312923
1.011113,-0.2427104,-0.01638862,-0.0103934,-8.162841e-05,0.00272518
1.011286,-0.2409383,-0.01280585,-0.01098002,0.0001487158,0.002371447
1.00939,-0.2401506,-0.01155879,-0.008487517,-0.004397455,0.003138343
1.009069,-0.2411152,-0.007612188,-0.01138057,-0.003130251,0.002891622
1.010558,-0.2429467,-0.01007103,-0.01619601,-0.003057793,0.003512862
1.010458,-0.2426499,-0.009967432,-0.01476502,-0.001648289,0.002231984
1.010735,-0.2418708,-0.007623137,-0.01576212,0.00196835,0.0002270971
1.009864,-0.2420571,-0.01191711,-0.01540099,0.003051607,-0.0009184929
0.9888456,-0.323418,0.007572506,0.007771419,0.08705633,-0.02904229
0.9889037,-0.3248939,0.001069908,0.006278524,0.09270178,-0.03188702
0.9887924,-0.3266018,-0.004439194,0.002656353,0.0928159,-0.0299148
0.9885302,-0.3259409,-0.009678136,0.006422898,0.0957778,-0.02421451
0.9872652,-0.3220499,-0.01131911,0.01263258,0.1057621,-0.02457682
0.9853224,-0.3220369,-0.01230453,0.01613033,0.1030152,-0.021131
0.9864494,-0.3234503,-0.01256425,0.01747557,0.09136863,-0.01504194
0.9882546,-0.3239423,-0.01377234,0.01535468,0.08582968,-0.01487474
0.9891436,-0.3255682,-0.01453963,0.02153352,0.08088087,-0.01070266
0.9893723,-0.3257216,-0.009035961,0.0321985,0.07508054,-0.005224356
0.9897783,-0.3240904,-0.007556283,0.03550141,0.0700859,-0.009956677
0.9924473,-0.3202484,-0.008784562,0.0345915,0.07511663,-0.01276334
0.9934927,-0.3171106,-0.008871755,0.02864562,0.08299779,-0.003182709
0.9908601,-0.3197352,-0.009706954,0.02742288,0.07074934,0.004579453
0.9888774,-0.3231472,-0.004262801,0.03232424,0.05762531,0.003064902
