accx,accy,accz,gyrox,gyroy,gyroz
0.9936876,-0.2237015,0.1461282,-0.04757916,-0.1001726,0.04119388
0.9964334,-0.2270193,0.1431187,-0.04884482,-0.1076448,0.0431783
0.9958172,-0.2331567,0.1450367,-0.05816148,-0.1072671,0.04144424
0.9947077,-0.2331401,0.1461428,-0.04464058,-0.1072837,0.04623035
0.9946366,-0.2335378,0.1469419,-0.02641151,-0.1184462,0.05056284
0.9960346,-0.2357453,0.1455685,-0.02880296,-0.1187576,0.05247672
0.9979982,-0.2382983,0.1448868,-0.02802487,-0.1172732,0.05148953
0.9957645,-0.2399939,0.1440644,-0.02467701,-0.1154602,0.05079594
0.993641,-0.2408978,0.1418933,-0.02169294,-0.1113497,0.05201839
0.9932524,-0.2437688,0.1433822,-0.02036401,-0.1120521,0.04919976
0.9967426,-0.2454238,0.1437953,-0.01492049,-0.1125664,0.04820341
1.000959,-0.2429633,0.1438921,-0.002887497,-0.1158754,0.04593937
0.9998109,-0.2373121,0.1453544,0.0002815632,-0.1164052,0.04217526
0.9966151,-0.2305885,0.1440735,-0.003833942,-0.1144496,0.0432189
0.9942946,-0.2291085,0.1432599,-0.01162817,-0.1143218,0.04428808
0.9943829,-0.2334118,0.1405549,-0.0169769,-0.1125251,0.04619932
0.9966538,-0.2347673,0.1357072,-0.01357485,-0.1129995,0.04580083
0.9985225,-0.2362292,0.1368528,-0.008061862,-0.1108652,0.04156283
0.9982361,-0.2398951,0.1378996,-0.005050664,-0.109935,0.03923086
0.9974272,-0.2364772,0.1349559,-0.006413648,-0.113415,0.0390568
0.9975865,-0.2340078,0.1366078,-0.004267763,-0.1147406,0.04813616
0.9955196,-0.2405131,0.139521,0.004699383,-0.1217495,0.06492703
0.9941272,-0.2452664,0.1392626,0.01203356,-0.1330609,0.07077999
0.998133,-0.2441028,0.1350931,0.01441996,-0.1383815,0.06054857
1.001514,-0.2436756,0.1270653,0.01480283,-0.1324603,0.05164556
1.000003,-0.2456001,0.1259087,0.01795339,-0.1231695,0.05339698
0.9987716,-0.2482249,0.1269302,0.02110854,-0.1171768,0.05234488
0.9978762,-0.2580186,0.1211455,0.02519777,-0.1027432,0.04711603
0.9949106,-0.2680373,0.1192629,0.0358404,-0.09450858,0.04354097
0.9952612,-0.2637873,0.1197452,0.05682599,-0.1069914,0.03977843
0.9971677,-0.2576803,0.1178543,0.08574242,-0.1198329,0.04621163
0.9974286,-0.2525233,0.1204826,0.09588278,-0.1229785,0.06193781
1.00086,-0.236658,0.1235465,0.07982845,-0.1162998,0.07975874
1.002803,-0.2211909,0.1236773,0.06510323,-0.1081373,0.1000694
1.001399,-0.2117952,0.128753,0.05314735,-0.1082781,0.1050201
1.002389,-0.2082334,0.1354221,0.02407739,-0.1081554,0.09149679
1.002272,-0.2182352,0.1315172,-0.01637482,-0.1060259,0.07627285
1.00107,-0.2317216,0.1268863,-0.04326086,-0.09902971,0.0590089
0.9993246,-0.2380137,0.1327216,-0.05395359,-0.08485852,0.03979458
0.9940282,-0.2407036,0.1345558,-0.06099073,-0.07781025,0.02268174
0.9923481,-0.2434829,0.1305692,-0.06352683,-0.07715722,0.003322612
0.9964247,-0.2488966,0.1303224,-0.06266604,-0.07502619,-0.01312547
0.9997947,-0.2528865,0.1300828,-0.05932367,-0.07033325,-0.01547062
0.9998142,-0.2538135,0.1288994,-0.04788547,-0.06625061,-0.01825058
0.9974161,-0.2554998,0.1273533,-0.03456463,-0.07018272,-0.03172171
0.9957614,-0.2571082,0.1277478,-0.03014357,-0.07203724,-0.03872477
0.9941534,-0.2560737,0.1308996,-0.03310301,-0.06995551,-0.04217769
0.9938631,-0.2508843,0.1305584,-0.03564954,-0.0687063,-0.03926935
0.9959355,-0.2478434,0.1277458,-0.0371718,-0.06335879,-0.02519165
0.9950214,-0.2489527,0.1229149,-0.04089403,-0.06633996,-0.0249082
0.9939029,-0.2493755,0.1163604,-0.04352549,-0.07551397,-0.02449169
0.9947205,-0.2498954,0.1140087,-0.04324133,-0.08073638,-0.0144799
0.9943126,-0.2473946,0.1157995,-0.04580198,-0.08379229,-0.01141564
0.994489,-0.244614,0.1181951,-0.05080953,-0.08188783,-0.0004206344
0.994675,-0.245977,0.1186211,-0.05770851,-0.08201262,0.005009626
0.9951905,-0.2461345,0.118498,-0.07226094,-0.07153368,0.001215768
0.9955875,-0.2456085,0.1190812,-0.0877672,-0.03867545,0.004089169
0.9922004,-0.2463936,0.11897,-0.09375849,-0.01238781,-0.005737908
0.9897651,-0.2496419,0.120641,-0.08932806,-0.011683,-0.01231741
0.9939257,-0.2561789,0.1229548,-0.08332533,-0.01752013,-0.01227383
0.9996321,-0.2598255,0.1216536,-0.08245792,-0.01002762,-0.02454469
1.000111,-0.2563723,0.1172598,-0.07269153,-0.00635469,-0.0282785
0.9994668,-0.2519755,0.1137041,-0.05407787,-0.009300863,-0.02608269
1.000578,-0.2517051,0.11352,-0.04252163,-0.01328119,-0.01813365
1.000111,-0.2504258,0.1155397,-0.02875325,-0.03464797,0.002639841
1.001623,-0.2490863,0.1213535,-0.008526218,-0.04446402,0.01492244
1.00355,-0.2492452,0.1292816,-0.001241237,-0.03671266,0.0185368
1.000986,-0.2463917,0.1310141,-0.005368204,-0.04547438,0.02454237
0.996442,-0.2441732,0.1289127,8.068402e-06,-0.06329255,0.03015571
0.9904134,-0.2416355,0.1275987,0.002726367,-0.0775718,0.02747782
0.9878782,-0.2386071,0.1243996,-0.007957151,-0.07107738,0.02598843
0.9927059,-0.2436867,0.1256997,-0.007996235,-0.05822813,0.03368042
0.9961147,-0.2478986,0.1300121,0.002937259,-0.07005131,0.04057988
0.9952087,-0.2375784,0.1281708,0.01206075,-0.08226938,0.05179803
0.9982313,-0.2274942,0.1286908,0.01283006,-0.0907905,0.05579545
1.003358,-0.2324072,0.1305966,0.009395701,-0.09508275,0.04857754
1.001969,-0.2376913,0.1290222,0.01481957,-0.08904518,0.04569541
1.000961,-0.239605,0.1311326,0.00982399,-0.09027013,0.03510051
1.003984,-0.2456826,0.1307069,0.002858762,-0.07195338,0.02617774
1.002612,-0.2469114,0.1278114,0.01156619,-0.04383586,0.0224994
1.001149,-0.2488839,0.1280163,0.01244255,-0.04553503,0.008969281
1.001898,-0.2543175,0.1269145,0.01323906,-0.04645032,-0.0002567392
1.000701,-0.2525481,0.1262101,0.01610177,-0.03883633,-0.004851737
1.000107,-0.2530447,0.1247317,0.008906606,-0.03462727,-0.01042332
0.9971345,-0.2519003,0.1240202,0.0004338249,-0.02570748,-0.0116483
0.9933671,-0.244276,0.1250797,-0.007368987,-0.02322172,-0.005108254
0.993567,-0.2453096,0.1226929,-0.01007795,-0.03106045,0.005039485
0.9930431,-0.2469894,0.1217083,-0.01526966,-0.04446663,0.007428927
0.9932255,-0.2448267,0.1198989,-0.02356091,-0.05272338,0.01044094
0.9961232,-0.2468981,0.1186605,-0.028609,-0.05673114,0.01167716
0.9976566,-0.2490236,0.1252141,-0.03574967,-0.06757907,0.006977969
0.9966496,-0.2531671,0.12628,-0.03248056,-0.07588404,0.006764435
0.995421,-0.2561313,0.1204962,-0.03115638,-0.09218079,-0.004134234
0.9976622,-0.2552456,0.1180884,-0.04660114,-0.1075278,-0.02417869
0.9990724,-0.2564922,0.1147526,-0.0614031,-0.08799443,-0.03147374
0.9956427,-0.2529587,0.1117349,-0.06742999,-0.05814045,-0.02558878
0.994533,-0.2469151,0.111066,-0.05577344,-0.04220898,-0.01504801
0.999754,-0.2482234,0.1077025,-0.04409457,-0.03373964,-0.01039531
1.003597,-0.2499655,0.1029534,-0.05117274,-0.04244992,-0.01716712
0.9969359,-0.2499409,0.0995408,-0.05399896,-0.06036184,-0.03361346
0.9903128,-0.2528505,0.09710579,-0.0549605,-0.06655067,-0.04330461
0.9959095,-0.2536387,0.0956941,-0.05954382,-0.066425,-0.03463332
0.9989538,-0.2513317,0.09487528,-0.05329896,-0.06578398,-0.01924185
0.9935048,-0.2494221,0.09190518,-0.045527,-0.06716502,0.00212006
0.9922612,-0.2465457,0.0892794,-0.04494737,-0.07270706,0.02096927
0.9942954,-0.2472569,0.09303337,-0.05039407,-0.07535931,0.02049909
0.9938576,-0.2509727,0.09572678,-0.05915873,-0.08370259,0.01284275
0.9898442,-0.252808,0.09213288,-0.06468612,-0.09545223,0.003577894
0.9850023,-0.257705,0.09067251,-0.06641898,-0.1006075,-0.01056766
0.986734,-0.2603476,0.0915969,-0.06364303,-0.1095433,-0.01366252
0.9941947,-0.2578112,0.09397087,-0.05925885,-0.1040417,-0.005272994
1.001919,-0.25597,0.1013501,-0.05957137,-0.07636422,-0.002018515
1.005687,-0.2515236,0.1054982,-0.06349434,-0.06145687,0.0003676048
1.003908,-0.2514731,0.09856074,-0.07184387,-0.06517992,0.006070348
1.003582,-0.254714,0.09098929,-0.0811924,-0.0651137,0.008499474
1.004919,-0.2528,0.09189386,-0.08251269,-0.05205313,0.01140208
1.004267,-0.257911,0.09202866,-0.08479976,-0.04323205,0.0126485
1.006819,-0.2637939,0.08896081,-0.09171562,-0.04411772,0.008982378
1.00862,-0.2599094,0.0888433,-0.0925163,-0.03622777,0.003673582
1.003568,-0.2569355,0.08874945,-0.09797093,-0.02830345,-0.006542048
0.9986295,-0.2552884,0.0888532,-0.1086488,-0.02645029,-0.01463714
0.9981956,-0.2557158,0.08919657,-0.111809,-0.02354265,-0.01214564
0.9974428,-0.2580862,0.08848298,-0.1200143,-0.02447342,-0.009132126
0.9948031,-0.2570369,0.08862319,-0.1309717,-0.02144384,-0.01006072
0.9955731,-0.2583617,0.08531277,-0.1325076,-0.01930322,-0.008234267
0.9967162,-0.260786,0.07920283,-0.135665,-0.02745606,-0.008704552
0.9954578,-0.2601384,0.07642947,-0.1409236,-0.03242017,-0.01341564
0.9978128,-0.2620417,0.07758958,-0.1392688,-0.03026694,-0.01414831
0.999475,-0.2670124,0.07862275,-0.1318229,-0.02290337,-0.01419111
0.9982692,-0.2742888,0.07739419,-0.1167316,-0.01507695,-0.01290236
0.9986769,-0.2832187,0.0786111,-0.09124313,-0.01569189,-0.01182164
0.9986086,-0.283451,0.07994578,-0.06778336,-0.0197574,-0.0182966
0.998769,-0.2757428,0.07994752,-0.05406154,-0.01873701,-0.0215191
0.9995848,-0.2730078,0.0855447,-0.03684681,-0.01621936,-0.01882236
1.000119,-0.2716635,0.09092349,-0.01922508,-0.01816306,-0.01290965
0.9985088,-0.2695188,0.08848743,-0.01378378,-0.01965362,-0.006211988
0.9907124,-0.2700076,0.08323977,-0.009443717,-0.02201395,-0.009355691
0.9838907,-0.268044,0.08092466,-0.00456017,-0.02659807,-0.01288614
0.9880048,-0.2655659,0.08015388,-0.007333197,-0.02608592,-0.01305658
0.9969741,-0.2616798,0.07772156,-0.007723985,-0.02558127,-0.01431408
1.000093,-0.2591973,0.07759707,-0.00657433,-0.02235931,-0.01031627
1.000214,-0.2627533,0.08222659,-0.008969314,-0.01512472,-0.008198786
1.00068,-0.2628205,0.08446906,-0.006345342,-0.01462914,-0.00811957
1.001178,-0.2632401,0.08301374,-0.006706085,-0.009069086,-0.006582342
1.003708,-0.2634317,0.08600594,-0.01529089,0.001585095,-0.009471986
1.002563,-0.2598653,0.08905663,-0.01982108,0.001462618,-0.01176409
0.9984572,-0.2640109,0.08658247,-0.01412495,0.0006626654,-0.01237965
0.9950352,-0.2669335,0.0859207,-0.005599911,0.001766112,-0.01439818
0.9916841,-0.2645031,0.08605627,-0.007166273,-0.003900901,-0.01557995
0.9950092,-0.2652523,0.08556254,-0.005509586,-0.005981021,-0.01473034
0.9983184,-0.2642793,0.08517438,0.004473236,-0.0006107675,-0.01336388
0.9966256,-0.2626033,0.08406737,0.005185689,0.00256888,-0.01473377
0.9972687,-0.262269,0.08754817,0.00796902,0.0002531195,-0.01634969
0.9964309,-0.2624067,0.09104386,0.01417235,-0.005737565,-0.01735639
0.9954113,-0.2628233,0.09188433,0.01462441,-0.008956568,-0.01691871
0.9973746,-0.2616438,0.09199379,0.01738988,-0.007654006,-0.01107668
0.9988179,-0.259966,0.08892131,0.01771725,-0.009507565,-0.007033168
0.9988983,-0.2572352,0.08733429,0.01395424,-0.01846596,-0.01313263
0.9967019,-0.2556315,0.08561593,0.001488109,-0.03116581,-0.03162046
0.9966111,-0.2541274,0.08395087,-0.0211242,-0.04124201,-0.0517839
0.998739,-0.2523958,0.08621169,-0.03134514,-0.0454303,-0.05409263
1.0004,-0.2573907,0.08724524,-0.02906607,-0.04045801,-0.05185192
1.003771,-0.2615422,0.08681691,-0.02752344,-0.02729621,-0.06088606
1.005715,-0.2578905,0.08016805,-0.01906427,-0.01190228,-0.06268221
1.012301,-0.2538795,0.06360472,-0.004204224,0.002930317,-0.05934325
1.022775,-0.2521056,0.05394684,0.005577576,0.00706241,-0.06215388
1.016285,-0.2529723,0.06632307,0.01346112,-0.0009425229,-0.06385183
1.00131,-0.2560168,0.08369954,0.02163359,-0.01142303,-0.06627967
0.997638,-0.2575285,0.08293025,0.02639186,-0.02111226,-0.05987493
0.9979964,-0.2580166,0.07762699,0.03015473,-0.02025309,-0.04478648
0.9989806,-0.2617975,0.07802947,0.03504346,-0.01373009,-0.04032374
0.9995151,-0.2689105,0.07701094,0.05513767,-0.01530316,-0.03407076
0.9999124,-0.2692738,0.07848028,0.08585591,-0.01391578,-0.01557307
1.005358,-0.2587677,0.07885222,0.0979226,-0.004813614,-0.003347869
1.006203,-0.2513443,0.07956408,0.0977204,0.004997831,-0.01048112
1.003041,-0.2554089,0.08463533,0.1009428,0.01270319,-0.01961754
1.002706,-0.2588779,0.08705332,0.1147987,0.01537492,-0.01609222
1.001371,-0.2530142,0.08856279,0.1340859,0.02058823,-0.01605983
0.9988177,-0.2452082,0.08745572,0.130783,0.02698279,-0.01455042
0.99497,-0.2391519,0.08026294,0.116449,0.02729231,-0.00665584
0.9976868,-0.2370631,0.06891298,0.1015709,0.03189434,-0.00353105
1.003444,-0.2419878,0.0629524,0.07910991,0.03676763,0.004223116
1.001095,-0.2462145,0.06793625,0.07779981,0.03416905,0.01118188
1.001735,-0.2493829,0.06861849,0.08115641,0.03409568,0.01157358
1.003068,-0.2510576,0.07037246,0.06406435,0.03297068,0.01359836
0.9974699,-0.2486323,0.07775667,0.054719,0.02046475,0.02105888
0.9937433,-0.2496188,0.0743045,0.04899536,0.0007768122,0.0330388
0.9937807,-0.2458366,0.07173327,0.04480736,-0.01478431,0.03428821
0.9970575,-0.2366525,0.07490914,0.04373196,-0.02211531,0.03406005
1.004801,-0.2304869,0.073272,0.01165349,-0.02014613,0.04021159
1.014859,-0.2242173,0.07401215,-0.03691464,-0.005506534,0.03440874
1.016194,-0.2343901,0.08054528,-0.05934167,0.01711333,0.02547169
1.009552,-0.2551205,0.09417397,-0.05554288,0.03755283,0.01938326
1.008016,-0.2563804,0.1075619,-0.05697572,0.04312722,0.01276271
0.9992794,-0.2431431,0.10859,-0.07376954,0.0474194,0.01097488
0.9864937,-0.2288269,0.1111889,-0.09115988,0.06193529,0.001498276
0.9887012,-0.2235708,0.1200653,-0.1289671,0.04665871,-0.02041879
0.9905233,-0.2305467,0.1221189,-0.1606645,0.008799031,-0.03773285
0.987694,-0.242226,0.1244202,-0.1385895,-0.004168425,-0.03696492
0.9905708,-0.2560931,0.1264298,-0.1205985,0.004649765,-0.02546001
0.9926514,-0.2585849,0.1184631,-0.1314718,0.02167271,-0.02262172
0.9944038,-0.2533697,0.1115866,-0.1450025,0.03218792,-0.03137637
0.9997068,-0.2549647,0.1128,-0.173367,0.04260227,-0.04431804
1.003925,-0.2510559,0.1150993,-0.1816418,0.06520497,-0.05407071
1.001139,-0.2506405,0.1097166,-0.1502235,0.07932685,-0.05598788
0.994587,-0.2594996,0.09790693,-0.1176655,0.08413122,-0.05617477
0.9944948,-0.2597493,0.08820368,-0.08242062,0.07909478,-0.05730475
0.9995374,-0.2622672,0.08507799,-0.03975701,0.06952903,-0.05557703
1.003804,-0.2663409,0.08643195,0.01005906,0.06092985,-0.04670862
1.00548,-0.2654087,0.08046532,0.06736611,0.04255126,-0.03428214
1.005144,-0.268774,0.07579966,0.09405715,0.03414339,-0.02716853
1.005086,-0.265845,0.07559209,0.09327044,0.01970082,-0.01220771
1.001173,-0.2618641,0.06809645,0.09752208,-0.007612032,0.0104675
0.9967086,-0.2641315,0.07302722,0.09983461,-0.009004216,0.01182501
0.9983187,-0.2594585,0.08303568,0.09695626,-0.009154573,0.0002123066
0.9975739,-0.2491677,0.08462586,0.0849614,-0.02317431,-0.0001381168
0.99481,-0.2403382,0.08850231,0.06028153,-0.02689202,0.003766746
0.9969377,-0.2402213,0.07926198,0.03279202,-0.02563342,0.007379984
0.9988813,-0.2440226,0.07228846,0.0109082,-0.02155941,0.009981986
0.9987716,-0.2448618,0.08338138,0.008548728,-0.01014534,0.005499322
0.9992978,-0.2506206,0.08844284,0.00961701,-0.0008271645,0.0007324819
0.9994383,-0.2557421,0.08533686,0.000794169,0.003700521,-0.004118284
0.9982099,-0.2582415,0.08204469,0.008160045,0.009229299,-0.01498888
0.9972339,-0.2627389,0.08266985,0.02105156,0.007646852,-0.02079159
0.9964215,-0.2646307,0.0823857,0.02767521,0.0007550495,-0.01705489
0.9952993,-0.2689543,0.08062677,0.04919142,-0.004023431,-0.01270799
0.9960371,-0.272618,0.08353781,0.07660524,-0.0149515,-0.004235373
0.9970236,-0.2675702,0.08328035,0.1009151,-0.02218917,0.008504271
0.9971731,-0.2619461,0.08569004,0.1095169,-0.02044835,0.00858678
0.9978491,-0.2577196,0.09098323,0.09327658,-0.01799544,0.003208548
0.998828,-0.2554184,0.09457425,0.08921622,-0.01268122,0.007222574
1.000144,-0.257406,0.1000058,0.09296071,-0.007410188,0.006402586
0.9986352,-0.2563203,0.09938993,0.08524785,-0.003546187,0.003984635
0.996036,-0.2544386,0.09891318,0.08064243,-0.003024124,0.006799648
0.9976912,-0.2549523,0.0976042,0.06873446,-0.001975082,0.003130997
0.9991736,-0.2522598,0.09231494,0.05930763,0.00671378,-0.0008745195
0.9980135,-0.2491449,0.09589951,0.05388366,0.01371729,-0.00468544
0.9962782,-0.2490096,0.09887092,0.03942486,0.01773797,-0.008262912
0.9949786,-0.2507709,0.09831266,0.03980247,0.01662923,-0.004469285
0.9969932,-0.2508518,0.1002296,0.03902903,0.0100119,-0.0037424
1.000657,-0.2489276,0.09976527,0.02723454,0.01139359,-0.007546234
1.003376,-0.2502892,0.1014055,0.02359186,0.01396253,-0.01371565
1.00266,-0.2496416,0.1072781,0.01756915,0.01685258,-0.02268229
0.9991191,-0.2446947,0.1157013,0.01361263,0.02450648,-0.02734686
0.999882,-0.2413961,0.1192405,0.0044918,0.02305701,-0.03088861
1.001048,-0.2379679,0.1134694,-0.01426776,0.0230532,-0.03250772
1.000995,-0.2354236,0.1065672,-0.02315227,0.02861874,-0.02596164
1.003812,-0.2377563,0.09813579,-0.02865295,0.02262947,-0.01658197
1.001736,-0.2472175,0.09302671,-0.0283264,0.01702236,-0.01245655
0.9957078,-0.2562804,0.09249177,-0.02509648,0.01622948,-0.01561414
0.9919161,-0.2529579,0.09023258,-0.02445032,0.005730455,-0.01765566
0.9929982,-0.2480053,0.09404001,-0.01722158,-0.002852703,-0.0134313
0.9998241,-0.2490703,0.09602746,-0.01751182,0.00298823,-0.0103651
1.002457,-0.2492257,0.09203054,-0.01821238,0.00728265,-0.01008252
1.000448,-0.2530676,0.09083148,-0.01165569,0.002644302,-0.007387038
0.9995947,-0.2583221,0.08706217,-0.004851918,0.002215799,-0.001655309
0.9996755,-0.2570971,0.09085273,0.01163505,0.003747608,0.003569361
1.000274,-0.2549461,0.09861059,0.01944462,0.003627189,0.00314623
0.9978535,-0.2539405,0.09438598,0.01721135,0.005415972,0.001223611
0.9972247,-0.2521131,0.09335478,0.02031307,-0.001049578,0.002801363
1.001145,-0.2521782,0.09548416,0.01723795,-0.007167249,0.002130473
1.0033,-0.2513796,0.09379504,0.01743083,0.00310304,0.001849109
1.001058,-0.2474762,0.09524188,0.01841086,0.01132951,0.002941755
0.9956958,-0.2440211,0.09732744,0.007921935,0.004819029,-0.001524241
0.9941972,-0.2398493,0.1001193,-0.0016336,0.0007634114,-0.006332286
0.9954396,-0.2378735,0.1014133,-0.01233885,0.00541713,-0.006883753
0.9978722,-0.2427997,0.101884,-0.02600454,0.006171938,-0.004533545
1.00336,-0.2478441,0.1052854,-0.03506322,0.004413939,-0.002396991
1.002849,-0.2493249,0.1046342,-0.03531526,0.004433727,-0.00315001
0.9978546,-0.2487359,0.1049702,-0.03176427,0.00144035,-0.002810965
0.9939089,-0.2470874,0.113743,-0.0318447,0.0004222666,-0.002207916
0.9918564,-0.2483295,0.1196518,-0.02398313,-0.0003538526,-0.001822468
0.9951143,-0.2531864,0.1118257,-0.01443376,-0.002873201,-0.0004548852
0.998648,-0.2596219,0.09837012,-0.0128452,3.016886e-06,-0.001647112
1.000559,-0.260975,0.09491273,-0.005641042,0.002994916,-0.002714389
1.000539,-0.25553,0.09684828,0.002256407,0.006981276,-0.003829103
0.9981942,-0.252954,0.0921349,0.002902299,0.0123261,-0.007105054
0.9983315,-0.2526585,0.08759481,8.956298e-05,0.008342217,-0.00855885
0.9966598,-0.2526846,0.09266647,-0.0002523761,0.001006314,-0.008931664
0.9930924,-0.2555375,0.1004031,0.0062351,-0.002239247,-0.008276509
0.9936191,-0.2575574,0.09942175,0.01318155,-0.003561029,-0.005094138
0.9974772,-0.2586154,0.0914563,0.01721649,-0.003732492,4.422177e-05
1.001369,-0.2558996,0.08333147,0.0168959,-0.005175891,0.0054625
0.9996045,-0.2498225,0.08035955,0.01245141,-0.006012108,0.004015443
0.9972957,-0.2485432,0.08337471,0.007311886,-0.004788397,-0.002426378
1.000374,-0.2527741,0.08511713,0.002970553,-0.002169151,-0.006686483
1.001357,-0.2566078,0.08805726,-0.001701508,0.006086303,-0.01033046
1.000603,-0.2515182,0.09157395,-0.01200778,0.01434171,-0.01063412
0.9992016,-0.2463055,0.08944631,-0.02541645,0.0162426,-0.01146128
0.9961968,-0.2518897,0.08930938,-0.03750318,0.01994821,-0.01838448
0.9978671,-0.254259,0.0892629,-0.03969393,0.02345799,-0.02050893
0.9993711,-0.2511049,0.08830633,-0.02990088,0.01921511,-0.01769867
0.9962768,-0.2518726,0.09150033,-0.0212469,0.01223432,-0.01357089
0.9952455,-0.2550716,0.09194092,-0.009287284,0.005294345,-0.004710275
0.9963106,-0.2578901,0.09209767,0.001996916,9.025365e-05,0.002335338
0.9978794,-0.2560837,0.09404735,0.004153343,-0.005316993,0.006903189
1.000023,-0.2526143,0.09353609,0.007042196,-0.01311283,0.009801003
1.000763,-0.2526718,0.09108166,0.004228047,-0.01529743,0.007661484
1.001237,-0.2527779,0.08781404,-0.0006010588,-0.01967193,0.004745894
1.002006,-0.2518425,0.08733582,0.00257093,-0.025859,0.002568804
1.001971,-0.2484593,0.08646311,0.003290277,-0.01608616,0.001969797
1.002112,-0.2442898,0.08554763,0.0007572592,-0.00696003,0.002620086
1.002254,-0.2454069,0.08668247,-0.002404285,-0.008399965,0.0005360796
1.00133,-0.246887,0.08568708,-0.006939127,-0.0006951621,-0.003780251
1.00002,-0.2455671,0.08727872,-0.01238639,0.01131375,-0.009857665
0.9993561,-0.2479098,0.09175489,-0.01651727,0.01424633,-0.01323312
1.000209,-0.2516041,0.09572472,-0.0138859,0.01345513,-0.01021802
0.9998588,-0.2525521,0.09652119,-0.01141182,0.01148659,-0.008407104
0.9967442,-0.2530724,0.09489415,-0.01159661,0.004657275,-0.008322674
0.995496,-0.2527659,0.09832931,-0.007385361,0.0009293509,-0.006992013
0.9965485,-0.2531015,0.09896596,-0.002793645,0.004063596,-0.008848134
0.9976644,-0.2557193,0.0951069,0.001181643,0.005657488,-0.008617761
0.9980406,-0.2570582,0.09425612,0.004952606,0.008545347,-0.005068798
0.9993077,-0.254604,0.09380777,0.005912731,0.01432403,-0.005086077
1.002421,-0.2514445,0.09498989,0.007568827,0.01617791,-0.005249658
1.00051,-0.252597,0.09419952,0.00752843,0.01358829,-0.006569417
0.9968996,-0.253674,0.09196392,0.007349112,0.01165561,-0.009620507
0.9973995,-0.2520473,0.09141718,0.01014717,0.01395242,-0.007416362
0.9969788,-0.2529449,0.08825048,0.008209825,0.01511445,0.0002747373
0.997243,-0.2531077,0.08656467,0.00367333,0.01391222,0.005900532
0.9975165,-0.2520728,0.08527645,0.0006026744,0.0143628,0.001585075
0.9965876,-0.2519471,0.08563558,-0.0007507529,0.01442336,-0.00461398
0.99671,-0.2491863,0.09113305,-0.0003168356,0.01450359,-0.005916788
0.9954213,-0.2480009,0.09269941,-0.002470218,0.01502442,-0.006182907
0.9955965,-0.2497974,0.09045524,-0.001680641,0.01403814,-0.003425714
0.9968804,-0.2506389,0.08970182,0.0003020887,0.01111399,-0.003648786
0.9980847,-0.2518332,0.09100287,-0.003796416,0.007943552,-0.005125076
1.000992,-0.2531322,0.09321359,-0.007740367,0.009127134,-0.001575923
1.000757,-0.2529194,0.0948106,-0.01236376,0.0138788,-0.001953529
1.000935,-0.251356,0.09512435,-0.01966291,0.01794112,-0.003282044
1.003878,-0.2502405,0.09372977,-0.02672157,0.01916221,-0.004646987
1.00259,-0.2498987,0.09366853,-0.02952674,0.01715903,-0.01033522
1.000273,-0.2504745,0.0901011,-0.02651961,0.01693049,-0.01268895
1.00003,-0.2538658,0.08364961,-0.02253279,0.0186512,-0.01029288
0.9998165,-0.2574422,0.08450857,-0.008175175,0.01862996,-0.005609781
1.001099,-0.2603015,0.08723921,0.01302659,0.02141644,-0.004033705
1.001797,-0.2633116,0.08765238,0.01991715,0.02591812,-0.009014619
1.001157,-0.2623051,0.08779951,0.01469224,0.02839053,-0.01324791
1.000946,-0.2556498,0.08855347,0.006483698,0.03135661,-0.01200555
0.9987143,-0.2462763,0.09481084,-0.0001339439,0.03077271,-0.009673795
0.9965,-0.240845,0.09999033,-0.006202598,0.02817179,-0.01183232
0.9981027,-0.2445895,0.09476608,-0.009470836,0.02891301,-0.01446799
1.000273,-0.2488603,0.08905307,-0.007086145,0.02697911,-0.01544943
1.000506,-0.2469056,0.09270259,-0.008601963,0.02459688,-0.01261516
1.001563,-0.2472819,0.09436341,-0.00660847,0.0265197,-0.006221161
1.002779,-0.2479991,0.08965061,-0.004741656,0.0270768,-0.008641002
0.9993662,-0.2446589,0.08823096,-0.009306533,0.02660045,-0.0119717
0.9958217,-0.2463453,0.08797061,-0.005104968,0.02480679,-0.00992751
0.9982182,-0.2502358,0.09098492,-0.0008759548,0.01937692,-0.01175744
1.000369,-0.2517123,0.09770258,0.003138487,0.01713024,-0.01000689
0.9990979,-0.2518377,0.09793793,0.00501675,0.01782002,-0.008537742
0.9991904,-0.2488011,0.09613524,-0.002442844,0.01400555,-0.01234903
1.000357,-0.2481822,0.09480697,-0.001000362,0.009220204,-0.01155117
0.9999278,-0.2489291,0.09210112,-0.001493229,0.009652925,-0.009805511
0.9989045,-0.2484521,0.09283652,-0.005683857,0.01082775,-0.008223358
0.9986111,-0.2498393,0.09469092,-0.002756189,0.01001049,-0.004787949
0.9994212,-0.250084,0.09719181,-0.004629441,0.01233616,-0.004344398
1.00077,-0.2500476,0.09855348,-0.002840041,0.01383181,-0.004690302
1.001836,-0.2500733,0.09389775,0.0009223926,0.01249882,-0.003291691
1.003072,-0.2497339,0.09251302,0.002037459,0.01588352,-0.00263386
1.003185,-0.2503334,0.09612229,0.006038835,0.01851106,-0.001182142
1.002325,-0.2492459,0.09391095,0.008091994,0.01606598,0.0009569728
1.002896,-0.2473159,0.09163432,0.01376245,0.01535404,-0.002890169
1.002983,-0.2452279,0.09363477,0.0155989,0.01700397,-0.006460828
1.002462,-0.2453801,0.09754072,0.01236194,0.01821053,-0.0007268576
1.002996,-0.2476198,0.1062562,0.01454368,0.01754627,0.004090444
1.002575,-0.2470646,0.1074895,0.01251915,0.01756512,0.00315289
1.001744,-0.2473306,0.1025552,0.008073756,0.01928456,0.003118556
1.001321,-0.2484411,0.1048076,0.002182632,0.01960356,0.0017475
1.001121,-0.2488087,0.1042017,-0.004547116,0.0196462,-0.00220522
1.001294,-0.2508291,0.1021096,-9.232827e-05,0.01940342,-0.001072373
0.9995565,-0.2518257,0.1014986,0.004116658,0.01882149,0.002311407
0.9979002,-0.252431,0.09776824,0.0005488122,0.01813568,0.001795931
0.9986419,-0.2526233,0.09887099,0.0007439701,0.01665763,0.001601296
0.999024,-0.2508948,0.1016236,0.00330341,0.01704096,-0.0009222069
0.999341,-0.2492369,0.1048852,0.004081683,0.01673753,-0.004361032
1.000283,-0.2478448,0.1087662,0.0048566,0.01379559,-0.002364715
1.000534,-0.2471532,0.1066843,0.003590187,0.01213653,-0.001725107
1.001526,-0.2472561,0.1068352,0.003115546,0.01180911,-0.00243268
1.003415,-0.2491265,0.1103672,0.007045782,0.01125377,-0.0009557946
1.003096,-0.2511619,0.1109686,0.01333837,0.01137674,-0.001459949
1.002176,-0.2517515,0.1088146,0.0255652,0.01628764,-0.003277089
1.003118,-0.2540948,0.1061958,0.03879048,0.02447502,-0.001921644
1.003024,-0.2548668,0.1099329,0.04377585,0.0289428,0.005021694
1.003341,-0.2531216,0.1155174,0.04647693,0.03139315,0.01126716
1.004611,-0.2516416,0.1156896,0.04501594,0.03052406,0.01125294
1.002301,-0.2487325,0.1142634,0.034713,0.02054792,0.009850082
0.9977983,-0.2468295,0.1107768,0.02829682,0.01005848,0.009720561
0.99466,-0.2457904,0.106945,0.03128797,0.008981342,0.01025479
0.9953052,-0.2451101,0.107927,0.03410361,0.01102799,0.01086207
0.996836,-0.2469104,0.1092219,0.03813168,0.009416673,0.00954991
0.9953254,-0.2485518,0.1079012,0.0443962,0.009474806,0.008427844
0.9956397,-0.2492957,0.1081581,0.03688274,0.01163411,0.009385456
0.9960655,-0.2454494,0.1087986,0.02387866,0.0102929,0.009310393
0.9934908,-0.2391668,0.108315,0.02370946,0.004422781,0.00959461
0.9934645,-0.240714,0.1102009,0.02350795,-0.006594299,0.01331205
0.9965374,-0.2406555,0.1118528,0.01997273,-0.01363756,0.01964192
0.9997671,-0.2362866,0.1108311,0.01761406,-0.01109162,0.02437372
0.9993885,-0.2418988,0.1100562,0.007769982,-0.008008234,0.01912665
0.9983556,-0.2463128,0.1101075,-0.007066262,-0.005253853,0.009460155
1.000401,-0.2402165,0.1122783,-0.02080949,-0.004834299,0.004958391
0.9975492,-0.2374663,0.114891,-0.02766821,-0.006992753,0.000344019
0.9948786,-0.2403973,0.1135661,-0.0267238,-0.005564346,-0.00127476
1.000245,-0.243692,0.1105975,-0.02910225,-0.006028739,0.00250466
1.004534,-0.2477836,0.1092563,-0.0331114,-0.004967096,0.003358839
1.003976,-0.2511809,0.1096435,-0.03188703,0.0002445602,0.002710705
1.000305,-0.249288,0.1109416,-0.03127967,-0.0002420505,0.002779306
0.9979033,-0.2454008,0.1113498,-0.0324977,-0.0002477943,0.00291163
1.001245,-0.2458344,0.1110074,-0.03245748,0.003613244,0.003484776
1.004101,-0.2459815,0.111139,-0.03614201,0.003760849,0.002873845
1.001719,-0.2460134,0.1109458,-0.04543414,0.002763366,0.00270091
0.996767,-0.248964,0.1101674,-0.05269095,0.003851089,0.003068867
0.9943757,-0.2512031,0.1098825,-0.04734969,0.007171827,0.002051924
0.9991473,-0.2539475,0.1113302,-0.03290165,0.01273953,0.0001864029
1.004944,-0.2560671,0.1131087,-0.02834267,0.01504691,-0.001561527
1.001284,-0.2548502,0.1112049,-0.03312675,0.0108525,-0.00415011
0.9967976,-0.2526275,0.1074541,-0.03474435,0.006033442,-0.009639105
0.9992407,-0.252473,0.1053531,-0.03240399,0.003750731,-0.01283394
0.9977335,-0.2541938,0.1041926,-0.0274843,0.002583508,-0.009947996
0.9952355,-0.2541909,0.1046661,-0.0252712,0.002956987,-0.007086635
0.9968939,-0.2541584,0.1068688,-0.02574366,0.002689886,-0.004654582
0.9980643,-0.2543345,0.1085081,-0.02443938,0.0007824461,-0.001703592
1.000942,-0.2538412,0.105965,-0.02141282,-0.001529078,-0.002017555
1.0006,-0.254309,0.1016997,-0.01840284,-0.002182506,-0.002635528
0.9988441,-0.2531314,0.102508,-0.01934017,-0.0005015446,-0.004170715
1.000831,-0.2522198,0.1033441,-0.01932421,-0.001466201,-0.007039105
0.9998327,-0.252072,0.1009153,-0.01781995,-0.001059745,-0.005361315
0.9994415,-0.2509859,0.0999094,-0.01756412,0.00409093,-0.004402568
0.9997091,-0.2514142,0.1000671,-0.01478139,0.006142059,-0.004797455
0.9974736,-0.252045,0.1024843,-0.01354784,0.004508563,-0.003814758
0.996947,-0.2539439,0.104626,-0.01015205,-0.0002564735,-0.005230945
0.9955678,-0.2561195,0.1063164,-0.002021483,-0.005317935,-0.002884375
0.9955991,-0.2538177,0.1123211,0.001351707,-0.005171943,0.0002745032
0.9983225,-0.2507994,0.112112,-0.002233445,-0.005377691,0.0002081746
0.9988211,-0.2513337,0.1052041,-0.005806172,-0.007218423,0.00332214
0.9989111,-0.2527152,0.1054692,0.0001189524,-0.004233334,0.006284011
0.9994187,-0.252766,0.1072527,0.005757252,0.003007019,0.007238975
0.9994321,-0.2525469,0.1058569,0.002306121,0.005479513,0.001689546
0.9967952,-0.2506196,0.1072055,0.0003270987,-0.002183455,-0.006503715
0.9938135,-0.246968,0.107989,-0.005320433,-0.009002647,-0.00430325
0.998651,-0.2440256,0.1067023,-0.01731337,-0.004128651,-0.002836806
1.003019,-0.2429817,0.1067094,-0.02482714,0.0007682807,-0.005397303
0.9976231,-0.2475986,0.1064233,-0.02760176,-0.003258643,-0.003752083
0.9938275,-0.2555467,0.1033881,-0.02373295,-0.004702106,-0.004349959
0.9967875,-0.2575592,0.1001681,-0.01673055,-0.006415087,-0.004587309
0.999444,-0.2511305,0.1001605,-0.01681485,-0.01201204,-0.001855486
1.001933,-0.244482,0.09777707,-0.01796269,-0.009390134,-0.001882995
1.003217,-0.2457486,0.09255815,-0.0164045,-0.005432115,-0.002101046
0.998926,-0.2495006,0.09351221,-0.01671578,-0.005494319,-0.0008269194
0.9956857,-0.2502606,0.09410037,-0.01514996,-0.005076509,0.001464731
0.9977771,-0.2503192,0.09106483,-0.01246166,-0.006385425,0.004238082
0.9994639,-0.2490009,0.09630376,-0.01208915,-0.005210722,0.003370035
1.000122,-0.2463515,0.1027917,-0.014216,-0.00225429,0.001496438
1.000353,-0.2444171,0.1015333,-0.01803671,0.0007830664,0.002672436
0.999666,-0.2475852,0.1018079,-0.01803845,0.003180756,0.002115395
1.000064,-0.2540507,0.1061858,-0.01876778,0.001138893,0.000128661
1.000165,-0.254148,0.1101012,-0.02155153,0.001311132,-0.000463532
0.9995953,-0.2525024,0.1115672,-0.02012738,0.001919498,-0.002858269
0.9992525,-0.2533491,0.1122878,-0.01953382,-0.001198269,-0.003976367
0.9983253,-0.2524344,0.1127909,-0.0150816,-0.001782222,-0.002994569
0.9984149,-0.2537401,0.109412,-0.005658995,-2.718777e-05,-0.003882904
0.9989407,-0.2546586,0.1072142,-0.003408524,0.001784318,-0.003743006
0.99842,-0.2527921,0.1086937,-0.004119103,0.0005509222,-0.003158469
0.998593,-0.2527508,0.1087411,-0.00282492,-0.001108186,-0.002109823
0.9987652,-0.2524684,0.1099736,-0.001349596,0.002026766,0.0007912553
0.9980833,-0.2517526,0.1114404,0.002021936,0.003385265,0.001262061
0.9969222,-0.2502141,0.1083296,0.004182687,0.001527382,0.002266334
0.9954713,-0.2484083,0.1021489,0.002961654,-0.001547668,0.004186173
0.9967863,-0.2489167,0.0984287,0.0002152866,-0.00516686,0.002242864
0.9998069,-0.2493697,0.1007797,-0.003191974,-0.004452313,0.001487304
1.000186,-0.2500794,0.1025373,-0.003229831,-0.003930493,0.001795888
0.9990576,-0.2494213,0.09997564,-0.0007079377,-0.006934262,-0.0003866851
0.998286,-0.2474721,0.09588864,-0.002366429,-0.008271563,-0.0006697592
0.9986606,-0.2470649,0.08902996,-0.005477917,-0.008100215,-0.002445826
0.9996379,-0.2454555,0.08563058,-0.0135481,-0.006926398,-0.007279354
0.9991732,-0.2453016,0.09040874,-0.03078576,-0.005372809,-0.007220049
0.998435,-0.247953,0.09469733,-0.03666292,-0.005707891,-0.006068948
0.9986482,-0.2526297,0.09722914,-0.02743827,-0.004685672,-0.006843179
0.999961,-0.2588722,0.09950625,-0.02028553,-0.0006830496,-0.00448343
1.002134,-0.2566967,0.09676464,-0.01464965,0.003354001,-0.003050876
1.002726,-0.2505979,0.09445453,-0.01258982,0.004839516,-0.003813853
1.000227,-0.2514773,0.09470244,-0.01119083,0.004685605,-0.003819666
0.9974842,-0.2516034,0.090684,-0.00176716,0.007034729,-0.004248666
0.998413,-0.2508447,0.08936352,0.001575998,0.008131307,-0.003423917
0.9993696,-0.2518591,0.09928933,0.000703457,0.004856586,-0.001270699
0.9980474,-0.2500743,0.1106121,0.00416244,0.001533696,-0.0002106996
0.9988656,-0.2497309,0.1106298,-0.0001431169,-0.002465764,-0.001830227
0.9998162,-0.2497246,0.1071092,-0.00378189,-0.004793381,-0.005732656
0.999842,-0.2470115,0.1089816,-0.001143168,-0.002747344,-0.00863851
1.000236,-0.2453245,0.1089986,-0.00250913,-0.0008962466,-0.008382579
0.9990061,-0.2449731,0.1102917,-0.004518893,-3.355008e-05,-0.006609701
0.9995471,-0.2449937,0.1141408,-0.006422395,0.002148822,-0.00827673
1.002244,-0.2440467,0.1119874,-0.006777179,0.003789132,-0.01028003
1.003114,-0.2448198,0.1098642,-0.006122021,0.001943354,-0.009160013
1.00201,-0.2452499,0.1085126,-0.008303161,0.0009541731,-0.009931653
1.000565,-0.2423965,0.1043453,-0.009080201,0.002462632,-0.01081123
1.000237,-0.243505,0.1023174,-0.009765054,0.002487903,-0.01060741
0.9982468,-0.2459794,0.1024929,-0.007097928,0.002888361,-0.009700085
0.9965273,-0.2492068,0.1055383,-0.001246153,0.004826373,-0.007001146
0.9992611,-0.2532057,0.1094132,0.0005446157,0.007139677,-0.006259839
1.000828,-0.2498383,0.1111246,0.002398638,0.0069474,-0.007112689
0.9998133,-0.247503,0.1103297,0.004457349,0.004736421,-0.007848624
1.000205,-0.2493594,0.1076487,0.006133444,0.004826652,-0.007030273
1.001926,-0.249885,0.1116311,0.007069068,0.004551984,-0.006883536
1.002969,-0.2496057,0.1149329,0.004772132,0.006002318,-0.008627573
1.001107,-0.2442244,0.1066092,0.003383006,0.01004984,-0.008025076
0.9991261,-0.239847,0.1000311,0.003325201,0.01000831,-0.007169348
1.000161,-0.2418037,0.1008544,0.005754086,0.008038304,-0.001377504
1.001852,-0.2435421,0.1020439,0.008365362,0.004466534,0.00612979
1.004017,-0.2448294,0.1013423,0.006583583,-0.0005714379,0.002827662
1.006332,-0.2461272,0.100931,0.005537687,-0.0002264204,-0.0002312087
1.004612,-0.2452806,0.1019156,0.005675294,0.001068043,0.001035482
1.001167,-0.2436943,0.1011549,0.004248551,-0.001069781,-0.004367047
1.000329,-0.2442781,0.1015804,0.002112243,-0.001358739,-0.01078717
0.9997485,-0.243515,0.1036089,0.001896495,-0.001727744,-0.01060502
0.9996436,-0.2395435,0.1040747,0.003123766,-0.002613544,-0.008769208
0.9995112,-0.2382519,0.1037589,0.0007654293,-0.0008471685,-0.00773383
0.9980101,-0.2388559,0.1026333,-0.003454152,0.0004443938,-0.0045145
0.9985819,-0.2394237,0.1058427,-0.007398523,0.002117274,-0.001402226
0.9989888,-0.2409133,0.1110867,-0.006900958,0.002122052,-0.001518981
0.9983947,-0.2428111,0.1112555,0.001513296,-0.001485222,-0.002083468
0.9999024,-0.2438558,0.1093255,0.00954782,-0.002353441,0.00024351
1.001162,-0.2426183,0.1079255,0.01694804,-0.002253305,0.002300172
1.00162,-0.2423925,0.1099675,0.02338462,-0.002490929,0.002867658
1.001489,-0.240503,0.1122772,0.02068637,-0.001895213,0.005066647
1.000763,-0.2357742,0.1104196,0.01491313,-0.00204045,0.004635818
0.9998209,-0.236419,0.10875,0.01291282,-0.001365774,0.002357674
0.9980119,-0.241021,0.1060026,0.01254786,-0.002201882,0.002667026
0.998294,-0.2442498,0.1027476,0.01387281,-0.003183593,0.003350379
0.9992066,-0.2436276,0.1032568,0.01729552,-0.002559973,0.004690002
0.9987799,-0.2419885,0.1063542,0.01998416,-0.0005125073,0.003997916
1.001467,-0.2430764,0.1094938,0.01790448,0.004227299,0.001770251
1.004738,-0.2401976,0.1078834,0.01242879,0.005514261,0.004362499
1.004292,-0.2353201,0.1029198,0.005169609,0.007560107,0.009453795
1.002576,-0.2340533,0.1005783,-0.004885117,0.01306361,0.01193521
1.000806,-0.233448,0.1009255,-0.01130756,0.01372133,0.01189164
0.9994585,-0.2367128,0.1035772,-0.01202573,0.01561501,0.009895484
0.999668,-0.2432082,0.1093936,-0.01269266,0.01916827,0.002733978
0.9991298,-0.2463428,0.115183,-0.01104765,0.01747053,-0.004657674
0.9963479,-0.2471357,0.111625,-0.007368595,0.0149268,-0.005370662
0.9952864,-0.2485968,0.1042192,-0.001882839,0.0117433,-0.005125676
0.9971312,-0.2485181,0.1070487,0.01214425,0.006749214,-0.004984903
0.998666,-0.2463259,0.1085919,0.02728131,0.004156265,-0.0042191
0.9997172,-0.2465331,0.106188,0.03442739,0.001087358,-0.003073457
1.000278,-0.2451118,0.1089585,0.03611416,-0.007784165,0.0009921095
0.9999682,-0.2395832,0.105886,0.03257863,-0.01402087,0.002218073
0.999928,-0.235777,0.1028363,0.02679731,-0.008899877,0.001526449
1.000045,-0.2312017,0.1088874,0.02174182,-0.004591337,0.003731442
1.000191,-0.2286434,0.1153727,0.0156662,-0.01091234,0.006247125
1.000679,-0.2296571,0.1187598,0.00808913,-0.01542639,0.007259831
1.000961,-0.2268222,0.1122673,0.000155573,-0.0128505,0.005508584
1.000753,-0.2267382,0.1060266,-0.005912419,-0.01272926,0.002314665
1.001294,-0.2322613,0.1140471,-0.01351866,-0.01332487,-0.003030574
1.001858,-0.2363502,0.1195349,-0.02013537,-0.01047744,-0.006135985
1.000917,-0.2375428,0.1154054,-0.01812512,-0.009129635,-0.001902718
1.000427,-0.2376908,0.1128005,-0.01472242,-0.01014957,-0.0004036278
1.000209,-0.2395912,0.1134072,-0.01403531,-0.01018025,-0.004426734
1.000658,-0.2382814,0.1144926,-0.01795482,-0.007692313,-0.009790037
1.002904,-0.2369161,0.1139286,-0.02771516,-0.004157561,-0.01574129
1.003119,-0.2419347,0.1106038,-0.03047775,-0.0004152049,-0.01645433
1.002436,-0.2448845,0.1088547,-0.02878892,0.003694754,-0.0127307
1.003005,-0.2475139,0.1099624,-0.02717837,0.005908282,-0.01153388
1.002684,-0.2512395,0.1097767,-0.0204923,0.006624861,-0.01455875
1.002212,-0.2497789,0.1096037,-0.01894924,0.00948588,-0.01696211
0.9998604,-0.2467527,0.1103974,-0.02088085,0.01329262,-0.01427783
0.995853,-0.245147,0.1122333,-0.01912286,0.01428795,-0.01188752
0.9956293,-0.2453902,0.1145187,-0.01792769,0.01699264,-0.01285572
0.998866,-0.244078,0.1117847,-0.01478288,0.02045396,-0.01226511
1.000904,-0.2402168,0.1072463,-0.01340285,0.01668274,-0.01096833
1.000077,-0.2387864,0.1063545,-0.01687877,0.01156932,-0.01068071
0.999356,-0.2389745,0.1073197,-0.0196583,0.008906456,-0.007473295
0.9992494,-0.2400017,0.1089868,-0.02057115,0.008769598,-0.0027941
0.9976078,-0.2412977,0.1093728,-0.01735767,0.01167062,-0.0009514696
0.9977267,-0.2405311,0.106347,-0.008418864,0.009567022,-0.0006684496
1.000092,-0.2373398,0.1028161,0.002117976,0.005257682,-0.0003331374
1.000371,-0.2356825,0.1042984,0.007535285,-0.0003456514,0.001056676
0.9997397,-0.2401418,0.1078757,0.009863987,-0.00650476,0.003390182
1.000427,-0.2449901,0.108494,0.01385921,-0.002846638,0.004172986
1.001831,-0.2444515,0.108629,0.0148305,-0.0008611065,0.003299344
1.002893,-0.2407817,0.1082025,0.01598917,-0.003744899,0.001156006
1.00126,-0.2368369,0.1080749,0.01814049,-0.0003952531,-0.0004026118
0.9993726,-0.235182,0.1091441,0.01693961,0.001538454,-3.952497e-05
1.001774,-0.2361644,0.1097819,0.01922824,0.001582305,-0.003674723
1.003839,-0.2365562,0.1116922,0.02149989,0.002145987,-0.008335426
1.002357,-0.235719,0.111577,0.02093663,0.001233641,-0.004596464
1.001603,-0.2360012,0.1101374,0.0202283,0.001723738,0.000433462
1.00148,-0.2354403,0.1107347,0.01497078,-0.0005819258,0.001480347
1.001263,-0.2341262,0.1094176,0.01373001,-0.00270084,0.004301984
1.002484,-0.2353819,0.1112395,0.01649342,0.00127777,0.008336822
1.003076,-0.2375706,0.1202134,0.01416323,0.006791368,0.009490182
1.002701,-0.2387525,0.1266599,0.009646767,0.01267872,0.002139408
1.002769,-0.2358208,0.1216072,0.004440937,0.0167295,-0.007119551
1.002774,-0.2318893,0.1133743,0.007036826,0.01292355,-0.003976507
1.002443,-0.234995,0.1148595,0.0150351,0.007812405,-0.0003973451
1.000984,-0.2376778,0.1148403,0.01571983,0.01201575,-0.002233255
0.999784,-0.2354767,0.1110646,0.01424376,0.01775059,0.004798883
1.001627,-0.2359179,0.113424,0.01413108,0.02125718,0.01006105
1.00333,-0.2366265,0.1133905,0.01940396,0.02592452,0.006633369
1.000848,-0.235687,0.1162922,0.0263109,0.02023143,0.00698627
0.998074,-0.2359088,0.1233997,0.02110958,0.01267205,0.00781532
0.9983421,-0.2340605,0.1234668,0.01302786,0.01592586,0.006499606
0.9983134,-0.2306083,0.1241816,0.006647644,0.01728941,0.006070326
0.9987154,-0.2291039,0.1216149,-0.002006716,0.02046571,0.004384599
1.001436,-0.2289943,0.1155781,-0.002216855,0.02411099,0.00422963
1.001718,-0.2297904,0.1180337,0.004591489,0.01302423,0.008370303
0.9991323,-0.2322225,0.1192229,0.009693044,0.002737348,0.0155994
0.9981096,-0.2358638,0.11706,0.01281111,0.00519232,0.01865821
0.9987948,-0.2366991,0.1187162,0.01506762,0.005982988,0.01078466
0.9996771,-0.2333284,0.1206374,0.01843854,0.001964652,0.00179341
1.000183,-0.229831,0.1236177,0.01959376,-0.0004492082,0.003423013
0.9998853,-0.2275955,0.1268667,0.0172413,-0.005466272,0.007732305
0.9989991,-0.2278232,0.127553,0.01634925,-0.009759535,0.006005564
0.9981928,-0.231249,0.1292083,0.01854939,-0.00360037,0.00643532
0.9976507,-0.2344351,0.1290466,0.02326497,0.001942844,0.008456537
0.9969217,-0.2348906,0.1250029,0.02622733,-8.258773e-05,0.004754244
0.9959697,-0.2318999,0.1222561,0.0251466,-0.002376855,0.003641248
0.9948471,-0.2295966,0.1185374,0.0243869,-0.01002172,0.007607732
0.9952881,-0.2317028,0.1164838,0.02518451,-0.01870752,0.01037757
1.000696,-0.2335415,0.1192069,0.02546976,-0.01340534,0.01143048
1.006133,-0.2333289,0.1189486,0.02371517,-0.001831242,0.01055626
1.003632,-0.2330008,0.1190675,0.01784451,0.002865923,0.008334614
1.000208,-0.2309905,0.1205097,0.007848944,0.004311095,0.00187013
1.002182,-0.2264283,0.1198012,-0.002884207,0.009098108,-0.008478412
1.003404,-0.2202107,0.1221763,-0.01518349,0.01446909,-0.0127197
1.003774,-0.2145649,0.1232892,-0.02867616,0.01110634,-0.009848444
1.00295,-0.2132433,0.1238749,-0.03852799,0.003501094,-0.005690123
0.9991353,-0.2178529,0.1293317,-0.04392661,0.002223204,0.002677594
0.9985087,-0.2248385,0.1336881,-0.03941915,-0.002436367,0.01615564
0.9983728,-0.2294874,0.1339555,-0.03139447,-0.008134757,0.01956159
0.9973167,-0.2314587,0.1266147,-0.03202326,-0.006143611,0.01004501
1.000286,-0.2322907,0.1174363,-0.03076927,-0.009651811,0.00444521
1.001514,-0.2321265,0.1193138,-0.02819491,-0.01321376,0.001549463
1.001062,-0.2312768,0.1231036,-0.02658625,-0.009581831,-0.000714277
1.001846,-0.2304423,0.1219019,-0.01933252,-0.007270256,0.0003668795
1.000911,-0.2293086,0.1226988,-0.01850442,-0.004201831,-0.003703538
1.0005,-0.2287416,0.1192664,-0.02163226,-0.001827583,-0.007104004
0.999964,-0.2286687,0.1138763,-0.02004619,-7.892139e-05,-0.007548161
0.9995694,-0.2282465,0.121217,-0.01949806,-0.0008373347,-0.009714409
1.000463,-0.2295249,0.1281722,-0.0172532,-0.005481396,-0.007822601
0.9998005,-0.2319498,0.1208793,-0.01401118,-0.004736731,-0.004339278
0.9998916,-0.2374233,0.1115975,-0.01311903,-0.005801676,-0.0007156928
1.000288,-0.2435167,0.1075225,-0.01077124,-0.009527553,0.0005019709
0.999886,-0.2388158,0.1116065,-0.006857736,-0.0066698,-0.001462327
1.001061,-0.2331577,0.1183489,-0.006885105,-0.006749007,0.0006897535
1.00166,-0.2375928,0.1144991,-0.008672574,-0.009761161,0.0009589369
1.00119,-0.240515,0.1096682,-0.00550359,-0.008849984,-0.0002287385
1.000465,-0.2415518,0.1085097,-0.003046453,-0.009288239,0.002262225
0.9996829,-0.2424831,0.1061991,-0.002000236,-0.007562454,0.005201685
0.9998217,-0.2381015,0.1125198,-6.791127e-05,-0.001946192,0.008703094
0.9992228,-0.2338521,0.1206923,-0.0006850267,-0.001638243,0.004962725
0.9984291,-0.231806,0.1210925,0.002473347,-0.002032509,-0.001102161
0.9994274,-0.2345491,0.1190071,0.01070484,-0.0006407181,0.002111466
1.000479,-0.2399136,0.1151457,0.02050702,-0.004520383,0.003185025
1.000009,-0.2366717,0.1137599,0.0286581,-0.007845568,0.0009001696
1.000091,-0.232656,0.1114647,0.02799692,-0.007473113,0.0007838108
1.002022,-0.2325829,0.1064534,0.02019476,-0.006275726,-0.001194135
1.002547,-0.2327807,0.1084438,0.00915874,-0.006069352,0.0001064139
0.9993167,-0.236882,0.111698,0.001594205,-0.006843358,0.003764596
0.9958899,-0.236651,0.1142661,0.002190551,-0.00423437,0.003951131
0.99703,-0.2339956,0.1200977,0.005021492,-0.003563283,0.005270687
0.9990903,-0.2347076,0.1220124,0.008041281,-0.005907764,0.00632208
0.9982778,-0.2307001,0.1203786,0.00786881,-0.009251616,0.002197872
0.9988368,-0.227998,0.1196817,0.005302929,-0.01306243,-0.001153866
0.9998022,-0.230356,0.1201527,0.007184674,-0.008761787,0.003508975
0.9998182,-0.2346539,0.1230501,0.01005893,-0.006069817,0.009865216
1.000454,-0.2392471,0.1268545,0.01016228,-0.007831609,0.009052249
0.9997169,-0.2376638,0.1263065,0.007392073,-0.005998676,0.006069825
0.999907,-0.2346814,0.1223996,0.004153635,-0.007692265,0.003122493
1.000912,-0.2320476,0.1177051,0.0007536778,-0.005275629,-0.001447947
1.002259,-0.2276172,0.1104112,-0.003658956,-0.0007691161,-0.001490524
1.005055,-0.2287427,0.1108376,-0.003642102,-0.002883188,0.0005351048
1.003432,-0.23148,0.1219221,-0.003009098,-0.002234556,0.0004126738
1.000754,-0.2310259,0.1270864,-0.003727912,-0.002436119,0.001400364
1.001635,-0.2323784,0.1238736,-0.002704864,-0.003272659,0.002192702
1.001179,-0.2331556,0.1203018,-0.004793524,-0.001101928,0.002316757
1.000353,-0.2322132,0.1208286,-0.007353334,0.0005832783,0.00207619
0.999604,-0.2330394,0.1227637,-0.008157957,0.001179292,0.001238918
0.9978892,-0.233743,0.1214175,-0.008208379,-0.00309041,0.001891151
0.9971844,-0.2347701,0.1234448,-0.007546397,-0.004321003,0.003344531
0.998689,-0.2352308,0.1249549,-0.008380142,-0.00114626,0.004371214
1.003638,-0.2334009,0.1215069,-0.007711448,-0.000913526,0.003356926
1.006702,-0.2337072,0.122155,-0.005788284,0.001971165,0.002820025
1.003454,-0.2334346,0.1230681,-0.0008361955,0.003309143,0.006431001
0.9998191,-0.2308666,0.1233866,0.005385831,0.002632808,0.008397642
0.9996417,-0.2310698,0.1260223,0.004857259,0.006388323,0.006597265
1.000409,-0.2340056,0.1250483,0.005674336,0.008800467,0.003066314
1.001014,-0.2372839,0.1244367,0.008701231,0.01047777,-0.001078227
1.00233,-0.2363075,0.1255362,0.00615617,0.008786125,-0.0003541905
1.002534,-0.2327022,0.1238506,0.006097091,0.002622138,0.001247748
1.001458,-0.2307372,0.1205092,0.01084364,0.002572735,-0.001318527
1.000756,-0.2282296,0.1168767,0.01347799,0.002254004,-0.001729686
0.9981176,-0.2295965,0.1174896,0.01364138,-0.004096516,0.0001178247
0.9963912,-0.2346486,0.1201327,0.01594244,-0.01885951,0.004031058
0.9993334,-0.2364052,0.1189817,0.0208992,-0.03951223,0.01159076
1.001263,-0.2345711,0.117878,0.02015602,-0.03796219,0.01432615
1.001116,-0.2302273,0.1155568,0.015623,-0.02657149,0.0120981
1.00126,-0.2289865,0.1130103,0.01507495,-0.02628432,0.01110955
0.9989834,-0.2306366,0.1168983,0.01225679,-0.01307512,0.007559054
0.9979177,-0.2302432,0.1201678,0.009747752,-0.003993066,0.004747464
1.00096,-0.2301779,0.1184987,0.01166203,-0.006500914,0.00938167
1.001506,-0.2270124,0.1176163,0.008188753,-0.000282397,0.01317148
0.9984578,-0.2241883,0.1189378,0.003991523,-0.005224996,0.01071057
0.9964264,-0.2287262,0.1229126,0.002229881,-0.008716248,0.008246574
0.9972796,-0.2318907,0.1271243,-0.007120411,-0.004597253,0.007395838
0.9996203,-0.2297357,0.1271438,-0.01828905,-0.00760531,0.006367261
1.000263,-0.2281786,0.1252818,-0.02065365,-0.001113275,0.005577052
1.00039,-0.230017,0.1243573,-0.01766508,-0.003010513,0.003833545
1.002152,-0.2322212,0.121688,-0.01683744,-0.007927464,0.002884382
1.004945,-0.2335162,0.1200975,-0.01717819,0.002890165,0.003556898
1.005986,-0.2341173,0.1239836,-0.01584895,0.003660763,0.001879619
1.002582,-0.2328145,0.1261161,-0.01399902,-2.587698e-05,0.0006028639
0.9999152,-0.2342464,0.1248768,-0.01050724,-0.005585821,0.003545784
0.999783,-0.2355759,0.1257938,-0.0073455,-0.01309669,0.008881347
0.9979605,-0.2340819,0.1264104,-0.00519335,-0.01073192,0.01359542
0.9963974,-0.2355359,0.1243437,-0.003701942,-0.007859616,0.01323318
0.995919,-0.2374801,0.1210556,-0.0056144,-0.00306172,0.009246699
0.9965462,-0.2393716,0.1201295,-0.006257793,-0.005104459,0.006510383
0.9985076,-0.2394635,0.1212007,-0.006717584,-0.01101684,0.005859993
0.9984377,-0.2371915,0.1207828,-0.008305833,-0.007784172,0.007344969
0.9980921,-0.2384124,0.1207392,-0.004795172,-0.009025205,0.009989841
0.9991104,-0.2381727,0.1209592,-0.002412667,-0.0078247,0.01182123
0.9991089,-0.2358836,0.1216095,-0.003194977,-0.002218597,0.008106031
1.000596,-0.2349537,0.1253956,-0.005280008,-3.272699e-05,-2.49862e-05
1.002378,-0.2333752,0.1281828,-0.0148835,0.003952708,-0.002387663
1.000134,-0.23321,0.1238715,-0.02545559,0.005483706,0.0003255946
0.9987554,-0.23424,0.1186299,-0.02524686,0.00466454,0.002549544
0.9979272,-0.2381005,0.1216396,-0.01341249,-0.0007490221,0.006288297
0.9947311,-0.2436022,0.1238287,0.0002709328,-0.009032138,0.009551273
0.9956368,-0.2439056,0.1209783,0.00411979,-0.0114051,0.007974457
0.9976368,-0.2418608,0.1214683,0.0004380076,-0.008737101,0.003301009
0.9968352,-0.2404517,0.1210776,-0.0005710703,-0.005000128,0.000325085
0.9974685,-0.238352,0.1198477,0.00125583,-0.009486696,0.001681915
0.9981711,-0.2382815,0.1206479,0.003215789,-0.01418068,0.006442248
1.001386,-0.239594,0.1189391,0.007442271,-0.01086777,0.00887217
1.005709,-0.2381831,0.1190949,0.006502501,-0.009049159,0.004946567
1.003399,-0.2356718,0.121207,-0.001686734,-0.006231214,-0.001278669
1.00006,-0.2337243,0.1247906,-0.008200701,-0.007068565,-0.007272322
0.9989929,-0.2338151,0.1317389,-0.01153819,-0.01143868,-0.008690584
0.9964857,-0.238197,0.13089,-0.007849314,-0.009992916,-0.002743004
0.9966168,-0.2400056,0.1255085,-0.002715204,-0.009998447,0.002083789
0.9979504,-0.2383764,0.1268857,-0.002375431,-0.009282181,0.003388781
0.9958891,-0.2388013,0.1271113,0.0003283437,-0.005906776,0.00160255
0.995386,-0.2380648,0.1246845,-4.708708e-05,-0.005269594,-0.002448197
0.9964211,-0.2369247,0.1233099,-0.001644764,-0.005653501,-0.003804077
0.996808,-0.2368425,0.1193529,0.0004469802,-0.00710299,-0.005580544
0.9999167,-0.2367508,0.1172197,-0.0005445116,-0.006303546,-0.003990379
1.003414,-0.2377291,0.1171689,0.0005274427,-0.005225221,0.001041957
1.004245,-0.2375117,0.115358,0.003104074,-0.00652429,-0.001469904
1.001735,-0.2363802,0.1145343,0.004340775,-0.006758532,-0.004666312
0.9988101,-0.2359318,0.1102172,0.007614653,-0.008791075,-0.004352392
1.000887,-0.2360147,0.1065407,0.008538932,-0.009281235,-0.004744202
1.002371,-0.2366517,0.1111419,0.006543581,-0.006205397,-0.002599497
1.000837,-0.2374234,0.114795,0.001431029,-0.005268024,0.0003515622
1.001255,-0.2380106,0.1182804,-0.003080579,-0.00719188,0.002701579
1.000735,-0.2367526,0.1221296,-0.002105764,-0.01227145,0.002218337
0.9994449,-0.2347608,0.1181942,-0.004628616,-0.01514648,-2.962028e-05
1.000253,-0.2341962,0.1148304,-0.009147891,-0.01106648,0.002366107
1.001059,-0.2363292,0.1166594,-0.005011567,-0.006806855,0.00366988
1.001499,-0.2400583,0.1175977,0.0009684941,-0.00547576,0.00245804
1.001378,-0.2394325,0.117874,0.002638478,-0.003437568,0.001781739
1.000316,-0.2346056,0.1192496,0.006144562,-0.002469958,-0.001552009
0.999772,-0.2297527,0.1209347,0.007533676,-0.00376924,-0.005747273
1.000149,-0.2299092,0.1198432,0.005020339,-0.00223393,-0.009204729
1.001168,-0.2355363,0.117432,0.006776351,-0.001428819,-0.008252393
1.002521,-0.2363493,0.1181392,0.007471717,-0.003096599,-0.00550923
1.003121,-0.2327626,0.1184599,0.006588331,-0.001788338,-0.007356693
1.002734,-0.2296348,0.117829,0.007489365,-0.002643909,-0.004911432
1.002642,-0.2286086,0.1198564,0.002615816,-0.004930471,0.0002672696
1.002732,-0.2336336,0.1196342,-0.003957677,-0.004643897,0.0001069849
1.001669,-0.2370146,0.1160928,-0.005522267,-0.003356258,0.001110658
1.000348,-0.2370035,0.1116478,-0.001049007,0.001014023,0.003598858
1.0006,-0.2376784,0.1072666,0.004187022,0.002092669,0.00169337
1.0017,-0.2363894,0.1103376,0.002248678,-0.0009570912,-0.001930444
1.001613,-0.2359607,0.1156083,0.002018611,-0.001914348,-0.0009047564
1.001072,-0.2369238,0.1132852,0.004857,-0.003298988,0.002934325
1.001689,-0.2405683,0.1104571,0.005472735,-0.00398757,0.006324612
1.002385,-0.2446667,0.1096693,0.01281725,-0.005522678,0.01153534
1.00249,-0.2423149,0.1097735,0.02158777,-0.00851222,0.01473507
1.001259,-0.2371398,0.1138003,0.01800451,-0.005769841,0.01163353
0.9992072,-0.2310882,0.1171444,0.009721007,-0.001126789,0.00739729
0.9998088,-0.2262511,0.1188016,0.007660533,-0.00114111,0.006360595
1.000597,-0.226327,0.1212425,0.009555446,-0.002307343,0.004737333
0.9995545,-0.2288582,0.1196513,0.01256994,-0.003743629,0.002654947
0.9998978,-0.2326165,0.1158297,0.01258871,-0.006331513,0.0039652
0.9991506,-0.2353708,0.1147422,0.01173643,-0.007129861,0.006604927
0.997122,-0.2365155,0.1150144,0.01730435,-0.01073066,0.01015595
0.9970838,-0.239691,0.1163709,0.02344169,-0.01743335,0.0133524
0.997433,-0.2427985,0.1143343,0.0300034,-0.01586865,0.01412771
0.9986629,-0.2401585,0.1100836,0.03484819,-0.009680284,0.0114627
1.001956,-0.2339514,0.111828,0.03086558,-0.007322088,0.00504877
1.005392,-0.2286938,0.1142647,0.02564653,-0.00343647,-0.0002012757
1.005968,-0.2254592,0.1178671,0.01618395,0.002544035,-0.005602766
1.003038,-0.2262317,0.1233419,0.003758952,0.006675878,-0.008488633
0.9998341,-0.2273844,0.121185,-0.001157004,0.007358461,-0.003765876
0.9968473,-0.2276029,0.1222583,-0.003505506,0.002336715,-0.000962125
0.9949531,-0.2302842,0.126716,-0.002934255,-0.001423624,-0.0007591206
0.9958443,-0.2313259,0.1214632,-0.0004781396,0.0004816998,-0.000216957
0.9963819,-0.2322399,0.1167225,-0.0005911806,-0.0006566696,-0.002916282
0.996441,-0.2354093,0.1136095,-3.291957e-05,-0.005207231,-0.002574189
0.9978998,-0.2363914,0.1095065,8.585138e-05,-0.006400355,0.00223445
0.9994109,-0.2356806,0.1105909,0.0002355319,-0.002680261,0.004815148
1.001089,-0.2323776,0.1100984,-0.0005103471,0.002022034,0.003372432
1.002048,-0.2288742,0.1085481,-0.00626052,0.001786685,0.001320013
1.001143,-0.22879,0.1143754,-0.01174776,0.0007492295,0.002652336
1.001192,-0.2278966,0.120634,-0.01152912,0.002775295,0.003803952
1.001752,-0.2288053,0.1180362,-0.01127491,0.004062798,0.004542798
1.001129,-0.2335156,0.1147295,-0.01513066,0.005107865,0.006861036
1.001243,-0.2357912,0.1158641,-0.01665337,0.005410372,0.005484626
1.000659,-0.23567,0.1149193,-0.01205302,0.004624012,0.002983601
0.9994893,-0.2387011,0.1149086,-0.005906369,0.005293483,0.0006326849
1.000078,-0.2431469,0.1149898,-0.003335914,0.006693725,-0.004992852
0.9999728,-0.2412003,0.1138733,-0.000610841,0.006295325,-0.006207219
0.998929,-0.2377793,0.1191171,0.005747171,-0.001072243,-0.0005179156
0.998986,-0.238949,0.1251645,0.008483877,-0.01018403,0.00559083
1.001323,-0.2372875,0.1258673,0.008327241,-0.008870935,0.008043397
1.004512,-0.2348451,0.124702,0.006318274,-0.006127025,0.005980574
1.003793,-0.2355542,0.1239608,0.0003938445,-0.007804223,0.002727067
1.001554,-0.2345765,0.1219209,0.000122809,-0.004645428,-0.0009065077
1.001134,-0.2341773,0.1180866,0.0006845121,-0.004065794,-0.002492733
0.9999369,-0.2342589,0.1187443,-0.004343465,-0.005200306,-0.0005845923
1.000321,-0.2328208,0.1192001,-0.006180688,0.003081972,-0.001861973
1.001903,-0.2337773,0.1142966,-0.0062674,0.00794289,-0.003434271
0.9995331,-0.2365246,0.1126912,-0.003384106,0.003242174,-0.0001589445
0.9979772,-0.238949,0.1124394,0.00405512,-0.0008424512,0.003692184
1.000683,-0.2390279,0.1108469,0.01008561,-0.000755936,0.008236197
1.001919,-0.2355747,0.1136472,0.01176313,0.0005315412,0.01041436
1.000449,-0.2331791,0.1192091,0.005800914,-0.0004853354,0.008094192
0.9994835,-0.2341177,0.122272,0.001398303,5.558969e-05,0.006877732
1.000045,-0.2360784,0.1205577,0.003928353,0.000349253,0.004515341
1.000266,-0.236553,0.1179342,0.006911845,-0.002949198,0.004285807
0.9997169,-0.2358275,0.1163056,0.009033414,-0.005280361,0.008024806
1.000116,-0.236315,0.1147744,0.00758583,-0.006117451,0.00543559
1.000078,-0.2371519,0.1170011,0.007074314,-0.00211899,0.0002039473
0.9998083,-0.2370458,0.1191769,0.004469522,0.002932987,-0.003027946
1.000191,-0.2350616,0.1179144,-0.001416916,0.002867708,-0.00239542
0.9998964,-0.2329884,0.1187256,0.001854124,0.003564555,0.004334675
0.9999872,-0.2366271,0.1200722,0.002848748,0.003300649,0.006188276
1.000103,-0.2403991,0.118956,0.0002334742,0.002528774,0.004157711
1.000042,-0.2370012,0.1171523,0.002511292,0.006250162,0.003441217
1.001003,-0.234413,0.1145071,0.0003281747,0.007825779,0.001548292
1.001438,-0.2350158,0.1134114,-0.0004566273,0.002820865,0.002273797
1.00022,-0.2338691,0.1158569,0.0007268365,-0.005554371,0.002609642
0.9978068,-0.2348939,0.1176613,-9.325512e-05,-0.01136057,0.0007250203
0.9969417,-0.2382334,0.1174434,0.001360173,-0.01107272,0.0009875848
0.9991108,-0.2388667,0.1180639,-0.0003619609,-0.008932937,0.003519194
1.000718,-0.2373251,0.1184276,-0.002743588,-0.006898469,0.00487301
1.000229,-0.2353997,0.1177533,-0.003063272,-0.004265343,0.002439268
1.000524,-0.2357427,0.1180941,-0.002458231,-0.005057845,-0.0001126927
1.001906,-0.2368661,0.1182244,-0.0003625278,-0.005847374,-0.003436179
1.001347,-0.2360019,0.1180161,-0.00109077,-0.001140064,-0.003585892
1.000073,-0.2378365,0.1190833,0.001222818,0.001622399,0.006110898
1.000057,-0.2398743,0.1191802,0.01138692,0.001303091,0.01314074
0.9998238,-0.2385973,0.11677,0.01917887,0.00561172,0.007945934
0.9991574,-0.2387763,0.1150993,0.01287843,0.00980602,-0.002670409
0.9956805,-0.2385658,0.1190683,0.002552197,0.004775383,-0.008009898
0.9923423,-0.2358522,0.1252987,0.005509821,-0.0009963195,-0.005635442
0.9973523,-0.2333146,0.1258631,0.006190771,0.004268693,-0.003286331
1.00326,-0.2333708,0.1229592,-0.002392002,0.008398114,-0.003232935
1.002287,-0.2348401,0.1180314,-0.00606481,0.005283913,-0.002906406
1.004008,-0.2341487,0.1117942,-0.008955132,0.006126659,-0.000770845
1.008395,-0.2358187,0.1130418,-0.0101597,0.006935743,0.00138039
1.00511,-0.2398909,0.1164163,-0.008666377,0.006880118,0.0009794703
1.000478,-0.2411715,0.1141064,-0.006255615,0.007914861,0.001439756
0.9999082,-0.2425573,0.1152073,0.003969945,0.002738521,0.0034577
0.9962048,-0.2422654,0.1183787,0.01142351,0.0001186296,0.003801749
0.9933837,-0.2387587,0.1193698,0.009687024,0.002258929,0.004175226
0.9966926,-0.2379882,0.1229271,0.008081725,-0.002391831,0.008039006
0.9999988,-0.2394306,0.1229909,0.008951641,-0.006034146,0.009378054
1.000431,-0.2395315,0.1196018,0.009926228,0.0003696055,0.004845314
0.9996457,-0.2409565,0.1210578,0.01104524,0.007891428,0.004588638
0.9990447,-0.2433259,0.1234567,0.01354715,0.00900216,0.006250141
0.9984936,-0.2416761,0.1243837,0.01224098,0.007461825,0.002152873
0.9983626,-0.239804,0.1246858,0.007505643,0.006106596,0.001707251
0.9990755,-0.2380538,0.1223251,0.004036955,0.003089979,0.005313495
0.9993978,-0.2333151,0.1187886,0.002828341,0.001263814,0.00383473
0.9996414,-0.2347298,0.1167267,0.003299375,0.002335318,0.00304357
0.9976286,-0.2380047,0.1203203,-0.001575359,0.002005795,0.003377275
0.9951566,-0.2352425,0.1261211,-0.005089201,4.926195e-05,0.0009957196
0.9983837,-0.2362104,0.1248116,-0.001898388,-0.001126932,0.004698823
1.00151,-0.2387307,0.1237369,-0.0005864363,-0.00134428,0.008250223
0.9996135,-0.2382847,0.1261647,0.001034659,-0.0004788017,0.004284659
0.9978721,-0.2373408,0.1236386,0.0005413173,0.0001727863,-0.0002880265
0.9952951,-0.2334529,0.1228573,-0.002969788,-0.00064217,-0.005279467
0.9923822,-0.2323819,0.1249756,-0.004033776,-0.002481566,-0.003396038
0.9962691,-0.2340739,0.1257016,-0.005712369,-0.003423879,0.002685136
1.00071,-0.2330045,0.1287849,-0.005868116,-0.001120808,0.002310106
0.9983673,-0.2334932,0.1277755,-0.004523867,0.001265319,0.002933017
0.9976104,-0.2346393,0.1240079,-0.003409448,-0.0005878973,0.002821121
0.9985864,-0.2359343,0.1235962,1.827905e-05,-0.005036441,0.002968172
0.9971039,-0.2387229,0.1227323,0.001409426,-0.01030921,0.0067125
0.9996579,-0.2400834,0.1221516,0.001069019,-0.01279308,0.007580637
1.002825,-0.2397608,0.1201322,0.001351499,-0.007020829,0.009065134
1.001034,-0.2357716,0.1182636,-0.001408372,-0.001334094,0.006554765
1.000027,-0.2317109,0.1184978,-0.004719845,-0.004096406,0.001080082
1.00019,-0.2336656,0.1177117,-0.008301822,-0.005413082,-0.0003535442
0.9995382,-0.2368452,0.120082,-0.01433582,-0.004166087,-0.002982576
0.9992349,-0.2376344,0.1215904,-0.0139645,-0.006678867,-0.001458695
0.9985932,-0.2367014,0.1192616,-0.009070857,-0.005877887,0.001353171
0.9992193,-0.2346777,0.1182862,-0.01025636,-0.001522153,0.001101624
1.000631,-0.2350372,0.1167819,-0.009665782,0.0008084366,0.002755562
0.9999576,-0.2386157,0.1167111,-0.005784385,0.001039685,0.001664293
0.9996957,-0.2410888,0.1194128,-0.005374407,-0.002728692,0.002456281
1.000324,-0.2397227,0.1235259,-0.002159073,-0.007221509,0.004491616
0.9996683,-0.237964,0.127208,0.0002662403,-0.009099577,0.004329064
0.999063,-0.2390298,0.1251431,-0.001882936,-0.01143812,0.009368372
0.9983225,-0.2402245,0.1214888,-0.001129206,-0.01412427,0.01517633
0.9974369,-0.2428276,0.1194717,0.0003993923,-0.01500489,0.0193263
0.9974406,-0.2472688,0.1160532,0.002428515,-0.01448785,0.0180304
0.9979002,-0.2454105,0.113033,0.004438375,-0.01439374,0.01331327
0.9989767,-0.2418922,0.1131301,0.002515882,-0.01429942,0.01553403
0.9988393,-0.2431913,0.1154915,0.001813594,-0.01457392,0.01196795
0.9985244,-0.2413781,0.1173074,0.0004304895,-0.01509626,0.005236506
1.000695,-0.2394076,0.119817,-0.002796269,-0.01075245,0.006098
1.001565,-0.2415292,0.1197168,-0.003116451,-0.003407194,0.001180783
0.9996061,-0.2419911,0.1164901,-0.006599179,-0.0005284717,-0.004616019
0.9981041,-0.2412528,0.1186974,-0.01145441,-0.002269629,-0.003499667
0.9992975,-0.2398194,0.1206197,-0.01050289,-0.003070761,-0.003576303
1.000997,-0.238867,0.1195659,-0.009338456,-0.001521675,-0.004108195
1.000656,-0.2414877,0.1178804,-0.009630788,-0.00188724,-0.002536254
1.001585,-0.2433944,0.111853,-0.006793242,-0.002308264,-0.0002800941
1.002639,-0.2397244,0.1114847,-0.002432615,-0.001570317,0.0003275861
1.00162,-0.2358748,0.114952,-0.0004032272,-0.002915273,-0.0004013035
1.00125,-0.2389289,0.1145933,0.0001195606,-0.003919914,-0.001074502
1.000153,-0.2427655,0.1177322,0.001457299,-0.00440162,-0.002504091
0.9984479,-0.2431366,0.1196231,0.001962548,-0.004158909,-0.002052072
0.9967051,-0.2432809,0.1177869,0.001125435,-0.002022292,0.0007452319
0.9950689,-0.2418733,0.1154597,0.002079641,-0.001195391,0.003201518
0.9960904,-0.2409114,0.1131602,0.004062024,-0.002121128,0.003755175
0.9968554,-0.2401989,0.1165913,0.00490169,-0.004943877,0.001092122
0.9962564,-0.238297,0.1195252,0.005843612,-0.007420783,-0.0007469537
0.9958731,-0.2396702,0.1175342,0.006911731,-0.006643804,0.001838094
0.995657,-0.240838,0.1168761,0.006933116,-0.004809711,0.003496135
0.9969625,-0.2387511,0.117073,0.003010077,-0.002296984,0.0007252525
0.9973758,-0.2367682,0.1182414,-0.005019604,-0.0009473577,-0.001914345
0.9961669,-0.2357884,0.1195872,-0.008925362,-0.002708983,-0.003325655
0.9956422,-0.2369042,0.1169859,-0.005732303,-0.005225007,-0.006381373
0.9958483,-0.2388136,0.1137927,-0.001516736,-0.007193055,-0.007190691
0.9971329,-0.2409593,0.1141336,0.000793218,-0.007774105,-0.002908946
0.9983264,-0.2439559,0.1134553,0.002473293,-0.007014548,0.001238025
0.9988539,-0.243346,0.1118641,0.003737917,-0.006538758,0.001958359
0.9990964,-0.2403418,0.1145367,0.004651542,-0.007349339,-0.0008980387
1.000107,-0.2401008,0.1161886,0.004988807,-0.01014306,-0.003842043
1.002133,-0.2401583,0.1143936,0.003920502,-0.01310513,-0.002036987
1.00161,-0.2392436,0.1118743,0.003875622,-0.01096508,0.0006612656
1.000082,-0.2386696,0.1068286,0.002735713,-0.005521856,0.001558962
0.9982493,-0.2378843,0.1040483,-0.00213499,-0.003851577,0.001193173
0.9953753,-0.2383424,0.1058261,-0.005436029,-0.004216062,-0.002342401
0.9987811,-0.2391145,0.1060105,-0.006432749,-0.004795345,-0.003890604
1.003426,-0.238919,0.1061582,-0.006076859,-0.005927901,-0.001508889
1.000291,-0.2388926,0.1110566,-0.004411053,-0.005149853,-0.0007704186
0.9989796,-0.2387844,0.1146126,-0.002794353,-0.004218369,-0.000811642
1.00191,-0.2395302,0.1083789,-0.00086527,-0.004037886,-0.001101492
1.002195,-0.2412126,0.1001579,-0.00130058,-0.005157585,-0.004939227
1.001621,-0.2423129,0.1026846,-0.002876998,-0.007213395,-0.008345183
0.9996589,-0.2416812,0.1131517,-0.005080632,-0.007008963,-0.005623102
0.9975349,-0.2411665,0.120633,-0.01049802,-0.00639102,-0.002477004
0.9990211,-0.242694,0.1176743,-0.01278729,-0.005100228,-0.002815813
0.9998528,-0.2438499,0.1106998,-0.01071493,-0.001993434,-0.00197693
0.9998,-0.244968,0.1107477,-0.008761594,-0.000496994,-0.0009051994
1.000409,-0.2447192,0.1107107,-0.006712329,-0.002317121,-0.0003377637
0.9997425,-0.243705,0.1059967,-0.007249404,-0.005560603,-0.0002131493
0.9997854,-0.2446905,0.1030344,-0.009147677,-0.005623372,-0.001533337
0.9991763,-0.2425584,0.1016179,-0.008319981,-0.002400169,-0.001251258
0.9971603,-0.2412594,0.1034194,-0.007974756,-0.0001509111,-0.002357662
0.9970178,-0.2452899,0.1101734,-0.007187306,-0.001781892,-0.004709129
0.9973143,-0.2492331,0.1168955,-0.001708119,-0.00444653,-0.003110961
0.9977373,-0.2505859,0.1135052,0.002691649,-0.00333128,-0.0007911619
0.9999375,-0.2471091,0.1059817,-7.843891e-06,-0.003343539,0.0004477476
1.001599,-0.2441642,0.1103733,-0.002522972,-0.004336243,-0.0002351667
0.9991066,-0.2443933,0.1116177,0.0004941286,-0.001705998,-0.00203371
0.9957424,-0.2426899,0.1079614,0.001802381,-0.001210277,-0.0004192785
0.9975417,-0.2426097,0.1114227,0.001203667,-0.001307803,-0.0002447405
0.9998314,-0.2434029,0.1099241,0.0001419632,0.003038534,-0.005053574
0.9997991,-0.2419313,0.1120432,-0.007297345,0.006481102,-0.009205846
1.000464,-0.2413435,0.1165615,-0.01407008,0.004682745,-0.00911166
1.000344,-0.241535,0.1118623,-0.01367193,0.002695415,-0.006505888
1.002441,-0.2408777,0.1107046,-0.01366193,0.006318689,-0.005816882
1.005277,-0.2404404,0.1067812,-0.01499192,0.009145868,-0.006362147
1.003019,-0.2428724,0.100576,-0.01372971,0.007231846,-0.00618381
1.001112,-0.245526,0.09893947,-0.01127709,0.004693419,-0.00633163
1.001304,-0.2440365,0.09460271,-0.006073343,0.001768736,-0.005493941
1.000211,-0.2413574,0.09776649,0.0004767238,0.001727591,-0.003953487
0.9990892,-0.2407387,0.1055572,-0.001736139,0.003370909,-0.001533651
0.999115,-0.2421624,0.1085056,-0.008218945,0.002435499,0.001610106
1.0005,-0.2457078,0.1128089,-0.008030376,0.003929663,0.003250613
1.001189,-0.2508788,0.1140914,-0.003416387,0.006108139,0.003649394
1.001051,-0.2537835,0.1098867,0.005622709,0.003304281,0.0006342615
1.000477,-0.2501533,0.1053227,0.01587457,-0.003025141,-0.003656493
0.9977705,-0.2446792,0.1048734,0.02132878,-0.01104802,-0.004166597
0.9964718,-0.2408476,0.1087377,0.02270991,-0.01648144,-0.003070927
0.9978261,-0.2350788,0.1108226,0.02106052,-0.01953251,-0.001772643
0.9990898,-0.2328529,0.1104945,0.01807972,-0.02166974,-0.001504023
1.000394,-0.2325946,0.1079957,0.008185147,-0.01871705,-0.002951342
1.000487,-0.2274469,0.107128,-0.00916551,-0.01608271,-0.005000583
1.000629,-0.2284758,0.1095188,-0.02563462,-0.009482771,-0.009404205
1.002575,-0.2319187,0.1078711,-0.03798294,0.006519348,-0.0131563
1.002355,-0.2302062,0.1068543,-0.04425877,0.01612405,-0.01194192
1.000782,-0.2347964,0.1084859,-0.05079978,0.02425221,-0.01086319
1.001555,-0.239683,0.1106055,-0.05489028,0.03390245,-0.01168628
1.002564,-0.2405156,0.1142098,-0.05007211,0.03451686,-0.007346082
1.002276,-0.2448946,0.1073202,-0.04573882,0.03577857,-0.004421157
1.000281,-0.2495068,0.09803857,-0.03849502,0.03372547,-0.01378532
0.9976458,-0.2521189,0.1014273,-0.02266164,0.02942864,-0.02457445
0.9982788,-0.2514318,0.1024211,-0.006665612,0.03153516,-0.02487242
0.9993687,-0.2499693,0.0983857,0.0001774611,0.03088348,-0.02036542
0.998154,-0.2475752,0.09920134,0.005734701,0.03276717,-0.01829376
0.9982103,-0.242811,0.1022199,0.01784544,0.03298856,-0.01473199
0.9971905,-0.2448701,0.1053487,0.02027919,0.0266876,-0.009057895
0.9948949,-0.2469042,0.105675,0.023937,0.02201035,-0.006296754
0.996359,-0.2422675,0.1049737,0.03539638,0.01372967,-0.001651284
0.9989735,-0.2408789,0.1074308,0.03499685,0.01164912,0.002122949
1.000217,-0.2412575,0.1086296,0.0323066,0.0149034,0.0004072443
0.9994235,-0.2380386,0.1084586,0.02167159,0.0120251,0.001651766
0.9970563,-0.2313189,0.1082513,0.004472401,0.01209743,0.00211947
0.9982297,-0.2275681,0.1074225,0.003190674,0.007328896,-0.0007906208
1.001061,-0.2325901,0.1084461,0.005926678,-0.002839918,0.0007318837
1.001529,-0.2380035,0.1076147,0.005795524,-0.005274967,0.002448757
1.000669,-0.2396498,0.1033195,0.00419601,-0.00492296,0.002827346
0.9994398,-0.2411423,0.1016131,0.002555861,-0.003437198,0.003887857
0.9999699,-0.2421528,0.1054,0.003933671,-0.001385581,0.002050347
1.000391,-0.2437838,0.1122298,0.004322834,-0.002263603,0.002457482
0.9999569,-0.2462136,0.1165946,0.01182839,-0.005176243,0.005885503
1.001975,-0.2465148,0.1144562,0.02359305,-0.006091896,0.008997651
1.003387,-0.242253,0.1078872,0.02881635,-0.00134853,0.01382977
1.002767,-0.2368913,0.1056809,0.02693276,0.00187989,0.01177722
1.002433,-0.238205,0.1086846,0.02375897,8.777604e-05,0.007844361
1.001749,-0.2397628,0.1130574,0.02073953,-0.001547593,0.01185161
1.000153,-0.2334671,0.1186234,0.01257768,-0.003035945,0.01201349
0.9985873,-0.2276524,0.1178491,0.01124901,-0.005813076,0.01319313
0.9983133,-0.2248928,0.1167255,0.006710651,-0.006652025,0.01625659
0.9977887,-0.2231119,0.1211166,-0.015984,-0.004797856,0.0110193
0.9975758,-0.2225098,0.1195696,-0.03324041,-0.004655602,0.008289617
1.000809,-0.2213127,0.1183854,-0.0461591,-0.002907036,0.007567613
1.00344,-0.2231439,0.1201209,-0.06714288,0.003107631,0.005259055
1.000446,-0.2264385,0.1164448,-0.08580538,0.007998548,0.003782246
0.9975261,-0.2327171,0.1112262,-0.09003525,0.006900473,0.001585693
1.001364,-0.2428065,0.1039631,-0.07882293,-0.001231456,0.002684812
1.004236,-0.2466339,0.09990507,-0.06982078,-0.003994232,0.001263123
1.000858,-0.2547151,0.1065626,-0.05617255,0.001912427,-0.002482963
0.9981231,-0.2712156,0.1132816,-0.0273336,0.001277216,-0.007474199
0.9970012,-0.27493,0.1132537,-0.002022492,-0.01082,-0.01529352
0.9978083,-0.2664117,0.1133889,0.01659242,-0.02219612,-0.009974033
1.000418,-0.2631591,0.1170212,0.02191769,-0.01520027,-0.002275695
1.000107,-0.2648157,0.1183684,0.01479993,-0.004695748,-0.006904568
0.9999091,-0.259345,0.1138521,0.01506324,-0.00889373,-0.005783841
1.001365,-0.2534658,0.1083799,0.01330974,-0.005102012,-0.001601358
1.002334,-0.2580769,0.1071886,0.007376116,0.006089869,-0.004670967
1.003246,-0.2615745,0.1077449,0.003944451,0.01007277,-0.006670655
1.001836,-0.2583389,0.1056681,-0.001962649,0.01547882,-0.008910678
0.9980611,-0.2576272,0.1039712,0.001218524,0.01738915,-0.01224357
0.9947791,-0.2611405,0.1044508,0.01355711,0.01005585,-0.01206023
0.9952813,-0.2663091,0.104945,0.03212269,0.001520834,-0.01097071
0.9977927,-0.272034,0.1058442,0.05599396,0.003305748,-0.009569667
0.9969128,-0.2712252,0.1064865,0.06645088,0.008845558,-0.009270052
0.9960667,-0.2645904,0.1092865,0.07522612,0.005691248,-0.009551867
0.9966065,-0.2611971,0.11512,0.09174786,0.008848185,-0.005574284
0.9982913,-0.2557122,0.1158102,0.09630765,0.01535506,0.0008501992
1.003008,-0.2462242,0.1110196,0.09698128,0.01887882,0.006223598
1.003685,-0.2396526,0.108633,0.1007958,0.02639601,0.005136991
1.001959,-0.2374794,0.1096191,0.1034814,0.02446838,-0.002857662
1.002999,-0.2380497,0.1100662,0.1072621,0.02262458,-0.01297849
1.001872,-0.2319307,0.1085502,0.1051561,0.0264145,-0.02298817
1.000892,-0.2212911,0.1081214,0.1023433,0.0233624,-0.02568399
1.001407,-0.2187478,0.1096241,0.09849104,0.02345533,-0.02885285
1.000445,-0.219662,0.1108206,0.08344927,0.02376045,-0.03785733
0.9997657,-0.2149922,0.1114613,0.06354381,0.02417534,-0.04182062
1.000025,-0.2089358,0.1111001,0.04269305,0.02778718,-0.04711671
1.001115,-0.2081045,0.1126726,0.02523209,0.02380975,-0.04799348
1.001613,-0.2071823,0.1202931,0.0101155,0.01990079,-0.04264465
1.001343,-0.2045343,0.1284854,-0.007096246,0.01969009,-0.04454517
1.001244,-0.2015695,0.1305206,-0.02538295,0.01912551,-0.03590495
1.000409,-0.1956229,0.1311682,-0.05238112,0.0184687,-0.02089341
0.9998179,-0.1992425,0.1321081,-0.07103632,0.01367402,-0.01550416
0.999871,-0.2122755,0.1277944,-0.06821303,0.009281366,-0.01131127
0.999956,-0.2214084,0.125731,-0.07009734,0.009041414,-0.01686124
0.9991414,-0.2286369,0.1280111,-0.07419265,0.008627507,-0.02521679
0.9983406,-0.231359,0.1259867,-0.06802293,0.006429495,-0.0241658
0.9995862,-0.2351265,0.1233852,-0.06149689,0.004728587,-0.02059287
1.000573,-0.2439394,0.1207614,-0.04439671,0.003233951,-0.01279774
1.001021,-0.2451273,0.1193827,-0.01651507,0.0007256681,-0.007601572
1.002461,-0.2426895,0.1201428,0.002787283,0.0009230999,-0.00703076
1.003203,-0.2384838,0.1170565,0.01244437,0.002649821,-0.006443698
1.003085,-0.2307707,0.1179138,0.01838749,0.002097887,-0.008354186
1.004365,-0.2262315,0.1209991,0.02794289,-0.003175647,-0.008991356
1.005769,-0.2212933,0.1211073,0.04034481,-0.009828821,-0.0105239
1.001784,-0.2171864,0.1257312,0.04676075,-0.01271458,-0.01080758
0.9937996,-0.2160494,0.1308353,0.05392761,-0.03025992,-0.005877981
0.9908899,-0.2163372,0.1320456,0.06370221,-0.05759459,-0.005020581
0.99826,-0.2169224,0.1268597,0.06120532,-0.0539326,-0.007437563
1.009759,-0.2134206,0.1214526,0.04409839,-0.03394478,-0.006285846
1.011917,-0.2116812,0.1265293,0.03250183,-0.03225758,-0.002754296
1.003444,-0.2135683,0.1292927,0.04138442,-0.03776922,0.001255319
0.9973326,-0.2174472,0.1247051,0.05276031,-0.04298307,0.004140563
1.000017,-0.2237019,0.1214754,0.04809507,-0.04276983,0.00398471
1.003496,-0.2236119,0.1185602,0.04246292,-0.03850661,0.00017389
1.003399,-0.2176617,0.1145794,0.03769546,-0.0432798,-0.006254279
1.005633,-0.2136731,0.1086495,0.02268083,-0.04313273,-0.009714897
1.007234,-0.2158532,0.1050726,0.01653363,-0.03912459,-0.008351825
1.005902,-0.2218478,0.107531,0.01854926,-0.03597217,-0.01016002
1.004794,-0.22362,0.1103353,0.009654981,-0.02634146,-0.01435491
1.001797,-0.2191744,0.1140389,-0.005255375,-0.02860023,-0.01463768
1.002151,-0.2119861,0.1182774,-0.02508589,-0.031953,-0.00970051
1.003801,-0.2116163,0.1152404,-0.04632871,-0.0261246,-0.001862879
1.000866,-0.2170835,0.1092894,-0.0613423,-0.02323101,-0.002021245
0.9998071,-0.2199288,0.1077646,-0.06757696,-0.001779689,-0.003528009
0.9974055,-0.2237427,0.1084551,-0.06688565,0.02236252,0.009376227
0.9944342,-0.2264663,0.1121236,-0.06382766,0.0127115,0.02882569
0.995627,-0.2309042,0.1170463,-0.04816568,-0.00716241,0.03828938
0.9934266,-0.2408896,0.1183697,-0.03152888,-0.02097871,0.02317859
0.9904769,-0.2434797,0.1157178,-0.02941458,-0.0336258,0.001184051
0.9928387,-0.2384413,0.1132548,-0.02756374,-0.0294108,0.005030727
0.9986204,-0.2301508,0.1185106,-0.02718814,-0.02376061,0.02644269
1.004441,-0.21754,0.1238375,-0.03164768,-0.03569958,0.04696187
1.007434,-0.211966,0.1187058,-0.04104705,-0.03571375,0.04778031
1.0121,-0.2189567,0.1045049,-0.05508344,-0.02007263,0.02444277
1.017478,-0.2332091,0.08274999,-0.05626165,0.006884106,-0.006765913
1.014126,-0.2502767,0.0737727,-0.04018353,0.0356986,-0.04872681
1.004985,-0.2531285,0.09005672,-0.01380594,0.02539291,-0.0696221
0.9978116,-0.2338098,0.1024933,0.004647916,0.001493769,-0.0528351
0.9953367,-0.2197293,0.09795145,-0.005300383,-0.006540914,-0.04883111
0.9987963,-0.2185583,0.09368529,-0.0279257,-0.008366305,-0.04729274
0.9995324,-0.2137328,0.09034184,-0.05003082,0.008505677,-0.02698786
0.9964971,-0.2163162,0.08704173,-0.06609523,0.01797552,-0.01443013
0.9981306,-0.2281675,0.0956696,-0.05172103,0.00534293,-0.0003287201
0.999926,-0.2343508,0.1057488,-0.02293903,-0.00643771,0.01984704
1.001898,-0.2391229,0.1038842,-0.001832494,-0.02002778,0.03102513
1.003518,-0.2427073,0.101119,0.02068388,-0.02590148,0.02814162
1.003229,-0.2428652,0.09818657,0.02389334,-0.01520267,0.009009518
1.007767,-0.2437463,0.09323104,0.02288327,0.0002927458,-0.002485827
1.008688,-0.2368387,0.09838997,0.03851639,0.009058288,0.008560433
1.004087,-0.2234413,0.1054837,0.03244264,0.009246414,0.01863805
1.002102,-0.2166224,0.1032492,0.01800489,0.003442504,0.01403829
1.002263,-0.2126165,0.1024046,0.008778221,-0.01255941,0.01197736
1.004573,-0.2115734,0.102423,-0.002369688,-0.01980916,0.0172917
1.004745,-0.217492,0.09846843,0.002182606,-0.009763781,0.01308581
1.006403,-0.2235886,0.09820302,-0.003056674,-0.002865909,0.005648964
1.009849,-0.22827,0.09899671,-0.01148769,0.0008058158,0.001068058
1.007672,-0.2281288,0.09735863,-0.003150716,0.004058613,-0.003963806
1.005825,-0.2265559,0.09444768,-0.003253783,0.002452602,-0.003308491
1.003374,-0.2299511,0.09051107,0.001092733,-0.001481062,-0.006267809
0.999828,-0.2300662,0.09302976,0.01151792,-0.002021853,-0.00879751
0.9999026,-0.2292842,0.09717187,0.02060121,-0.004730174,-0.001841104
1.000431,-0.228541,0.09567378,0.03923658,-0.01409687,0.006677846
1.002789,-0.2220273,0.09627317,0.04498815,-0.01740716,0.01783236
1.005048,-0.217983,0.09710078,0.03844759,-0.01994786,0.02073276
1.004074,-0.2189201,0.09524787,0.03338819,-0.02322913,0.01568524
1.002936,-0.2204081,0.09517128,0.02027492,-0.01917487,0.01687546
1.002429,-0.2203253,0.09350993,0.01003763,-0.01709273,0.01657402
1.001947,-0.220418,0.09060041,0.0007953986,-0.01351626,0.01296054
1.001977,-0.2224348,0.09210868,-0.01767182,-0.00785119,0.007298329
1.005755,-0.223859,0.09648352,-0.02634253,-0.003076471,0.001565525
1.009956,-0.2273218,0.1005748,-0.02682417,0.002742274,0.001045597
1.008296,-0.2275166,0.1023967,-0.02972083,0.003600114,-0.0008083576
1.005419,-0.2247544,0.1003351,-0.02852516,0.006035754,-0.002094795
1.004654,-0.2274699,0.09898101,-0.02545755,0.00739561,0.0001529246
1.003614,-0.2279884,0.09856006,-0.02000286,0.005617836,-0.0007575854
1.003115,-0.2298325,0.09292234,-0.01598052,0.01109388,-0.003625458
1.003104,-0.233536,0.08826616,-0.01384284,0.01316837,-0.004937395
1.003435,-0.2296176,0.09074391,-0.008841081,0.01114694,-0.0054302
1.005548,-0.2281751,0.09401268,-0.007840897,0.01207256,-0.006824896
1.005903,-0.2293603,0.0959361,-0.00334012,0.01078717,-0.00862724
1.004192,-0.2271639,0.09854272,0.00180494,0.009987431,-0.00559968
1.004307,-0.2263148,0.1008126,0.005220461,0.007747105,0.0002978082
1.00497,-0.2278651,0.1018801,0.01494399,0.004780186,0.0007805511
1.005836,-0.2299909,0.1009911,0.01321699,0.00583642,-0.001093452
1.005652,-0.2276386,0.09834666,0.006587783,0.006350715,-0.00106855
1.004008,-0.2232503,0.09623683,0.004681203,0.007459228,-0.001868458
1.003322,-0.2225866,0.09520727,0.000419819,0.01148416,-0.004448258
1.002379,-0.2270477,0.09426915,0.005845686,0.01626831,-0.008482656
1.002647,-0.2359987,0.09504062,0.01193827,0.01743694,-0.0103564
1.00321,-0.2396794,0.0989577,0.02055152,0.01789101,-0.009996333
1.00273,-0.2381451,0.101895,0.03934817,0.02194657,-0.007659712
1.00456,-0.2352693,0.1000818,0.04109857,0.01738651,-0.001864451
1.005294,-0.2239904,0.09916678,0.03266845,0.009808044,-0.001385986
1.003857,-0.2112197,0.101801,0.02647818,0.01089548,-0.002572031
1.004273,-0.2061293,0.1030632,0.01038161,0.007050226,0.002910825
1.006188,-0.2019008,0.1048386,-0.007649122,0.001734527,0.006538431
1.007502,-0.1992465,0.1049801,-0.03270327,0.005709826,0.007820019
1.006984,-0.2070742,0.09920491,-0.0577138,0.01031278,0.005735803
1.006503,-0.2166885,0.09641361,-0.05913032,0.01167416,-0.003310961
1.006067,-0.2186471,0.09674095,-0.0589766,0.01088377,-0.01039697
1.00416,-0.2226344,0.09373161,-0.05535945,0.007822403,-0.01117237
1.002853,-0.2282824,0.09379922,-0.03541698,0.005031498,-0.007353074
1.002664,-0.2293429,0.09764384,-0.02605316,0.005669434,-0.006452222
1.003633,-0.2310939,0.1022565,-0.013803,0.01194657,-0.007475656
1.007321,-0.2326239,0.109305,0.002332808,0.02136543,0.001390749
1.010518,-0.2311773,0.1108907,0.002562447,0.02543626,0.009534384
1.007384,-0.2276379,0.1067399,0.01065836,0.02251393,0.006461453
1.002296,-0.2222063,0.1023208,0.01607584,0.0231015,-0.0002996537
1.001394,-0.2178015,0.09509099,0.01437199,0.02841963,-0.006536448
1.000254,-0.2145807,0.09555825,0.02339543,0.03091119,-0.0126185
1.000802,-0.2116432,0.1017232,0.01782677,0.02983548,-0.01771671
1.004224,-0.2118111,0.1020412,0.004502877,0.0258305,-0.01621391
1.002811,-0.2133669,0.1064902,0.001078331,0.02069133,-0.01398989
1.002242,-0.2122662,0.1081772,-0.005222806,0.0183868,-0.01477224
1.005473,-0.2121066,0.1066713,-0.01042071,0.02254181,-0.01180394
1.005502,-0.2143477,0.1131042,-0.01671226,0.02806939,-0.01555495
1.004557,-0.2187178,0.1101123,-0.02562205,0.02605671,-0.02092505
1.003068,-0.2259249,0.1055562,-0.02732606,0.02371374,-0.01593257
1.002084,-0.2260692,0.1100407,-0.02265771,0.02324917,-0.01337085
1.003456,-0.2204796,0.1081996,-0.01632093,0.02077686,-0.0137009
1.0037,-0.2190238,0.1092758,-0.01143004,0.02156492,-0.01237248
1.005173,-0.2156834,0.1146006,-0.006096583,0.01828327,-0.01009881
1.006266,-0.2119125,0.1152294,-0.00838969,0.01372045,-0.006201477
1.005116,-0.2114284,0.1132774,-0.0158421,0.01642583,-0.006532509
1.005309,-0.2092125,0.1067819,-0.01272037,0.0134438,-0.006580441
1.004236,-0.2100175,0.104229,-0.01236921,0.0110507,-0.002802109
1.003635,-0.2149113,0.1074305,-0.01421208,0.01442954,-0.001301838
1.005376,-0.2171799,0.1099305,-0.006289055,0.01069564,0.001269771
1.005276,-0.2144251,0.112038,0.0008308633,0.005894686,0.006282562
1.005152,-0.21091,0.110927,0.006726129,0.0009906336,0.007614473
1.006383,-0.212476,0.1099567,0.00493839,-0.001526205,0.004394987
1.007256,-0.2133955,0.1109601,-0.003894658,0.005819207,-0.0002390866
1.008078,-0.2116738,0.111915,-0.007347594,0.008387155,-0.002531534
1.006208,-0.2127793,0.113337,-0.0143685,0.003889958,-0.001248949
1.002763,-0.2127523,0.1135963,-0.02249038,0.003385192,-0.000428903
1.00397,-0.2120022,0.1156924,-0.02845644,0.01113275,-0.00126323
1.0053,-0.2129295,0.1178837,-0.03521647,0.02021934,-0.001926686
1.004083,-0.2123263,0.1163821,-0.03848468,0.01705581,-0.004459472
1.004975,-0.2123984,0.1143617,-0.04282632,0.01483103,-0.01009484
1.003065,-0.2131269,0.1130364,-0.03929642,0.01995408,-0.01929334
0.9998531,-0.2141794,0.1139462,-0.02857996,0.01856924,-0.02827869
1.00084,-0.2168936,0.1145065,-0.02085035,0.01903895,-0.02715935
1.003313,-0.2166026,0.1115999,-0.0105472,0.02392781,-0.02094755
1.006519,-0.2135542,0.1068414,-0.003889604,0.02408794,-0.02054469
1.005184,-0.2124022,0.10166,0.003967896,0.0187129,-0.0220755
1.001552,-0.2148757,0.101908,0.009981717,0.01077251,-0.02302567
1.002274,-0.2178268,0.1026383,0.005905192,0.01073991,-0.02160608
1.001269,-0.2158888,0.100997,0.01070454,0.01281257,-0.01777299
1.001129,-0.2141961,0.1086396,0.01508054,0.006894436,-0.01674864
1.004135,-0.2153106,0.1161605,0.01319932,0.002514535,-0.0118029
1.005129,-0.2124516,0.1174345,0.01245241,-0.0002518794,-0.002450947
1.006054,-0.2090368,0.1197413,0.004001218,-0.00408803,0.003552738
1.005589,-0.2095159,0.1161654,-0.0009371304,-0.006344213,0.00613223
1.005092,-0.2103769,0.1120762,-0.006022579,-0.005745411,0.004218591
1.006094,-0.2114144,0.114032,-0.0140222,0.001104671,0.003788795
1.005242,-0.2133247,0.1139092,-0.01043735,0.004792083,0.007622736
1.005533,-0.2147905,0.1108535,-0.007181901,0.002432305,0.01343494
1.006018,-0.2160801,0.1088075,-0.004935297,0.0001308587,0.02189583
1.006076,-0.2162372,0.1095537,0.0004944276,-0.00577778,0.02192975
1.007505,-0.2139836,0.1092178,7.752276e-05,-0.008123817,0.01710589
1.007308,-0.213366,0.1075277,-0.001426653,-0.002267465,0.01799204
1.008428,-0.2153022,0.1075109,-0.0007950001,0.00365705,0.014412
1.010588,-0.2154316,0.1068466,0.0004904517,0.008304604,0.01018458
1.009208,-0.2151788,0.1066935,0.003772545,0.01131752,0.01173929
1.006311,-0.2150512,0.1078973,0.008428992,0.006599066,0.0109316
1.003046,-0.2129533,0.1111568,0.01210377,-0.004406695,0.01320078
1.000984,-0.2103264,0.117118,0.01179379,-0.009919815,0.02198408
1.001585,-0.2085544,0.1189211,0.006074105,-0.01332872,0.02706871
1.002949,-0.2073411,0.1140719,-0.001609646,-0.01692224,0.02465714
1.005567,-0.2032128,0.110758,-0.005432408,-0.01079248,0.01952752
1.0078,-0.1999679,0.112172,-0.01078656,-0.003973173,0.01359874
1.006154,-0.2048555,0.1131352,-0.02019247,-0.00116485,0.007261434
1.004686,-0.2125131,0.1138225,-0.02120702,0.001090304,0.00815307
1.005724,-0.2171226,0.1137884,-0.01643908,0.0005015077,0.01096792
1.004622,-0.216974,0.109705,-0.01379563,0.0009755785,0.007086897
1.002666,-0.2155205,0.1063206,-0.005108838,-0.001542791,0.007922564
1.00232,-0.2174074,0.1065912,0.005931597,-0.00396647,0.01133954
1.000987,-0.2168431,0.1085403,0.01715224,-0.002025813,0.01190317
1.000034,-0.2156961,0.1131932,0.03157591,-0.006632834,0.01561377
1.003008,-0.2160437,0.1187024,0.02901754,-0.01082497,0.01730404
1.008007,-0.211955,0.1194321,0.01802788,-0.007945975,0.01825005
1.008833,-0.2100137,0.1184596,0.01867225,-0.004687975,0.01777111
1.005194,-0.2113472,0.1200971,0.01393956,-0.001732936,0.01201053
1.003277,-0.21017,0.1180789,0.01148991,-0.0005954098,0.006833665
1.004296,-0.2092705,0.1136118,0.01258791,0.00116642,2.844734e-05
1.005811,-0.2088782,0.1102567,-0.0006651569,0.002632373,-0.003580153
1.007407,-0.2091417,0.1067037,-0.006365839,0.002873931,-0.0008129027
1.008879,-0.2099039,0.1082498,-0.003806302,0.007596927,0.0002856191
1.008076,-0.209979,0.1094129,-0.006329266,0.009059419,-0.0006447922
1.005115,-0.210791,0.1070764,-0.005338944,0.008310093,-0.00419951
1.00311,-0.2121356,0.1079323,-0.006624446,0.0129257,-0.006555369
1.001257,-0.2128607,0.1079185,-0.006123363,0.01201804,-0.00609014
0.9996449,-0.2114701,0.1116048,-0.0001927459,0.006124973,-0.006859714
1.000793,-0.2106009,0.1174153,0.002246407,0.00470763,-0.005291076
1.002879,-0.2115593,0.1136102,0.002333709,0.004901548,-0.001645425
1.003683,-0.2122792,0.1107324,-0.0003291998,0.004752802,-0.001859282
1.004965,-0.21454,0.1139693,-0.002895991,0.007369719,-0.004606808
1.006955,-0.215299,0.1162455,-0.00805781,0.01063239,-0.002798391
1.005739,-0.2114046,0.1186397,-0.01406918,0.01028659,-0.001866638
1.002735,-0.2412165,0.1034074,0.08398581,0.1411909,-0.1279778
1.002401,-0.2391662,0.1055422,0.07777235,0.1522072,-0.1323301
1.001189,-0.2469455,0.1036607,0.081363,0.1561027,-0.1375988
1.003946,-0.2499634,0.1040255,0.08999368,0.1624457,-0.1468297
1.00668,-0.2471509,0.1056086,0.09184724,0.1750383,-0.1544583
1.003044,-0.2438954,0.1060773,0.09118459,0.1692854,-0.1597003
0.9996425,-0.2421037,0.1087576,0.08332584,0.1534181,-0.1580353
0.9969404,-0.2435866,0.1133899,0.0716831,0.1462773,-0.1555017
0.9949603,-0.2443059,0.1152913,0.07195218,0.1387136,-0.1561559
0.9958433,-0.2477923,0.1159402,0.07517118,0.135343,-0.1504619
0.9961277,-0.2552326,0.1158556,0.08559702,0.1326346,-0.1471823
0.9956868,-0.260439,0.1136461,0.1077485,0.1247661,-0.1481201
0.9957489,-0.2598453,0.1129964,0.1140987,0.1160681,-0.1446196
0.9960042,-0.2573358,0.1145369,0.1066674,0.1050195,-0.1399444
0.9962802,-0.2577228,0.1138313,0.1088924,0.1160239,-0.1337522
0.9986249,-0.2541937,0.1123778,0.1131598,0.1309958,-0.127859
1.002071,-0.2492544,0.1128072,0.1150666,0.1154734,-0.1200616
1.002684,-0.2484064,0.1122194,0.119292,0.1079239,-0.1100618
1.002638,-0.2475534,0.1117174,0.1161602,0.1102259,-0.1127724
1.002297,-0.2474363,0.1089851,0.1116863,0.09960795,-0.1208402
0.9990864,-0.2462685,0.1035597,0.1147802,0.0933518,-0.1187325
0.9968186,-0.2499179,0.1027951,0.1227136,0.09359905,-0.1156695
1.000455,-0.2580807,0.1012325,0.1478829,0.1013034,-0.1119733
1.004642,-0.2566844,0.0975701,0.1821498,0.1125224,-0.1015146
1.002795,-0.250405,0.1000314,0.1949118,0.1125203,-0.09290041
1.001643,-0.2429761,0.1031568,0.1936071,0.1074545,-0.09126892
1.002542,-0.2374963,0.1031143,0.1996696,0.1029483,-0.09881072
0.999986,-0.2407004,0.1052439,0.2040618,0.09463838,-0.1058334
0.9993242,-0.2416189,0.1079056,0.2030022,0.08968493,-0.0973574
1.000605,-0.2411452,0.1086277,0.206926,0.09096722,-0.08651236
0.9997127,-0.24557,0.1110804,0.2095364,0.08447064,-0.07998002
0.9999745,-0.2476721,0.1128849,0.2131951,0.07752522,-0.0700544
0.9987934,-0.2473104,0.1147937,0.2224459,0.07941716,-0.06759544
0.9925836,-0.2403879,0.1207815,0.2190032,0.07462546,-0.06952192
0.9870862,-0.2253804,0.1241532,0.2022212,0.06114364,-0.06462289
0.9888541,-0.2183521,0.1265027,0.1799978,0.04375987,-0.06511421
0.9928756,-0.2185637,0.1280334,0.143658,0.03400196,-0.07245487
0.9938059,-0.2079923,0.1252317,0.09415559,0.03912681,-0.08163826
0.9989186,-0.1952845,0.1264408,0.03783721,0.04000343,-0.1018176
1.002919,-0.1999392,0.124556,-0.0324439,0.04468076,-0.1304184
1.001896,-0.2108467,0.1167835,-0.1129523,0.06605084,-0.1561199
1.007568,-0.2193424,0.1125805,-0.1721503,0.08561601,-0.1661989
1.010072,-0.2381835,0.1054467,-0.2050135,0.1051333,-0.16584
1.004814,-0.262402,0.09927305,-0.224121,0.1238786,-0.1765256
1.003562,-0.2823501,0.09306355,-0.2135055,0.1229918,-0.1823189
1.002219,-0.2949731,0.0801549,-0.1910957,0.1200676,-0.1777884
1.001074,-0.2997773,0.07642313,-0.1690867,0.1328596,-0.175233
1.000127,-0.3142081,0.07508724,-0.1190163,0.1372781,-0.160597
0.9962741,-0.3264072,0.06748249,-0.06635038,0.1276954,-0.1519488
0.993422,-0.3203385,0.06311514,-0.01941523,0.119813,-0.1453751
0.9891884,-0.3226992,0.05233827,0.04496093,0.1095694,-0.1151986
0.9889418,-0.3266003,0.04889962,0.1046871,0.09368916,-0.08797485
0.9994814,-0.3183311,0.07141201,0.1539456,0.02775487,-0.03551367
1.027077,-0.3099826,0.1088117,0.2144646,-0.1631769,0.09680344
1.059632,-0.2966647,0.1360538,0.3401601,-0.3001485,0.2001632
1.040047,-0.2670979,0.1081298,0.4529733,-0.07907558,0.08237986
0.9683309,-0.1701621,0.07102493,0.3277081,0.1949621,-0.1290354
0.9231854,-0.06054105,0.09121756,0.06286276,0.1164617,-0.1572848
0.9508255,-0.1094945,0.09918754,-0.08379292,0.08558047,-0.1189167
1.026091,-0.2143947,0.09473976,-0.1132766,0.2242727,-0.1162428
1.067493,-0.2178846,0.1198474,-0.0708745,0.2124071,-0.08081428
1.049178,-0.2265844,0.114791,-0.03953051,0.2415599,-0.1186631
1.02571,-0.2427052,0.1065164,-0.05915472,0.2488876,-0.1677915
1.004168,-0.2323893,0.1211207,-0.03721671,0.1315901,-0.1402064
0.9751356,-0.2559867,0.1135387,-0.01208959,0.1491015,-0.1374179
0.9679376,-0.2757976,0.113348,0.02370085,0.1274132,-0.1299932
0.9804702,-0.2923895,0.1174354,0.1014748,0.07910049,-0.09725443
0.9838246,-0.3003039,0.1083599,0.1643422,0.1263688,-0.06129919
0.9929521,-0.3014595,0.1102377,0.2480324,0.102001,-0.02096423
1.00726,-0.328998,0.1080353,0.300192,0.1205797,-0.009979314
0.9973235,-0.3132449,0.1068909,0.3317454,0.1377156,-0.005597472
0.9929975,-0.2958305,0.1097147,0.415201,0.09493488,0.002319858
0.9958666,-0.2981664,0.1029429,0.4431743,0.1088977,0.0002664041
0.99101,-0.2589886,0.1013765,0.4332678,0.09743768,-0.009570228
1.000629,-0.2360698,0.1011658,0.4110319,0.10148,-0.02945007
1.002959,-0.2217437,0.1025985,0.3386589,0.1140383,-0.04539848
1.002325,-0.2105332,0.110427,0.282963,0.1030325,-0.05821741
1.00852,-0.2156844,0.1152657,0.2350862,0.1341949,-0.0733453
1.002686,-0.1985092,0.1152941,0.1818823,0.1358646,-0.08147255
0.9984923,-0.1963904,0.1113765,0.1365445,0.1229331,-0.0727969
0.9934523,-0.2064176,0.1139224,0.1027166,0.1095375,-0.06196697
0.9948073,-0.2126494,0.1179921,0.08847555,0.09064563,-0.0602472
1.004284,-0.228814,0.1161682,0.06587552,0.1044742,-0.04822309
1.002194,-0.2324071,0.1130345,0.05420643,0.09980612,-0.03499126
1.001666,-0.2366138,0.1066156,0.03954575,0.08979726,-0.03147947
1.000865,-0.2473698,0.1120345,0.01977002,0.08571865,-0.03175734
0.9985362,-0.2569484,0.1210692,0.02417599,0.08146358,-0.03599679
1.000815,-0.2654713,0.116578,0.01694078,0.09210416,-0.03233196
0.9973387,-0.2709369,0.1150466,0.04527419,0.09001384,-0.0266855
0.9940238,-0.2824581,0.1145331,0.102868,0.09335317,-0.02569881
0.9907192,-0.2791956,0.1152457,0.109315,0.09219686,-0.02206641
0.987258,-0.2588299,0.1209414,0.101043,0.07393188,-0.0203129
0.9897886,-0.2441742,0.1218809,0.08548162,0.06307025,-0.01695437
0.9918713,-0.2382937,0.1274002,0.05412891,0.05537434,-0.01575443
0.9922483,-0.2382642,0.1345577,0.02483799,0.06109982,-0.02348991
0.9873503,-0.2310894,0.1352485,-0.01356622,0.06359324,-0.03348791
0.9814096,-0.2291546,0.1375235,-0.05045157,0.05449247,-0.0439519
0.9884937,-0.2363553,0.1403814,-0.09525323,0.04143971,-0.04101006
1.001321,-0.238082,0.1419623,-0.141211,0.02184953,-0.01389316
1.003724,-0.2529745,0.1378763,-0.1409815,0.02646577,0.01388649
0.9893452,-0.2716652,0.1267448,-0.1060328,0.0313607,0.0136185
0.9718722,-0.2823968,0.1171717,-0.05451593,0.02278153,0.0009858229
0.9739426,-0.2930717,0.1092167,0.03055997,0.03597187,-0.006062799
0.9883059,-0.2836008,0.1012189,0.09520444,0.04291588,-0.03243724
1.003382,-0.2621951,0.09366876,0.08274926,0.03594301,-0.04925784
1.021209,-0.2534123,0.09131155,0.03799936,0.03441722,-0.03124013
1.024531,-0.252693,0.1005948,-0.01871396,0.03102763,-0.03111598
1.012942,-0.2502869,0.1117682,-0.08186143,0.03174137,-0.04106141
0.9965382,-0.2509457,0.1183043,-0.1139256,0.0343625,-0.04380996
0.9737981,-0.2701208,0.130203,-0.1218215,0.03695623,-0.05225114
0.9743607,-0.3001264,0.1423019,-0.08775907,0.04127405,-0.03878633
0.9863208,-0.3124701,0.1372445,-0.01448316,0.04533929,-0.02448134
0.9787177,-0.2895992,0.1269718,0.01181271,0.05450022,-0.03250272
0.9829742,-0.2598643,0.1263953,-0.01020332,0.05478224,-0.03386342
0.9879139,-0.261021,0.1240209,-0.01664531,0.04327052,-0.03458654
0.9834191,-0.2729642,0.117099,-0.00686466,0.04007018,-0.04293593
0.9945646,-0.281784,0.1062599,0.01784473,0.04837123,-0.04418755
0.9949574,-0.2900438,0.1007719,0.06490423,0.05611035,-0.03976689
0.9904337,-0.2836308,0.1106051,0.09145519,0.05108599,-0.03620634
0.9962345,-0.2736442,0.1131598,0.08589769,0.04181644,-0.02863598
0.9938049,-0.2680684,0.1101258,0.09159581,0.03326938,-0.0192557
0.9952588,-0.2684015,0.1149029,0.1023258,0.02010629,-0.01457104
0.9969913,-0.2781899,0.1170555,0.1079612,0.02248613,-0.01078538
0.9942835,-0.279591,0.1208294,0.1215055,0.02949642,-0.01236566
0.9950118,-0.2732852,0.1260631,0.1179446,0.01632381,-0.01693598
0.9923572,-0.2665279,0.1282659,0.1044253,0.01213909,-0.01700572
0.9945659,-0.2603607,0.1258278,0.1004467,0.02199736,-0.01740475
0.9973518,-0.2599903,0.1194743,0.08495284,0.02561254,-0.01644111
0.9945092,-0.2559812,0.1180373,0.06448822,0.02758931,-0.01710969
0.9933735,-0.2538746,0.1146604,0.05199956,0.02738879,-0.0205417
0.9916132,-0.2569601,0.1139711,0.04394952,0.02834221,-0.02148074
0.9947541,-0.2550967,0.1201387,0.04059269,0.03145155,-0.0214773
0.9986362,-0.2563402,0.1229785,0.03828569,0.033079,-0.02098146
0.9936707,-0.2581682,0.1277621,0.03659779,0.03145443,-0.02684851
0.987977,-0.2580949,0.1268106,0.03559847,0.02190172,-0.03260909
0.9873735,-0.2608332,0.1228688,0.03689703,0.01774347,-0.02585023
0.9911758,-0.2608432,0.1280966,0.03931689,0.01782044,-0.02024479
0.994413,-0.2618095,0.1288292,0.03983325,0.01449507,-0.02217898
0.9932591,-0.2633233,0.1273074,0.03673232,0.0127723,-0.02303476
0.9922765,-0.2621377,0.1239975,0.02917157,0.007328723,-0.02437766
0.9935164,-0.2624913,0.1130091,0.02483375,0.008353099,-0.03146182
0.9931713,-0.2622875,0.110288,0.0153143,0.01601081,-0.03683618
0.9929421,-0.260232,0.1137912,-0.0008326835,0.01805551,-0.03457331
0.9952978,-0.2576325,0.1131719,-0.007373084,0.02127018,-0.03444285
0.9961984,-0.2570484,0.113263,-0.01535398,0.02468976,-0.03475532
0.9959008,-0.25884,0.1140533,-0.02853899,0.02479714,-0.03063321
0.9952329,-0.2591412,0.1148993,-0.03503916,0.02172785,-0.02902895
0.9929969,-0.2605639,0.1182998,-0.04009356,0.02073351,-0.02905609
0.9911413,-0.2639038,0.1221009,-0.04761214,0.02263744,-0.02913513
0.9912991,-0.2650199,0.1208112,-0.05153787,0.02171221,-0.02880103
0.9933782,-0.2673181,0.1161182,-0.0433741,0.02458318,-0.02787555
0.9941122,-0.2721597,0.1146934,-0.02942935,0.0250669,-0.0292765
0.9940419,-0.2738009,0.1153247,-0.02160719,0.02400871,-0.03071138
0.9931631,-0.2733927,0.1164897,-0.01831549,0.03057905,-0.03195391
0.9907821,-0.2729318,0.1180068,-0.01994363,0.03179125,-0.03117168
0.9925187,-0.2716755,0.1175544,-0.0197702,0.02581979,-0.02691134
0.9939822,-0.2722505,0.1155081,-0.01111801,0.01939006,-0.02568351
0.9924838,-0.2723429,0.1130051,-0.004354735,0.01815673,-0.02840344
0.993393,-0.2707899,0.1137903,-0.001233715,0.01961679,-0.03103391
0.994059,-0.2699094,0.1169314,0.003878228,0.01630246,-0.03038215
0.9944896,-0.2690073,0.1184372,0.009387235,0.01869079,-0.02725421
0.9946098,-0.270156,0.1198201,0.009150808,0.02062705,-0.02478791
0.9929844,-0.2733125,0.1179036,0.006092962,0.01667416,-0.02181288
0.9920829,-0.2755801,0.1155482,0.01151278,0.01617354,-0.02051697
0.991332,-0.2745527,0.1179883,0.01772191,0.01365821,-0.02277948
0.9917501,-0.2716015,0.1180098,0.0199988,0.01423327,-0.02445023
0.992888,-0.2721223,0.1150357,0.02317261,0.0171886,-0.02364541
0.9930321,-0.2721378,0.1132502,0.02200317,0.01654764,-0.02325151
0.9931019,-0.268671,0.1122156,0.02598789,0.01800648,-0.02435842
0.9920218,-0.2657897,0.1083215,0.03413953,0.01315086,-0.02249728
0.9918584,-0.2636513,0.1035485,0.03252757,0.007019375,-0.02009588
0.9946369,-0.2619006,0.1119849,0.02989977,0.008618836,-0.0213366
0.997529,-0.2590785,0.124621,0.02516848,0.008740039,-0.02162389
0.9978278,-0.2586653,0.1220462,0.01747925,0.01005305,-0.02124129
0.9965155,-0.2611451,0.1153277,0.01635238,0.01309467,-0.02115138
0.9964086,-0.2601735,0.1132435,0.008679899,0.0118582,-0.02054007
0.9958487,-0.2607569,0.1130342,-0.003899408,0.01117938,-0.02170288
0.9953351,-0.2610195,0.1148134,-0.001681917,0.01505825,-0.02240202
0.9963007,-0.2572502,0.1137694,0.0001678828,0.01854831,-0.02319636
0.995706,-0.256539,0.1136168,-0.00994087,0.01864971,-0.02627575
0.9956178,-0.2559203,0.1165116,-0.01211883,0.01840769,-0.0271629
0.9962058,-0.2574797,0.1166872,-0.01042748,0.01605513,-0.02393809
0.9953414,-0.2612794,0.1168753,-0.01390157,0.01185649,-0.02114199
0.9950597,-0.2583052,0.1170413,-0.01305758,0.006952714,-0.02137978
0.9942624,-0.2555544,0.1180793,-0.01522645,0.001115096,-0.02273312
0.9944709,-0.2555249,0.1206854,-0.01990696,0.002290859,-0.02537684
0.9968572,-0.254384,0.1191261,-0.02090993,0.00615515,-0.02572561
0.9984024,-0.254965,0.1165911,-0.02627688,0.007129087,-0.02188927
0.9992605,-0.2548016,0.1172039,-0.03064919,0.0133185,-0.02280225
0.9990472,-0.253774,0.1202235,-0.02955279,0.01933324,-0.02473013
0.9980466,-0.2532055,0.1195009,-0.02977382,0.02059037,-0.02112168
0.9959036,-0.2528715,0.115732,-0.03234716,0.01928174,-0.02027176
0.9929279,-0.2549465,0.1188798,-0.03221482,0.0151912,-0.0195315
0.9922281,-0.2579306,0.1190402,-0.02858563,0.01624593,-0.01528795
0.9926423,-0.2588779,0.1157515,-0.02532901,0.01929823,-0.01448241
0.995058,-0.2567439,0.1172574,-0.02154416,0.02082593,-0.01461575
0.9978749,-0.2537113,0.1154798,-0.02015236,0.02329363,-0.01391379
0.9969346,-0.2525857,0.1181663,-0.01791405,0.02089204,-0.01429858
0.9958371,-0.2542284,0.1225399,-0.01070593,0.01880866,-0.01367205
0.9940427,-0.2566176,0.1220783,-0.00997374,0.01448911,-0.01211409
0.9924576,-0.2555965,0.1255917,-0.01166558,0.006946824,-0.00842793
0.9950651,-0.2547242,0.1202613,-0.006683571,0.008661961,-0.003060852
0.9966126,-0.2552876,0.113239,-0.002476932,0.009281768,0.0004844375
0.9953645,-0.2538245,0.1178215,-0.00203613,0.006464204,-0.001488908
0.9938508,-0.2556944,0.1177748,-0.0009165647,0.007606508,-0.00727651
0.9929954,-0.260873,0.1155914,0.004597655,0.0062133,-0.008002621
0.9946865,-0.2629686,0.1155395,0.01062013,0.005471322,-0.006457248
0.9964516,-0.2599493,0.1152532,0.01443897,0.00670882,-0.006954563
0.9950839,-0.2549165,0.1194065,0.01676229,0.008505239,-0.006184336
0.9938344,-0.2549705,0.1215043,0.01440857,0.01212763,-0.005592428
0.9955641,-0.2563198,0.1187752,0.01275248,0.01001243,-0.001915925
0.9961772,-0.2550358,0.115371,0.01347327,0.001898368,0.004561153
0.9946411,-0.2557069,0.1149143,0.01284696,-0.003198147,0.007049597
0.9942565,-0.2557216,0.1181056,0.01573024,-0.003046954,0.007698338
0.9945563,-0.2553982,0.1214697,0.01879301,-0.003478267,0.01111021
0.9954442,-0.2567837,0.124946,0.01830268,-0.006861383,0.01501142
0.9961265,-0.256657,0.1256922,0.01818427,-0.008188532,0.01393339
0.9954312,-0.2552835,0.1252355,0.01820518,-0.007224808,0.0127316
0.9940242,-0.2535521,0.1287534,0.01935187,-0.007319455,0.01375247
0.9928576,-0.253839,0.1309478,0.02030485,-0.006780556,0.00944716
0.9946556,-0.2542886,0.1271188,0.0188296,-0.003561545,0.003623953
0.9968004,-0.2510533,0.1223325,0.017816,9.919466e-05,0.002371252
0.9957814,-0.2491998,0.1231756,0.01805159,-0.0007283343,0.005925512
0.9954296,-0.2499723,0.1242534,0.01779159,-0.00431303,0.009624852
0.9961873,-0.2502458,0.1211096,0.01449157,-0.005014869,0.008401402
0.9953872,-0.2499594,0.1214783,0.008414445,-0.006209349,0.008676042
0.9939148,-0.2492774,0.1263425,0.003418293,-0.01048631,0.01006016
0.9928871,-0.2475481,0.1304994,0.001123079,-0.01354935,0.008731204
0.9939625,-0.2458152,0.1287817,-0.001501816,-0.01061258,0.009254373
0.9969246,-0.2502372,0.1238752,-0.002637914,-0.003293376,0.009568123
0.997587,-0.2564182,0.123107,0.002795728,-0.0001970136,0.009510207
0.9961242,-0.2543194,0.1209349,0.003529762,-0.001291243,0.009684365
0.9955715,-0.251398,0.1186494,-0.001831526,-0.002484687,0.005509216
0.9959275,-0.2532167,0.119231,0.0002031509,-0.003951428,0.002041946
0.9969193,-0.2545838,0.1173179,0.0006251749,-0.0056035,0.003373913
0.997245,-0.2570589,0.1180902,-0.001503487,-0.006763781,0.004064074
0.9963311,-0.2612073,0.1207194,0.001403175,-0.006973199,0.003850271
0.9955498,-0.2615051,0.1243212,0.001707146,-0.009793359,0.0048533
0.9960202,-0.258816,0.1288968,0.003370014,-0.01171121,0.004666211
0.9979191,-0.257877,0.12284,0.004550762,-0.01058738,0.004406509
0.998658,-0.2588322,0.1163279,0.002270837,-0.01000424,0.005191383
0.9969466,-0.2611871,0.1199301,0.004704853,-0.006416872,0.005224569
0.9952834,-0.2625689,0.1204321,0.005467319,-0.006439184,0.007001936
0.9964921,-0.2591199,0.1196578,0.005539218,-0.007500175,0.009323944
0.9977429,-0.2552221,0.1266333,0.006733954,-0.002116047,0.008880123
0.9951506,-0.2563742,0.1334316,0.005143677,-0.001439995,0.008600226
0.9936587,-0.2588835,0.1314019,0.00921802,-0.001387177,0.008836212
0.9946762,-0.2599826,0.1254246,0.01595657,-0.0007096058,0.008711669
0.9943198,-0.2611394,0.1239299,0.02199901,-0.003842472,0.009994725
0.9934785,-0.2609313,0.1239014,0.02781658,-0.002040249,0.01214355
0.9927985,-0.2600716,0.1202866,0.02752715,-0.001825421,0.01265838
0.9931258,-0.2595881,0.117034,0.02774385,-0.005772015,0.009671168
0.9941975,-0.2589564,0.1178599,0.03007086,-0.009171616,0.004547096
0.9945264,-0.2608604,0.1211018,0.02863013,-0.0128698,0.001500281
0.9946099,-0.262387,0.1239433,0.02639631,-0.01115589,0.002847152
0.994291,-0.2606407,0.1256046,0.02478019,-0.008732706,0.006059193
0.9944372,-0.2587374,0.1261412,0.02278133,-0.008327333,0.008666122
0.9947717,-0.2571226,0.1282711,0.01889477,-0.003889246,0.009679674
0.9947963,-0.256382,0.1336735,0.01516131,3.165113e-05,0.00751829
0.9944383,-0.2561344,0.1345969,0.01558756,0.0005684678,0.00543182
0.992432,-0.2553935,0.1314536,0.01505599,-0.001021237,0.005775059
0.9916499,-0.2555453,0.1293052,0.01289557,-0.003110256,0.006600417
0.9924018,-0.2560708,0.1219416,0.01422216,-0.004736165,0.008481588
0.9932485,-0.2545776,0.1157507,0.01294455,-0.006120205,0.008251277
0.9959435,-0.2518989,0.1167376,0.01073457,-0.005465595,0.003927225
0.9962159,-0.2523872,0.116833,0.01237685,-0.005926794,0.00278628
0.9933851,-0.2535022,0.1180234,0.007079915,-0.006678544,0.006659413
0.9927434,-0.2523752,0.121237,0.0009694643,-0.00572679,0.008891951
0.9931831,-0.25309,0.1228218,0.002016792,-0.006573108,0.007529508
0.9941929,-0.2548632,0.1226197,0.0005029071,-0.006408357,0.005497626
0.9957231,-0.2552644,0.1205029,0.0001448439,-0.00605243,0.0046274
0.9959818,-0.2525251,0.1171454,0.0008069161,-0.006677437,0.00601692
0.9960984,-0.2466071,0.1126458,-0.002344468,-0.005443248,0.008353442
0.9965918,-0.2460981,0.1136453,-0.004682489,-0.004374226,0.008942157
0.9975028,-0.2546572,0.117082,-0.008355786,-0.0007073019,0.007117155
0.9974729,-0.2627764,0.1136689,-0.01135779,0.008856371,0.001207703
0.9960966,-0.262121,0.1137784,-0.009835164,0.02074415,-0.008552278
0.9933628,-0.2585474,0.1193484,-0.006761226,0.02167922,-0.01583465
0.9879184,-0.2571112,0.1248326,-0.004872549,0.001898201,-0.01175123
0.9860307,-0.2477134,0.1310817,-0.007756751,-0.02826822,0.01408296
0.9898901,-0.2348149,0.1313056,-0.02004,-0.05631704,0.05970306
0.9955683,-0.2350438,0.1294008,-0.03961307,-0.06904319,0.09071194
1.002015,-0.2411719,0.1293206,-0.05214081,-0.06812636,0.08589946
1.001056,-0.2429212,0.1267945,-0.05693676,-0.06917602,0.07530911
0.9960971,-0.2460003,0.1266528,-0.0619906,-0.05760812,0.06695193
0.997604,-0.2543847,0.126766,-0.05886815,-0.02759996,0.04215903
0.9989581,-0.2631961,0.1246669,-0.04730565,0.0001683738,0.01270471
1.003727,-0.2702387,0.1202199,-0.03096946,0.0247108,-0.02123589
1.012259,-0.2828339,0.1101146,-0.003692989,0.05149054,-0.05815377
1.008278,-0.2900943,0.1055377,0.02413456,0.06738992,-0.06852698
0.9942649,-0.2767213,0.1129174,0.03152623,0.05188432,-0.0548697
0.9757754,-0.2583599,0.1276833,0.02718259,0.02128625,-0.02956336
0.9656164,-0.2465075,0.1423424,0.02867797,-0.003537203,0.01688701
0.9814681,-0.2425545,0.139881,0.01824629,-0.03910463,0.06394054
0.9952417,-0.2436487,0.1308325,-0.00625594,-0.06266277,0.07590575
0.9896451,-0.2409097,0.1326065,-0.02214594,-0.05652086,0.06794232
0.9906116,-0.2459157,0.1257392,-0.02951269,-0.05331949,0.06648951
0.9960494,-0.2538712,0.114236,-0.02917512,-0.04112282,0.05601031
0.9985624,-0.2574822,0.1139891,-0.02604257,-0.007046712,0.02684536
1.006583,-0.2693445,0.1141789,-0.01940115,0.02533598,-0.009735075
1.007185,-0.2749086,0.1175514,0.0005762319,0.04858717,-0.0417549
1.000167,-0.2758339,0.1188583,0.01952886,0.05526784,-0.05278302
0.995311,-0.2778527,0.1156949,0.03187299,0.04846249,-0.0457735
0.9860948,-0.2703497,0.1194266,0.03594143,0.04087199,-0.03719883
0.9838333,-0.2683783,0.1205624,0.03275818,0.02511549,-0.02055081
0.9899871,-0.2646668,0.1258387,0.0321417,0.001666842,0.006902089
0.9888479,-0.2552657,0.1337121,0.02285471,-0.0203822,0.02709044
0.9886422,-0.2572663,0.1284955,0.01203486,-0.03960305,0.0405716
0.9908574,-0.2611873,0.1261934,0.008754807,-0.04431508,0.04817513
0.9921192,-0.2633484,0.1295681,0.007045136,-0.03400822,0.04364503
0.9972402,-0.2640365,0.1294147,0.01052731,-0.02454537,0.03669732
1.000121,-0.2629752,0.1288246,0.008767374,-0.01359698,0.02503834
1.002012,-0.2637268,0.1272912,0.007636041,-0.0003514982,0.01159451
1.002978,-0.2623276,0.123284,0.01136959,0.01264595,-0.003540836
0.9982476,-0.2639353,0.1191439,0.00785865,0.02447316,-0.02483759
0.9929628,-0.2665276,0.1205568,0.008434706,0.02227487,-0.02631722
0.9892692,-0.264216,0.1219278,0.008752536,0.01110659,-0.01490791
0.9883661,-0.2613117,0.1201637,0.00664415,0.000462233,-0.009528594
0.9890167,-0.2577097,0.1226541,0.008388867,-0.009072847,-0.0003919528
0.9888377,-0.2551085,0.1263571,0.0008842556,-0.01790211,0.01415336
0.9894022,-0.2530969,0.1281541,-0.008386615,-0.03125476,0.03257699
0.990481,-0.250383,0.1265748,-0.01141658,-0.03620607,0.03578049
0.9928291,-0.2522301,0.123229,-0.01358413,-0.03417252,0.03090542
0.9950283,-0.2548077,0.1235607,-0.02172853,-0.02906576,0.03480333
0.9974039,-0.2538841,0.1232131,-0.03576797,-0.008724838,0.02427937
0.9985391,-0.2543506,0.1229231,-0.03787142,-0.001202283,0.01159966
0.9962091,-0.2561983,0.1247112,-0.03694941,-0.005975087,0.003410706
0.9968178,-0.2602959,0.1241361,-0.03856485,0.004650292,-0.01057797
0.9964348,-0.266037,0.1249586,-0.02879729,0.01012297,-0.01141174
0.9931666,-0.2653563,0.1252312,-0.02174025,0.009256796,-0.007292969
0.9929708,-0.2608504,0.1215433,-0.01584722,0.01049704,-0.007531664
0.990363,-0.2584864,0.1215705,-0.00930623,0.007419938,-0.007234386
0.9893199,-0.2566596,0.1275296,-0.01942558,0.005379734,-0.003275361
0.9922364,-0.2553174,0.1352364,-0.02882548,-0.005249443,0.01731714
0.9913017,-0.2547156,0.1368578,-0.03030607,-0.02355458,0.04294557
0.9906893,-0.2540956,0.1349768,-0.03632741,-0.0389111,0.04914144
0.9905561,-0.2525752,0.1373702,-0.03790458,-0.05243602,0.04223727
0.9907267,-0.2537085,0.1318612,-0.03922904,-0.05173165,0.03696166
0.9934639,-0.2588301,0.1208,-0.04703147,-0.03456634,0.02566466
0.9940723,-0.2615037,0.1207691,-0.04875136,-0.01805743,0.01809301
0.9972285,-0.2644736,0.1275152,-0.04275232,-0.009126447,0.01575694
1.001724,-0.2696881,0.1326272,-0.03194609,-0.004867561,-0.000903154
0.9987769,-0.2706246,0.1309964,-0.01929166,-0.0003347832,-0.003638025
0.9920097,-0.2697677,0.1280441,-0.01572614,0.004664945,0.002766971
0.9872166,-0.2709932,0.1299587,-0.01260097,0.00279164,-0.003987442
0.9880651,-0.2709873,0.1290556,-0.0002638198,-0.00265032,0.001904247
0.9898836,-0.2680349,0.1284472,0.00683221,-0.00799592,0.00777037
0.9865436,-0.2648856,0.1290714,0.009857001,-0.02173541,0.01590936
0.9853812,-0.2631848,0.1261834,0.01088921,-0.03660103,0.03362072
0.9877236,-0.2621179,0.1242621,0.003889948,-0.04555743,0.03252779
0.9890448,-0.2574382,0.1223215,0.0006299886,-0.05080359,0.02861241
0.9922109,-0.2502215,0.1251219,-0.004613226,-0.04225128,0.02633227
0.9957756,-0.251764,0.1315642,-0.01448322,-0.02725397,0.01692049
0.9969011,-0.2561998,0.1283015,-0.01917003,-0.02204431,0.007110467
0.9984018,-0.2580441,0.1216718,-0.02475567,-0.01509534,-0.0076658
1.000597,-0.2663148,0.1192858,-0.02055941,-0.003656208,-0.01306549
1.000026,-0.2684691,0.119609,-0.01059455,-0.00545207,-0.01296228
0.9966368,-0.2647229,0.1217901,-0.008985307,-0.01106879,-0.01890627
0.9957205,-0.2686564,0.1206486,-0.0059564,-0.009084299,-0.01875889
0.9985415,-0.2687784,0.1191529,-0.005322435,-0.01207845,-0.01726261
1.000379,-0.2682768,0.1189548,-0.002833863,-0.01464592,-0.01584952
0.9971541,-0.2725082,0.1173037,0.003103662,-0.01584702,-0.009239258
0.9915695,-0.2713947,0.1179498,0.002919521,-0.02259466,-0.001023734
0.9914441,-0.2674168,0.1175803,0.001782037,-0.02145516,0.006870473
0.9948566,-0.2622753,0.1158605,-0.003199471,-0.01246664,0.01181533
0.9955241,-0.2611834,0.117096,-0.003574144,-0.0004491297,0.01449945
0.9917743,-0.265457,0.1177,0.0002788175,0.007663885,0.0116694
0.987448,-0.2683313,0.1184051,-0.0009096928,0.00485303,0.001733324
0.9917678,-0.2756533,0.1201987,0.003205858,0.006683496,-0.005085153
0.997906,-0.280388,0.1210255,0.003659338,0.009345101,-0.006828427
0.9967577,-0.276981,0.1210054,0.0074293,0.007146304,-0.004979522
0.9943093,-0.2764616,0.119436,0.0235502,0.01012716,0.0005244361
0.9911134,-0.27365,0.1182742,0.03416375,0.008906634,0.001199138
0.9890103,-0.2672397,0.1193848,0.0465223,0.003469768,0.00253637
0.9892005,-0.2677936,0.124966,0.0581836,0.0007600645,0.01308593
0.9890399,-0.2725536,0.1314704,0.06001008,0.0004733855,0.01797213
0.992707,-0.2739347,0.1290094,0.0620458,0.002098577,0.007289998
0.9959568,-0.2706702,0.1250071,0.06093861,-0.002286808,-0.005663134
0.9948869,-0.2650684,0.1253555,0.05590352,-0.005761906,-0.006294476
0.9939586,-0.2587603,0.1223173,0.05296943,-0.003413835,-0.004193705
0.9928349,-0.2539379,0.1225384,0.05174883,-0.004241616,-0.003977245
0.992491,-0.2549562,0.1253752,0.04498009,-0.005178827,0.00361688
0.9923721,-0.2589389,0.1226679,0.02993167,-0.005351575,0.005479726
0.9903883,-0.2594891,0.1233478,0.01955034,-0.00623315,0.004809989
0.990321,-0.2606845,0.1246142,0.01607836,-0.00784707,0.00969322
0.9934039,-0.2629675,0.1227721,0.01168083,-0.01307427,0.007000002
0.9961684,-0.2621794,0.1250125,0.006637917,-0.01530433,0.006233811
0.9962733,-0.2624558,0.1254111,0.001453545,-0.01010018,0.006598639
0.9951036,-0.2618229,0.1246974,-0.002812412,-0.002887227,0.00260731
0.9940948,-0.2601635,0.1261931,-0.003015652,0.0003276875,0.001508879
0.9926878,-0.2606333,0.1254019,-0.00204978,0.0006316247,-0.004512449
0.992637,-0.2593666,0.1249695,-0.003934774,0.005210637,-0.006195099
0.9935657,-0.259454,0.1249996,-0.004321718,0.009427451,-0.004137368
0.9923599,-0.2609521,0.1265823,-0.005426548,0.004368483,-0.009291743
0.9901663,-0.2628507,0.1305584,-0.01186165,-0.0004952017,-0.008880549
0.9884281,-0.2662326,0.132706,-0.01573504,0.003484199,-0.00891916
0.9883034,-0.2635797,0.1312127,-0.01740425,0.007155057,-0.01184308
0.98956,-0.2591484,0.1238784,-0.01879611,0.007268164,-0.009829855
0.9889141,-0.2599838,0.1151495,-0.01471489,0.005921628,-0.01093905
0.9894134,-0.2618306,0.1130026,-0.01139067,0.0007516234,-0.0125413
0.9909278,-0.2638131,0.1195531,-0.01288828,-0.004056383,-0.01230429
0.9891023,-0.2643092,0.1256244,-0.01408083,-0.007665055,-0.009247526
0.9884537,-0.2622502,0.1231589,-0.01365727,-0.007353098,-0.001208381
0.9895028,-0.2604634,0.1241109,-0.01372758,-0.001693067,0.0005976723
0.9905308,-0.2592797,0.1297825,-0.01466188,-0.001644974,-0.005108088
0.9924991,-0.2594748,0.1292249,-0.01633015,-0.002629644,-0.00929869
0.992706,-0.2601684,0.1252923,-0.01888694,-0.002994849,-0.008032394
0.9929009,-0.259492,0.1207127,-0.01732028,-0.009814789,-0.004468294
0.9936493,-0.2596351,0.1186705,-0.01318676,-0.01210965,-0.00443003
0.9934832,-0.2596408,0.1224121,-0.01340773,-0.009353311,-0.005476885
0.9940273,-0.2574899,0.1256324,-0.01677651,-0.007904151,-0.007315554
0.9937639,-0.2552694,0.1239505,-0.02158354,-0.007046547,-0.0102589
0.9934894,-0.2533396,0.1210633,-0.02375395,-0.007397836,-0.00947974
0.9940436,-0.2527229,0.1205184,-0.02464847,-0.006124402,-0.007486022
0.9936011,-0.2545476,0.120962,-0.02991092,-0.006201811,-0.005269777
0.993884,-0.2563852,0.1218524,-0.03343027,-0.007570546,-0.003300425
0.9949939,-0.2564871,0.1223409,-0.03405157,-0.007201768,-0.006920105
0.9966528,-0.2558173,0.1212579,-0.03535361,-0.005028002,-0.009975355
0.9995197,-0.2556656,0.1205568,-0.03468169,0.000366939,-0.006797039
1.000341,-0.256236,0.1210826,-0.02981694,0.002090343,-0.004461373
0.9979084,-0.2599935,0.1228214,-0.02397915,0.001598384,-0.005120768
0.9952122,-0.264137,0.1242782,-0.0242805,0.00264385,-0.005203036
0.9937616,-0.2623697,0.1245906,-0.02530728,0.000832904,-0.004816518
0.9927951,-0.2598112,0.1254238,-0.02222113,0.000659452,-0.003917767
0.9927219,-0.2596125,0.1269386,-0.02271367,0.001450095,-0.001829697
0.9934385,-0.2583744,0.1282258,-0.02535219,0.0007908563,-0.001215853
0.992608,-0.2572903,0.1276093,-0.02600685,0.001046619,-0.002567655
0.991421,-0.2565191,0.1252891,-0.02315706,0.0009600465,-0.00279095
0.992189,-0.255893,0.1228482,-0.01678671,0.0027063,-0.003159669
0.9951277,-0.2561311,0.1214932,-0.01479847,0.004160747,-0.005897552
0.9982948,-0.258108,0.1222874,-0.01751436,0.003397397,-0.007740777
0.9986547,-0.261984,0.1222034,-0.01732448,0.004461603,-0.005945955
0.9981761,-0.2635606,0.1197367,-0.01171992,0.005025476,-0.005010539
0.9964984,-0.2631367,0.1176015,-0.005708826,0.004724415,-0.00700298
0.9942361,-0.2614094,0.118489,-0.005204635,0.006860173,-0.006209577
0.9946071,-0.2568183,0.1235818,-0.004796952,0.007611669,-0.003626038
0.9928119,-0.2564519,0.1266782,-0.002289976,0.00663898,-0.002627294
0.9920842,-0.2604781,0.1246575,-0.002900859,0.008589879,-0.002284512
0.9941656,-0.2616198,0.1239506,-0.001398099,0.009426671,-0.003028243
0.9925549,-0.2612778,0.1229389,0.003087258,0.007409786,-0.001250599
0.9928141,-0.2608654,0.1197115,0.004682007,0.004822684,0.002135005
0.9939168,-0.2608711,0.1206293,0.004475053,0.001497681,0.002973858
0.9932549,-0.2605527,0.1226178,0.002678771,0.004712835,0.00297025
0.9949232,-0.2585553,0.1220932,0.0002409829,0.00977593,0.001517146
0.9936876,-0.2569166,0.1232451,-0.003006507,0.006889084,0.0008853997
0.9924054,-0.2541619,0.1240363,-0.005881159,0.006152216,0.001797313
0.9947614,-0.2529966,0.123391,-0.004202574,0.007717228,0.002734206
0.9963878,-0.2540698,0.1237009,-0.004553836,0.007228578,0.005524386
0.9977994,-0.2523235,0.1237739,-0.00783358,0.01246792,0.005943184
0.9968482,-0.2525278,0.1248127,-0.009379379,0.01817439,0.003857647
0.993877,-0.2545608,0.1273409,-0.0118994,0.01698145,0.002979416
0.9919216,-0.2553711,0.1299127,-0.01218868,0.01348713,0.004065208
0.9918286,-0.258714,0.1325823,-0.01171883,0.01089668,0.00556624
0.9942862,-0.2603052,0.1328896,-0.01500385,0.009212467,0.0018315
0.9959492,-0.2578027,0.1298129,-0.01725289,0.01038043,-0.002300163
0.9974094,-0.2563829,0.1277665,-0.01652695,0.01561918,-0.003834079
0.9975323,-0.2579151,0.1293339,-0.01496783,0.01929404,-0.007843364
0.9937525,-0.2599724,0.1337948,-0.01359512,0.01755963,-0.008630445
0.9923734,-0.2592426,0.1388568,-0.01012735,0.01383398,-0.006164265
0.9926564,-0.2569121,0.1362419,-0.006273678,0.01089952,-0.006392811
0.9903509,-0.2549264,0.1287164,-0.005729152,0.01015862,-0.006186684
0.9882134,-0.2550328,0.1286808,-0.005024712,0.009976517,-0.005935506
0.9885552,-0.255958,0.128806,-0.004924796,0.006738738,-0.007403255
0.990487,-0.2534502,0.1240757,-0.005207736,0.003434119,-0.005505996
0.9905292,-0.2519986,0.1221796,-0.00299827,0.0029044,-0.0002280154
0.991087,-0.2532644,0.1252845,-0.003211622,-0.002848056,0.003551355
0.9932293,-0.2536235,0.1315927,-0.005946234,-0.01458525,0.006992421
0.9929092,-0.2544164,0.1314959,-0.005922619,-0.01802017,0.01079871
0.9921813,-0.2545012,0.1294707,-0.003568132,-0.01415573,0.01182877
0.9914474,-0.2547585,0.1333904,-0.003544526,-0.01482887,0.01049602
0.9915364,-0.2564246,0.1337727,-0.006112882,-0.01549375,0.01023156
0.9930532,-0.2573505,0.1345584,-0.007207725,-0.01368291,0.01440966
0.9929946,-0.2586405,0.1375146,-0.005913114,-0.01450849,0.02089709
0.9935447,-0.2587568,0.1360371,-0.002953261,-0.01398147,0.02361857
0.9948718,-0.2578315,0.1316824,-0.0001189667,-0.01237237,0.02473344
0.9959563,-0.2585243,0.1277655,0.001878053,-0.0132272,0.02641632
0.9953071,-0.2584655,0.1295698,0.001019549,-0.01357838,0.02277868
0.9926186,-0.2580643,0.1307327,-0.001462183,-0.01499556,0.01792128
0.993283,-0.2585459,0.1291061,-2.525278e-05,-0.01898431,0.01943962
0.9951789,-0.2580956,0.1278777,-0.0007658526,-0.02218702,0.02068417
0.99599,-0.2573579,0.1234524,-0.003096131,-0.02241927,0.01992347
0.9959998,-0.2568179,0.124371,-0.004985877,-0.02144938,0.02250047
0.9934977,-0.2565351,0.1265055,-0.01267252,-0.0231968,0.02389692
0.9926472,-0.2559508,0.123829,-0.01493812,-0.02348405,0.02213298
0.9933152,-0.2536058,0.125513,-0.01436029,-0.01805808,0.01835641
0.9938794,-0.2527145,0.1268229,-0.01891209,-0.0135151,0.0113078
0.9949066,-0.2539233,0.1289748,-0.01746712,-0.01436588,0.007656407
0.9943358,-0.2536644,0.1335584,-0.01886633,-0.01432962,0.007409515
0.9945074,-0.2539119,0.131165,-0.02581984,-0.00950748,0.005458138
0.9955382,-0.2547004,0.1260882,-0.02556645,-0.008412631,0.005837648
0.9959073,-0.2540649,0.1242826,-0.02100654,-0.01148992,0.005584457
0.9960863,-0.2553197,0.126966,-0.01656947,-0.0114754,0.003558912
0.99574,-0.2579181,0.1308711,-0.01842527,-0.01079562,0.003178465
0.9968028,-0.2587123,0.1307371,-0.02320081,-0.008401014,0.0007446938
0.9974564,-0.2586169,0.1300722,-0.02277916,-0.00448904,-0.001049107
0.99601,-0.2589979,0.1287137,-0.02373575,-0.003156611,-0.002445695
0.994499,-0.2598779,0.1261599,-0.02253914,-0.002913284,-0.003880754
0.9933549,-0.2590763,0.125915,-0.01951151,-0.006685134,-0.001341876
0.9937765,-0.2579944,0.1251524,-0.02137308,-0.01140596,-0.0003038579
0.994738,-0.2602592,0.1220411,-0.02043716,-0.009770551,0.0003831597
0.994556,-0.2617276,0.1210947,-0.02050851,-0.007786847,-0.0003611125
0.9939359,-0.260089,0.1269931,-0.02365408,-0.008286361,-0.005397948
0.9931934,-0.2592636,0.131794,-0.02365008,-0.006526462,-0.007233349
