ax,ay,az,wx,wy,wz
0.7644444444444445,0.03888888888888889,0.3777777777777778,-0.20555555555555557,-0.1711111111111111,-0.11
0.723125,-0.4625,0.915625,-0.14625,-0.195625,-0.1525
0.8092307692307692,-0.783076923076923,1.1953846153846155,-0.007692307692307693,-0.21615384615384617,-0.1776923076923077
0.9838461538461538,-0.34153846153846157,1.323076923076923,0.13923076923076924,-0.26,-0.2507692307692308
0.7683333333333334,0.32583333333333336,1.2733333333333334,0.24166666666666667,-0.29,-0.2975
0.35900000000000004,1.178,1.116,0.279,-0.335,-0.29100000000000004
0.19666666666666668,1.6953333333333334,1.0253333333333334,0.33533333333333337,-0.36666666666666664,-0.2613333333333333
0.39692307692307693,2.2253846153846153,0.1176923076923077,0.6207692307692307,-0.20461538461538462,-0.24076923076923076
0.34833333333333333,3.0691666666666664,-0.5758333333333333,0.7799999999999999,-0.17500000000000002,-0.10583333333333333
-0.3346153846153846,5.456153846153847,-1.3853846153846154,0.5546153846153846,-0.29,0.15615384615384617
-0.605,6.055,-1.45,0.4,-0.23750000000000002,0.285
-0.5970588235294118,3.771764705882353,-1.5411764705882351,0.3735294117647059,-0.18529411764705883,0.2652941176470588
-0.215,1.1375,-2.0825,0.29333333333333333,-0.43166666666666664,0.13333333333333333
-0.021538461538461538,-0.6530769230769231,-2.230769230769231,0.1723076923076923,-0.5261538461538462,-0.016153846153846154
0.15583333333333332,-0.7891666666666667,-1.8533333333333335,0.16083333333333333,-0.3725,-0.20916666666666664
0.09222222222222223,-0.07111111111111112,-1.6233333333333333,0.18555555555555556,-0.2488888888888889,-0.28
0.44375000000000003,0.63125,-1.61125,0.115625,-0.064375,-0.255
1.2063636363636363,0.9072727272727271,-1.2836363636363637,-0.05,0.10545454545454547,-0.2672727272727273
1.2635714285714286,0.6792857142857143,-0.9500000000000001,-0.21142857142857144,0.26571428571428574,-0.33999999999999997
0.9390909090909091,-0.019090909090909092,-0.4018181818181818,-0.3190909090909091,0.3890909090909091,-0.4445454545454545
0.5492307692307692,-0.8615384615384615,-0.17384615384615387,-0.31461538461538463,0.42769230769230765,-0.5661538461538462
-0.5078571428571429,-2.215,0.1992857142857143,-0.1207142857142857,0.46214285714285713,-0.6735714285714286
-0.9383333333333334,-2.845833333333333,0.1325,0.10666666666666667,0.4575,-0.7225
-1.2333333333333334,-3.3333333333333335,-0.505,0.21333333333333335,0.39666666666666667,-0.7000000000000001
-1.2269230769230768,-3.516923076923077,-1.0284615384615383,0.17461538461538462,0.3346153846153846,-0.6276923076923077
-0.9736363636363635,-3.617272727272727,-1.2154545454545453,0.12181818181818183,0.2581818181818182,-0.5727272727272728
-0.6835714285714286,-3.547857142857143,-1.0185714285714285,0.10142857142857142,0.16714285714285712,-0.5692857142857143
-0.5892307692307692,-2.8661538461538467,-0.51,0.13307692307692306,0.10615384615384617,-0.5553846153846155
-0.4383333333333333,-2.265,-0.3958333333333333,0.1416666666666667,0.08,-0.5191666666666667
-0.26153846153846155,-1.3838461538461537,-0.4646153846153846,0.1076923076923077,0.03923076923076923,-0.4815384615384615
-0.54,-0.9025,-0.5916666666666667,0.015833333333333335,0.006666666666666667,-0.36166666666666664
-0.8138461538461539,-0.5023076923076923,-0.46153846153846156,-0.045384615384615384,0.014615384615384615,-0.22692307692307695
-0.7775,-0.19000000000000003,-0.165,-0.07916666666666668,-0.0275,-0.14666666666666667
-1.0076923076923077,0.3,0.07923076923076923,-0.1176923076923077,-0.014615384615384615,-0.036923076923076927
-0.9249999999999999,0.46249999999999997,0.06749999999999999,-0.15083333333333335,0.014166666666666668,0.0675
-0.5107692307692309,0.2569230769230769,0.17384615384615387,-0.1853846153846154,0.017692307692307695,0.11307692307692307
-0.20083333333333334,0.03416666666666667,0.45416666666666666,-0.17166666666666666,0.05333333333333334,0.11333333333333333
0.062307692307692314,-0.3638461538461539,0.8730769230769231,-0.14769230769230768,0.08923076923076922,0.09307692307692307
0.09166666666666667,-0.7041666666666666,1.1191666666666666,-0.1225,0.15333333333333335,0.12416666666666666
0.36000000000000004,-0.8866666666666667,1.45,-0.04666666666666667,0.2325,0.15416666666666667
0.51,-0.8538461538461538,1.6123076923076924,0.06153846153846154,0.30692307692307697,0.12153846153846154
0.1523076923076923,-0.7107692307692308,1.5953846153846152,0.17230769230769233,0.39076923076923076,0.05230769230769231
-0.44083333333333335,-0.4816666666666667,1.4525,0.25583333333333336,0.44916666666666666,0.0375
-0.9423076923076923,0.07230769230769231,1.4084615384615384,0.3330769230769231,0.4815384615384615,0.08615384615384616
-0.855,0.625,1.2858333333333334,0.4075,0.44083333333333335,0.13833333333333334
-0.6253846153846153,1.66,0.4607692307692307,0.5092307692307693,0.33615384615384614,0.15
-0.5499999999999999,2.8074999999999997,-0.11333333333333333,0.5599999999999999,0.22333333333333336,0.12666666666666668
-0.2946153846153846,5.072307692307692,-0.7984615384615383,0.4153846153846154,0.07076923076923078,0.008461538461538461
-0.2733333333333334,6.1175,-0.9333333333333332,0.19666666666666666,0.050833333333333335,-0.08833333333333333
0.12416666666666666,5.513333333333333,-0.6233333333333334,0.12416666666666666,0.09666666666666668,-0.13
0.24461538461538462,3.838461538461538,-0.8053846153846153,0.09769230769230769,0.18384615384615385,-0.17076923076923078
-0.29,2.45,-1.24,0.08,0.24,-0.08
-0.5145833333333333,0.7745833333333333,-1.8320833333333333,0.04041666666666666,0.3416666666666666,0.10166666666666667
0.42818181818181816,-0.14272727272727273,-2.015454545454545,-0.030909090909090907,0.4454545454545455,0.30363636363636365
0.8407142857142856,0.11285714285714286,-1.9228571428571428,0.027857142857142858,0.40285714285714286,0.33
0.5076923076923077,1.0415384615384615,-2.207692307692308,0.10230769230769231,0.2076923076923077,0.3553846153846154
0.20000000000000004,1.4383333333333335,-2.6,0.022500000000000003,0.09333333333333334,0.3575
0.15000000000000002,1.2966666666666666,-2.686666666666667,-0.11833333333333333,0.023333333333333334,0.325
-0.013684210526315787,0.3257894736842105,-1.941578947368421,-0.28578947368421054,-0.12526315789473683,0.2942105263157895
-0.23307692307692307,-1.1015384615384616,-0.5953846153846154,-0.30615384615384617,-0.23384615384615384,0.33999999999999997
-0.11083333333333334,-1.6608333333333334,-0.14833333333333334,-0.1708333333333333,-0.235,0.4608333333333334
0.4725,-2.3433333333333333,0.07166666666666667,0.01,-0.255,0.5308333333333334
0.6407692307692308,-2.646153846153846,-0.11538461538461539,0.16846153846153847,-0.23846153846153847,0.6076923076923076
1.213846153846154,-2.861538461538461,-0.5661538461538462,0.26384615384615384,-0.18307692307692308,0.58
1.3333333333333333,-3.0658333333333334,-0.73,0.2916666666666667,-0.17500000000000002,0.4825
1.093076923076923,-3.29,-0.7238461538461538,0.30846153846153845,-0.11000000000000001,0.4369230769230769
1.0441666666666667,-3.2550000000000003,-0.6849999999999999,0.29416666666666663,-0.06916666666666667,0.43249999999999994
0.8463636363636364,-2.9845454545454544,-0.5527272727272727,0.26727272727272733,-0.06272727272727273,0.46545454545454545
0.7242857142857143,-2.7164285714285716,-0.45928571428571424,0.22428571428571428,-0.05,0.47928571428571426
0.7033333333333333,-2.2449999999999997,-0.32666666666666666,0.14916666666666667,-0.05000000000000001,0.43166666666666664
0.5815384615384616,-2.02,-0.043846153846153854,0.12384615384615384,-0.050769230769230775,0.36692307692307696
0.8915384615384615,-1.7807692307692307,0.45153846153846156,0.20076923076923076,-0.07153846153846154,0.28153846153846157
1.0233333333333334,-1.5041666666666667,0.5208333333333334,0.22916666666666666,-0.12083333333333333,0.19999999999999998
0.9225,-0.5491666666666667,0.47500000000000003,0.16583333333333333,-0.16583333333333333,0.13416666666666668
0.8307692307692308,0.30538461538461537,0.5138461538461538,0.06076923076923077,-0.25230769230769234,0.09
0.682,1.28,0.6839999999999999,0.009,-0.3,0.065
0.8053333333333333,1.2873333333333332,0.7606666666666667,-0.04666666666666667,-0.2806666666666667,0.028666666666666667
1.0563636363636364,0.8436363636363636,0.9936363636363637,-0.1290909090909091,-0.3227272727272727,-0.026363636363636367
0.8771428571428571,0.8078571428571429,1.3442857142857143,-0.16642857142857143,-0.3842857142857143,-0.07642857142857143
0.3054545454545455,1.2027272727272726,1.9863636363636366,-0.17,-0.3845454545454546,-0.12090909090909091
-0.12714285714285714,1.6664285714285714,2.0007142857142854,-0.14285714285714285,-0.38571428571428573,-0.13714285714285715
-0.3685714285714286,2.2657142857142856,1.4542857142857142,-0.027142857142857142,-0.3485714285714286,-0.15714285714285717
0.12277777777777778,2.8333333333333335,0.16611111111111113,0.21666666666666667,-0.17722222222222223,-0.16722222222222222
1.0158333333333334,5.004166666666667,-1.4366666666666665,0.19583333333333333,-0.09250000000000001,-0.075
1.125,5.573333333333333,-1.4908333333333335,0.08583333333333333,-0.035,0.051666666666666666
0.9975,3.4308333333333336,-1.5250000000000001,0.08166666666666667,-0.03916666666666667,0.0425
0.9171428571428571,1.0842857142857143,-2.202142857142857,0.054285714285714284,-0.17142857142857143,-0.07285714285714286
0.011666666666666667,-1.215,-2.9525,-0.09333333333333334,-0.41500000000000004,-0.2125
-0.6900000000000001,-1.3046153846153847,-2.723846153846154,-0.20846153846153845,-0.3984615384615384,-0.3169230769230769
-1.3616666666666666,-0.39166666666666666,-1.8399999999999999,-0.18999999999999997,-0.22916666666666666,-0.3525
-1.533076923076923,0.3607692307692308,-1.3961538461538463,-0.12538461538461537,-0.16538461538461538,-0.2423076923076923
-0.6416666666666667,0.735,-1.4083333333333332,-0.16416666666666666,-0.16666666666666666,-0.1575
0.2723076923076923,0.38384615384615384,-1.5476923076923077,-0.2676923076923077,-0.10230769230769231,-0.23
1.1345454545454545,-0.5390909090909092,-1.4263636363636365,-0.3709090909090909,-0.03818181818181818,-0.38727272727272727
1.2335714285714285,-1.1335714285714287,-1.1764285714285714,-0.4842857142857143,-0.08285714285714285,-0.6142857142857142
0.023636363636363646,-1.9309090909090911,-0.4627272727272727,-0.45454545454545453,-0.11,-0.6990909090909091
-0.5828571428571429,-2.406428571428571,-0.08857142857142856,-0.2664285714285714,-0.052142857142857144,-0.65
-0.6923076923076923,-2.863076923076923,-0.24000000000000002,-0.05923076923076923,-0.02692307692307692,-0.5776923076923077
-0.7799999999999999,-2.8608333333333333,-0.6158333333333333,-0.02666666666666667,-0.06166666666666667,-0.49
-1.061818181818182,-2.6763636363636363,-1.0163636363636364,-0.05454545454545454,-0.06363636363636363,-0.4072727272727273
-0.9453846153846155,-2.6769230769230767,-0.9299999999999999,-0.02769230769230769,-0.10230769230769231,-0.36615384615384616
-0.7200000000000001,-2.48,-0.5675,0.0375,-0.13583333333333333,-0.31583333333333335
-0.33571428571428574,-2.045714285714286,-0.6521428571428572,0.04928571428571429,-0.14857142857142858,-0.2885714285714286
0.1425,-1.5625,-0.7716666666666666,0.04,-0.155,-0.29416666666666663
0.2784615384615385,-1.4515384615384617,-0.7592307692307693,0.04846153846153846,-0.07461538461538461,-0.27
0.5027272727272728,-1.3145454545454547,-0.71,0.05818181818181818,-0.030909090909090907,-0.24818181818181817
0.466,-1.1560000000000001,-0.719,0.027000000000000003,-0.04,-0.22999999999999998
0.154,-0.782,-0.6206666666666667,-0.042,0.01,-0.19666666666666668
-0.014166666666666668,-0.4725,-0.4683333333333333,-0.09083333333333334,0.050833333333333335,-0.16333333333333333
-0.2053846153846154,-0.37615384615384617,-0.20461538461538462,-0.12461538461538463,0.06615384615384615,-0.1376923076923077
-0.33714285714285713,-0.6892857142857143,-0.012142857142857141,-0.20214285714285715,0.11,-0.11857142857142856
-0.33,-0.8754545454545455,0.2981818181818182,-0.23454545454545456,0.1590909090909091,-0.07090909090909091
-0.16692307692307692,-0.8153846153846154,0.4115384615384615,-0.2030769230769231,0.19076923076923077,0.005384615384615385
-0.14923076923076922,-0.61,0.4938461538461538,-0.16692307692307692,0.23769230769230767,0.06846153846153846
-0.38153846153846155,-0.39076923076923076,0.5669230769230769,-0.11153846153846153,0.3315384615384615,0.08769230769230768
-0.6638461538461538,-0.16923076923076924,0.8376923076923077,-0.0038461538461538464,0.43153846153846154,0.08307692307692308
-0.5454545454545454,-0.18454545454545457,0.9036363636363636,0.08181818181818182,0.4709090909090909,0.06454545454545454
-0.4492307692307692,-0.2330769230769231,0.7923076923076924,0.11,0.47,0.06153846153846154
-0.5599999999999999,0.07846153846153846,0.7876923076923077,0.11,0.4707692307692307,0.07
-0.7218181818181818,0.6218181818181818,0.8654545454545454,0.11545454545454546,0.4709090909090909,0.06909090909090909
-0.9223076923076923,0.8415384615384615,0.8661538461538462,0.12000000000000001,0.47230769230769226,0.09
-0.9854545454545455,1.0636363636363637,0.629090909090909,0.11272727272727273,0.4390909090909091,0.13454545454545455
-0.972,1.494,0.402,0.16933333333333334,0.35400000000000004,0.14200000000000002
-0.8223076923076923,3.2715384615384617,0.0030769230769230765,0.20076923076923076,0.2938461538461538,0.13076923076923078
-0.48,4.7491666666666665,-0.20916666666666664,0.11583333333333334,0.18500000000000003,0.085
-0.12181818181818181,5.5645454545454545,-0.42363636363636364,0.04272727272727273,0.13,0.053636363636363635
0.13857142857142857,4.734999999999999,-0.46714285714285714,0.06142857142857143,0.11857142857142856,0.004285714285714286
-0.188,2.7700000000000005,-0.796,0.023,0.135,-0.028999999999999998
-0.681,1.8489999999999998,-1.0859999999999999,-0.007000000000000001,0.173,0.053000000000000005
-0.8456250000000001,1.11125,-1.586875,-0.01875,0.23875000000000002,0.261875
0.39142857142857146,0.8357142857142857,-1.825,-0.05857142857142857,0.3821428571428571,0.34785714285714286
1.689,0.733,-1.762,-0.073,0.49399999999999994,0.312
1.912,0.5913333333333334,-1.8753333333333333,-0.06266666666666666,0.4626666666666666,0.29933333333333334
1.6236363636363635,0.42818181818181816,-2.3018181818181818,-0.09818181818181819,0.2972727272727273,0.29
1.0792857142857142,0.22142857142857145,-2.54,-0.22,0.1757142857142857,0.2671428571428572
0.33,-0.35000000000000003,-2.0518181818181818,-0.3463636363636364,0.09818181818181819,0.22
-0.32071428571428573,-0.9135714285714286,-1.352857142857143,-0.3535714285714286,-0.019285714285714288,0.24071428571428571
-0.8463636363636364,-1.5,-0.43818181818181823,-0.27090909090909093,-0.09272727272727273,0.3018181818181818
-0.6749999999999999,-1.8785714285714283,-0.15214285714285714,-0.18714285714285714,-0.15785714285714286,0.3842857142857143
0.008181818181818179,-2.652727272727273,-0.1190909090909091,-0.09818181818181819,-0.20636363636363636,0.4709090909090909
0.5415384615384615,-3.1453846153846152,-0.1623076923076923,-0.02,-0.22153846153846152,0.483076923076923
0.7754545454545455,-3.7609090909090908,-0.29545454545454547,0.06272727272727273,-0.1990909090909091,0.49272727272727274
0.9233333333333333,-4.108666666666666,-0.22333333333333333,0.24333333333333332,-0.08333333333333333,0.5066666666666666
1.4227272727272728,-4.08,-0.3563636363636364,0.3890909090909091,-0.017272727272727273,0.46727272727272723
1.4278571428571427,-3.6942857142857144,-0.4057142857142857,0.4764285714285714,0.052142857142857144,0.4321428571428571
1.2254545454545456,-2.708181818181818,-0.4509090909090909,0.5218181818181818,0.11818181818181818,0.41363636363636364
1.04,-1.7761538461538462,-0.6646153846153846,0.49076923076923074,0.15076923076923077,0.3830769230769231
0.7666666666666666,-0.3433333333333333,-1.0355555555555556,0.39444444444444443,0.1922222222222222,0.3333333333333333
0.42705882352941177,0.47058823529411764,-1.006470588235294,0.25470588235294117,0.3164705882352941,0.2911764705882353
0.57,0.5499999999999999,-0.5225,0.16083333333333336,0.33916666666666667,0.19833333333333333
0.63,0.37166666666666665,-0.235,0.08833333333333333,0.1975,0.09083333333333334
0.3375000000000001,0.09749999999999999,0.305,0.025833333333333333,0.06416666666666666,0.018333333333333333
0.08545454545454546,-0.04272727272727273,0.7418181818181818,0.015454545454545455,0.028181818181818183,0.035454545454545454
0.3885714285714285,-0.31,1.0178571428571428,0.018571428571428572,-0.028571428571428574,0.06285714285714286
0.9964285714285716,-0.27142857142857146,0.91,-0.009285714285714286,-0.09642857142857143,0.0007142857142857149
1.2372727272727273,0.2318181818181818,0.9063636363636364,-0.03636363636363637,-0.16636363636363638,-0.1318181818181818
1.0935714285714286,0.34714285714285714,0.8335714285714285,-0.05142857142857143,-0.25785714285714284,-0.2564285714285714
0.6963636363636364,0.14272727272727273,0.8463636363636364,-0.08272727272727273,-0.3654545454545454,-0.3009090909090909
0.3221428571428571,-0.09142857142857143,0.9514285714285714,-0.07785714285714286,-0.4642857142857143,-0.27285714285714285
0.049090909090909095,-0.12000000000000001,1.16,-0.05999999999999999,-0.5245454545454545,-0.2090909090909091
0.31923076923076926,0.22307692307692306,1.2038461538461538,-0.08076923076923077,-0.5392307692307692,-0.20153846153846156
0.545,0.8925,0.9333333333333332,-0.12166666666666666,-0.5616666666666666,-0.19999999999999998
0.8335714285714285,1.3914285714285715,0.44642857142857145,-0.010714285714285713,-0.42428571428571427,-0.19642857142857142
1.0181818181818183,2.5318181818181817,-0.46636363636363637,0.1272727272727273,-0.32363636363636367,-0.20636363636363636
0.5292857142857142,3.7685714285714282,-0.7435714285714285,0.09571428571428572,-0.23571428571428574,-0.13285714285714287
-0.5063636363636363,4.782727272727272,-0.7281818181818182,0.021818181818181816,-0.14727272727272728,0.017272727272727273
-0.545,4.456,-0.86,0.038,-0.007000000000000001,0.154
0.855,2.7225,-1.7831249999999998,0.025625000000000002,-0.0075000000000000015,0.17
1.49,1.2676923076923077,-2.2315384615384617,-0.08538461538461539,-0.16461538461538464,0.062307692307692314
1.0063636363636361,0.21636363636363634,-1.982727272727273,-0.18727272727272729,-0.2872727272727273,-0.11454545454545455
0.008461538461538461,-0.2723076923076923,-1.566923076923077,-0.15,-0.31153846153846154,-0.24076923076923076
-1.2963636363636364,-0.20363636363636364,-1.1081818181818184,-0.011818181818181818,-0.24636363636363637,-0.27181818181818185
-1.532857142857143,0.26999999999999996,-1.2192857142857143,0.07428571428571429,-0.11571428571428573,-0.21642857142857141
-0.7825000000000001,0.5925,-1.6049999999999998,-0.0025000000000000005,-0.08916666666666667,-0.18333333333333335
-0.06538461538461539,0.5692307692307692,-1.5992307692307692,-0.19538461538461538,-0.02230769230769231,-0.2469230769230769
1.1175,0.24,-1.0325,-0.40166666666666667,0.065,-0.4191666666666667
1.6,-0.14100000000000001,-0.5700000000000001,-0.483,0.10300000000000001,-0.597
0.860625,-1.030625,0.19,-0.39,0.121875,-0.776875
-0.3515384615384616,-1.8192307692307692,0.27692307692307694,-0.18076923076923077,0.21461538461538462,-0.7899999999999999
-1.2736363636363637,-2.6809090909090907,-0.046363636363636364,-0.03090909090909091,0.29090909090909095,-0.7036363636363636
-1.477142857142857,-3.0335714285714284,-0.37714285714285717,0.037142857142857144,0.31857142857142856,-0.5814285714285715
-1.332,-3.213,-0.588,0.078,0.284,-0.45899999999999996
-0.9653333333333333,-3.2419999999999995,-0.6686666666666667,0.13333333333333333,0.21600000000000003,-0.384
-0.6963636363636364,-2.8227272727272728,-0.6418181818181817,0.21,0.16090909090909092,-0.3372727272727273
-0.4714285714285714,-2.48,-0.6228571428571428,0.2192857142857143,0.13428571428571429,-0.32357142857142857
-0.21363636363636365,-1.93,-0.6327272727272727,0.1981818181818182,0.08272727272727273,-0.35000000000000003
-0.263,-1.6420000000000001,-0.6359999999999999,0.188,0.033,-0.383
-0.6359999999999999,-1.1693333333333333,-0.8486666666666667,0.14933333333333335,0.04533333333333334,-0.35866666666666663
-0.6799999999999999,-0.9571428571428572,-0.9457142857142857,0.05642857142857143,0.08142857142857143,-0.2571428571428572
-0.5309090909090909,-0.8027272727272727,-0.7509090909090909,-0.02090909090909091,0.07545454545454545,-0.16727272727272727
-0.47000000000000003,-0.6778571428571428,-0.42714285714285716,-0.07785714285714286,0.09,-0.09142857142857143
-0.27636363636363637,-0.7281818181818182,0.10727272727272728,-0.11545454545454546,0.1290909090909091,-0.06363636363636363
-0.08,-0.7990909090909092,0.23454545454545456,-0.1409090909090909,0.14909090909090908,-0.10545454545454545
-0.11499999999999999,-0.48928571428571427,0.4114285714285714,-0.23642857142857143,0.1335714285714286,-0.13714285714285715
-0.41000000000000003,-0.3578571428571428,0.5364285714285714,-0.3057142857142857,0.16857142857142857,-0.06571428571428571
-0.67,-0.73,0.88,-0.19545454545454544,0.20909090909090908,0.05818181818181818
-0.6235714285714286,-0.8078571428571429,1.1264285714285713,-0.06928571428571428,0.2557142857142857,0.11071428571428572
-0.4354545454545455,-0.32636363636363636,1.201818181818182,0.05454545454545454,0.34727272727272723,0.11454545454545455
-0.44999999999999996,0.019230769230769232,1.0392307692307694,0.14692307692307693,0.3861538461538462,0.13
-0.6925,0.385,0.9525,0.18833333333333332,0.3658333333333333,0.1625
-0.9299999999999999,0.5738461538461539,1.136923076923077,0.20153846153846156,0.36,0.20615384615384616
-0.86,1.024,1.444,0.244,0.367,0.24299999999999997
-0.425625,1.7193749999999999,1.424375,0.354375,0.29625,0.226875
-0.09454545454545454,2.87,0.6827272727272727,0.4636363636363636,0.10545454545454547,0.11454545454545455
-0.29384615384615387,3.8607692307692307,-0.25230769230769234,0.3976923076923077,-0.03538461538461539,0.022307692307692306
-0.7566666666666667,4.63,-1.1066666666666667,0.19166666666666665,-0.09083333333333334,-0.018333333333333333
-0.85,4.648,-1.258,0.097,-0.05,0.013000000000000001
-0.4486666666666667,3.3313333333333333,-1.0726666666666667,0.12133333333333333,-0.09266666666666667,-0.048
-0.8515384615384616,1.9553846153846155,-1.52,0.008461538461538461,-0.08153846153846155,-0.12923076923076923
-1.6491666666666667,0.9233333333333333,-2.1391666666666667,-0.1325,0.03166666666666667,0.0825
-0.6876923076923076,0.28923076923076924,-2.163846153846154,-0.17384615384615382,0.09692307692307692,0.3384615384615385
0.9179999999999999,-0.186,-1.9899999999999998,-0.10600000000000001,0.025,0.43600000000000005
1.3033333333333335,-0.054,-2.0113333333333334,-0.05533333333333334,-0.04466666666666667,0.4233333333333333
1.0050000000000001,0.32083333333333336,-2.4041666666666663,-0.1325,-0.04,0.3958333333333333
0.7828571428571429,0.42857142857142855,-2.367857142857143,-0.255,-0.062142857142857146,0.3942857142857143
0.5872727272727273,0.21,-1.4272727272727272,-0.2863636363636364,-0.11363636363636363,0.37999999999999995
0.40099999999999997,-0.156,-0.701,-0.20600000000000002,-0.181,0.372
-0.012666666666666666,-0.67,-0.2,0.0006666666666666682,-0.19733333333333333,0.4406666666666667
-0.12692307692307694,-0.9138461538461538,-0.5207692307692308,0.14461538461538462,-0.22846153846153847,0.5338461538461539
0.125,-1.33,-1.1224999999999998,0.14333333333333334,-0.165,0.5491666666666667
0.6038461538461538,-1.856923076923077,-1.1092307692307692,0.12000000000000001,-0.19230769230769232,0.49615384615384617
1.0391666666666668,-2.6083333333333334,-0.7883333333333334,0.2058333333333333,-0.20666666666666667,0.4908333333333333
1.2538461538461538,-2.796923076923077,-0.7323076923076923,0.28153846153846157,-0.22230769230769232,0.4938461538461538
1.3825,-2.645,-0.8675,0.2733333333333334,-0.1708333333333333,0.45083333333333336
1.05,-2.4615384615384617,-0.6707692307692308,0.21230769230769228,-0.1376923076923077,0.3915384615384615
0.09250000000000001,-2.2600000000000002,-0.1575,0.18833333333333332,-0.1225,0.385
-0.348,-2.2640000000000002,0.154,0.192,-0.10700000000000001,0.392
-0.1993333333333333,-2.369333333333333,0.42266666666666663,0.26333333333333336,-0.094,0.3926666666666667
0.33076923076923076,-2.4184615384615387,0.6053846153846154,0.38,-0.12615384615384617,0.3392307692307692
0.7225,-1.75,0.555,0.4008333333333334,-0.16666666666666666,0.3033333333333333
0.6761538461538461,-1.2230769230769232,0.4338461538461539,0.34307692307692306,-0.21384615384615382,0.30076923076923073
0.639,-0.714,0.121,0.20299999999999999,-0.29700000000000004,0.274
0.5691666666666667,-0.014999999999999993,0.0325,-0.021666666666666667,-0.3758333333333333,0.2125
0.5293333333333333,0.4626666666666666,0.33866666666666667,-0.336,-0.47533333333333333,0.13466666666666666
0.5761538461538461,0.34615384615384615,0.84,-0.5484615384615384,-0.643076923076923,0.026923076923076925
0.23916666666666667,-0.0325,1.5225,-0.6166666666666667,-0.7691666666666667,-0.035833333333333335
-0.37,-0.20099999999999998,1.94,-0.5740000000000001,-0.857,-0.01
-0.26266666666666666,-0.30333333333333334,2.0933333333333333,-0.44933333333333336,-0.9146666666666667,0.020666666666666667
0.4338461538461538,-0.14153846153846156,1.8030769230769232,-0.21769230769230768,-0.8184615384615385,0.006923076923076922
2.0100000000000002,0.8324999999999999,-0.375,0.17500000000000002,-0.5658333333333333,-0.15166666666666667
2.396,2.614,-1.484,0.144,-0.6799999999999999,-0.284
0.9207692307692308,4.893846153846154,-1.0161538461538462,0.013076923076923076,-0.583076923076923,-0.43615384615384617
-1.3946666666666667,4.105333333333333,0.08600000000000001,0.14800000000000002,-0.3413333333333333,-0.17
-0.7374999999999999,1.9375,-1.0374999999999999,0.2791666666666667,-0.24333333333333332,-0.04583333333333334
0.07692307692307693,0.6330769230769231,-2.266153846153846,0.19,-0.3415384615384615,-0.09923076923076923
0.17083333333333336,0.4041666666666666,-2.6300000000000003,0.03,-0.36000000000000004,-0.08583333333333333
0.008461538461538456,0.806923076923077,-2.1592307692307693,-0.038461538461538464,-0.36615384615384616,-0.09692307692307692
-0.5499999999999999,1.3675,-1.7525000000000002,-0.08416666666666667,-0.3333333333333333,-0.1125
-0.7923076923076923,1.4792307692307693,-1.7315384615384615,-0.18076923076923077,-0.2253846153846154,-0.14692307692307693
-0.8783333333333334,1.1208333333333333,-1.5133333333333334,-0.26416666666666666,-0.12333333333333334,-0.17333333333333334
-0.6223076923076923,0.6076923076923078,-1.3176923076923077,-0.2730769230769231,-0.047692307692307694,-0.18307692307692308
-0.0575,0.0525,-1.05,-0.3308333333333333,0.015,-0.20666666666666667
0.3823076923076923,-0.18,-0.8538461538461538,-0.44692307692307687,0.12307692307692308,-0.2576923076923077
0.64,-0.5941666666666666,-0.21583333333333332,-0.4766666666666666,0.21833333333333335,-0.3675
0.19153846153846155,-0.8123076923076924,0.2576923076923077,-0.4169230769230769,0.25461538461538463,-0.4476923076923077
-0.8375,-1.1175,0.6325000000000001,-0.33249999999999996,0.31916666666666665,-0.45083333333333336
-1.2207692307692308,-1.5084615384615385,0.3992307692307693,-0.26,0.3053846153846154,-0.40692307692307694
-1.468181818181818,-1.970909090909091,-0.12090909090909091,-0.2381818181818182,0.25545454545454543,-0.35000000000000003
-1.2146666666666666,-2.4546666666666668,-0.46066666666666667,-0.2546666666666667,0.246,-0.2966666666666667
-0.6272727272727273,-3.12,-0.46181818181818185,-0.22454545454545452,0.2009090909090909,-0.24727272727272726
-0.17384615384615382,-3.2576923076923077,-0.2976923076923077,-0.1776923076923077,0.19538461538461538,-0.27076923076923076
0.28,-3.0541666666666667,-0.07416666666666667,-0.11,0.2125,-0.32583333333333336
0.21846153846153846,-2.8030769230769232,-0.008461538461538461,-0.05461538461538462,0.19692307692307692,-0.31230769230769234
0.09249999999999999,-2.5716666666666668,-0.020833333333333332,-0.043333333333333335,0.20583333333333334,-0.2316666666666667
-0.06461538461538462,-2.4323076923076923,0.07538461538461538,-0.06615384615384616,0.1623076923076923,-0.16461538461538464
-1.0066666666666666,-2.0516666666666667,0.48750000000000004,-0.02916666666666667,0.1125,-0.08416666666666667
-1.72,-1.4392307692307693,0.6807692307692308,0.06615384615384615,0.08769230769230768,0.023846153846153847
-1.8275,-0.65,0.705,0.18833333333333335,0.07666666666666667,0.11333333333333334
-1.636,-0.42000000000000004,0.682,0.266,0.044,0.14200000000000002
-0.9324999999999999,0.0895,0.6885,0.296,0.02,0.1355
-0.19923076923076927,0.7115384615384616,0.6553846153846153,0.19615384615384615,0.08,0.12461538461538463
0.2275,0.89,0.96,0.11416666666666668,0.12416666666666666,0.10666666666666667
0.4707692307692308,0.7438461538461538,1.1984615384615385,0.12615384615384617,0.16384615384615384,0.09384615384615384
0.5850000000000001,0.0725,1.1175,0.135,0.20833333333333334,0.049166666666666664
0.20846153846153845,-0.3153846153846154,1.133846153846154,0.08692307692307691,0.27153846153846156,-0.0023076923076923075
-0.3963636363636364,-0.42363636363636364,1.289090909090909,0.14636363636363636,0.3563636363636364,-0.028181818181818183
-0.6428571428571429,-0.22357142857142856,1.2249999999999999,0.2557142857142857,0.4442857142857143,-0.02642857142857143
-0.5575,0.2625,0.9325000000000001,0.28583333333333333,0.5333333333333333,0.0008333333333333334
-0.2876923076923077,0.6230769230769231,0.7630769230769231,0.24461538461538462,0.5784615384615385,0.017692307692307695
-0.0375,0.9824999999999999,0.645,0.1475,0.585,0.0008333333333333334
0.05153846153846153,0.9453846153846153,0.8115384615384615,-0.036153846153846154,0.6315384615384616,-0.007692307692307693
0.2733333333333334,0.6974999999999999,1.5233333333333334,-0.18916666666666668,0.6766666666666666,-0.04666666666666667
0.33692307692307694,0.5692307692307692,1.9138461538461538,-0.18384615384615385,0.6546153846153846,-0.12307692307692308
-0.018333333333333333,1.0666666666666667,1.3591666666666666,-0.0375,0.5658333333333333,-0.23833333333333337
-0.47928571428571426,2.1514285714285717,0.11857142857142858,0.07142857142857142,0.3557142857142857,-0.41000000000000003
-1.8445454545454545,3.5063636363636363,-1.6500000000000001,0.07909090909090909,0.07181818181818182,-0.5527272727272727
-2.24,3.61,-2.6315384615384616,-0.04461538461538462,-0.09076923076923077,-0.6176923076923077
-1.7699999999999998,2.315,-3.3699999999999997,-0.18833333333333335,-0.15083333333333335,-0.5825
-0.9861538461538462,0.6830769230769231,-3.2930769230769235,-0.23615384615384613,-0.13076923076923078,-0.3984615384615384
-0.25666666666666665,-1.4833333333333334,-3.356666666666667,-0.27416666666666667,0.0,-0.15666666666666668
0.30692307692307697,-2.232307692307692,-3.2115384615384617,-0.34153846153846157,0.2053846153846154,0.13384615384615384
1.3616666666666666,-1.8525,-2.5275,-0.3633333333333333,0.3416666666666666,0.4091666666666667
1.7146153846153847,-1.013076923076923,-2.164615384615385,-0.3107692307692308,0.3392307692307692,0.6092307692307692
1.845,0.23,-1.8150000000000002,-0.21333333333333335,0.29,0.6541666666666667
1.666923076923077,0.6761538461538461,-1.5415384615384615,-0.09769230769230769,0.19230769230769232,0.5053846153846154
0.5608333333333333,0.6341666666666667,-1.24,0.02,0.06333333333333334,0.3416666666666666
-0.28923076923076924,0.32923076923076927,-1.3946153846153846,0.06384615384615386,-0.03923076923076923,0.2969230769230769
-0.48,-0.5375,-1.8675,-0.011666666666666667,-0.1375,0.3433333333333333
-0.2646153846153846,-0.9469230769230769,-1.926153846153846,-0.09538461538461539,-0.23692307692307693,0.4169230769230769
-0.004166666666666668,-1.2658333333333334,-1.6475,-0.12916666666666668,-0.2833333333333333,0.5166666666666667
0.19615384615384618,-1.2815384615384615,-1.2976923076923077,-0.11923076923076924,-0.32230769230769235,0.6184615384615384
0.355,-1.0125,-0.9275000000000001,-0.07583333333333334,-0.33749999999999997,0.68
0.37538461538461537,-0.823076923076923,-0.856923076923077,-0.016923076923076923,-0.4015384615384615,0.6707692307692308
0.3125,-0.7324999999999999,-1.155,0.03416666666666667,-0.42416666666666664,0.5941666666666666
0.5215384615384615,-0.7107692307692308,-1.3023076923076924,-0.008461538461538463,-0.31461538461538463,0.4969230769230769
0.8883333333333333,-0.6458333333333334,-1.2133333333333334,-0.12833333333333333,-0.245,0.42083333333333334
1.0799999999999998,-0.4,-0.9638461538461539,-0.15923076923076926,-0.22384615384615386,0.3576923076923077
1.1758333333333333,-0.15416666666666667,-0.4466666666666667,-0.09749999999999999,-0.1825,0.31916666666666665
1.1107692307692307,-0.12615384615384617,-0.2946153846153846,-0.06153846153846154,-0.13538461538461538,0.2623076923076923
0.8575,-0.155,-0.3875,-0.07333333333333333,-0.11916666666666666,0.17500000000000002
0.47538461538461535,-0.29692307692307696,-0.45307692307692304,-0.10307692307692308,-0.15615384615384617,0.07538461538461538
-0.17500000000000002,-0.465,-0.34500000000000003,-0.14416666666666667,-0.21916666666666665,0.034999999999999996
-0.4776923076923077,-0.42461538461538456,-0.18384615384615385,-0.1630769230769231,-0.2692307692307692,0.04923076923076923
-0.4975,-0.3275,0.1025,-0.16083333333333336,-0.27916666666666673,0.06
-0.40076923076923077,-0.3446153846153846,0.24923076923076926,-0.13846153846153847,-0.27153846153846156,0.06846153846153846
-0.19833333333333336,-0.42333333333333334,0.25166666666666665,-0.1525,-0.2866666666666667,0.10583333333333333
0.08076923076923076,-0.5107692307692309,0.15,-0.1853846153846154,-0.32,0.13384615384615386
0.3625,-0.5975,-0.125,-0.1758333333333333,-0.3358333333333334,0.12083333333333333
0.20076923076923076,-0.41384615384615386,-0.19230769230769232,-0.18307692307692308,-0.3323076923076923,0.11692307692307692
-0.030833333333333334,0.08916666666666667,0.07666666666666667,-0.22083333333333333,-0.33666666666666667,0.145
0.047692307692307694,0.28846153846153844,0.2053846153846154,-0.24923076923076926,-0.35769230769230764,0.15153846153846154
0.4083333333333334,0.03166666666666666,0.5366666666666666,-0.18666666666666668,-0.37166666666666665,0.1125
0.6138461538461539,-0.20692307692307693,0.7746153846153846,-0.07153846153846154,-0.3823076923076923,0.060000000000000005
1.0899999999999999,-0.7399999999999999,0.9049999999999999,0.05333333333333334,-0.39916666666666667,-0.025000000000000005
1.2246153846153847,-0.9192307692307692,1.0046153846153845,0.18307692307692308,-0.44,-0.09307692307692307
0.9500000000000001,-0.5700000000000001,1.265,0.2891666666666667,-0.46249999999999997,-0.09583333333333333
0.713076923076923,-0.10692307692307691,1.43,0.3723076923076923,-0.5292307692307693,-0.08461538461538462
0.15,0.6725,1.6075,0.44416666666666665,-0.5666666666666667,-0.05833333333333334
-0.2976923076923077,0.9930769230769231,1.676923076923077,0.49615384615384617,-0.5338461538461539,0.0007692307692307699
-0.8125,1.3949999999999998,1.5175,0.54,-0.4875,0.11666666666666665
-1.0707692307692307,1.74,1.3299999999999998,0.56,-0.4792307692307692,0.2276923076923077
-2.2933333333333334,2.2433333333333336,1.1466666666666667,0.6908333333333333,-0.5,0.4675
-2.5561538461538458,2.229230769230769,0.7646153846153846,1.0238461538461539,-0.37,0.7838461538461539
-0.26999999999999996,1.27,-1.3125,1.2416666666666667,-0.15416666666666667,0.7316666666666666
1.7507692307692306,0.7330769230769231,-3.5623076923076926,1.0307692307692309,0.05384615384615384,0.26615384615384613
3.6725,0.8825,-5.4075,0.51,0.2625,-0.3458333333333334
3.4046153846153846,1.7915384615384615,-4.353076923076923,0.11307692307692307,0.30692307692307697,-0.663076923076923
2.0425,2.4,-2.5500000000000003,-0.04416666666666667,0.3275,-0.705
1.4061538461538463,1.9538461538461538,-2.277692307692308,-0.13307692307692306,0.3284615384615384,-0.7176923076923077
0.1441666666666667,0.5383333333333333,-2.45,-0.21833333333333335,0.35833333333333334,-0.7600000000000001
-0.8469230769230769,-0.5,-2.356923076923077,-0.3215384615384615,0.4123076923076923,-0.8138461538461539
-2.0,-1.1808333333333334,-1.68,-0.32666666666666666,0.4375,-0.7975
-2.5592307692307696,-1.0684615384615386,-1.2369230769230768,-0.17153846153846153,0.4269230769230769,-0.6615384615384615
-2.725,-0.3825,-1.0308333333333335,0.008333333333333333,0.35916666666666663,-0.545
-2.5546153846153845,0.24846153846153846,-0.9869230769230769,0.1546153846153846,0.2746153846153846,-0.44999999999999996
-1.9566666666666668,0.9216666666666667,-1.2966666666666666,0.16333333333333333,0.2041666666666667,-0.37083333333333335
-1.276923076923077,0.9376923076923078,-1.3815384615384616,0.10923076923076923,0.17307692307692307,-0.3392307692307692
-0.32666666666666666,0.31444444444444447,-1.31,0.05333333333333333,0.18,-0.3466666666666667
0.20375,-0.3825,-1.0887499999999999,-0.015625,0.14,-0.393125
0.29083333333333333,-1.4174999999999998,-0.4725,-0.0775,0.1175,-0.40166666666666667
0.24846153846153846,-1.9415384615384617,-0.14615384615384613,-0.09076923076923078,0.13846153846153847,-0.43
-0.19249999999999998,-2.6325,0.14,-0.023333333333333334,0.12083333333333333,-0.4725
-0.78,-2.9723076923076923,0.2692307692307692,0.07076923076923078,0.07615384615384616,-0.4476923076923077
-1.3575,-2.9275,0.04833333333333333,0.1175,0.024166666666666666,-0.39749999999999996
-1.3946153846153846,-2.5007692307692313,-0.1,0.12692307692307692,-0.025384615384615387,-0.3284615384615384
-1.3325,-1.9891666666666667,-0.40833333333333327,0.09416666666666666,-0.050833333333333335,-0.2608333333333333
-1.043076923076923,-1.6653846153846155,-0.7776923076923077,0.004615384615384615,-0.07538461538461538,-0.18769230769230769
-0.4785714285714286,-1.3257142857142858,-1.53,-0.15714285714285717,-0.11285714285714286,-0.14285714285714285
-0.3705555555555555,-1.5155555555555555,-1.6755555555555555,-0.4088888888888889,-0.08666666666666667,-0.09166666666666666
-0.22166666666666668,-2.04,0.2866666666666667,-0.5075,-0.001666666666666667,-0.08083333333333333
-0.09083333333333334,-2.0541666666666667,1.5424999999999998,-0.33666666666666667,0.13583333333333333,-0.08416666666666667
0.09538461538461539,-1.6376923076923076,2.079230769230769,-0.10307692307692308,0.25538461538461543,-0.06769230769230769
0.026363636363636363,-1.29,1.6363636363636365,0.035454545454545454,0.3281818181818182,-0.06272727272727273
-0.3242857142857143,-0.3464285714285714,0.5207142857142857,0.012142857142857144,0.45785714285714285,-0.038571428571428576
-0.4715384615384615,0.2646153846153846,0.2553846153846154,-0.04461538461538462,0.6,-0.0007692307692307692
-0.38833333333333336,0.6466666666666666,0.49583333333333335,-0.05333333333333334,0.6616666666666667,0.022500000000000003
-0.33,0.8661538461538462,0.6961538461538462,-0.05538461538461538,0.7353846153846154,0.022307692307692306
-0.5191666666666667,1.4733333333333334,1.055,0.014166666666666666,0.7083333333333334,-0.011666666666666667
-0.8684615384615384,2.016923076923077,0.9346153846153846,0.1623076923076923,0.5623076923076923,-0.07461538461538461
-1.1627272727272728,3.119090909090909,0.3490909090909091,0.20272727272727273,0.44909090909090915,-0.13727272727272727
-1.305,4.1692857142857145,-0.13857142857142857,0.05,0.3464285714285714,-0.15857142857142859
-1.2541666666666667,4.601666666666667,-1.1516666666666666,-0.09749999999999999,0.31916666666666665,-0.08750000000000001
-1.1845454545454546,3.983636363636364,-1.6909090909090911,-0.11363636363636363,0.2727272727272727,-0.015454545454545453
-1.4964285714285714,2.7514285714285713,-2.2264285714285714,-0.20857142857142857,0.335,-0.03214285714285715
-1.6884615384615385,1.9746153846153844,-2.223076923076923,-0.3576923076923077,0.4169230769230769,0.13153846153846155
0.11166666666666669,0.44416666666666665,-2.033333333333333,-0.41083333333333333,0.3625,0.27166666666666667
1.1125,-0.2041666666666667,-2.0275,-0.37666666666666665,0.28750000000000003,0.30666666666666664
1.386153846153846,-0.2423076923076923,-2.0330769230769232,-0.2792307692307692,0.12769230769230772,0.2946153846153846
0.8192307692307692,0.12923076923076923,-2.332307692307692,-0.22615384615384615,-0.019230769230769232,0.2684615384615385
-0.07272727272727274,0.38727272727272727,-2.591818181818182,-0.2981818181818182,-0.10272727272727272,0.25181818181818183
-0.6507142857142857,0.20142857142857143,-2.1814285714285715,-0.3892857142857143,-0.15928571428571428,0.26571428571428574
-1.038181818181818,-0.45909090909090905,-1.3690909090909091,-0.42818181818181816,-0.22272727272727275,0.3527272727272727
-0.8658333333333333,-1.0133333333333334,-1.0091666666666668,-0.3825,-0.2141666666666667,0.4683333333333333
0.21857142857142856,-2.032857142857143,-0.7935714285714285,-0.27999999999999997,-0.185,0.5414285714285715
0.943846153846154,-2.613846153846154,-0.7246153846153847,-0.1769230769230769,-0.1676923076923077,0.5384615384615384
1.3966666666666667,-2.9408333333333334,-0.605,-0.10083333333333333,-0.12916666666666668,0.5016666666666666
1.4254545454545455,-2.87,-0.5063636363636363,-0.015454545454545453,-0.035454545454545454,0.4518181818181818
0.9914285714285713,-2.5650000000000004,-0.7057142857142857,0.07071428571428572,0.04,0.40785714285714286
0.6315384615384615,-2.3630769230769233,-1.253076923076923,0.08076923076923077,0.1,0.3807692307692308
0.49,-2.11,-1.4525,0.01,0.12416666666666666,0.36000000000000004
0.29583333333333334,-1.9175000000000002,-1.2874999999999999,-0.0575,0.12083333333333333,0.3441666666666667
0.016923076923076923,-1.6223076923076922,-0.5530769230769231,-0.024615384615384615,0.1053846153846154,0.29
-0.1853846153846154,-1.4784615384615383,0.05153846153846154,0.11615384615384615,0.07230769230769231,0.25230769230769234
-0.28583333333333333,-1.2075,0.42250000000000004,0.20083333333333334,0.004166666666666667,0.2275
0.007500000000000001,-1.3258333333333334,0.4466666666666667,0.2675,-0.065,0.1775
0.3607692307692308,-1.3484615384615384,0.19769230769230767,0.3046153846153846,-0.08923076923076924,0.13846153846153847
0.43615384615384617,-0.9723076923076922,-0.1,0.23692307692307693,-0.14,0.1053846153846154
0.4091666666666667,-0.29083333333333333,-0.41583333333333333,0.09166666666666667,-0.18416666666666667,0.075
0.32538461538461544,0.30692307692307697,-0.34307692307692306,-0.08307692307692308,-0.22153846153846152,0.05538461538461538
0.44909090909090904,0.45454545454545453,0.03272727272727274,-0.16818181818181818,-0.2636363636363636,0.00909090909090909
0.48,0.1825,0.37166666666666665,-0.18083333333333332,-0.31083333333333335,-0.050833333333333335
0.23714285714285713,-0.3742857142857143,0.9142857142857144,-0.12285714285714286,-0.37,-0.08785714285714286
0.09545454545454546,-0.6854545454545454,1.0436363636363637,-0.05909090909090909,-0.41727272727272724,-0.11181818181818182
-0.029285714285714286,-0.5778571428571428,1.0678571428571428,-0.02214285714285714,-0.4342857142857143,-0.13999999999999999
0.20846153846153845,-0.2415384615384615,0.94,-0.005384615384615385,-0.46076923076923076,-0.16692307692307692
0.4791666666666667,0.3575,0.635,-0.022500000000000003,-0.4658333333333333,-0.19499999999999998
0.5525,0.61,0.5958333333333333,-0.034999999999999996,-0.42166666666666663,-0.21916666666666665
0.8484615384615384,0.9146153846153846,0.5423076923076923,0.04692307692307692,-0.28153846153846157,-0.25461538461538463
1.0246153846153847,1.3946153846153846,0.21538461538461537,0.19,-0.13307692307692306,-0.2761538461538462
0.8172727272727273,2.5427272727272725,0.06909090909090909,0.2618181818181818,0.03636363636363637,-0.20909090909090908
0.4666666666666666,3.1799999999999997,0.18000000000000002,0.31083333333333335,0.14666666666666667,-0.03166666666666667
-0.27,3.2314285714285718,0.5235714285714286,0.4342857142857143,0.19142857142857145,0.14214285714285715
-0.32076923076923075,2.766153846153846,0.12076923076923074,0.5515384615384616,0.2476923076923077,0.2276923076923077
0.17714285714285713,1.8585714285714285,-2.1157142857142857,0.4857142857142857,0.2057142857142857,0.18857142857142858
0.7733333333333333,1.1372222222222221,-3.5505555555555555,0.17055555555555557,0.07611111111111112,0.059444444444444446
1.075,0.9325000000000001,-3.3175000000000003,-0.1625,-0.0825,-0.15333333333333335
0.46,1.0646153846153845,-2.703076923076923,-0.2276923076923077,-0.17384615384615382,-0.2915384615384615
-0.96,1.315,-2.0108333333333333,-0.1325,-0.16,-0.2658333333333333
-1.4546153846153846,1.366923076923077,-1.9707692307692308,-0.06923076923076923,-0.1176923076923077,-0.1546153846153846
-1.3633333333333333,1.0033333333333332,-2.1966666666666668,-0.15416666666666667,-0.07833333333333334,-0.06916666666666667
-0.7569230769230769,0.5053846153846154,-1.7730769230769228,-0.2946153846153846,-0.038461538461538464,-0.0923076923076923
0.1590909090909091,-0.011818181818181821,-0.9463636363636364,-0.41363636363636364,-0.024545454545454547,-0.24727272727272728
0.48214285714285715,-0.39285714285714285,-0.7078571428571429,-0.48857142857142855,0.020714285714285716,-0.4542857142857143
0.1925,-1.04,-0.22999999999999998,-0.5033333333333333,0.09916666666666667,-0.5891666666666667
-0.08538461538461539,-1.4484615384615387,0.10384615384615385,-0.4538461538461539,0.1776923076923077,-0.6569230769230769
-0.5690909090909091,-2.0209090909090905,0.5109090909090909,-0.3090909090909091,0.21909090909090911,-0.6581818181818182
-0.7641666666666667,-2.5791666666666666,0.7008333333333333,-0.05583333333333334,0.25333333333333335,-0.625
-0.8376923076923077,-3.3492307692307692,0.9146153846153846,0.23615384615384613,0.22076923076923077,-0.5476923076923077
-0.7128571428571429,-3.432142857142857,-0.048571428571428585,0.17214285714285715,0.13785714285714287,-0.475
-0.5945454545454546,-3.041818181818182,-1.7563636363636363,-0.1290909090909091,0.1918181818181818,-0.49090909090909096
-0.5961538461538461,-3.2607692307692306,-1.8807692307692307,-0.18384615384615385,0.15076923076923077,-0.48615384615384616
-0.6108333333333333,-3.0875,-1.1216666666666666,-0.13833333333333334,0.05583333333333334,-0.43083333333333335
-0.6384615384615385,-2.327692307692308,-0.3330769230769231,-0.06384615384615386,0.06769230769230769,-0.35923076923076924
-0.9676923076923077,-1.1776923076923076,0.5192307692307693,0.08538461538461539,0.13,-0.23846153846153847
-1.075,-0.841,0.9540000000000001,0.25,0.128,-0.10200000000000001
-0.9328571428571429,-0.1285714285714286,0.7521428571428571,0.33142857142857146,0.16,-0.007857142857142858
-0.7753846153846153,0.6699999999999999,-0.6176923076923078,0.20384615384615384,0.21615384615384617,0.02923076923076923
-0.6908333333333333,0.9533333333333333,-1.425,0.012499999999999999,0.22416666666666665,0.055
-0.6142857142857142,0.8021428571428572,-0.9228571428571429,-0.10857142857142857,0.1942857142857143,0.06357142857142857
-0.6383333333333333,0.18000000000000002,-0.1366666666666667,-0.17833333333333334,0.21,0.01916666666666667
-0.7174999999999999,-0.5341666666666667,0.44333333333333336,-0.1375,0.24083333333333334,-0.021666666666666667
-0.375,-1.4000000000000001,1.0799999999999998,-0.055,0.32666666666666666,-0.024166666666666666
0.33416666666666667,-1.4683333333333335,1.4483333333333335,0.04416666666666667,0.4083333333333334,-0.06416666666666666
0.10923076923076923,-0.5592307692307693,1.990769230769231,0.1676923076923077,0.4761538461538461,-0.09
-0.6014285714285714,0.40071428571428575,1.8814285714285715,0.28285714285714286,0.5642857142857143,-0.08
-0.8883333333333333,0.6683333333333333,1.0991666666666666,0.26333333333333336,0.6141666666666666,-0.043333333333333335
-1.0507692307692307,0.7038461538461539,0.7815384615384615,0.18615384615384614,0.5676923076923077,0.04692307692307692
-1.2683333333333333,1.0841666666666667,0.28250000000000003,0.16416666666666666,0.44416666666666665,0.14583333333333334
-1.3876923076923076,1.7353846153846155,-0.03692307692307692,0.25153846153846154,0.2561538461538462,0.14384615384615385
-1.2516666666666667,3.651666666666667,-0.26833333333333337,0.22833333333333336,0.09333333333333334,0.05666666666666667
-0.9041666666666667,4.791666666666667,-0.3358333333333334,0.025000000000000005,-0.03333333333333333,-0.06666666666666667
-0.7069230769230769,5.068461538461539,-0.5707692307692308,-0.18923076923076923,-0.1769230769230769,-0.13384615384615384
-0.7263636363636364,4.552727272727273,-0.6218181818181818,-0.2809090909090909,-0.23454545454545456,-0.21636363636363634
-1.9092857142857143,3.2199999999999998,-1.737142857142857,-0.34142857142857147,-0.11285714285714286,-0.18071428571428574
-2.2154545454545453,2.3390909090909093,-2.657272727272727,-0.43636363636363634,0.11181818181818182,0.06727272727272728
-0.1284615384615385,0.8623076923076923,-2.6215384615384614,-0.4876923076923077,0.29923076923076924,0.29846153846153844
1.4830769230769232,-0.18846153846153843,-1.9423076923076923,-0.3346153846153846,0.32,0.38461538461538464
2.045,-0.9216666666666665,-1.3933333333333333,-0.055,0.21916666666666665,0.34
1.399230769230769,-0.8853846153846153,-1.633076923076923,0.1176923076923077,0.09307692307692307,0.29846153846153844
0.24384615384615385,-0.6907692307692308,-2.4499999999999997,0.04230769230769231,-0.08230769230769232,0.2738461538461539
-0.4027272727272727,-0.7427272727272727,-2.38,-0.09,-0.1590909090909091,0.2818181818181818
-0.9866666666666667,-1.366666666666667,-1.4166666666666667,-0.135,-0.26916666666666667,0.3116666666666667
-1.370666666666667,-2.0340000000000003,-0.6226666666666667,-0.07266666666666667,-0.434,0.394
-1.0881818181818181,-2.8363636363636364,0.02727272727272727,0.08727272727272727,-0.4436363636363636,0.5181818181818182
-0.5458333333333333,-3.2116666666666664,0.10416666666666667,0.2225,-0.38083333333333336,0.6075
0.9053846153846153,-3.566153846153846,-0.32384615384615384,0.3,-0.37153846153846154,0.5623076923076923
1.4823076923076923,-3.7830769230769232,-0.7284615384615384,0.29,-0.32769230769230767,0.48230769230769227
1.6466666666666665,-3.796666666666667,-1.0050000000000001,0.26583333333333337,-0.24083333333333334,0.44416666666666665
1.4907142857142859,-3.4285714285714284,-0.8857142857142858,0.26,-0.18642857142857142,0.4692857142857143
1.471818181818182,-2.6163636363636367,-0.7354545454545455,0.2618181818181818,-0.06090909090909091,0.4763636363636364
1.3646153846153846,-2.016923076923077,-0.6653846153846155,0.24384615384615385,0.07076923076923078,0.4538461538461539
0.8815384615384616,-0.9315384615384616,-0.6446153846153847,0.15461538461538463,0.14846153846153848,0.41923076923076924
0.49076923076923074,-0.1992307692307692,-0.4538461538461539,0.08846153846153845,0.1576923076923077,0.3961538461538462
0.2141666666666667,0.18666666666666665,-0.0325,0.09583333333333334,0.13416666666666668,0.33166666666666667
0.09769230769230769,0.16615384615384615,0.34615384615384615,0.20615384615384616,0.1176923076923077,0.21692307692307694
-0.041,0.49800000000000005,0.279,0.258,0.075,0.11000000000000001
-0.2593333333333333,0.9826666666666667,-0.232,0.16733333333333336,-0.048666666666666664,0.07733333333333334
-0.1691666666666667,1.2141666666666666,-0.6758333333333333,0.03333333333333333,-0.20083333333333334,0.11666666666666665
0.13249999999999998,0.8825,-0.5066666666666667,-0.03916666666666667,-0.3033333333333333,0.09000000000000001
0.3772727272727273,0.4636363636363637,-0.049090909090909095,-0.07818181818181819,-0.31272727272727274,0.05454545454545454
0.4841666666666667,0.41,0.3491666666666666,-0.10333333333333333,-0.3125,0.01916666666666667
0.4942857142857143,0.16142857142857142,0.5614285714285714,-0.1542857142857143,-0.34285714285714286,0.002142857142857143
0.5907142857142856,-0.33714285714285713,0.8571428571428571,-0.15071428571428572,-0.35,-0.0064285714285714285
0.7374999999999999,-0.77,1.2875,-0.11416666666666668,-0.36000000000000004,0.010833333333333334
0.8123076923076924,-0.5392307692307692,1.4792307692307693,-0.08769230769230768,-0.3630769230769231,-0.006923076923076922
0.8649999999999999,0.125,1.39,-0.051666666666666666,-0.37833333333333335,-0.07583333333333334
0.8416666666666667,0.5041666666666667,1.2258333333333333,-0.03166666666666667,-0.42083333333333334,-0.145
0.4338461538461538,1.3292307692307692,0.8830769230769231,-0.03230769230769231,-0.4123076923076923,-0.17076923076923078
0.5453846153846154,1.9684615384615385,0.3269230769230769,0.08615384615384616,-0.2907692307692308,-0.23076923076923078
0.5599999999999999,3.3,-0.25,0.183,-0.158,-0.267
0.16166666666666665,4.8133333333333335,-0.3491666666666666,0.09749999999999999,-0.025833333333333333,-0.12666666666666668
-0.2057142857142857,5.758571428571429,-0.37714285714285717,0.05928571428571429,0.04857142857142858,0.03142857142857143
-0.105,4.505,-0.7908333333333334,0.07,0.03416666666666667,0.04666666666666667
0.21538461538461537,1.656923076923077,-1.8476923076923077,0.03153846153846154,-0.04846153846153846,0.0
0.21090909090909093,0.14636363636363636,-2.359090909090909,0.005454545454545454,-0.24363636363636365,-0.09545454545454546
-0.29214285714285715,-0.7242857142857143,-2.345714285714286,0.0064285714285714285,-0.3485714285714286,-0.215
-0.7825000000000001,-0.6891666666666666,-2.091666666666667,0.03833333333333334,-0.3658333333333333,-0.26
-1.7615384615384615,-0.23615384615384613,-1.9846153846153844,0.03230769230769231,-0.27692307692307694,-0.16461538461538464
-1.6476923076923076,0.04,-2.1,0.013846153846153845,-0.14076923076923079,-0.04461538461538462
-0.6559999999999999,-0.25,-2.305,-0.014000000000000002,-0.092,0.001
