accx,accy,accz,gyrox,gyroy,gyroz
-0.45875,-1.91,1.07375,0.2725,0.5537500000000001,-0.3675
-0.778888888888889,-1.545,0.8833333333333333,0.2788888888888889,0.5305555555555556,-0.3166666666666666
-0.5184615384615383,-0.676923076923077,0.9053846153846152,0.2823076923076923,0.4992307692307692,-0.2115384615384615
-0.30181818181818176,-0.2018181818181818,0.8336363636363636,0.3118181818181818,0.4554545454545454,-0.1136363636363636
-0.2578571428571428,-0.0671428571428571,0.5442857142857143,0.3085714285714286,0.4514285714285714,0.0135714285714285
0.046666666666666745,-0.11,0.45,0.285,0.41,0.065
0.3068421052631579,-0.3431578947368421,0.851578947368421,0.2978947368421052,0.3457894736842105,0.0605263157894736
0.14181818181818184,-0.3472727272727273,1.401818181818182,0.3881818181818181,0.3290909090909091,0.05
-0.07923076923076922,0.0669230769230769,1.2923076923076924,0.4507692307692308,0.3784615384615384,0.0738461538461538
0.07333333333333325,0.405,1.0375,0.3883333333333333,0.4516666666666666,0.1083333333333333
0.5392307692307693,0.7276923076923076,1.3976923076923078,0.2553846153846154,0.4615384615384615,0.0861538461538461
0.8308333333333334,0.8608333333333333,2.0500000000000003,0.1583333333333333,0.435,-0.0058333333333333
1.3114285714285714,1.0357142857142858,2.6492857142857145,0.1414285714285714,0.3849999999999999,-0.11
1.2572727272727273,1.2145454545454546,2.5518181818181818,0.3036363636363636,0.2381818181818182,-0.1618181818181818
-0.34785714285714286,2.205714285714285,1.8571428571428568,0.5964285714285714,0.0307142857142857,-0.1928571428571428
-1.1133333333333337,3.773333333333333,1.15,0.5866666666666667,-0.0533333333333333,-0.1633333333333333
-0.911578947368421,7.590000000000001,-0.0505263157894736,0.2747368421052631,-0.0473684210526315,-0.15
-0.6036363636363635,7.96090909090909,-0.8999999999999999,0.0409090909090909,-0.0036363636363636,-0.03
-0.24923076923076937,4.216153846153846,-2.34,-0.14,0.1692307692307692,0.1807692307692307
0.7407692307692308,1.3384615384615384,-2.353846153846154,-0.2284615384615384,0.3592307692307692,0.4692307692307692
2.0185714285714287,-1.012857142857143,-1.52,-0.1357142857142857,0.23,0.6685714285714285
2.382631578947368,-1.3836842105263158,-1.093157894736842,0.1136842105263157,0.0668421052631579,0.7273684210526316
2.0408333333333335,-0.4533333333333333,-0.9425,0.2708333333333333,0.1225,0.6816666666666666
1.9945454545454546,0.359090909090909,-1.209090909090909,0.0681818181818181,0.0781818181818181,0.6109090909090908
2.0464285714285717,1.082857142857143,-1.2635714285714286,-0.22,-0.1421428571428571,0.3921428571428572
1.0572727272727271,0.67,-0.5690909090909091,-0.2718181818181818,-0.2072727272727272,0.29
-0.027857142857142803,-0.5764285714285714,-0.35,-0.2171428571428571,-0.1885714285714285,0.3892857142857143
0.4027272727272727,-1.6163636363636364,-0.4890909090909091,-0.1263636363636363,-0.1636363636363636,0.4890909090909091
1.667857142857143,-3.687857142857143,-0.6064285714285714,-0.06,-0.15,0.5792857142857143
2.826363636363636,-5.074545454545454,-0.3763636363636363,0.16,-0.1636363636363636,0.5645454545454546
3.22,-5.943076923076924,-0.4692307692307692,0.3623076923076923,-0.2469230769230769,0.4469230769230768
2.676153846153846,-5.518461538461538,-0.3615384615384615,0.5346153846153846,-0.2592307692307692,0.2984615384615384
1.1353846153846152,-3.8815384615384616,-0.3915384615384615,0.5407692307692308,-0.2576923076923077,0.2530769230769231
0.5116666666666667,-3.040833333333333,-0.3841666666666667,0.4358333333333333,-0.2558333333333333,0.3016666666666667
0.6907692307692308,-2.011538461538461,-0.2384615384615384,0.3469230769230769,-0.2823076923076923,0.33
1.279090909090909,-1.2736363636363637,0.1627272727272727,0.2536363636363636,-0.26,0.3236363636363636
2.384285714285714,-0.0692857142857142,1.3857142857142857,0.2407142857142857,-0.3014285714285714,0.2757142857142857
2.3990909090909094,0.9663636363636364,2.1936363636363634,0.2781818181818182,-0.3799999999999999,0.2581818181818182
1.9214285714285717,2.535,2.432142857142857,0.255,-0.2878571428571428,0.2642857142857143
1.5745454545454547,2.9845454545454544,2.19,0.0809090909090909,-0.2645454545454546,0.2718181818181818
1.216923076923077,2.761538461538461,2.272307692307692,-0.0292307692307692,-0.3046153846153846,0.1838461538461538
1.6225,2.545,1.3825,0.1175,-0.1608333333333333,0.0474999999999999
3.146428571428572,3.557142857142857,-1.2100000000000002,0.4792857142857142,-0.1192857142857142,-0.1064285714285714
2.330909090909091,5.901818181818182,-2.520909090909091,0.5790909090909091,-0.2018181818181818,-0.1581818181818181
0.6778571428571429,5.43,-3.474285714285714,0.1807142857142857,-0.1307142857142857,-0.0992857142857143
-0.34299999999999997,2.863,-2.516,-0.112,0.06,-0.138
-1.3946666666666667,0.206,-1.6166666666666667,-0.0353333333333333,0.1933333333333333,-0.134
-0.4883333333333333,-0.5058333333333334,-1.4641666666666666,0.0425,0.2175,-0.1475
1.2576923076923077,-0.7,-1.3269230769230769,-0.0538461538461538,0.143076923076923,-0.2553846153846154
1.8863636363636362,-0.4509090909090909,-0.7954545454545454,-0.1918181818181818,0.2027272727272727,-0.4009090909090909
2.149,-0.2,0.237,-0.226,0.277,-0.5309999999999999
1.831875,-0.480625,0.505,-0.115625,0.2956249999999999,-0.699375
0.5223076923076924,-1.6776923076923076,-0.1315384615384615,0.0015384615384615,0.2984615384615384,-0.7238461538461538
-0.24249999999999994,-2.8708333333333336,-0.3816666666666666,0.0483333333333333,0.2916666666666667,-0.6533333333333333
-0.862307692307692,-4.22,-0.6153846153846154,0.0115384615384615,0.2123076923076923,-0.6292307692307693
-1.272727272727273,-4.691818181818181,-0.7427272727272727,-0.0618181818181818,0.1490909090909091,-0.5309090909090909
-1.5064285714285721,-5.016428571428572,-0.7221428571428571,-0.1142857142857143,0.1414285714285714,-0.4221428571428571
-1.2150000000000003,-4.7725,-0.5425,-0.1025,0.0941666666666666,-0.33
-0.5407692307692309,-3.703076923076923,-0.4584615384615385,-0.0938461538461538,0.0538461538461538,-0.2353846153846154
0.08636363636363642,-3.030909090909091,-0.4618181818181818,-0.1127272727272727,-0.0018181818181818,-0.1390909090909091
0.8584615384615385,-2.281538461538461,-0.3469230769230769,-0.1415384615384615,-0.063076923076923,-0.0946153846153846
0.6284615384615385,-2.02,-0.1115384615384615,-0.183076923076923,-0.0846153846153846,-0.0346153846153846
0.050000000000000044,-1.643076923076923,0.6384615384615385,-0.1607692307692307,-0.0269230769230769,0.0115384615384615
-0.016666666666666607,-1.086666666666667,1.4125,-0.0316666666666666,0.0699999999999999,0.0491666666666666
0.10384615384615381,0.4499999999999999,2.3684615384615384,0.1376923076923077,0.1392307692307692,0.0561538461538461
0.09299999999999997,1.956,2.809,0.325,0.19,0.0339999999999999
0.03400000000000003,3.865333333333333,2.6746666666666665,0.3526666666666667,0.1733333333333333,0.0393333333333333
0.33090909090909093,4.96,2.12090909090909,0.1136363636363636,0.1227272727272727,0.09
1.0492857142857142,4.855714285714286,2.165714285714286,-0.0707142857142857,0.0285714285714285,0.0771428571428571
1.1181818181818182,3.91090909090909,2.075454545454545,0.1290909090909091,-0.2254545454545454,-0.0563636363636363
-0.4983333333333333,4.045,0.4291666666666667,0.4258333333333333,-0.36,-0.19
-0.8853333333333333,6.124,-0.9726666666666668,0.3546666666666667,-0.442,-0.2766666666666666
-1.2883333333333336,7.014166666666667,-1.97,0.1175,-0.365,-0.2583333333333333
-0.7663636363636364,5.076363636363636,-2.617272727272727,-0.1909090909090909,-0.1545454545454545,-0.0163636363636363
1.2328571428571429,1.2764285714285717,-2.606428571428572,-0.37,0.1021428571428571,0.2057142857142857
2.23,-0.683,-2.142,-0.312,0.1689999999999999,0.432
2.7640000000000002,-1.488,-2.042,-0.1753333333333333,0.074,0.58
2.5245454545454544,-0.760909090909091,-2.513636363636364,-0.1536363636363636,0.0218181818181818,0.6263636363636363
1.9664285714285714,0.53,-2.876428571428572,-0.2414285714285714,0.1292857142857142,0.6285714285714287
1.875,0.7633333333333333,-2.5191666666666666,-0.3999999999999999,0.065,0.5091666666666667
1.5290909090909093,-0.0263636363636363,-1.1163636363636364,-0.4090909090909091,0.0672727272727272,0.3718181818181818
1.2753846153846153,-0.9053846153846152,-0.0515384615384615,-0.2184615384615384,0.0146153846153846,0.2992307692307692
0.5785714285714286,-2.132857142857143,0.2135714285714285,0.0942857142857142,-0.0499999999999999,0.3742857142857143
0.9645454545454546,-2.8445454545454543,-0.2936363636363636,0.3709090909090909,0.0245454545454545,0.3790909090909091
1.635,-3.597142857142857,-1.042142857142857,0.3228571428571429,0.0178571428571428,0.3271428571428571
1.762,-3.883,-0.8390000000000001,0.199,0.017,0.39
1.564,-3.899333333333333,0.08,0.2493333333333333,0.01,0.4826666666666667
1.405,-3.790000000000001,0.3766666666666666,0.295,0.02,0.4716666666666667
0.8261538461538462,-3.531538461538462,0.5461538461538461,0.2907692307692308,0.0469230769230769,0.443076923076923
0.2245454545454545,-3.3290909090909087,0.579090909090909,0.2190909090909091,0.0863636363636363,0.5381818181818182
0.4191666666666666,-3.158333333333333,0.8275,0.1783333333333333,0.0758333333333333,0.5033333333333333
0.74,-2.7764285714285712,0.9857142857142858,0.1878571428571428,0.0007142857142857,0.3742857142857143
1.5176923076923077,-2.0376923076923075,0.9623076923076924,0.1415384615384615,-0.0838461538461538,0.2330769230769231
1.6099999999999999,-1.252727272727273,0.9336363636363636,0.0263636363636363,-0.1736363636363636,0.1518181818181818
1.5735714285714284,-0.1121428571428571,1.3578571428571429,-0.0699999999999999,-0.275,0.13
1.5736363636363637,0.3927272727272727,1.591818181818182,-0.1609090909090909,-0.3245454545454546,0.0581818181818181
1.083,0.784,1.851,-0.266,-0.344,-0.032
0.5526666666666666,1.056,2.0086666666666666,-0.4093333333333333,-0.4533333333333333,-0.108
0.042857142857142816,1.0378571428571428,2.1535714285714285,-0.3835714285714285,-0.6214285714285713,-0.1692857142857143
0.2527272727272727,0.8072727272727274,1.26,0.0045454545454545,-0.5909090909090909,-0.1927272727272727
1.2378571428571428,2.015,-1.1028571428571428,0.4385714285714285,-0.5314285714285715,-0.2007142857142857
1.0677777777777777,4.561111111111111,-2.02,0.4511111111111111,-0.5166666666666667,0.0266666666666666
1.288125,6.3656250000000005,-1.456875,0.385,-0.375625,0.2875
2.01,4.279090909090909,-1.6672727272727272,0.2745454545454545,-0.1118181818181818,0.2990909090909091
2.5653846153846156,1.1407692307692308,-2.7930769230769235,0.12,-0.0807692307692307,0.173076923076923
2.7609090909090908,0.2190909090909091,-3.1345454545454547,-0.0254545454545454,-0.1836363636363636,-0.0163636363636363
2.5277777777777777,0.2322222222222222,-2.8377777777777777,-0.1466666666666666,-0.1622222222222222,-0.1933333333333333
1.8511764705882352,0.8958823529411765,-2.046470588235294,-0.2429411764705882,-0.0017647058823529,-0.31
1.0735714285714284,1.3007142857142855,-1.1742857142857144,-0.25,0.1071428571428571,-0.3607142857142857
0.5854545454545454,1.0772727272727274,-0.6809090909090909,-0.1845454545454545,0.1245454545454545,-0.3799999999999999
-0.07461538461538475,0.4369230769230769,-0.1253846153846153,-0.143076923076923,0.2146153846153846,-0.3738461538461539
0.05249999999999999,-0.2983333333333333,0.075,-0.1491666666666666,0.2866666666666667,-0.4566666666666667
0.43000000000000005,-1.4935714285714283,0.1164285714285714,-0.175,0.2978571428571429,-0.6064285714285714
0.6699999999999999,-2.5416666666666665,-0.185,-0.2691666666666666,0.2833333333333333,-0.815
-0.030000000000000027,-3.31,0.1225,-0.1483333333333333,0.2783333333333333,-0.7783333333333333
-0.005454545454545601,-3.6454545454545455,-0.0409090909090909,-0.0036363636363636,0.3163636363636363,-0.69
-0.0645454545454549,-3.632727272727273,-0.09,0.1027272727272727,0.3190909090909091,-0.6063636363636363
-0.22666666666666657,-3.5420000000000003,-0.2406666666666666,0.112,0.3493333333333333,-0.444
-0.5035714285714283,-3.24,-0.4078571428571428,0.0757142857142857,0.3028571428571429,-0.2921428571428571
-0.5045454545454546,-2.811818181818182,-0.2481818181818181,0.0218181818181818,0.2372727272727272,-0.2072727272727273
-0.05571428571428583,-2.035,-0.1028571428571428,-0.0364285714285714,0.1999999999999999,-0.2557142857142857
-0.33090909090909104,-1.4036363636363638,-0.3218181818181818,-0.0990909090909091,0.1363636363636363,-0.2045454545454545
-0.2878571428571426,-0.4071428571428571,0.12,-0.0671428571428571,0.0307142857142857,-0.1007142857142857
-0.2472727272727273,0.2936363636363636,0.1981818181818182,-0.069090909090909,0.0336363636363636,-0.0527272727272727
-0.3323076923076924,0.6607692307692308,0.4046153846153846,-0.0515384615384615,0.1,-0.0284615384615384
-0.060833333333333295,0.7341666666666667,0.6108333333333333,-0.0516666666666666,0.14,-0.0108333333333333
0.6328571428571429,0.755,1.0907142857142855,-0.0714285714285714,0.175,-0.0464285714285714
1.2383333333333333,0.49,1.5791666666666666,-0.0958333333333333,0.205,-0.1041666666666666
1.4738461538461538,0.7000000000000001,2.0215384615384617,-0.1384615384615384,0.1930769230769231,-0.1538461538461538
1.1400000000000001,1.130909090909091,2.0636363636363635,-0.1236363636363636,0.1899999999999999,-0.1472727272727272
0.5407142857142858,1.9807142857142856,2.011428571428572,-0.0478571428571428,0.1742857142857143,-0.1042857142857142
0.3225,2.53,1.95,0.0475,0.18,-0.0424999999999999
0.0971428571428572,2.981428571428572,1.0566666666666666,0.3247619047619047,0.0828571428571428,0.0261904761904761
-0.7654545454545454,4.608181818181818,-0.7163636363636364,0.4481818181818182,-0.0363636363636363,0.0654545454545454
-0.5271428571428571,6.636428571428572,-2.130714285714286,0.2128571428571428,-0.1614285714285714,-0.0292857142857142
0.01818181818181841,5.844545454545455,-2.549090909090909,-0.1127272727272727,0.0081818181818181,-0.04
1.444,2.924,-2.9170000000000003,-0.372,0.1699999999999999,0.092
2.8626666666666667,0.2813333333333332,-2.6893333333333334,-0.4413333333333333,0.252,0.2506666666666666
3.7064285714285714,-1.4807142857142856,-2.0507142857142857,-0.2614285714285714,0.0785714285714285,0.3685714285714286
2.788181818181818,-0.6909090909090909,-2.2563636363636363,-0.1172727272727272,0.0209090909090909,0.4609090909090909
1.858,0.758,-2.952,-0.1689999999999999,0.048,0.4509999999999999
1.33375,1.378125,-3.00125,-0.4125,0.06125,0.394375
0.6984615384615385,0.7376923076923076,-1.6176923076923078,-0.5723076923076923,-0.0392307692307692,0.3461538461538461
0.5227272727272727,-0.2827272727272727,-0.69,-0.4318181818181818,-0.1127272727272727,0.3527272727272727
0.5492857142857144,-1.919285714285714,0.1314285714285714,-0.125,-0.2042857142857142,0.4042857142857143
0.3999999999999999,-2.9222222222222225,0.2122222222222222,0.1144444444444444,-0.2488888888888889,0.4955555555555555
0.3966666666666666,-3.51,-0.0999999999999999,0.1966666666666666,-0.2433333333333333,0.5433333333333333
0.8038095238095238,-3.7595238095238095,-0.3238095238095238,0.3047619047619048,-0.2152380952380952,0.5347619047619048
1.3957142857142857,-3.6835714285714287,-0.425,0.3978571428571428,-0.1807142857142857,0.4899999999999999
1.419090909090909,-3.489090909090909,-0.4509090909090909,0.48,-0.1127272727272727,0.5290909090909092
1.7363636363636363,-3.079090909090909,-0.9254545454545454,0.4481818181818182,-0.079090909090909,0.5536363636363637
1.927857142857143,-2.807142857142857,-1.1371428571428572,0.3164285714285714,-0.0628571428571428,0.505
1.6161538461538463,-2.575384615384615,-0.5784615384615385,0.28,-0.0607692307692307,0.4030769230769231
1.1058333333333332,-2.438333333333333,-0.2441666666666666,0.2975,-0.04,0.3433333333333333
0.9335714285714286,-2.185714285714286,-0.0964285714285714,0.3214285714285714,-0.0314285714285714,0.2657142857142857
1.048,-1.846,-0.092,0.318,-0.084,0.18
1.2453333333333334,-1.272,0.0013333333333333,0.252,-0.1513333333333333,0.1073333333333333
1.410909090909091,-0.6236363636363637,0.3463636363636364,0.1472727272727272,-0.2527272727272727,0.05
1.3307142857142857,0.3885714285714286,0.6614285714285714,0.0771428571428571,-0.3385714285714286,0.0064285714285714
1.1754545454545453,0.7036363636363636,0.8218181818181819,0.0336363636363636,-0.3609090909090909,0.0281818181818181
1.2407692307692308,0.2169230769230769,1.1246153846153848,-0.0223076923076923,-0.3746153846153846,0.0646153846153846
1.2558333333333334,-0.2008333333333333,1.5566666666666666,-0.0766666666666666,-0.4508333333333333,0.0499999999999999
1.2784615384615385,-0.0346153846153846,2.129230769230769,-0.0638461538461538,-0.4938461538461538,-0.04
1.2741666666666667,0.3733333333333333,2.370833333333333,0.0241666666666666,-0.5433333333333333,-0.1516666666666666
1.0507142857142857,1.072142857142857,2.295714285714286,0.135,-0.5571428571428572,-0.2192857142857143
1.018181818181818,1.5636363636363635,1.8081818181818183,0.2563636363636364,-0.4890909090909091,-0.239090909090909
1.27375,2.245,0.7675,0.3425,-0.39375,-0.27125
1.5376470588235294,3.713529411764706,-0.2070588235294118,0.3035294117647059,-0.3276470588235294,-0.2458823529411765
1.5207142857142857,5.808571428571429,-0.95,0.1471428571428571,-0.3064285714285714,-0.0349999999999999
1.3518181818181818,4.649090909090909,-1.0936363636363635,0.1290909090909091,-0.3154545454545455,0.07
1.7921428571428573,1.59,-2.7985714285714285,-0.0157142857142857,-0.3414285714285714,0.0699999999999999
2.19,0.346,-3.582,-0.2299999999999999,-0.449,-0.033
2.0642857142857145,0.4928571428571429,-3.3542857142857145,-0.3121428571428571,-0.4092857142857143,-0.1999999999999999
1.5416666666666665,1.1366666666666665,-2.655,-0.2825,-0.3,-0.2858333333333333
0.8392307692307693,1.566153846153846,-1.4615384615384617,-0.24,-0.2669230769230769,-0.243076923076923
0.8158333333333334,1.4283333333333337,-0.99,-0.2883333333333333,-0.19,-0.2391666666666666
1.0184615384615383,0.7746153846153846,-0.6538461538461539,-0.3192307692307692,-0.0546153846153846,-0.3207692307692307
1.3036363636363637,0.1045454545454545,-0.3072727272727272,-0.3,0.0481818181818181,-0.4690909090909091
1.7206666666666668,-0.8206666666666667,-0.08,-0.2533333333333333,0.1333333333333333,-0.628
1.898181818181818,-1.7663636363636364,-0.3345454545454545,-0.2118181818181818,0.2263636363636363,-0.7599999999999999
1.4785714285714286,-2.7235714285714288,-0.5078571428571429,-0.075,0.295,-0.7628571428571428
1.1566666666666665,-2.91,-0.6966666666666667,0.0066666666666666,0.2683333333333333,-0.6966666666666667
0.2853333333333333,-2.87,-0.906,-0.0166666666666666,0.2779999999999999,-0.6506666666666666
-0.5388235294117647,-2.981176470588235,-0.9623529411764704,-0.0729411764705882,0.3370588235294118,-0.5217647058823529
-0.7758333333333332,-3.080833333333333,-1.1408333333333334,-0.0499999999999999,0.2866666666666667,-0.3858333333333333
-0.5241666666666669,-2.7975,-0.9366666666666666,0.01,0.2158333333333333,-0.2733333333333334
0.43692307692307686,-2.455384615384616,-0.8492307692307691,-0.0484615384615384,0.1492307692307692,-0.2561538461538462
0.7630000000000001,-2.241,-0.48,-0.066,0.112,-0.231
0.9966666666666667,-2.2826666666666666,-0.0406666666666666,-0.0066666666666666,0.1326666666666666,-0.2373333333333333
0.8027272727272727,-2.1763636363636363,0.1309090909090909,0.04,0.1918181818181818,-0.1518181818181818
0.6678571428571429,-1.605,0.2657142857142857,0.0778571428571428,0.2228571428571428,-0.0628571428571428
0.5381818181818182,-1.2045454545454546,0.3381818181818181,0.0927272727272727,0.2345454545454545,-0.0299999999999999
0.1776923076923077,-0.6484615384615384,0.3176923076923076,0.0569230769230769,0.2446153846153846,-0.03
0.08307692307692305,-0.4607692307692307,0.3992307692307693,0.03,0.2246153846153846,-0.0269230769230769
0.10999999999999999,-0.3315384615384615,0.5661538461538461,-0.013076923076923,0.2169230769230769,0.0207692307692307
0.1427272727272727,0.0545454545454545,0.8600000000000001,-0.02,0.28,0.1109090909090909
0.4621428571428571,0.6399999999999999,1.6057142857142856,0.0621428571428571,0.3764285714285714,0.1614285714285714
0.9,0.8699999999999999,2.128,0.199,0.4669999999999999,0.1379999999999999
1.478181818181818,1.1963636363636363,2.338181818181818,0.2809090909090909,0.4827272727272726,0.0809090909090909
1.8046666666666666,1.7293333333333334,2.182,0.262,0.426,0.014
1.4714285714285715,3.020714285714285,1.9042857142857144,0.2521428571428571,0.22,-0.0178571428571428
0.6827272727272728,4.066363636363636,1.0754545454545454,0.3654545454545454,-0.0409090909090909,-0.0872727272727272
-0.9607692307692308,6.288461538461538,-0.8361538461538462,0.3830769230769231,-0.1107692307692307,-0.1207692307692307
-1.038333333333333,8.271666666666667,-1.9108333333333327,0.1875,-0.0508333333333333,-0.1708333333333333
0.7878571428571429,7.617857142857143,-2.599285714285714,-0.06,0.105,-0.2464285714285714
1.4427272727272726,4.404545454545454,-2.99,-0.2972727272727273,0.3181818181818182,-0.0745454545454545
2.27,-0.0184615384615385,-2.4507692307692306,-0.3584615384615385,0.3907692307692307,0.1661538461538461
2.25,-1.413333333333333,-2.2066666666666666,-0.2841666666666667,0.2341666666666666,0.3316666666666666
1.005,-1.235,-2.217857142857143,-0.2464285714285714,0.0421428571428571,0.4728571428571428
0.42833333333333334,-0.7741666666666666,-2.1625,-0.3349999999999999,-0.0249999999999999,0.4624999999999999
0.10307692307692307,-0.4738461538461538,-1.4215384615384616,-0.4915384615384616,-0.0776923076923077,0.4146153846153846
0.18818181818181823,-0.7072727272727272,-0.64,-0.5381818181818182,-0.1818181818181818,0.3627272727272727
-0.07299999999999995,-1.532,0.266,-0.415,-0.219,0.421
0.2859999999999999,-2.0773333333333333,0.6093333333333334,-0.1266666666666666,-0.2006666666666666,0.4946666666666666
1.315,-2.5500000000000003,-0.0685714285714285,0.0442857142857142,-0.1592857142857142,0.5207142857142857
1.6927272727272729,-2.8763636363636365,-0.7436363636363637,0.0454545454545454,-0.1181818181818181,0.5409090909090909
2.2676923076923075,-3.41,-0.6699999999999999,0.0892307692307692,-0.0515384615384615,0.5884615384615385
2.3950000000000005,-3.5666666666666664,-0.6875,0.1666666666666666,-0.0075,0.6333333333333333
2.693846153846154,-3.416923076923077,-0.8184615384615385,0.19,0.0323076923076923,0.5123076923076924
2.126923076923077,-2.986923076923077,-0.6884615384615386,0.1169230769230769,0.0761538461538461,0.3738461538461539
0.573076923076923,-2.77,-0.3715384615384615,0.0338461538461538,0.0484615384615384,0.36
-0.10090909090909084,-2.916363636363636,0.25,0.1063636363636363,-0.0063636363636363,0.3709090909090909
-0.008461538461538298,-3.4469230769230768,0.6484615384615384,0.2876923076923077,-0.0169230769230769,0.3776923076923077
0.8308333333333333,-3.270833333333333,0.6383333333333333,0.4066666666666667,-0.0891666666666666,0.3091666666666666
1.6721428571428572,-2.7235714285714288,0.4828571428571428,0.3535714285714286,-0.2378571428571428,0.2114285714285714
1.47,-1.6018181818181818,0.5609090909090909,0.2245454545454545,-0.3190909090909091,0.1609090909090909
1.0707692307692307,0.1307692307692307,0.8053846153846155,0.1223076923076923,-0.3661538461538461,0.1892307692307692
1.5025,0.7508333333333334,1.025,0.1066666666666666,-0.4691666666666667,0.2516666666666666
2.600714285714286,1.0857142857142856,1.906428571428572,0.1157142857142857,-0.6257142857142857,0.2085714285714285
2.167272727272727,1.61,2.719090909090909,0.1009090909090909,-0.7245454545454545,0.1245454545454545
0.9892857142857143,2.6078571428571427,3.585714285714286,0.0742857142857142,-0.7221428571428571,0.0664285714285714
0.2245454545454545,3.0154545454545456,3.8518181818181816,0.14,-0.629090909090909,0.1190909090909091
0.18900000000000006,2.989,3.524,0.3,-0.554,0.2299999999999999
1.3933333333333333,2.834,1.8166666666666669,0.7046666666666667,-0.3153333333333333,0.2753333333333334
3.5900000000000003,4.927142857142857,-1.0035714285714286,0.6964285714285714,-0.2835714285714286,0.31
3.265833333333333,6.43,-0.8675,0.5275,-0.0458333333333333,0.35
2.458333333333333,4.260833333333333,-1.0758333333333334,0.4608333333333334,0.0091666666666666,0.4308333333333333
3.340909090909091,1.5572727272727271,-2.4545454545454546,0.15,0.0472727272727272,0.2327272727272727
4.070769230769231,-1.1769230769230767,-3.95,-0.1892307692307692,-0.0823076923076923,-0.3946153846153846
1.5676923076923077,-1.1615384615384614,-3.6692307692307695,-0.4,-0.0938461538461538,-0.5553846153846155
-0.15384615384615352,0.3630769230769231,-2.693076923076923,-0.4246153846153845,0.0438461538461538,-0.4499999999999999
-0.14666666666666672,1.2916666666666667,-2.3741666666666665,-0.5158333333333334,0.225,-0.3216666666666666
0.15857142857142859,1.5571428571428572,-1.385,-0.6900000000000001,0.4607142857142857,-0.2171428571428571
0.26909090909090916,1.1581818181818182,-0.1590909090909091,-0.7127272727272728,0.5927272727272727,-0.1618181818181818
0.8064285714285715,0.1142857142857143,0.8635714285714285,-0.5307142857142857,0.5664285714285714,-0.1957142857142857
1.1333333333333333,-0.8583333333333334,0.5891666666666667,-0.2799999999999999,0.45,-0.3541666666666667
0.8766666666666667,-2.0016666666666665,0.1483333333333333,-0.1658333333333333,0.3075,-0.5516666666666666
0.26,-2.545,0.275,-0.121,0.162,-0.6950000000000001
-0.7625,-3.05375,0.419375,0.03375,0.0775,-0.786875
-1.3609090909090908,-3.197272727272728,-0.0309090909090909,0.0918181818181818,0.1136363636363636,-0.7245454545454545
-1.052857142857143,-3.4035714285714285,-0.8185714285714285,-0.105,0.0292857142857142,-0.6821428571428572
-0.6145454545454547,-3.4399999999999995,-0.8536363636363636,-0.2654545454545454,-0.0463636363636363,-0.6490909090909092
-0.15500000000000003,-3.87,-0.4559999999999999,-0.268,-0.109,-0.541
0.4813333333333333,-4.491333333333333,-0.0953333333333333,-0.2186666666666666,-0.1626666666666666,-0.4333333333333333
0.24769230769230766,-4.57923076923077,0.6638461538461538,-0.2061538461538461,-0.1076923076923077,-0.23
-0.043333333333333224,-4.090833333333333,0.9875,-0.1966666666666666,-0.0008333333333333,-0.0308333333333333
-0.2853846153846151,-3.026923076923077,1.1253846153846152,-0.1292307692307692,0.0853846153846153,0.143076923076923
-0.39428571428571435,-2.32,1.1257142857142857,-0.1014285714285714,0.1142857142857143,0.2571428571428572
-0.30421052631578926,-1.4336842105263157,1.1910526315789474,-0.1242105263157894,0.1205263157894736,0.2873684210526315
-0.09636363636363643,-0.6618181818181819,1.4463636363636363,-0.0481818181818181,0.0945454545454545,0.2818181818181818
-0.12857142857142856,0.2664285714285714,1.8857142857142857,0.0628571428571428,0.1585714285714285,0.3435714285714285
0.15181818181818185,1.38,2.113636363636364,0.15,0.3263636363636363,0.4236363636363636
1.762,2.261,1.966,0.242,0.4429999999999999,0.331
3.0286666666666666,2.720666666666667,1.7673333333333334,0.3253333333333333,0.436,0.032
3.7046153846153844,3.226153846153846,1.363846153846154,0.2961538461538461,0.3007692307692308,-0.3384615384615385
2.791666666666667,3.018333333333333,1.4525,0.1383333333333333,0.2791666666666667,-0.5599999999999999
0.986923076923077,2.5869230769230773,2.315384615384616,0.0184615384615384,0.3169230769230769,-0.6546153846153846
0.04909090909090896,2.505454545454546,2.744545454545454,0.0918181818181818,0.3018181818181818,-0.6945454545454545
-0.06600000000000006,2.9213333333333336,2.1993333333333336,0.1826666666666666,0.5026666666666667,-0.53
1.0645454545454545,3.473636363636364,1.2827272727272727,0.2127272727272727,0.41,-0.4872727272727273
-0.36384615384615393,4.200769230769231,-2.142307692307692,0.1361538461538461,0.21,-0.55
-2.198333333333333,3.4625,-4.620833333333334,-0.155,0.0683333333333333,-0.3716666666666666
-1.3581818181818184,0.6690909090909091,-5.276363636363636,-0.3809090909090908,-0.0345454545454545,-0.2381818181818182
0.0735714285714284,-1.4192857142857145,-4.295714285714285,-0.3971428571428571,-0.1628571428571428,-0.2442857142857142
1.0471428571428572,-2.4885714285714284,-2.5614285714285714,-0.2371428571428571,-0.1714285714285714,-0.1428571428571428
1.0672727272727272,-1.4036363636363636,-1.9754545454545456,-0.1172727272727272,-0.0054545454545454,0.1990909090909091
1.4938461538461538,0.463076923076923,-1.7192307692307691,-0.1115384615384615,0.1376923076923077,0.6330769230769231
2.0309999999999997,1.025,-1.849,-0.185,0.143,0.893
2.931875,0.596875,-1.71125,-0.2225,0.109375,0.82125
2.2781818181818183,-0.36,-1.070909090909091,-0.0472727272727272,0.1309090909090909,0.6827272727272727
1.1438461538461537,-1.426923076923077,-0.97,0.0584615384615384,0.06,0.5446153846153846
0.7966666666666666,-2.1166666666666667,-1.2,0.06,-0.0191666666666666,0.4783333333333333
0.9092857142857143,-3.2607142857142857,-1.2135714285714283,0.0771428571428571,-0.1357142857142857,0.5421428571428571
1.201818181818182,-3.171818181818182,-1.007272727272727,0.1436363636363636,-0.2554545454545454,0.5181818181818182
1.2857142857142856,-2.4364285714285714,-0.7242857142857143,0.1285714285714286,-0.2564285714285714,0.4778571428571428
1.3145454545454545,-1.3372727272727274,-0.9281818181818182,-0.059090909090909,-0.22,0.4418181818181818
1.4207692307692308,0.0484615384615384,-0.9938461538461538,-0.3292307692307692,-0.3807692307692308,0.3938461538461538
1.43,0.6839999999999999,-0.974,-0.537,-0.585,0.266
1.029090909090909,1.0727272727272723,-0.0536363636363636,-0.5381818181818182,-0.5745454545454546,0.2027272727272727
0.82125,0.641875,0.228125,-0.50625,-0.5,0.270625
1.6507142857142858,-0.6578571428571429,0.2671428571428572,-0.51,-0.6,0.4364285714285714
2.1045454545454545,-0.5836363636363636,0.9863636363636364,-0.3963636363636364,-0.6554545454545454,0.4072727272727273
2.1107692307692307,1.04,2.210769230769231,-0.2153846153846153,-0.676923076923077,0.213076923076923
1.5583333333333333,2.188333333333333,2.410833333333333,-0.0541666666666666,-0.7208333333333333,-0.0008333333333333
0.40928571428571436,3.071428571428572,1.6935714285714287,0.1349999999999999,-0.7364285714285714,-0.0228571428571428
0.7818181818181817,3.1463636363636365,0.1536363636363636,0.4318181818181818,-0.5354545454545454,0.0472727272727272
1.7676923076923077,4.9592307692307696,-1.99,0.4315384615384615,-0.2723076923076923,0.2215384615384615
2.528,5.226,-2.244,0.3,-0.107,0.4
3.39625,2.39375,-3.291875,0.17125,-0.04125,0.264375
2.8581818181818184,0.1809090909090909,-4.294545454545455,0.0772727272727272,-0.0736363636363636,-0.0127272727272727
2.017857142857143,-0.4178571428571428,-4.1657142857142855,0.0678571428571428,-0.1135714285714285,-0.2635714285714285
1.3254545454545454,0.1381818181818181,-3.489090909090909,0.1045454545454545,-0.0581818181818181,-0.4845454545454545
0.0785714285714284,0.9985714285714286,-2.814285714285714,0.0249999999999999,-0.0514285714285714,-0.5528571428571428
-0.5254545454545456,1.1309090909090909,-2.18,-0.0781818181818181,-0.0254545454545454,-0.4727272727272727
0.09857142857142864,0.5214285714285715,-1.4742857142857144,-0.1128571428571428,0.0735714285714285,-0.3928571428571428
0.9327272727272728,-0.18,-1.3772727272727272,-0.1490909090909091,0.1209090909090909,-0.4936363636363636
1.4138461538461538,-1.36,-1.265384615384615,-0.2184615384615384,0.1215384615384615,-0.6253846153846154
1.046,-2.271,-1.149,-0.25,0.151,-0.628
0.8843750000000001,-3.706875,-0.4625,-0.103125,0.214375,-0.629375
0.78,-4.455454545454545,-0.239090909090909,0.1245454545454545,0.2445454545454545,-0.6536363636363637
-0.18428571428571416,-4.546428571428572,-0.4207142857142857,0.26,0.2171428571428571,-0.6178571428571429
-0.9081818181818184,-4.244545454545454,-0.7263636363636364,0.2372727272727272,0.2554545454545454,-0.5227272727272727
-0.954,-4.079,-0.6679999999999999,0.186,0.267,-0.4009999999999999
-0.1552941176470588,-4.12764705882353,-0.4058823529411764,0.1735294117647059,0.2341176470588235,-0.3323529411764706
0.3408333333333333,-3.640833333333333,-0.3066666666666667,0.1391666666666666,0.1899999999999999,-0.2608333333333333
0.38363636363636366,-3.077272727272728,-0.1409090909090909,0.109090909090909,0.1854545454545454,-0.25
0.18538461538461537,-2.0461538461538464,0.1276923076923077,0.103076923076923,0.2753846153846154,-0.2253846153846154
0.3390000000000001,-1.068,0.319,0.11,0.314,-0.2
0.4066666666666666,0.2186666666666666,0.6846666666666666,0.076,0.2493333333333333,-0.2106666666666666
0.14916666666666656,0.6825,1.1441666666666668,0.0716666666666666,0.2491666666666666,-0.2383333333333333
0.0507142857142856,1.2192857142857143,1.7799999999999998,0.1128571428571428,0.285,-0.1942857142857143
0.4772727272727273,2.1,2.0463636363636364,0.1045454545454545,0.2609090909090909,-0.0818181818181818
1.0466666666666666,3.369166666666666,2.165,0.0491666666666666,0.2525,0.0383333333333333
1.1406666666666667,3.806,1.946,-0.0026666666666666,0.1886666666666666,0.1613333333333333
0.16749999999999998,3.64,0.3758333333333333,0.0925,-0.0158333333333333,0.1925
-0.8125,4.475,-0.9125,0.1558333333333333,-0.1458333333333333,0.2016666666666666
-0.8846153846153848,6.41,-2.536923076923077,0.003076923076923,-0.3261538461538462,0.0892307692307692
-0.19999999999999996,5.3,-2.996,-0.217,-0.3,-0.016
1.3,1.6684615384615389,-3.2684615384615388,-0.4023076923076922,-0.1892307692307692,0.0169230769230769
1.9438461538461538,-0.8846153846153846,-2.9538461538461536,-0.3292307692307692,-0.1446153846153846,0.2107692307692308
1.92,-1.6314285714285717,-2.426428571428571,-0.0842857142857142,-0.2514285714285714,0.3442857142857143
1.168181818181818,-0.5472727272727274,-2.4954545454545456,0.0354545454545454,-0.2372727272727272,0.4163636363636364
0.9553846153846154,0.7615384615384616,-2.8723076923076927,-0.023076923076923,-0.1453846153846154,0.3915384615384615
0.8191666666666667,1.3549999999999998,-2.775,-0.1675,-0.1283333333333333,0.3766666666666666
0.9221428571428572,1.237857142857143,-1.9392857142857145,-0.29,-0.1714285714285714,0.4135714285714286
1.39,0.28,-1.0033333333333334,-0.2333333333333333,-0.2175,0.3891666666666666
1.733076923076923,-1.0284615384615383,-0.1138461538461538,-0.0107692307692307,-0.2315384615384615,0.3738461538461539
1.426,-1.597,-0.161,0.1659999999999999,-0.243,0.44
1.298,-2.472,-0.5246666666666667,0.2586666666666667,-0.136,0.5266666666666667
1.7845454545454547,-3.075454545454545,-0.9672727272727272,0.2245454545454545,-0.0481818181818181,0.4672727272727272
1.5657142857142858,-4.2092857142857145,-0.955,0.22,-0.0085714285714285,0.47
1.37,-4.765454545454546,-0.6890909090909091,0.2636363636363636,0.0418181818181818,0.5018181818181818
1.7157142857142857,-5.042857142857143,-0.5871428571428572,0.215,0.0671428571428571,0.4314285714285714
1.3863636363636362,-4.913636363636363,-0.2163636363636363,0.1754545454545454,0.0372727272727272,0.3654545454545454
0.6742857142857144,-4.378571428571428,0.275,0.2185714285714285,0.0014285714285714,0.3321428571428572
0.5172727272727272,-3.724545454545455,0.4127272727272727,0.2545454545454545,-0.0036363636363636,0.3
0.8821428571428572,-2.817142857142857,0.4435714285714285,0.2307142857142857,-0.0457142857142857,0.2678571428571428
1.22,-2.131111111111111,0.4544444444444444,0.1666666666666666,-0.1344444444444444,0.1988888888888889
1.365625,-0.818125,0.53625,0.03125,-0.199375,0.145625
1.5775000000000001,0.5791666666666667,0.9691666666666666,-0.0783333333333333,-0.2775,0.1216666666666666
2.1384615384615384,2.293846153846154,1.807692307692308,-0.0407692307692307,-0.2969230769230769,0.1007692307692307
2.564545454545455,3.3790909090909094,2.200909090909091,0.0281818181818181,-0.2863636363636364,0.039090909090909
2.48,4.373571428571429,2.4235714285714285,0.0464285714285714,-0.2078571428571428,-0.0435714285714285
2.1872727272727275,4.932727272727273,2.21,-0.03,-0.1218181818181818,-0.1027272727272727
1.5142857142857142,5.091428571428572,1.9335714285714285,-0.1642857142857142,-0.1242857142857143,-0.1692857142857143
1.4766666666666666,3.9891666666666654,1.1358333333333333,0.0583333333333333,0.0674999999999999,-0.295
2.569230769230769,3.927692307692308,-0.8592307692307692,0.3176923076923076,0.3153846153846154,-0.3323076923076923
3.510909090909091,4.499090909090909,-2.002727272727273,0.3572727272727272,0.3390909090909091,-0.2336363636363636
2.9346153846153844,3.502307692307693,-3.3,0.2338461538461538,0.0753846153846153,-0.243076923076923
1.303076923076923,2.1192307692307693,-3.997692307692307,0.02,0.03,-0.3776923076923077
-1.3023076923076924,0.5623076923076924,-3.933076923076922,-0.1184615384615384,0.0546153846153846,-0.4153846153846153
-1.9209090909090918,0.6754545454545455,-3.4527272727272726,-0.1681818181818181,0.1336363636363636,-0.3709090909090909
-1.4838461538461538,0.49,-2.611538461538461,-0.2353846153846154,0.0684615384615384,-0.27
-0.4591666666666667,-0.1099999999999999,-1.625,-0.3133333333333333,-0.0058333333333333,-0.2233333333333333
1.2835714285714284,-1.0435714285714286,-0.0078571428571428,-0.2892857142857142,0.0385714285714285,-0.2978571428571429
2.287692307692308,-1.805384615384616,0.4053846153846153,-0.1407692307692307,0.18,-0.4869230769230769
2.9591666666666665,-2.9516666666666667,-0.0541666666666666,-0.0249999999999999,0.2775,-0.7133333333333334
2.5536363636363637,-3.53,-0.4227272727272728,0.0509090909090909,0.3409090909090909,-0.8136363636363636
1.5814285714285714,-4.052857142857143,-0.8364285714285714,0.0321428571428571,0.4192857142857143,-0.8292857142857143
0.4927272727272727,-4.328181818181818,-0.6736363636363637,0.07,0.4245454545454545,-0.7772727272727273
-0.8378571428571429,-4.512857142857143,-0.2492857142857142,0.1778571428571428,0.4314285714285714,-0.6121428571428572
-0.9918181818181819,-4.577272727272727,-0.0927272727272727,0.2354545454545454,0.4345454545454545,-0.4672727272727272
-0.913636363636364,-4.241818181818181,-0.0181818181818181,0.2227272727272727,0.3536363636363636,-0.3963636363636364
-1.0012500000000002,-3.64375,-0.09,0.178125,0.29125,-0.286875
-0.2858333333333334,-2.3000000000000003,-0.265,0.1416666666666667,0.2133333333333333,-0.22
-0.1558333333333335,-1.2616666666666667,-0.3133333333333333,0.0983333333333333,0.085,-0.1358333333333333
-0.6107692307692305,-0.2,-0.3169230769230769,-0.0023076923076923,0.05,0.0392307692307692
-0.23636363636363633,0.0709090909090909,-0.2136363636363636,-0.1572727272727272,0.1172727272727272,0.1163636363636363
0.39928571428571424,-0.2292857142857143,0.3664285714285714,-0.2721428571428571,0.15,0.0685714285714285
0.4054545454545454,-0.4563636363636364,1.4472727272727273,-0.2154545454545454,0.1272727272727272,0.0427272727272727
0.55,0.6692857142857144,2.787142857142857,-0.0292857142857142,0.1264285714285714,0.0292857142857142
0.9663636363636364,1.983636363636364,3.092727272727273,0.1454545454545454,0.1481818181818181,0.0018181818181818
0.9528571428571428,3.169285714285714,2.691428571428572,0.2142857142857142,0.1292857142857142,-0.0028571428571428
0.6372727272727273,3.615454545454545,2.1154545454545453,0.1445454545454545,0.1618181818181818,0.0372727272727272
0.635,3.772857142857143,1.8192857142857144,0.0964285714285714,0.1657142857142857,0.0971428571428571
0.6136363636363638,3.577272727272728,1.4445454545454546,0.2481818181818181,-0.0272727272727272,0.1027272727272727
-0.1485714285714288,4.400714285714286,-0.5571428571428572,0.3385714285714286,-0.1999999999999999,0.0907142857142857
-0.6818181818181821,6.28,-1.8318181818181816,0.029090909090909,-0.3290909090909091,0.069090909090909
-0.3266666666666669,7.624166666666666,-1.9366666666666668,-0.325,-0.1841666666666666,-0.0275
0.832857142857143,5.387857142857143,-2.021428571428572,-0.5685714285714286,-0.0171428571428571,0.0478571428571428
2.0953846153846154,-0.0384615384615384,-2.481538461538461,-0.7100000000000001,0.0515384615384615,0.2007692307692307
2.1550000000000002,-2.033333333333333,-2.3866666666666667,-0.585,-0.0908333333333333,0.3675
1.4461538461538461,-2.013076923076923,-1.969230769230769,-0.3346153846153846,-0.2292307692307692,0.4976923076923076
0.9791666666666667,-1.0683333333333334,-1.8325,-0.1999999999999999,-0.2125,0.5483333333333333
0.7261538461538461,0.0599999999999999,-1.5469230769230768,-0.2346153846153846,-0.1684615384615384,0.5653846153846154
0.8963636363636364,0.0454545454545454,-1.231818181818182,-0.3363636363636363,-0.2490909090909091,0.5081818181818182
0.9578571428571429,-1.4264285714285714,-0.2885714285714286,-0.2371428571428571,-0.2428571428571428,0.4292857142857142
0.78,-2.850909090909091,0.1181818181818181,0.0527272727272727,-0.2354545454545454,0.4536363636363636
0.7121428571428572,-3.9557142857142855,-0.7085714285714285,0.1835714285714285,-0.1592857142857142,0.5792857142857143
1.35,-4.4383333333333335,-1.1716666666666666,0.165,-0.07,0.6175
2.520833333333333,-5.388333333333333,-0.9325,0.2141666666666667,-0.0974999999999999,0.555
2.7107692307692304,-5.4,-0.536923076923077,0.3946153846153846,-0.0992307692307692,0.4584615384615385
2.4108333333333336,-4.795833333333333,-0.4133333333333333,0.4875,-0.0158333333333333,0.3691666666666666
1.893846153846154,-4.057692307692308,-0.7184615384615385,0.3869230769230769,0.0269230769230769,0.3061538461538461
0.6907692307692308,-3.147692307692308,-0.683076923076923,0.2076923076923077,0.063076923076923,0.31
0.5054545454545455,-2.653636363636364,-0.1427272727272727,0.1390909090909091,0.0990909090909091,0.3154545454545455
1.0107142857142857,-1.4835714285714283,0.4507142857142857,0.1671428571428571,0.095,0.3071428571428571
1.6146153846153846,-0.3,0.5784615384615385,0.2807692307692307,0.0,0.2453846153846153
2.330833333333333,1.3225,0.2591666666666666,0.2266666666666666,-0.1374999999999999,0.1216666666666666
2.4766666666666666,2.6125000000000003,0.3041666666666666,-0.0091666666666666,-0.2416666666666666,0.0383333333333333
2.1900000000000004,3.7566666666666655,0.9358333333333334,-0.1625,-0.2575,0.0625
2.293846153846154,3.605384615384615,1.643846153846154,-0.23,-0.2138461538461538,0.11
2.0575,2.794166666666667,3.0666666666666664,-0.1983333333333333,-0.1008333333333333,0.14
1.9778571428571428,2.646428571428572,3.291428571428572,-0.1342857142857142,0.0271428571428571,0.1421428571428571
2.343333333333333,3.356666666666667,2.8508333333333336,-0.1258333333333333,0.0766666666666666,0.0383333333333333
2.673636363636364,3.4663636363636368,2.23,0.11,0.1572727272727272,-0.1781818181818182
3.4435714285714285,3.7607142857142857,-0.1849999999999999,0.4642857142857143,0.3635714285714285,-0.4514285714285714
3.431666666666666,5.1466666666666665,-2.415,0.4883333333333333,0.5075,-0.395
2.7738461538461543,5.137692307692307,-3.551538461538461,0.2553846153846154,0.3407692307692307,-0.2723076923076923
1.383076923076923,3.137692307692308,-3.686153846153846,-0.1053846153846154,0.2692307692307692,-0.413076923076923
-1.1972727272727282,0.1727272727272727,-3.058181818181818,-0.2472727272727272,0.3145454545454545,-0.4645454545454546
-1.7400000000000002,-0.73,-2.685833333333333,-0.2058333333333333,0.4341666666666666,-0.4324999999999999
-1.0814285714285714,-1.14,-2.177142857142857,-0.1385714285714286,0.3635714285714285,-0.3614285714285715
-0.15083333333333337,-1.3133333333333332,-1.5166666666666666,-0.1566666666666666,0.1541666666666666,-0.3233333333333333
0.8830769230769231,-1.6084615384615384,0.143076923076923,-0.103076923076923,0.1392307692307692,-0.3969230769230769
1.1627272727272726,-1.7881818181818183,0.7809090909090909,0.1054545454545454,0.2718181818181818,-0.479090909090909
1.7135714285714285,-2.3121428571428573,0.205,0.2321428571428571,0.3942857142857142,-0.6449999999999999
1.653076923076923,-3.0330769230769232,-0.5792307692307692,0.2146153846153846,0.3830769230769231,-0.8153846153846154
0.4525,-3.43,-0.6108333333333333,0.2291666666666666,0.5025000000000001,-0.7533333333333333
0.22769230769230775,-3.436923076923077,-0.4723076923076922,0.2846153846153846,0.5684615384615385,-0.6361538461538461
-0.16583333333333328,-3.7566666666666655,-0.9291666666666668,0.2283333333333333,0.4575,-0.525
-0.6981818181818182,-4.157272727272727,-1.020909090909091,0.1018181818181818,0.3836363636363636,-0.42
-1.327142857142857,-4.056428571428572,-0.6242857142857143,0.0014285714285714,0.3135714285714285,-0.2735714285714286
-1.7045454545454546,-3.367272727272727,-0.1845454545454545,-0.019090909090909,0.2209090909090909,-0.1036363636363636
-1.2964285714285722,-2.202142857142857,0.3735714285714286,0.0692857142857142,0.1028571428571428,-0.0378571428571428
-0.5927272727272728,-1.230909090909091,0.3718181818181818,0.1536363636363636,0.009090909090909,-0.0245454545454545
0.29230769230769227,-0.4584615384615385,-0.0684615384615384,0.1076923076923076,-0.0315384615384615,-0.0507692307692307
0.5558333333333334,-0.3708333333333333,-0.0316666666666666,-0.0441666666666666,-0.0491666666666666,-0.08
0.4414285714285715,-0.2135714285714285,0.8528571428571429,-0.165,-0.0235714285714285,-0.0385714285714285
0.2433333333333333,-0.0875,1.6566666666666665,-0.095,0.0758333333333333,0.0791666666666666
0.6115384615384615,0.2746153846153846,2.4930769230769227,0.1346153846153846,0.1553846153846154,0.0984615384615384
1.1136363636363635,0.5990909090909091,2.557272727272727,0.2963636363636363,0.2190909090909091,0.0181818181818181
1.7149999999999999,1.6428571428571428,2.1814285714285715,0.2435714285714285,0.1414285714285714,-0.0871428571428571
1.5477777777777777,2.605555555555556,2.0388888888888888,0.0777777777777777,0.02,-0.1044444444444444
1.2493750000000001,3.786875,2.135,-0.010625,0.056875,-0.065625
1.2591666666666665,4.159166666666667,2.255,0.0858333333333333,0.0225,-0.0191666666666666
-0.007692307692307665,4.107692307692307,0.2376923076923076,0.3946153846153846,-0.2030769230769231,-0.0107692307692307
-1.2836363636363641,5.470909090909091,-2.1645454545454546,0.3963636363636364,-0.3863636363636363,0.0045454545454545
-1.6985714285714288,6.617142857142857,-3.262857142857143,-0.0028571428571428,-0.4092857142857143,-0.0249999999999999
-0.6041666666666667,4.5825000000000005,-2.874166666666667,-0.4041666666666666,-0.2666666666666666,0.1091666666666666
1.9316666666666666,0.9491666666666668,-2.283333333333333,-0.5408333333333334,-0.2491666666666666,0.2741666666666666
2.6338461538461537,-0.8346153846153845,-2.1176923076923075,-0.4015384615384615,-0.3738461538461539,0.4069230769230769
1.9984615384615383,-1.5015384615384617,-2.143076923076923,-0.2576923076923077,-0.473076923076923,0.4961538461538461
1.3584615384615386,-1.254615384615385,-2.3,-0.3,-0.4030769230769231,0.4907692307692307
0.7083333333333333,-0.6566666666666667,-1.7541666666666669,-0.3916666666666666,-0.3616666666666666,0.44
0.41333333333333333,-0.3391666666666666,-0.8716666666666667,-0.3816666666666666,-0.43,0.45
0.47583333333333333,-0.6466666666666666,0.3508333333333333,-0.1933333333333333,-0.4616666666666666,0.4658333333333333
0.7224999999999999,-1.095,0.405,0.0416666666666666,-0.4575,0.4866666666666666
0.8342857142857143,-1.4085714285714286,-0.3235714285714285,0.1407142857142857,-0.4107142857142857,0.5650000000000001
0.9838461538461539,-1.816923076923077,-1.01,0.0792307692307692,-0.3092307692307692,0.683076923076923
2.1366666666666667,-2.6141666666666667,-0.9633333333333332,0.07,-0.2058333333333333,0.6208333333333333
2.389090909090909,-3.3518181818181816,-0.7181818181818183,0.0881818181818181,-0.1554545454545454,0.5518181818181819
2.2814285714285716,-3.724285714285714,-0.4449999999999999,0.0935714285714285,-0.0557142857142857,0.4985714285714286
2.001666666666667,-3.585833333333333,-0.4458333333333333,0.0141666666666666,0.0066666666666666,0.4116666666666667
1.2584615384615385,-3.053076923076923,-0.4953846153846153,-0.1376923076923077,0.0315384615384615,0.3761538461538461
0.6783333333333332,-2.9925,0.0116666666666666,-0.2308333333333333,0.0241666666666666,0.3491666666666666
0.13769230769230778,-3.243076923076923,0.6369230769230769,-0.2184615384615384,0.0407692307692307,0.3046153846153846
0.29454545454545455,-3.2263636363636365,0.8236363636363637,-0.1509090909090909,0.0009090909090909,0.2290909090909091
0.6271428571428571,-3.011428571428572,0.7464285714285713,-0.1399999999999999,-0.0635714285714285,0.1321428571428571
0.94,-2.756153846153846,0.753076923076923,-0.1976923076923077,-0.0553846153846153,0.1053846153846154
1.2483333333333333,-2.04,0.8383333333333334,-0.2583333333333333,-0.0316666666666666,0.1683333333333333
1.5254545454545454,-1.241818181818182,0.6745454545454546,-0.2990909090909091,0.0254545454545454,0.2227272727272727
1.9114285714285715,0.1164285714285714,0.3071428571428571,-0.3792857142857143,0.1114285714285714,0.2635714285714286
2.4608333333333334,0.8758333333333334,0.5508333333333333,-0.4475,0.08,0.1925
2.187692307692308,1.4353846153846157,2.193076923076923,-0.3353846153846154,-0.093076923076923,0.1376923076923077
1.53,1.508333333333333,3.4691666666666667,-0.0333333333333333,-0.2958333333333333,0.0816666666666666
0.5669230769230769,2.1846153846153844,4.346153846153846,0.2569230769230769,-0.4946153846153845,0.0607692307692307
0.049090909090909185,2.7100000000000004,4.364545454545454,0.4118181818181818,-0.6509090909090909,0.0836363636363636
-0.5907142857142855,2.9785714285714286,4.132857142857143,0.4971428571428571,-0.7414285714285713,0.1985714285714286
-0.6861538461538463,2.9046153846153846,3.987692307692308,0.4869230769230769,-0.8376923076923077,0.3930769230769231
-0.5808333333333335,2.7725000000000004,3.5066666666666664,0.4408333333333333,-0.8066666666666666,0.5333333333333333
-0.0863636363636362,2.6236363636363635,2.462727272727273,0.5681818181818182,-0.5172727272727273,0.59
1.927857142857143,3.8964285714285714,0.1335714285714285,0.7264285714285714,-0.3635714285714285,0.74
4.3154545454545445,5.195454545454546,-0.4045454545454545,0.7881818181818182,-0.3054545454545454,0.7599999999999999
4.821428571428572,3.494285714285714,-1.6092857142857144,0.87,-0.3892857142857143,0.6792857142857143
4.8616666666666655,1.4675,-4.883333333333334,0.3883333333333333,-0.635,0.1941666666666666
3.643076923076923,0.2976923076923076,-6.677692307692308,-0.243076923076923,-0.7215384615384616,-0.5346153846153846
1.0927272727272725,0.6663636363636364,-6.165454545454545,-0.7836363636363636,-0.4863636363636363,-0.61
0.4235714285714286,1.7778571428571428,-4.305,-1.1464285714285716,-0.225,-0.3742857142857143
1.1166666666666667,1.875555555555556,-3.271111111111112,-1.2944444444444445,-0.0533333333333333,-0.2188888888888888
1.45,0.4325,-2.438125,-1.385,0.165,-0.179375
0.7954545454545455,-0.8409090909090909,-1.508181818181818,-1.4327272727272726,0.3863636363636363,-0.1336363636363636
0.6135714285714287,-2.395,0.5007142857142857,-1.2021428571428572,0.5549999999999999,-0.1857142857142857
1.040909090909091,-3.019090909090909,1.0572727272727271,-0.8254545454545454,0.5418181818181819,-0.4145454545454546
0.5542857142857143,-2.96,0.7728571428571429,-0.5714285714285714,0.4314285714285714,-0.6235714285714286
-0.4933333333333332,-2.605,0.175,-0.4366666666666667,0.3108333333333333,-0.6891666666666666
-1.1476923076923078,-2.1592307692307693,-0.7115384615384616,-0.3976923076923077,0.2176923076923076,-0.6630769230769231
-0.8981818181818184,-1.94,-1.0563636363636364,-0.4645454545454546,0.1009090909090909,-0.6218181818181818
-0.6728571428571428,-1.616428571428571,-1.025,-0.6121428571428572,-0.0271428571428571,-0.5764285714285714
-0.6000000000000001,-1.230909090909091,-0.7372727272727272,-0.6990909090909091,-0.069090909090909,-0.4672727272727272
