accx,accy,accz,gyrox,gyroy,gyroz
1.7644444444444445,0.0388888888888888,0.3777777777777778,-0.2055555555555555,-0.1711111111111111,-0.11
1.723125,-0.4625,0.915625,-0.14625,-0.195625,-0.1525
1.8092307692307692,-0.783076923076923,1.1953846153846155,-0.0076923076923076,-0.2161538461538461,-0.1776923076923077
1.9838461538461538,-0.3415384615384615,1.323076923076923,0.1392307692307692,-0.26,-0.2507692307692308
1.7683333333333335,0.3258333333333333,1.2733333333333334,0.2416666666666666,-0.29,-0.2975
1.359,1.178,1.116,0.279,-0.335,-0.291
1.1966666666666665,1.6953333333333334,1.0253333333333334,0.3353333333333333,-0.3666666666666666,-0.2613333333333333
1.396923076923077,2.225384615384616,0.1176923076923077,0.6207692307692307,-0.2046153846153846,-0.2407692307692307
1.3483333333333332,3.0691666666666664,-0.5758333333333333,0.7799999999999999,-0.175,-0.1058333333333333
0.6653846153846155,5.456153846153847,-1.3853846153846154,0.5546153846153846,-0.29,0.1561538461538461
0.395,6.055,-1.45,0.4,-0.2375,0.285
0.40294117647058825,3.771764705882353,-1.5411764705882351,0.3735294117647059,-0.1852941176470588,0.2652941176470588
0.785,1.1375,-2.0825,0.2933333333333333,-0.4316666666666666,0.1333333333333333
0.9784615384615385,-0.6530769230769231,-2.230769230769231,0.1723076923076923,-0.5261538461538462,-0.0161538461538461
1.1558333333333333,-0.7891666666666667,-1.8533333333333333,0.1608333333333333,-0.3725,-0.2091666666666666
1.0922222222222222,-0.0711111111111111,-1.6233333333333333,0.1855555555555555,-0.2488888888888889,-0.28
1.44375,0.63125,-1.61125,0.115625,-0.064375,-0.255
2.206363636363636,0.9072727272727272,-1.2836363636363637,-0.05,0.1054545454545454,-0.2672727272727273
2.263571428571429,0.6792857142857143,-0.95,-0.2114285714285714,0.2657142857142857,-0.3399999999999999
1.9390909090909092,-0.019090909090909,-0.4018181818181818,-0.3190909090909091,0.3890909090909091,-0.4445454545454545
1.5492307692307692,-0.8615384615384615,-0.1738461538461538,-0.3146153846153846,0.4276923076923076,-0.5661538461538462
0.4921428571428571,-2.215,0.1992857142857143,-0.1207142857142857,0.4621428571428571,-0.6735714285714286
0.06166666666666665,-2.845833333333333,0.1325,0.1066666666666666,0.4575,-0.7225
-0.2333333333333334,-3.333333333333333,-0.505,0.2133333333333333,0.3966666666666666,-0.7000000000000001
-0.22692307692307678,-3.516923076923077,-1.0284615384615383,0.1746153846153846,0.3346153846153846,-0.6276923076923077
0.026363636363636367,-3.617272727272727,-1.2154545454545451,0.1218181818181818,0.2581818181818182,-0.5727272727272728
0.3164285714285714,-3.547857142857143,-1.0185714285714285,0.1014285714285714,0.1671428571428571,-0.5692857142857143
0.4107692307692308,-2.8661538461538467,-0.51,0.133076923076923,0.1061538461538461,-0.5553846153846155
0.5616666666666668,-2.265,-0.3958333333333333,0.1416666666666667,0.08,-0.5191666666666667
0.7384615384615385,-1.3838461538461535,-0.4646153846153846,0.1076923076923077,0.0392307692307692,-0.4815384615384615
0.45999999999999996,-0.9025,-0.5916666666666667,0.0158333333333333,0.0066666666666666,-0.3616666666666666
0.18615384615384611,-0.5023076923076923,-0.4615384615384615,-0.0453846153846153,0.0146153846153846,-0.2269230769230769
0.22250000000000003,-0.19,-0.165,-0.0791666666666666,-0.0275,-0.1466666666666666
-0.007692307692307665,0.3,0.0792307692307692,-0.1176923076923077,-0.0146153846153846,-0.0369230769230769
0.07499999999999996,0.4624999999999999,0.0674999999999999,-0.1508333333333333,0.0141666666666666,0.0675
0.48923076923076914,0.2569230769230769,0.1738461538461538,-0.1853846153846154,0.0176923076923076,0.113076923076923
0.7991666666666667,0.0341666666666666,0.4541666666666666,-0.1716666666666666,0.0533333333333333,0.1133333333333333
1.0623076923076924,-0.3638461538461539,0.8730769230769231,-0.1476923076923076,0.0892307692307692,0.093076923076923
1.0916666666666666,-0.7041666666666666,1.1191666666666666,-0.1225,0.1533333333333333,0.1241666666666666
1.3599999999999999,-0.8866666666666667,1.45,-0.0466666666666666,0.2325,0.1541666666666666
1.51,-0.8538461538461538,1.6123076923076924,0.0615384615384615,0.3069230769230769,0.1215384615384615
1.1523076923076923,-0.7107692307692308,1.5953846153846152,0.1723076923076923,0.3907692307692307,0.0523076923076923
0.5591666666666667,-0.4816666666666667,1.4525,0.2558333333333333,0.4491666666666666,0.0375
0.0576923076923076,0.0723076923076923,1.4084615384615384,0.3330769230769231,0.4815384615384615,0.0861538461538461
0.14500000000000002,0.625,1.2858333333333334,0.4075,0.4408333333333333,0.1383333333333333
0.3746153846153847,1.66,0.4607692307692307,0.5092307692307693,0.3361538461538461,0.15
0.45000000000000007,2.8075,-0.1133333333333333,0.5599999999999999,0.2233333333333333,0.1266666666666666
0.7053846153846154,5.072307692307692,-0.7984615384615383,0.4153846153846154,0.0707692307692307,0.0084615384615384
0.7266666666666666,6.1175,-0.9333333333333332,0.1966666666666666,0.0508333333333333,-0.0883333333333333
1.1241666666666665,5.513333333333333,-0.6233333333333334,0.1241666666666666,0.0966666666666666,-0.13
1.2446153846153847,3.838461538461538,-0.8053846153846153,0.0976923076923076,0.1838461538461538,-0.1707692307692307
0.71,2.45,-1.24,0.08,0.24,-0.08
0.4854166666666667,0.7745833333333333,-1.8320833333333333,0.0404166666666666,0.3416666666666666,0.1016666666666666
1.4281818181818182,-0.1427272727272727,-2.015454545454545,-0.0309090909090909,0.4454545454545455,0.3036363636363636
1.8407142857142857,0.1128571428571428,-1.9228571428571428,0.0278571428571428,0.4028571428571428,0.33
1.5076923076923077,1.0415384615384615,-2.207692307692308,0.1023076923076923,0.2076923076923077,0.3553846153846154
1.2,1.4383333333333337,-2.6,0.0225,0.0933333333333333,0.3575
1.15,1.2966666666666666,-2.686666666666667,-0.1183333333333333,0.0233333333333333,0.325
0.9863157894736843,0.3257894736842105,-1.941578947368421,-0.2857894736842105,-0.1252631578947368,0.2942105263157895
0.766923076923077,-1.1015384615384616,-0.5953846153846154,-0.3061538461538461,-0.2338461538461538,0.3399999999999999
0.8891666666666667,-1.6608333333333334,-0.1483333333333333,-0.1708333333333333,-0.235,0.4608333333333334
1.4725,-2.3433333333333333,0.0716666666666666,0.01,-0.255,0.5308333333333334
1.6407692307692308,-2.646153846153846,-0.1153846153846153,0.1684615384615384,-0.2384615384615384,0.6076923076923076
2.213846153846154,-2.861538461538461,-0.5661538461538462,0.2638461538461538,-0.183076923076923,0.58
2.333333333333333,-3.0658333333333334,-0.73,0.2916666666666667,-0.175,0.4825
2.0930769230769233,-3.29,-0.7238461538461538,0.3084615384615384,-0.11,0.4369230769230769
2.044166666666667,-3.2550000000000003,-0.6849999999999999,0.2941666666666666,-0.0691666666666666,0.4324999999999999
1.8463636363636364,-2.9845454545454544,-0.5527272727272727,0.2672727272727273,-0.0627272727272727,0.4654545454545454
1.7242857142857142,-2.716428571428572,-0.4592857142857142,0.2242857142857142,-0.05,0.4792857142857142
1.7033333333333331,-2.245,-0.3266666666666666,0.1491666666666666,-0.05,0.4316666666666666
1.5815384615384616,-2.02,-0.0438461538461538,0.1238461538461538,-0.0507692307692307,0.3669230769230769
1.8915384615384614,-1.7807692307692309,0.4515384615384615,0.2007692307692307,-0.0715384615384615,0.2815384615384615
2.0233333333333334,-1.5041666666666669,0.5208333333333334,0.2291666666666666,-0.1208333333333333,0.1999999999999999
1.9224999999999999,-0.5491666666666667,0.475,0.1658333333333333,-0.1658333333333333,0.1341666666666666
1.830769230769231,0.3053846153846153,0.5138461538461538,0.0607692307692307,-0.2523076923076923,0.09
1.682,1.28,0.6839999999999999,0.009,-0.3,0.065
1.8053333333333335,1.2873333333333332,0.7606666666666667,-0.0466666666666666,-0.2806666666666667,0.0286666666666666
2.0563636363636366,0.8436363636363636,0.9936363636363637,-0.1290909090909091,-0.3227272727272727,-0.0263636363636363
1.8771428571428572,0.8078571428571429,1.3442857142857143,-0.1664285714285714,-0.3842857142857143,-0.0764285714285714
1.3054545454545454,1.2027272727272726,1.9863636363636368,-0.17,-0.3845454545454546,-0.1209090909090909
0.8728571428571429,1.6664285714285714,2.000714285714285,-0.1428571428571428,-0.3857142857142857,-0.1371428571428571
0.6314285714285715,2.2657142857142856,1.4542857142857142,-0.0271428571428571,-0.3485714285714286,-0.1571428571428571
1.1227777777777777,2.833333333333333,0.1661111111111111,0.2166666666666666,-0.1772222222222222,-0.1672222222222222
2.015833333333333,5.004166666666667,-1.4366666666666663,0.1958333333333333,-0.0925,-0.075
2.125,5.573333333333333,-1.4908333333333337,0.0858333333333333,-0.035,0.0516666666666666
1.9975,3.4308333333333336,-1.525,0.0816666666666666,-0.0391666666666666,0.0425
1.9171428571428573,1.0842857142857143,-2.202142857142857,0.0542857142857142,-0.1714285714285714,-0.0728571428571428
1.0116666666666665,-1.215,-2.9525,-0.0933333333333333,-0.415,-0.2125
0.30999999999999994,-1.3046153846153847,-2.723846153846154,-0.2084615384615384,-0.3984615384615384,-0.3169230769230769
-0.3616666666666666,-0.3916666666666666,-1.84,-0.1899999999999999,-0.2291666666666666,-0.3525
-0.533076923076923,0.3607692307692308,-1.3961538461538463,-0.1253846153846153,-0.1653846153846153,-0.2423076923076923
0.3583333333333333,0.735,-1.4083333333333332,-0.1641666666666666,-0.1666666666666666,-0.1575
1.2723076923076924,0.3838461538461538,-1.5476923076923077,-0.2676923076923077,-0.1023076923076923,-0.23
2.1345454545454543,-0.5390909090909092,-1.4263636363636365,-0.3709090909090909,-0.0381818181818181,-0.3872727272727272
2.2335714285714285,-1.133571428571429,-1.1764285714285714,-0.4842857142857143,-0.0828571428571428,-0.6142857142857142
1.0236363636363637,-1.9309090909090911,-0.4627272727272727,-0.4545454545454545,-0.11,-0.6990909090909091
0.41714285714285715,-2.406428571428571,-0.0885714285714285,-0.2664285714285714,-0.0521428571428571,-0.65
0.3076923076923077,-2.863076923076923,-0.24,-0.0592307692307692,-0.0269230769230769,-0.5776923076923077
0.22000000000000008,-2.8608333333333333,-0.6158333333333333,-0.0266666666666666,-0.0616666666666666,-0.49
-0.061818181818181994,-2.6763636363636363,-1.0163636363636364,-0.0545454545454545,-0.0636363636363636,-0.4072727272727273
0.0546153846153844,-2.6769230769230767,-0.93,-0.0276923076923076,-0.1023076923076923,-0.3661538461538461
0.2799999999999999,-2.48,-0.5675,0.0375,-0.1358333333333333,-0.3158333333333333
0.6642857142857144,-2.045714285714286,-0.6521428571428572,0.0492857142857142,-0.1485714285714285,-0.2885714285714286
1.1425,-1.5625,-0.7716666666666666,0.04,-0.155,-0.2941666666666666
1.2784615384615385,-1.4515384615384617,-0.7592307692307693,0.0484615384615384,-0.0746153846153846,-0.27
1.502727272727273,-1.314545454545455,-0.71,0.0581818181818181,-0.0309090909090909,-0.2481818181818181
1.466,-1.156,-0.719,0.027,-0.04,-0.2299999999999999
1.154,-0.782,-0.6206666666666667,-0.042,0.01,-0.1966666666666666
0.9858333333333335,-0.4725,-0.4683333333333333,-0.0908333333333333,0.0508333333333333,-0.1633333333333333
0.7946153846153846,-0.3761538461538461,-0.2046153846153846,-0.1246153846153846,0.0661538461538461,-0.1376923076923077
0.6628571428571429,-0.6892857142857143,-0.0121428571428571,-0.2021428571428571,0.11,-0.1185714285714285
0.6699999999999999,-0.8754545454545455,0.2981818181818182,-0.2345454545454545,0.1590909090909091,-0.0709090909090909
0.833076923076923,-0.8153846153846154,0.4115384615384615,-0.2030769230769231,0.1907692307692307,0.0053846153846153
0.8507692307692308,-0.61,0.4938461538461538,-0.1669230769230769,0.2376923076923076,0.0684615384615384
0.6184615384615385,-0.3907692307692307,0.5669230769230769,-0.1115384615384615,0.3315384615384615,0.0876923076923076
0.33615384615384625,-0.1692307692307692,0.8376923076923077,-0.0038461538461538,0.4315384615384615,0.083076923076923
0.4545454545454546,-0.1845454545454545,0.9036363636363636,0.0818181818181818,0.4709090909090909,0.0645454545454545
0.5507692307692308,-0.2330769230769231,0.7923076923076924,0.11,0.47,0.0615384615384615
0.44000000000000006,0.0784615384615384,0.7876923076923077,0.11,0.4707692307692307,0.07
0.2781818181818182,0.6218181818181818,0.8654545454545454,0.1154545454545454,0.4709090909090909,0.069090909090909
0.07769230769230762,0.8415384615384615,0.8661538461538462,0.12,0.4723076923076922,0.09
0.014545454545454417,1.0636363636363635,0.629090909090909,0.1127272727272727,0.4390909090909091,0.1345454545454545
0.028000000000000025,1.494,0.402,0.1693333333333333,0.354,0.142
0.1776923076923077,3.2715384615384617,0.003076923076923,0.2007692307692307,0.2938461538461538,0.1307692307692307
0.52,4.7491666666666665,-0.2091666666666666,0.1158333333333333,0.185,0.085
0.8781818181818182,5.564545454545455,-0.4236363636363636,0.0427272727272727,0.13,0.0536363636363636
1.1385714285714286,4.734999999999999,-0.4671428571428571,0.0614285714285714,0.1185714285714285,0.0042857142857142
0.812,2.7700000000000005,-0.796,0.023,0.135,-0.0289999999999999
0.31899999999999995,1.849,-1.086,-0.007,0.173,0.053
0.15437499999999993,1.11125,-1.586875,-0.01875,0.23875,0.261875
1.3914285714285715,0.8357142857142857,-1.825,-0.0585714285714285,0.3821428571428571,0.3478571428571428
2.689,0.733,-1.762,-0.073,0.4939999999999999,0.312
2.912,0.5913333333333334,-1.8753333333333333,-0.0626666666666666,0.4626666666666666,0.2993333333333333
2.6236363636363635,0.4281818181818181,-2.3018181818181818,-0.0981818181818181,0.2972727272727273,0.29
2.079285714285714,0.2214285714285714,-2.54,-0.22,0.1757142857142857,0.2671428571428572
1.33,-0.35,-2.0518181818181818,-0.3463636363636364,0.0981818181818181,0.22
0.6792857142857143,-0.9135714285714286,-1.352857142857143,-0.3535714285714286,-0.0192857142857142,0.2407142857142857
0.15363636363636357,-1.5,-0.4381818181818182,-0.2709090909090909,-0.0927272727272727,0.3018181818181818
0.32500000000000007,-1.8785714285714283,-0.1521428571428571,-0.1871428571428571,-0.1578571428571428,0.3842857142857143
1.008181818181818,-2.652727272727273,-0.1190909090909091,-0.0981818181818181,-0.2063636363636363,0.4709090909090909
1.5415384615384615,-3.1453846153846152,-0.1623076923076923,-0.02,-0.2215384615384615,0.483076923076923
1.7754545454545454,-3.7609090909090894,-0.2954545454545454,0.0627272727272727,-0.1990909090909091,0.4927272727272727
1.9233333333333333,-4.108666666666666,-0.2233333333333333,0.2433333333333333,-0.0833333333333333,0.5066666666666666
2.422727272727273,-4.08,-0.3563636363636364,0.3890909090909091,-0.0172727272727272,0.4672727272727272
2.4278571428571425,-3.6942857142857135,-0.4057142857142857,0.4764285714285714,0.0521428571428571,0.4321428571428571
2.2254545454545456,-2.708181818181818,-0.4509090909090909,0.5218181818181818,0.1181818181818181,0.4136363636363636
2.04,-1.7761538461538462,-0.6646153846153846,0.4907692307692307,0.1507692307692307,0.3830769230769231
1.7666666666666666,-0.3433333333333333,-1.0355555555555556,0.3944444444444444,0.1922222222222222,0.3333333333333333
1.4270588235294117,0.4705882352941176,-1.006470588235294,0.2547058823529411,0.3164705882352941,0.2911764705882353
1.5699999999999998,0.5499999999999999,-0.5225,0.1608333333333333,0.3391666666666666,0.1983333333333333
1.63,0.3716666666666666,-0.235,0.0883333333333333,0.1975,0.0908333333333333
1.3375000000000001,0.0974999999999999,0.305,0.0258333333333333,0.0641666666666666,0.0183333333333333
1.0854545454545454,-0.0427272727272727,0.7418181818181818,0.0154545454545454,0.0281818181818181,0.0354545454545454
1.3885714285714286,-0.31,1.0178571428571428,0.0185714285714285,-0.0285714285714285,0.0628571428571428
1.9964285714285714,-0.2714285714285714,0.91,-0.0092857142857142,-0.0964285714285714,0.0007142857142857
2.2372727272727273,0.2318181818181818,0.9063636363636364,-0.0363636363636363,-0.1663636363636363,-0.1318181818181818
2.093571428571429,0.3471428571428571,0.8335714285714285,-0.0514285714285714,-0.2578571428571428,-0.2564285714285714
1.6963636363636363,0.1427272727272727,0.8463636363636364,-0.0827272727272727,-0.3654545454545454,-0.3009090909090909
1.322142857142857,-0.0914285714285714,0.9514285714285714,-0.0778571428571428,-0.4642857142857143,-0.2728571428571428
1.049090909090909,-0.12,1.16,-0.0599999999999999,-0.5245454545454545,-0.2090909090909091
1.3192307692307692,0.223076923076923,1.2038461538461538,-0.0807692307692307,-0.5392307692307692,-0.2015384615384615
1.545,0.8925,0.9333333333333332,-0.1216666666666666,-0.5616666666666666,-0.1999999999999999
1.8335714285714286,1.3914285714285717,0.4464285714285714,-0.0107142857142857,-0.4242857142857142,-0.1964285714285714
2.0181818181818185,2.5318181818181817,-0.4663636363636363,0.1272727272727273,-0.3236363636363636,-0.2063636363636363
1.5292857142857144,3.768571428571428,-0.7435714285714285,0.0957142857142857,-0.2357142857142857,-0.1328571428571428
0.49363636363636365,4.782727272727272,-0.7281818181818182,0.0218181818181818,-0.1472727272727272,0.0172727272727272
0.45499999999999996,4.456,-0.86,0.038,-0.007,0.154
1.855,2.7225,-1.7831249999999998,0.025625,-0.0075,0.17
2.49,1.2676923076923077,-2.2315384615384617,-0.0853846153846153,-0.1646153846153846,0.0623076923076923
2.006363636363636,0.2163636363636363,-1.982727272727273,-0.1872727272727272,-0.2872727272727273,-0.1145454545454545
1.0084615384615383,-0.2723076923076923,-1.566923076923077,-0.15,-0.3115384615384615,-0.2407692307692307
-0.2963636363636364,-0.2036363636363636,-1.1081818181818184,-0.0118181818181818,-0.2463636363636363,-0.2718181818181818
-0.5328571428571429,0.2699999999999999,-1.2192857142857143,0.0742857142857142,-0.1157142857142857,-0.2164285714285714
0.21749999999999992,0.5925,-1.6049999999999998,-0.0025,-0.0891666666666666,-0.1833333333333333
0.9346153846153847,0.5692307692307692,-1.5992307692307692,-0.1953846153846153,-0.0223076923076923,-0.2469230769230769
2.1174999999999997,0.24,-1.0325,-0.4016666666666666,0.065,-0.4191666666666667
2.6,-0.141,-0.5700000000000001,-0.483,0.103,-0.597
1.860625,-1.030625,0.19,-0.39,0.121875,-0.776875
0.6484615384615384,-1.8192307692307688,0.2769230769230769,-0.1807692307692307,0.2146153846153846,-0.7899999999999999
-0.2736363636363637,-2.6809090909090907,-0.0463636363636363,-0.0309090909090909,0.2909090909090909,-0.7036363636363636
-0.4771428571428571,-3.0335714285714284,-0.3771428571428571,0.0371428571428571,0.3185714285714285,-0.5814285714285715
-0.3320000000000001,-3.213,-0.588,0.078,0.284,-0.4589999999999999
0.034666666666666845,-3.2419999999999995,-0.6686666666666667,0.1333333333333333,0.216,-0.384
0.3036363636363636,-2.8227272727272728,-0.6418181818181817,0.21,0.1609090909090909,-0.3372727272727273
0.5285714285714286,-2.48,-0.6228571428571428,0.2192857142857143,0.1342857142857142,-0.3235714285714285
0.7863636363636364,-1.93,-0.6327272727272727,0.1981818181818182,0.0827272727272727,-0.35
0.737,-1.642,-0.6359999999999999,0.188,0.033,-0.383
0.3640000000000001,-1.1693333333333331,-0.8486666666666667,0.1493333333333333,0.0453333333333333,-0.3586666666666666
0.32000000000000006,-0.9571428571428572,-0.9457142857142856,0.0564285714285714,0.0814285714285714,-0.2571428571428572
0.4690909090909091,-0.8027272727272727,-0.7509090909090909,-0.0209090909090909,0.0754545454545454,-0.1672727272727272
0.53,-0.6778571428571428,-0.4271428571428571,-0.0778571428571428,0.09,-0.0914285714285714
0.7236363636363636,-0.7281818181818182,0.1072727272727272,-0.1154545454545454,0.1290909090909091,-0.0636363636363636
0.92,-0.7990909090909092,0.2345454545454545,-0.1409090909090909,0.149090909090909,-0.1054545454545454
0.8850000000000001,-0.4892857142857142,0.4114285714285714,-0.2364285714285714,0.1335714285714286,-0.1371428571428571
0.5900000000000001,-0.3578571428571428,0.5364285714285714,-0.3057142857142857,0.1685714285714285,-0.0657142857142857
0.32999999999999996,-0.73,0.88,-0.1954545454545454,0.209090909090909,0.0581818181818181
0.37642857142857145,-0.8078571428571429,1.1264285714285711,-0.0692857142857142,0.2557142857142857,0.1107142857142857
0.5645454545454545,-0.3263636363636363,1.201818181818182,0.0545454545454545,0.3472727272727272,0.1145454545454545
0.55,0.0192307692307692,1.0392307692307694,0.1469230769230769,0.3861538461538462,0.13
0.3075,0.385,0.9525,0.1883333333333333,0.3658333333333333,0.1625
0.06999999999999995,0.5738461538461539,1.136923076923077,0.2015384615384615,0.36,0.2061538461538461
0.14,1.024,1.444,0.244,0.367,0.2429999999999999
0.5743750000000001,1.719375,1.424375,0.354375,0.29625,0.226875
0.9054545454545455,2.87,0.6827272727272727,0.4636363636363636,0.1054545454545454,0.1145454545454545
0.7061538461538461,3.860769230769231,-0.2523076923076923,0.3976923076923077,-0.0353846153846153,0.0223076923076923
0.2433333333333333,4.63,-1.106666666666667,0.1916666666666666,-0.0908333333333333,-0.0183333333333333
0.15000000000000002,4.648,-1.258,0.097,-0.05,0.013
0.5513333333333332,3.3313333333333333,-1.0726666666666669,0.1213333333333333,-0.0926666666666666,-0.048
0.14846153846153842,1.9553846153846155,-1.52,0.0084615384615384,-0.0815384615384615,-0.1292307692307692
-0.6491666666666669,0.9233333333333332,-2.1391666666666667,-0.1325,0.0316666666666666,0.0825
0.3123076923076924,0.2892307692307692,-2.163846153846154,-0.1738461538461538,0.0969230769230769,0.3384615384615385
1.9180000000000001,-0.186,-1.99,-0.106,0.025,0.436
2.3033333333333337,-0.054,-2.0113333333333334,-0.0553333333333333,-0.0446666666666666,0.4233333333333333
2.005,0.3208333333333333,-2.4041666666666663,-0.1325,-0.04,0.3958333333333333
1.782857142857143,0.4285714285714285,-2.367857142857143,-0.255,-0.0621428571428571,0.3942857142857143
1.5872727272727274,0.21,-1.4272727272727272,-0.2863636363636364,-0.1136363636363636,0.3799999999999999
1.4009999999999998,-0.156,-0.701,-0.206,-0.181,0.372
0.9873333333333334,-0.67,-0.2,0.0006666666666666,-0.1973333333333333,0.4406666666666667
0.8730769230769231,-0.9138461538461538,-0.5207692307692308,0.1446153846153846,-0.2284615384615384,0.5338461538461539
1.125,-1.33,-1.1224999999999998,0.1433333333333333,-0.165,0.5491666666666667
1.603846153846154,-1.856923076923077,-1.1092307692307692,0.12,-0.1923076923076923,0.4961538461538461
2.0391666666666666,-2.6083333333333334,-0.7883333333333334,0.2058333333333333,-0.2066666666666666,0.4908333333333333
2.253846153846154,-2.796923076923077,-0.7323076923076923,0.2815384615384615,-0.2223076923076923,0.4938461538461538
2.3825000000000003,-2.645,-0.8675,0.2733333333333334,-0.1708333333333333,0.4508333333333333
2.05,-2.4615384615384617,-0.6707692307692308,0.2123076923076922,-0.1376923076923077,0.3915384615384615
1.0925,-2.26,-0.1575,0.1883333333333333,-0.1225,0.385
0.652,-2.264,0.154,0.192,-0.107,0.392
0.8006666666666666,-2.369333333333333,0.4226666666666666,0.2633333333333333,-0.094,0.3926666666666667
1.3307692307692307,-2.4184615384615387,0.6053846153846154,0.38,-0.1261538461538461,0.3392307692307692
1.7225000000000001,-1.75,0.555,0.4008333333333334,-0.1666666666666666,0.3033333333333333
1.676153846153846,-1.2230769230769232,0.4338461538461539,0.343076923076923,-0.2138461538461538,0.3007692307692307
1.639,-0.714,0.121,0.2029999999999999,-0.297,0.274
1.5691666666666668,-0.0149999999999999,0.0325,-0.0216666666666666,-0.3758333333333333,0.2125
1.5293333333333332,0.4626666666666666,0.3386666666666666,-0.336,-0.4753333333333333,0.1346666666666666
1.5761538461538462,0.3461538461538461,0.84,-0.5484615384615384,-0.643076923076923,0.0269230769230769
1.2391666666666665,-0.0325,1.5225,-0.6166666666666667,-0.7691666666666667,-0.0358333333333333
0.63,-0.2009999999999999,1.94,-0.5740000000000001,-0.857,-0.01
0.7373333333333334,-0.3033333333333333,2.0933333333333333,-0.4493333333333333,-0.9146666666666668,0.0206666666666666
1.4338461538461538,-0.1415384615384615,1.8030769230769232,-0.2176923076923076,-0.8184615384615385,0.0069230769230769
3.01,0.8324999999999999,-0.375,0.175,-0.5658333333333333,-0.1516666666666666
3.396,2.614,-1.484,0.144,-0.6799999999999999,-0.284
1.9207692307692308,4.893846153846154,-1.0161538461538462,0.013076923076923,-0.583076923076923,-0.4361538461538461
-0.3946666666666667,4.105333333333333,0.086,0.148,-0.3413333333333333,-0.17
0.26250000000000007,1.9375,-1.0375,0.2791666666666667,-0.2433333333333333,-0.0458333333333333
1.0769230769230769,0.6330769230769231,-2.266153846153846,0.19,-0.3415384615384615,-0.0992307692307692
1.1708333333333334,0.4041666666666666,-2.6300000000000003,0.03,-0.36,-0.0858333333333333
1.0084615384615383,0.806923076923077,-2.1592307692307693,-0.0384615384615384,-0.3661538461538461,-0.0969230769230769
0.45000000000000007,1.3675,-1.7525000000000002,-0.0841666666666666,-0.3333333333333333,-0.1125
0.20769230769230773,1.4792307692307691,-1.7315384615384617,-0.1807692307692307,-0.2253846153846154,-0.1469230769230769
0.12166666666666659,1.1208333333333331,-1.5133333333333334,-0.2641666666666666,-0.1233333333333333,-0.1733333333333333
0.37769230769230766,0.6076923076923078,-1.3176923076923075,-0.2730769230769231,-0.0476923076923076,-0.183076923076923
0.9425,0.0525,-1.05,-0.3308333333333333,0.015,-0.2066666666666666
1.3823076923076922,-0.18,-0.8538461538461538,-0.4469230769230768,0.123076923076923,-0.2576923076923077
1.6400000000000001,-0.5941666666666666,-0.2158333333333333,-0.4766666666666666,0.2183333333333333,-0.3675
1.1915384615384614,-0.8123076923076924,0.2576923076923077,-0.4169230769230769,0.2546153846153846,-0.4476923076923077
0.16249999999999998,-1.1175,0.6325000000000001,-0.3324999999999999,0.3191666666666666,-0.4508333333333333
-0.22076923076923083,-1.5084615384615383,0.3992307692307693,-0.26,0.3053846153846154,-0.4069230769230769
-0.46818181818181803,-1.970909090909091,-0.1209090909090909,-0.2381818181818182,0.2554545454545454,-0.35
-0.21466666666666656,-2.4546666666666668,-0.4606666666666666,-0.2546666666666667,0.246,-0.2966666666666667
0.3727272727272727,-3.12,-0.4618181818181818,-0.2245454545454545,0.2009090909090909,-0.2472727272727272
0.8261538461538462,-3.257692307692308,-0.2976923076923077,-0.1776923076923077,0.1953846153846153,-0.2707692307692307
1.28,-3.0541666666666667,-0.0741666666666666,-0.11,0.2125,-0.3258333333333333
1.2184615384615385,-2.8030769230769232,-0.0084615384615384,-0.0546153846153846,0.1969230769230769,-0.3123076923076923
1.0924999999999998,-2.5716666666666668,-0.0208333333333333,-0.0433333333333333,0.2058333333333333,-0.2316666666666667
0.9353846153846154,-2.4323076923076923,0.0753846153846153,-0.0661538461538461,0.1623076923076923,-0.1646153846153846
-0.006666666666666599,-2.0516666666666667,0.4875,-0.0291666666666666,0.1125,-0.0841666666666666
-0.72,-1.439230769230769,0.6807692307692308,0.0661538461538461,0.0876923076923076,0.0238461538461538
-0.8274999999999999,-0.65,0.705,0.1883333333333333,0.0766666666666666,0.1133333333333333
-0.6359999999999999,-0.42,0.682,0.266,0.044,0.142
0.0675,0.0895,0.6885,0.296,0.02,0.1355
0.8007692307692308,0.7115384615384616,0.6553846153846153,0.1961538461538461,0.08,0.1246153846153846
1.2275,0.89,0.96,0.1141666666666666,0.1241666666666666,0.1066666666666666
1.4707692307692308,0.7438461538461538,1.1984615384615385,0.1261538461538461,0.1638461538461538,0.0938461538461538
1.585,0.0725,1.1175,0.135,0.2083333333333333,0.0491666666666666
1.2084615384615385,-0.3153846153846154,1.133846153846154,0.0869230769230769,0.2715384615384615,-0.0023076923076923
0.6036363636363635,-0.4236363636363636,1.289090909090909,0.1463636363636363,0.3563636363636364,-0.0281818181818181
0.3571428571428571,-0.2235714285714285,1.225,0.2557142857142857,0.4442857142857143,-0.0264285714285714
0.4425,0.2625,0.9325,0.2858333333333333,0.5333333333333333,0.0008333333333333
0.7123076923076923,0.6230769230769231,0.7630769230769231,0.2446153846153846,0.5784615384615385,0.0176923076923076
0.9625,0.9825,0.645,0.1475,0.585,0.0008333333333333
1.0515384615384615,0.9453846153846152,0.8115384615384615,-0.0361538461538461,0.6315384615384616,-0.0076923076923076
1.2733333333333334,0.6974999999999999,1.5233333333333334,-0.1891666666666666,0.6766666666666666,-0.0466666666666666
1.3369230769230769,0.5692307692307692,1.9138461538461533,-0.1838461538461538,0.6546153846153846,-0.123076923076923
0.9816666666666667,1.0666666666666669,1.3591666666666666,-0.0375,0.5658333333333333,-0.2383333333333333
0.5207142857142858,2.151428571428572,0.1185714285714285,0.0714285714285714,0.3557142857142857,-0.41
-0.8445454545454545,3.5063636363636363,-1.65,0.079090909090909,0.0718181818181818,-0.5527272727272727
-1.2400000000000002,3.61,-2.6315384615384616,-0.0446153846153846,-0.0907692307692307,-0.6176923076923077
-0.7699999999999998,2.315,-3.37,-0.1883333333333333,-0.1508333333333333,-0.5825
0.013846153846153841,0.6830769230769231,-3.2930769230769235,-0.2361538461538461,-0.1307692307692307,-0.3984615384615384
0.7433333333333334,-1.4833333333333334,-3.356666666666667,-0.2741666666666666,0.0,-0.1566666666666666
1.3069230769230769,-2.232307692307692,-3.2115384615384617,-0.3415384615384615,0.2053846153846154,0.1338461538461538
2.3616666666666664,-1.8525,-2.5275,-0.3633333333333333,0.3416666666666666,0.4091666666666667
2.714615384615385,-1.013076923076923,-2.164615384615385,-0.3107692307692308,0.3392307692307692,0.6092307692307692
2.8449999999999998,0.23,-1.815,-0.2133333333333333,0.29,0.6541666666666667
2.666923076923077,0.6761538461538461,-1.5415384615384615,-0.0976923076923076,0.1923076923076923,0.5053846153846154
1.5608333333333333,0.6341666666666667,-1.24,0.02,0.0633333333333333,0.3416666666666666
0.7107692307692308,0.3292307692307692,-1.3946153846153846,0.0638461538461538,-0.0392307692307692,0.2969230769230769
0.52,-0.5375,-1.8675,-0.0116666666666666,-0.1375,0.3433333333333333
0.7353846153846154,-0.9469230769230768,-1.926153846153846,-0.0953846153846153,-0.2369230769230769,0.4169230769230769
0.9958333333333333,-1.2658333333333334,-1.6475,-0.1291666666666666,-0.2833333333333333,0.5166666666666667
1.1961538461538461,-1.2815384615384615,-1.2976923076923077,-0.1192307692307692,-0.3223076923076923,0.6184615384615384
1.355,-1.0125,-0.9275,-0.0758333333333333,-0.3374999999999999,0.68
1.3753846153846152,-0.823076923076923,-0.856923076923077,-0.0169230769230769,-0.4015384615384615,0.6707692307692308
1.3125,-0.7324999999999999,-1.155,0.0341666666666666,-0.4241666666666666,0.5941666666666666
1.5215384615384615,-0.7107692307692308,-1.3023076923076924,-0.0084615384615384,-0.3146153846153846,0.4969230769230769
1.8883333333333332,-0.6458333333333334,-1.2133333333333334,-0.1283333333333333,-0.245,0.4208333333333333
2.08,-0.4,-0.963846153846154,-0.1592307692307692,-0.2238461538461538,0.3576923076923077
2.1758333333333333,-0.1541666666666666,-0.4466666666666667,-0.0974999999999999,-0.1825,0.3191666666666666
2.1107692307692307,-0.1261538461538461,-0.2946153846153846,-0.0615384615384615,-0.1353846153846153,0.2623076923076923
1.8575,-0.155,-0.3875,-0.0733333333333333,-0.1191666666666666,0.175
1.4753846153846153,-0.2969230769230769,-0.453076923076923,-0.103076923076923,-0.1561538461538461,0.0753846153846153
0.825,-0.465,-0.345,-0.1441666666666666,-0.2191666666666666,0.0349999999999999
0.5223076923076924,-0.4246153846153845,-0.1838461538461538,-0.1630769230769231,-0.2692307692307692,0.0492307692307692
0.5025,-0.3275,0.1025,-0.1608333333333333,-0.2791666666666667,0.06
0.5992307692307692,-0.3446153846153846,0.2492307692307692,-0.1384615384615384,-0.2715384615384615,0.0684615384615384
0.8016666666666667,-0.4233333333333333,0.2516666666666666,-0.1525,-0.2866666666666667,0.1058333333333333
1.0807692307692307,-0.5107692307692309,0.15,-0.1853846153846154,-0.32,0.1338461538461538
1.3625,-0.5975,-0.125,-0.1758333333333333,-0.3358333333333334,0.1208333333333333
1.2007692307692306,-0.4138461538461538,-0.1923076923076923,-0.183076923076923,-0.3323076923076923,0.1169230769230769
0.9691666666666667,0.0891666666666666,0.0766666666666666,-0.2208333333333333,-0.3366666666666666,0.145
1.0476923076923077,0.2884615384615384,0.2053846153846154,-0.2492307692307692,-0.3576923076923076,0.1515384615384615
1.4083333333333334,0.0316666666666666,0.5366666666666666,-0.1866666666666666,-0.3716666666666666,0.1125
1.613846153846154,-0.2069230769230769,0.7746153846153846,-0.0715384615384615,-0.3823076923076923,0.06
2.09,-0.7399999999999999,0.905,0.0533333333333333,-0.3991666666666666,-0.025
2.224615384615385,-0.9192307692307692,1.0046153846153845,0.183076923076923,-0.44,-0.093076923076923
1.95,-0.5700000000000001,1.265,0.2891666666666667,-0.4624999999999999,-0.0958333333333333
1.713076923076923,-0.1069230769230769,1.43,0.3723076923076923,-0.5292307692307693,-0.0846153846153846
1.15,0.6725,1.6075,0.4441666666666666,-0.5666666666666667,-0.0583333333333333
0.7023076923076923,0.9930769230769232,1.676923076923077,0.4961538461538461,-0.5338461538461539,0.0007692307692307
0.1875,1.3949999999999998,1.5175,0.54,-0.4875,0.1166666666666666
-0.0707692307692307,1.74,1.3299999999999998,0.56,-0.4792307692307692,0.2276923076923077
-1.293333333333333,2.2433333333333336,1.1466666666666667,0.6908333333333333,-0.5,0.4675
-1.5561538461538458,2.229230769230769,0.7646153846153846,1.023846153846154,-0.37,0.7838461538461539
0.7300000000000001,1.27,-1.3125,1.2416666666666667,-0.1541666666666666,0.7316666666666666
2.7507692307692304,0.7330769230769231,-3.5623076923076926,1.0307692307692309,0.0538461538461538,0.2661538461538461
4.672499999999999,0.8825,-5.4075,0.51,0.2625,-0.3458333333333334
4.404615384615385,1.7915384615384615,-4.353076923076923,0.113076923076923,0.3069230769230769,-0.663076923076923
3.0425,2.4,-2.5500000000000003,-0.0441666666666666,0.3275,-0.705
2.4061538461538463,1.9538461538461536,-2.277692307692308,-0.133076923076923,0.3284615384615384,-0.7176923076923077
1.1441666666666668,0.5383333333333333,-2.45,-0.2183333333333333,0.3583333333333333,-0.7600000000000001
0.1530769230769231,-0.5,-2.356923076923077,-0.3215384615384615,0.4123076923076923,-0.8138461538461539
-1.0,-1.1808333333333334,-1.68,-0.3266666666666666,0.4375,-0.7975
-1.5592307692307696,-1.0684615384615386,-1.2369230769230768,-0.1715384615384615,0.4269230769230769,-0.6615384615384615
-1.725,-0.3825,-1.0308333333333335,0.0083333333333333,0.3591666666666666,-0.545
-1.5546153846153845,0.2484615384615384,-0.9869230769230768,0.1546153846153846,0.2746153846153846,-0.4499999999999999
-0.9566666666666668,0.9216666666666667,-1.2966666666666666,0.1633333333333333,0.2041666666666667,-0.3708333333333333
-0.27692307692307705,0.9376923076923078,-1.3815384615384616,0.1092307692307692,0.173076923076923,-0.3392307692307692
0.6733333333333333,0.3144444444444444,-1.31,0.0533333333333333,0.18,-0.3466666666666667
1.2037499999999999,-0.3825,-1.08875,-0.015625,0.14,-0.393125
1.2908333333333333,-1.4174999999999998,-0.4725,-0.0775,0.1175,-0.4016666666666666
1.2484615384615383,-1.9415384615384617,-0.1461538461538461,-0.0907692307692307,0.1384615384615384,-0.43
0.8075000000000001,-2.6325,0.14,-0.0233333333333333,0.1208333333333333,-0.4725
0.21999999999999997,-2.9723076923076923,0.2692307692307692,0.0707692307692307,0.0761538461538461,-0.4476923076923077
-0.35749999999999993,-2.9275,0.0483333333333333,0.1175,0.0241666666666666,-0.3974999999999999
-0.3946153846153846,-2.500769230769232,-0.1,0.1269230769230769,-0.0253846153846153,-0.3284615384615384
-0.3325,-1.9891666666666667,-0.4083333333333332,0.0941666666666666,-0.0508333333333333,-0.2608333333333333
-0.04307692307692301,-1.6653846153846157,-0.7776923076923077,0.0046153846153846,-0.0753846153846153,-0.1876923076923076
0.5214285714285714,-1.3257142857142858,-1.53,-0.1571428571428571,-0.1128571428571428,-0.1428571428571428
0.6294444444444445,-1.5155555555555555,-1.6755555555555557,-0.4088888888888889,-0.0866666666666666,-0.0916666666666666
0.7783333333333334,-2.04,0.2866666666666667,-0.5075,-0.0016666666666666,-0.0808333333333333
0.9091666666666667,-2.0541666666666667,1.5424999999999998,-0.3366666666666666,0.1358333333333333,-0.0841666666666666
1.0953846153846154,-1.6376923076923076,2.079230769230769,-0.103076923076923,0.2553846153846154,-0.0676923076923076
1.0263636363636364,-1.29,1.6363636363636365,0.0354545454545454,0.3281818181818182,-0.0627272727272727
0.6757142857142857,-0.3464285714285714,0.5207142857142857,0.0121428571428571,0.4578571428571428,-0.0385714285714285
0.5284615384615385,0.2646153846153846,0.2553846153846154,-0.0446153846153846,0.6,-0.0007692307692307
0.6116666666666667,0.6466666666666666,0.4958333333333333,-0.0533333333333333,0.6616666666666667,0.0225
0.6699999999999999,0.8661538461538462,0.6961538461538462,-0.0553846153846153,0.7353846153846154,0.0223076923076923
0.48083333333333333,1.4733333333333334,1.055,0.0141666666666666,0.7083333333333334,-0.0116666666666666
0.1315384615384616,2.016923076923077,0.9346153846153846,0.1623076923076923,0.5623076923076923,-0.0746153846153846
-0.16272727272727283,3.119090909090909,0.3490909090909091,0.2027272727272727,0.4490909090909091,-0.1372727272727272
-0.30499999999999994,4.1692857142857145,-0.1385714285714285,0.05,0.3464285714285714,-0.1585714285714285
-0.2541666666666669,4.601666666666667,-1.1516666666666666,-0.0974999999999999,0.3191666666666666,-0.0875
-0.18454545454545457,3.983636363636364,-1.6909090909090911,-0.1136363636363636,0.2727272727272727,-0.0154545454545454
-0.49642857142857144,2.751428571428572,-2.2264285714285714,-0.2085714285714285,0.335,-0.0321428571428571
-0.6884615384615385,1.9746153846153844,-2.223076923076923,-0.3576923076923077,0.4169230769230769,0.1315384615384615
1.1116666666666666,0.4441666666666666,-2.033333333333333,-0.4108333333333333,0.3625,0.2716666666666666
2.1125,-0.2041666666666667,-2.0275,-0.3766666666666666,0.2875,0.3066666666666666
2.386153846153846,-0.2423076923076923,-2.0330769230769232,-0.2792307692307692,0.1276923076923077,0.2946153846153846
1.8192307692307692,0.1292307692307692,-2.332307692307692,-0.2261538461538461,-0.0192307692307692,0.2684615384615385
0.9272727272727272,0.3872727272727272,-2.591818181818182,-0.2981818181818182,-0.1027272727272727,0.2518181818181818
0.3492857142857143,0.2014285714285714,-2.1814285714285715,-0.3892857142857143,-0.1592857142857142,0.2657142857142857
-0.038181818181818095,-0.459090909090909,-1.3690909090909091,-0.4281818181818181,-0.2227272727272727,0.3527272727272727
0.13416666666666666,-1.0133333333333334,-1.0091666666666668,-0.3825,-0.2141666666666667,0.4683333333333333
1.2185714285714284,-2.032857142857143,-0.7935714285714285,-0.2799999999999999,-0.185,0.5414285714285715
1.943846153846154,-2.613846153846154,-0.7246153846153847,-0.1769230769230769,-0.1676923076923077,0.5384615384615384
2.3966666666666665,-2.9408333333333334,-0.605,-0.1008333333333333,-0.1291666666666666,0.5016666666666666
2.4254545454545458,-2.87,-0.5063636363636363,-0.0154545454545454,-0.0354545454545454,0.4518181818181818
1.991428571428571,-2.5650000000000004,-0.7057142857142857,0.0707142857142857,0.04,0.4078571428571428
1.6315384615384616,-2.363076923076924,-1.253076923076923,0.0807692307692307,0.1,0.3807692307692308
1.49,-2.11,-1.4525,0.01,0.1241666666666666,0.36
1.2958333333333334,-1.9175,-1.2875,-0.0575,0.1208333333333333,0.3441666666666667
1.0169230769230768,-1.6223076923076922,-0.5530769230769231,-0.0246153846153846,0.1053846153846154,0.29
0.8146153846153846,-1.4784615384615385,0.0515384615384615,0.1161538461538461,0.0723076923076923,0.2523076923076923
0.7141666666666667,-1.2075,0.4225,0.2008333333333333,0.0041666666666666,0.2275
1.0075,-1.3258333333333334,0.4466666666666667,0.2675,-0.065,0.1775
1.3607692307692307,-1.3484615384615384,0.1976923076923076,0.3046153846153846,-0.0892307692307692,0.1384615384615384
1.4361538461538461,-0.9723076923076922,-0.1,0.2369230769230769,-0.14,0.1053846153846154
1.4091666666666667,-0.2908333333333333,-0.4158333333333333,0.0916666666666666,-0.1841666666666666,0.075
1.3253846153846154,0.3069230769230769,-0.343076923076923,-0.083076923076923,-0.2215384615384615,0.0553846153846153
1.449090909090909,0.4545454545454545,0.0327272727272727,-0.1681818181818181,-0.2636363636363636,0.009090909090909
1.48,0.1825,0.3716666666666666,-0.1808333333333333,-0.3108333333333333,-0.0508333333333333
1.237142857142857,-0.3742857142857143,0.9142857142857144,-0.1228571428571428,-0.37,-0.0878571428571428
1.0954545454545455,-0.6854545454545454,1.0436363636363637,-0.059090909090909,-0.4172727272727272,-0.1118181818181818
0.9707142857142858,-0.5778571428571428,1.0678571428571428,-0.0221428571428571,-0.4342857142857143,-0.1399999999999999
1.2084615384615385,-0.2415384615384615,0.94,-0.0053846153846153,-0.4607692307692307,-0.1669230769230769
1.4791666666666667,0.3575,0.635,-0.0225,-0.4658333333333333,-0.1949999999999999
1.5525,0.61,0.5958333333333333,-0.0349999999999999,-0.4216666666666666,-0.2191666666666666
1.8484615384615384,0.9146153846153846,0.5423076923076923,0.0469230769230769,-0.2815384615384615,-0.2546153846153846
2.0246153846153847,1.3946153846153846,0.2153846153846153,0.19,-0.133076923076923,-0.2761538461538462
1.8172727272727274,2.5427272727272725,0.069090909090909,0.2618181818181818,0.0363636363636363,-0.209090909090909
1.4666666666666666,3.18,0.18,0.3108333333333333,0.1466666666666666,-0.0316666666666666
0.73,3.231428571428572,0.5235714285714286,0.4342857142857143,0.1914285714285714,0.1421428571428571
0.6792307692307693,2.766153846153846,0.1207692307692307,0.5515384615384616,0.2476923076923077,0.2276923076923077
1.177142857142857,1.8585714285714283,-2.1157142857142857,0.4857142857142857,0.2057142857142857,0.1885714285714285
1.7733333333333334,1.137222222222222,-3.5505555555555555,0.1705555555555555,0.0761111111111111,0.0594444444444444
2.075,0.9325,-3.3175000000000003,-0.1625,-0.0825,-0.1533333333333333
1.46,1.0646153846153843,-2.703076923076923,-0.2276923076923077,-0.1738461538461538,-0.2915384615384615
0.040000000000000036,1.315,-2.0108333333333333,-0.1325,-0.16,-0.2658333333333333
-0.45461538461538464,1.366923076923077,-1.9707692307692308,-0.0692307692307692,-0.1176923076923077,-0.1546153846153846
-0.3633333333333333,1.0033333333333332,-2.1966666666666668,-0.1541666666666666,-0.0783333333333333,-0.0691666666666666
0.24307692307692308,0.5053846153846154,-1.7730769230769228,-0.2946153846153846,-0.0384615384615384,-0.0923076923076923
1.1590909090909092,-0.0118181818181818,-0.9463636363636364,-0.4136363636363636,-0.0245454545454545,-0.2472727272727272
1.4821428571428572,-0.3928571428571428,-0.7078571428571429,-0.4885714285714285,0.0207142857142857,-0.4542857142857143
1.1925,-1.04,-0.2299999999999999,-0.5033333333333333,0.0991666666666666,-0.5891666666666667
0.9146153846153847,-1.4484615384615387,0.1038461538461538,-0.4538461538461539,0.1776923076923077,-0.6569230769230769
0.4309090909090909,-2.0209090909090905,0.5109090909090909,-0.3090909090909091,0.2190909090909091,-0.6581818181818182
0.23583333333333334,-2.5791666666666666,0.7008333333333333,-0.0558333333333333,0.2533333333333333,-0.625
0.16230769230769226,-3.349230769230769,0.9146153846153846,0.2361538461538461,0.2207692307692307,-0.5476923076923077
0.28714285714285714,-3.432142857142857,-0.0485714285714285,0.1721428571428571,0.1378571428571428,-0.475
0.4054545454545454,-3.041818181818182,-1.7563636363636363,-0.1290909090909091,0.1918181818181818,-0.4909090909090909
0.40384615384615385,-3.26076923076923,-1.8807692307692307,-0.1838461538461538,0.1507692307692307,-0.4861538461538461
0.38916666666666666,-3.0875,-1.1216666666666666,-0.1383333333333333,0.0558333333333333,-0.4308333333333333
0.3615384615384615,-2.327692307692308,-0.3330769230769231,-0.0638461538461538,0.0676923076923076,-0.3592307692307692
0.03230769230769237,-1.1776923076923076,0.5192307692307693,0.0853846153846153,0.13,-0.2384615384615384
-0.07499999999999996,-0.841,0.954,0.25,0.128,-0.102
0.06714285714285717,-0.1285714285714286,0.7521428571428571,0.3314285714285714,0.16,-0.0078571428571428
0.22461538461538466,0.6699999999999999,-0.6176923076923078,0.2038461538461538,0.2161538461538461,0.0292307692307692
0.3091666666666667,0.9533333333333333,-1.425,0.0124999999999999,0.2241666666666666,0.055
0.3857142857142858,0.8021428571428572,-0.9228571428571428,-0.1085714285714285,0.1942857142857143,0.0635714285714285
0.3616666666666667,0.18,-0.1366666666666667,-0.1783333333333333,0.21,0.0191666666666666
0.2825000000000001,-0.5341666666666667,0.4433333333333333,-0.1375,0.2408333333333333,-0.0216666666666666
0.625,-1.4,1.0799999999999998,-0.055,0.3266666666666666,-0.0241666666666666
1.3341666666666665,-1.4683333333333335,1.4483333333333337,0.0441666666666666,0.4083333333333334,-0.0641666666666666
1.1092307692307692,-0.5592307692307693,1.990769230769231,0.1676923076923077,0.4761538461538461,-0.09
0.3985714285714286,0.4007142857142857,1.881428571428572,0.2828571428571428,0.5642857142857143,-0.08
0.11166666666666669,0.6683333333333333,1.0991666666666666,0.2633333333333333,0.6141666666666666,-0.0433333333333333
-0.0507692307692309,0.7038461538461539,0.7815384615384615,0.1861538461538461,0.5676923076923077,0.0469230769230769
-0.2683333333333331,1.0841666666666667,0.2825,0.1641666666666666,0.4441666666666666,0.1458333333333333
-0.38769230769230756,1.7353846153846155,-0.0369230769230769,0.2515384615384615,0.2561538461538462,0.1438461538461538
-0.2516666666666667,3.651666666666667,-0.2683333333333333,0.2283333333333333,0.0933333333333333,0.0566666666666666
0.09583333333333321,4.791666666666667,-0.3358333333333334,0.025,-0.0333333333333333,-0.0666666666666666
0.2930769230769231,5.068461538461539,-0.5707692307692308,-0.1892307692307692,-0.1769230769230769,-0.1338461538461538
0.27363636363636357,4.552727272727273,-0.6218181818181818,-0.2809090909090909,-0.2345454545454545,-0.2163636363636363
-0.9092857142857145,3.22,-1.737142857142857,-0.3414285714285714,-0.1128571428571428,-0.1807142857142857
-1.2154545454545453,2.3390909090909093,-2.657272727272727,-0.4363636363636363,0.1118181818181818,0.0672727272727272
0.8715384615384615,0.8623076923076923,-2.6215384615384614,-0.4876923076923077,0.2992307692307692,0.2984615384615384
2.483076923076923,-0.1884615384615384,-1.9423076923076923,-0.3346153846153846,0.32,0.3846153846153846
3.045,-0.9216666666666664,-1.393333333333333,-0.055,0.2191666666666666,0.34
2.399230769230769,-0.8853846153846153,-1.633076923076923,0.1176923076923077,0.093076923076923,0.2984615384615384
1.2438461538461538,-0.6907692307692308,-2.45,0.0423076923076923,-0.0823076923076923,0.2738461538461539
0.5972727272727273,-0.7427272727272727,-2.38,-0.09,-0.1590909090909091,0.2818181818181818
0.013333333333333197,-1.366666666666667,-1.4166666666666667,-0.135,-0.2691666666666666,0.3116666666666667
-0.3706666666666669,-2.0340000000000003,-0.6226666666666667,-0.0726666666666666,-0.434,0.394
-0.08818181818181792,-2.8363636363636364,0.0272727272727272,0.0872727272727272,-0.4436363636363636,0.5181818181818182
0.4541666666666667,-3.2116666666666664,0.1041666666666666,0.2225,-0.3808333333333333,0.6075
1.9053846153846152,-3.566153846153846,-0.3238461538461538,0.3,-0.3715384615384615,0.5623076923076923
2.4823076923076925,-3.7830769230769232,-0.7284615384615384,0.29,-0.3276923076923076,0.4823076923076922
2.6466666666666665,-3.796666666666667,-1.005,0.2658333333333333,-0.2408333333333333,0.4441666666666666
2.490714285714286,-3.4285714285714284,-0.8857142857142858,0.26,-0.1864285714285714,0.4692857142857143
2.4718181818181817,-2.6163636363636367,-0.7354545454545455,0.2618181818181818,-0.0609090909090909,0.4763636363636364
2.3646153846153846,-2.016923076923077,-0.6653846153846155,0.2438461538461538,0.0707692307692307,0.4538461538461539
1.8815384615384616,-0.9315384615384616,-0.6446153846153847,0.1546153846153846,0.1484615384615384,0.4192307692307692
1.4907692307692306,-0.1992307692307692,-0.4538461538461539,0.0884615384615384,0.1576923076923077,0.3961538461538462
1.2141666666666666,0.1866666666666666,-0.0325,0.0958333333333333,0.1341666666666666,0.3316666666666666
1.0976923076923075,0.1661538461538461,0.3461538461538461,0.2061538461538461,0.1176923076923077,0.2169230769230769
0.959,0.498,0.279,0.258,0.075,0.11
0.7406666666666667,0.9826666666666668,-0.232,0.1673333333333333,-0.0486666666666666,0.0773333333333333
0.8308333333333333,1.2141666666666666,-0.6758333333333333,0.0333333333333333,-0.2008333333333333,0.1166666666666666
1.1324999999999998,0.8825,-0.5066666666666667,-0.0391666666666666,-0.3033333333333333,0.09
1.3772727272727274,0.4636363636363637,-0.049090909090909,-0.0781818181818181,-0.3127272727272727,0.0545454545454545
1.4841666666666666,0.41,0.3491666666666666,-0.1033333333333333,-0.3125,0.0191666666666666
1.4942857142857142,0.1614285714285714,0.5614285714285714,-0.1542857142857143,-0.3428571428571428,0.0021428571428571
1.5907142857142857,-0.3371428571428571,0.8571428571428571,-0.1507142857142857,-0.35,-0.0064285714285714
1.7374999999999998,-0.77,1.2875,-0.1141666666666666,-0.36,0.0108333333333333
1.8123076923076924,-0.5392307692307692,1.4792307692307691,-0.0876923076923076,-0.3630769230769231,-0.0069230769230769
1.8649999999999998,0.125,1.39,-0.0516666666666666,-0.3783333333333333,-0.0758333333333333
1.8416666666666668,0.5041666666666667,1.225833333333333,-0.0316666666666666,-0.4208333333333333,-0.145
1.4338461538461538,1.3292307692307692,0.8830769230769231,-0.0323076923076923,-0.4123076923076923,-0.1707692307692307
1.5453846153846154,1.9684615384615385,0.3269230769230769,0.0861538461538461,-0.2907692307692308,-0.2307692307692307
1.56,3.3,-0.25,0.183,-0.158,-0.267
1.1616666666666666,4.8133333333333335,-0.3491666666666666,0.0974999999999999,-0.0258333333333333,-0.1266666666666666
0.7942857142857143,5.758571428571429,-0.3771428571428571,0.0592857142857142,0.0485714285714285,0.0314285714285714
0.895,4.505,-0.7908333333333334,0.07,0.0341666666666666,0.0466666666666666
1.2153846153846153,1.656923076923077,-1.847692307692308,0.0315384615384615,-0.0484615384615384,0.0
1.210909090909091,0.1463636363636363,-2.359090909090909,0.0054545454545454,-0.2436363636363636,-0.0954545454545454
0.707857142857143,-0.7242857142857143,-2.345714285714286,0.0064285714285714,-0.3485714285714286,-0.215
0.21749999999999992,-0.6891666666666666,-2.091666666666667,0.0383333333333333,-0.3658333333333333,-0.26
-0.7615384615384615,-0.2361538461538461,-1.9846153846153844,0.0323076923076923,-0.2769230769230769,-0.1646153846153846
-0.6476923076923076,0.04,-2.1,0.0138461538461538,-0.1407692307692307,-0.0446153846153846
0.3440000000000001,-0.25,-2.305,-0.014,-0.092,0.001
