accy,accz,accx,gyroy,gyroz,gyrox
3.1184615384615384,-0.2869230769230769,1.4215384615384616,0.3038461538461539,-0.0976923076923076,-0.5846153846153845
3.4314285714285715,-0.3028571428571429,1.0042857142857142,0.3857142857142857,-0.0528571428571428,-0.5471428571428572
2.5477777777777777,-0.1277777777777777,1.135,0.4377777777777777,0.1261111111111111,-0.4527777777777778
0.7307692307692307,0.9546153846153846,2.7492307692307696,0.5276923076923077,0.2453846153846153,-0.2269230769230769
-0.5241666666666667,1.4808333333333332,3.779166666666667,0.6441666666666667,0.2358333333333333,-0.03
-1.3715384615384614,1.3415384615384616,4.12,0.9330769230769232,0.1338461538461538,0.2276923076923077
-1.6858333333333333,2.05,2.624166666666667,1.0583333333333331,0.0499999999999999,0.4366666666666667
-2.0138461538461536,1.9953846153846155,-0.0453846153846153,0.88,-0.0307692307692307,0.4361538461538461
-2.4891666666666667,1.5658333333333332,-2.1241666666666665,0.5008333333333334,-0.2208333333333333,0.3766666666666666
-2.41,1.1357142857142857,-2.7028571428571437,0.16,-0.36,0.3399999999999999
-1.5894444444444444,0.3216666666666666,-2.3833333333333333,-0.2938888888888888,-0.3755555555555555,0.2472222222222222
-0.7191666666666667,-0.9758333333333334,-1.1016666666666668,-0.6691666666666666,-0.22,0.13
-0.8615384615384615,-1.5246153846153847,-0.0638461538461538,-0.6653846153846155,-0.1161538461538461,0.0938461538461538
-1.1084615384615384,-1.316923076923077,0.4492307692307692,-0.5107692307692308,-0.2269230769230769,0.2046153846153846
-0.7458333333333332,-0.6208333333333333,0.3891666666666666,-0.2966666666666667,-0.34,0.4108333333333333
-0.1930769230769231,0.5084615384615385,-0.6269230769230769,-0.2869230769230769,-0.2738461538461538,0.4507692307692308
0.4908333333333334,0.1674999999999999,-1.7191666666666665,-0.3716666666666666,-0.1266666666666666,0.4241666666666666
0.8414285714285714,-0.6828571428571429,-1.6942857142857142,-0.37,0.0157142857142857,0.4257142857142857
0.7127777777777777,-1.1111111111111112,-1.6866666666666663,-0.3227777777777778,0.1716666666666666,0.5316666666666667
0.5861538461538461,-0.8684615384615385,-1.022307692307692,-0.3492307692307692,0.2546153846153846,0.5238461538461539
0.94,-1.1241666666666663,-0.3441666666666667,-0.3825,0.34,0.3891666666666666
1.1976923076923076,-1.1700000000000002,-0.3846153846153846,-0.3461538461538461,0.44,0.3023076923076923
1.155,-1.4258333333333333,-0.6616666666666667,-0.2708333333333333,0.4308333333333333,0.3216666666666666
1.1630769230769231,-1.003076923076923,-0.7946153846153846,-0.1907692307692307,0.3038461538461539,0.4146153846153846
1.5233333333333334,-0.6033333333333334,-0.765,-0.17,0.215,0.4691666666666667
1.741428571428571,-0.5842857142857143,-0.9285714285714286,-0.1671428571428571,0.1942857142857143,0.4857142857142857
1.9916666666666667,-0.5633333333333334,-1.1916666666666669,-0.1294444444444444,0.2094444444444444,0.538888888888889
2.226923076923077,-0.5230769230769231,-1.1584615384615384,-0.0607692307692307,0.2661538461538461,0.62
2.230833333333333,-0.45,-0.7675000000000001,0.0174999999999999,0.4341666666666666,0.7208333333333333
1.7915384615384615,-0.0938461538461538,-0.1061538461538461,0.0646153846153846,0.6561538461538461,0.7738461538461539
0.7208333333333333,0.295,0.9633333333333334,-0.0308333333333333,0.7591666666666667,0.7233333333333333
-0.4476923076923077,-0.1992307692307692,1.8753846153846152,-0.2176923076923076,0.5392307692307692,0.6869230769230769
-0.2083333333333333,-0.7483333333333334,2.395,-0.3891666666666666,0.1108333333333333,0.7958333333333334
0.9528571428571428,-0.8928571428571429,2.632857142857143,-0.4471428571428571,-0.2057142857142857,0.8885714285714286
2.6133333333333333,-0.305,2.21,-0.4316666666666666,-0.4344444444444444,0.9783333333333332
3.413076923076924,-0.0015384615384615,0.9246153846153846,-0.4746153846153846,-0.2776923076923077,0.8907692307692308
1.919166666666667,-2.299166666666667,1.1758333333333333,-0.51,0.0341666666666666,0.4516666666666666
-0.5361538461538461,-4.317692307692307,3.2507692307692317,-0.4523076923076923,0.1861538461538461,-0.0246153846153846
-2.700833333333333,-2.8525,5.291666666666667,-0.6058333333333333,-0.0608333333333333,-0.4708333333333334
-3.2684615384615388,-0.9261538461538462,5.43076923076923,-1.0007692307692309,-0.5084615384615385,-0.8376923076923077
-2.0116666666666667,-0.1516666666666666,3.11,-1.1516666666666666,-0.7441666666666666,-0.8875000000000001
-1.3514285714285716,-0.5142857142857143,0.5085714285714286,-1.0414285714285714,-0.6785714285714286,-0.8442857142857143
-1.737777777777778,-1.3777777777777778,-2.613888888888889,-0.705,-0.5527777777777777,-0.7738888888888888
-1.6607692307692308,-1.85,-4.282307692307692,0.0876923076923076,-0.5307692307692308,-0.5115384615384616
-0.7425,-0.3033333333333333,-3.6216666666666666,0.755,-0.4683333333333333,-0.2766666666666666
0.1833333333333333,2.335,-1.6749999999999998,1.0833333333333333,-0.2525,-0.0683333333333333
0.4546153846153846,4.202307692307692,0.0753846153846154,0.9353846153846154,0.013076923076923,-0.0569230769230769
0.0123076923076923,3.265384615384616,1.18,0.5376923076923077,0.1623076923076923,-0.2069230769230769
-0.6308333333333334,0.945,1.4966666666666668,0.2766666666666666,0.085,-0.2975
-1.1871428571428573,-0.92,1.2942857142857145,0.1671428571428571,-0.0985714285714285,-0.38
-1.0016666666666667,-2.2383333333333333,-0.1249999999999999,0.2116666666666666,-0.3488888888888889,-0.4866666666666666
0.0761538461538461,-1.616153846153846,-1.863846153846154,0.4269230769230769,-0.4192307692307692,-0.6246153846153846
0.8850000000000001,-0.21,-2.3975,0.5408333333333334,-0.2608333333333333,-0.7041666666666666
1.2453846153846155,0.9592307692307692,-2.0576923076923075,0.5823076923076923,-0.0453846153846153,-0.6523076923076924
1.2141666666666666,2.056666666666666,-1.3416666666666668,0.5358333333333333,0.1591666666666666,-0.5608333333333334
0.9146153846153846,2.4992307692307696,-0.8715384615384616,0.3130769230769231,0.24,-0.5292307692307693
0.7672727272727272,1.6909090909090911,-0.4872727272727273,0.1772727272727272,0.1918181818181818,-0.4818181818181818
0.735,1.325,-0.4575,0.125,0.11625,-0.46875
0.9194444444444444,0.895,-0.8155555555555556,0.0705555555555555,0.0138888888888888,-0.4666666666666667
1.4284615384615384,0.9346153846153846,-1.396923076923077,-0.0138461538461538,-0.02,-0.4207692307692307
1.7733333333333334,0.9033333333333332,-1.5516666666666667,-0.1058333333333333,0.07,-0.3791666666666666
1.9230769230769231,0.8276923076923077,-1.6376923076923076,-0.1715384615384615,0.2276923076923077,-0.3061538461538461
1.88,0.7875000000000001,-1.385,-0.2183333333333333,0.3825,-0.2133333333333333
1.5307692307692309,0.6799999999999999,-0.4846153846153846,-0.21,0.4792307692307692,-0.1446153846153846
1.2775,0.2841666666666667,0.5975,-0.1158333333333333,0.4941666666666666,-0.1525
1.3976923076923078,-0.2907692307692308,1.4884615384615385,0.0407692307692307,0.4423076923076923,-0.1884615384615384
1.5133333333333334,-0.6366666666666667,1.8908333333333327,0.1949999999999999,0.3591666666666667,-0.1908333333333333
1.26,-0.5884615384615384,1.9523076923076923,0.2753846153846154,0.21,-0.26
1.495,-0.46,2.0441666666666665,0.2866666666666667,0.0141666666666666,-0.4491666666666667
2.308461538461539,-0.6915384615384615,2.103076923076923,0.2953846153846153,-0.1861538461538461,-0.6407692307692308
3.2225,-1.0358333333333334,1.5133333333333334,0.3441666666666667,-0.3425,-0.7208333333333333
4.119999999999999,-0.3876923076923076,0.2807692307692307,0.4138461538461538,-0.3676923076923077,-0.7446153846153846
4.589166666666666,1.09,-0.4308333333333333,0.3983333333333334,-0.1391666666666666,-0.7324999999999999
3.378461538461538,1.4246153846153846,0.4446153846153846,0.2630769230769231,0.2530769230769231,-0.7053846153846154
1.245,1.2566666666666666,1.885,0.3041666666666666,0.5833333333333334,-0.5291666666666667
-1.370909090909091,1.320909090909091,2.689090909090909,0.4354545454545455,0.7763636363636365,-0.3318181818181818
-3.355,0.7971428571428572,3.117857142857143,0.7871428571428571,0.7557142857142857,-0.0285714285714285
-3.8830769230769233,1.2538461538461538,1.9284615384615384,1.0746153846153847,0.5353846153846153,0.2030769230769231
-3.7283333333333335,1.1516666666666666,0.0699999999999999,1.0041666666666669,0.2358333333333333,0.29
-3.3246153846153845,0.3738461538461538,-1.1484615384615384,0.7523076923076922,-0.0615384615384615,0.2284615384615384
-2.6041666666666665,-0.3783333333333333,-1.14,0.3916666666666666,-0.3274999999999999,0.145
-1.842857142857143,-0.4014285714285714,-0.3328571428571428,0.0257142857142857,-0.4142857142857142,0.08
-1.395,0.0066666666666666,0.5494444444444445,-0.4383333333333333,-0.4972222222222222,0.0888888888888888
-1.05,1.0038461538461538,0.4746153846153846,-0.8099999999999999,-0.6923076923076923,0.113076923076923
0.0583333333333333,1.0791666666666666,0.3833333333333333,-0.815,-0.7083333333333334,0.265
0.6784615384615384,1.59,0.3484615384615385,-0.7707692307692308,-0.5153846153846154,0.4246153846153845
0.5183333333333333,1.4625,-0.6825000000000001,-0.8258333333333333,-0.2691666666666666,0.5858333333333333
-0.283076923076923,-0.1507692307692308,-1.3984615384615384,-0.7923076923076924,-0.2392307692307692,0.7661538461538461
-0.3191666666666666,-1.8525,-1.2858333333333334,-0.6549999999999999,-0.295,0.8641666666666666
-0.2242857142857142,-2.077142857142857,-1.37,-0.5328571428571429,-0.3242857142857143,0.9428571428571428
0.4011111111111111,-0.9622222222222222,-1.4200000000000002,-0.5216666666666667,-0.2433333333333333,0.97
0.9176923076923076,-0.3399999999999999,-1.4307692307692306,-0.5723076923076923,-0.0676923076923076,0.8276923076923077
0.7966666666666667,-0.9358333333333334,-1.7125,-0.5233333333333333,0.0408333333333333,0.7725
0.696923076923077,-1.5815384615384611,-1.8184615384615384,-0.3784615384615384,0.0707692307692307,0.7507692307692307
0.8541666666666666,-1.7,-1.4541666666666666,-0.2491666666666666,0.0725,0.7041666666666666
0.9684615384615384,-1.7323076923076923,-1.096923076923077,-0.183076923076923,0.0676923076923077,0.5984615384615385
1.1645454545454546,-2.1427272727272726,-1.09,-0.0736363636363636,0.0845454545454545,0.5145454545454545
1.38375,-2.19375,-1.13125,0.04,0.13625,0.45375
1.515,-1.8688888888888888,-0.8338888888888889,0.1905555555555555,0.2249999999999999,0.3666666666666666
1.6176923076923078,-0.7061538461538461,-0.1846153846153846,0.2661538461538462,0.2523076923076923,0.3423076923076923
1.8741666666666668,0.3766666666666667,0.2608333333333333,0.135,0.245,0.3708333333333333
2.0075,0.89,0.6966666666666667,-0.0558333333333333,0.3075,0.3983333333333334
1.6953846153846153,0.746923076923077,0.9392307692307692,-0.2461538461538461,0.353076923076923,0.4453846153846154
1.3884615384615384,0.1438461538461538,0.8507692307692308,-0.3038461538461539,0.3069230769230769,0.5430769230769231
1.2966666666666666,-0.2233333333333333,0.7158333333333333,-0.2466666666666666,0.2275,0.6491666666666667
1.31,-0.3771428571428571,0.8528571428571429,-0.1914285714285714,0.1471428571428571,0.74
1.762222222222222,-0.31,1.316111111111111,-0.1711111111111111,0.0177777777777777,0.8266666666666667
2.7823076923076924,-0.2223076923076923,1.813076923076923,-0.22,-0.0738461538461538,0.8507692307692308
3.4025,-0.2033333333333333,1.4800000000000002,-0.3275,-0.0191666666666666,0.8316666666666667
3.3008333333333333,-0.3833333333333333,1.0225,-0.4441666666666666,0.2308333333333333,0.7291666666666666
1.3492307692307692,-0.7846153846153846,1.8784615384615384,-0.5007692307692307,0.5261538461538462,0.58
-1.9208333333333332,-1.0075,3.965,-0.6408333333333333,0.4883333333333333,0.3025
-4.456153846153846,-0.933846153846154,5.450000000000001,-0.8907692307692308,0.1176923076923077,0.02
-4.714285714285714,-1.0342857142857145,4.507142857142857,-1.0,-0.2785714285714286,-0.1699999999999999
-3.207777777777778,-1.1394444444444445,0.8844444444444445,-0.8572222222222222,-0.5738888888888889,-0.2522222222222222
-1.5558333333333334,-1.265,-2.2433333333333336,-0.54,-0.6275000000000001,-0.2333333333333333
-0.6799999999999999,-1.32,-2.946923076923077,-0.093076923076923,-0.5753846153846154,-0.18
0.1246153846153846,-0.903846153846154,-2.21,0.3638461538461539,-0.3830769230769231,-0.1561538461538461
-0.035,-0.0941666666666666,-0.9233333333333332,0.7158333333333333,-0.1491666666666666,-0.1566666666666666
-0.89,0.8815384615384616,0.2607692307692307,0.7861538461538462,-0.1061538461538461,-0.2476923076923077
-1.086666666666667,1.0733333333333333,0.6541666666666667,0.5941666666666666,-0.1775,-0.4016666666666666
-0.9457142857142856,0.4471428571428571,0.2328571428571428,0.4585714285714286,-0.2271428571428571,-0.43
-0.6444444444444444,-0.0494444444444444,-0.5955555555555556,0.3583333333333333,-0.2622222222222222,-0.4788888888888888
-0.5069230769230769,-0.5715384615384616,-1.713076923076923,0.3515384615384616,-0.2723076923076923,-0.6030769230769231
-0.1066666666666666,-0.7616666666666667,-2.4483333333333337,0.51,-0.2333333333333333,-0.6691666666666666
0.1353846153846153,-0.21,-2.4007692307692308,0.6561538461538461,-0.1592307692307692,-0.7007692307692307
0.5291666666666667,0.7908333333333334,-1.3433333333333335,0.6774999999999999,-0.0291666666666666,-0.6233333333333334
0.5869230769230769,1.043846153846154,-0.5623076923076924,0.59,0.1053846153846154,-0.5969230769230769
0.8941666666666667,0.725,-0.4441666666666666,0.4291666666666667,0.235,-0.6066666666666666
1.1528571428571428,-0.0471428571428571,-0.5357142857142857,0.3428571428571428,0.2528571428571428,-0.64
1.346111111111111,-0.3922222222222222,-0.7105555555555555,0.3083333333333333,0.195,-0.635
1.49,0.1753846153846154,-0.9353846153846154,0.3,0.0946153846153846,-0.6492307692307692
1.46,1.2066666666666668,-1.0566666666666666,0.2058333333333333,0.0233333333333333,-0.61
1.4684615384615385,1.7038461538461538,-0.9230769230769232,0.0992307692307692,-0.0146153846153846,-0.5323076923076923
1.63,2.0041666666666664,-0.95,-0.0125,0.0516666666666666,-0.485
1.6615384615384614,1.9138461538461535,-1.2961538461538462,-0.1592307692307692,0.1815384615384615,-0.3938461538461538
1.4891666666666667,1.2816666666666665,-1.3033333333333337,-0.2641666666666666,0.2558333333333333,-0.2841666666666667
1.5585714285714285,0.7728571428571429,-0.8085714285714286,-0.2628571428571428,0.31,-0.2171428571428571
1.765,0.3922222222222222,0.3299999999999999,-0.1283333333333333,0.4288888888888889,-0.1922222222222222
1.4750000000000003,0.1408333333333333,1.6183333333333334,0.0333333333333333,0.5499999999999999,-0.1891666666666666
0.7638461538461538,-0.1338461538461538,2.167692307692308,0.0738461538461538,0.52,-0.1692307692307692
0.5561538461538462,-0.6869230769230769,2.455384615384616,0.1361538461538461,0.2492307692307692,-0.273076923076923
1.6958333333333335,-1.0466666666666666,2.7183333333333333,0.2658333333333333,-0.0775,-0.4608333333333334
3.204615384615385,-1.1376923076923078,2.2646153846153845,0.413076923076923,-0.2592307692307692,-0.5907692307692307
3.981666666666667,-0.68,1.0133333333333334,0.4491666666666666,-0.3208333333333333,-0.6716666666666667
4.281428571428572,-0.0485714285714285,-0.09,0.4771428571428571,-0.2085714285714285,-0.6742857142857144
3.4188888888888886,0.5122222222222222,0.2988888888888888,0.3972222222222222,0.1261111111111111,-0.6305555555555555
1.3323076923076924,1.3761538461538465,2.183846153846154,0.3669230769230769,0.4923076923076923,-0.4261538461538461
-1.2283333333333333,1.4183333333333332,3.089166666666667,0.4608333333333334,0.715,-0.1758333333333333
-3.329285714285714,0.9071428571428573,3.9,0.8464285714285714,0.705,0.1414285714285714
-4.127272727272727,0.8772727272727273,3.049090909090909,1.1536363636363636,0.4681818181818182,0.349090909090909
-4.008461538461538,0.6353846153846153,0.4515384615384615,1.1092307692307692,0.1707692307692307,0.4330769230769231
-3.481666666666667,0.0866666666666666,-1.8983333333333332,0.8316666666666667,-0.1374999999999999,0.3141666666666666
-2.73,-0.4088888888888888,-2.645555555555556,0.4555555555555555,-0.3822222222222222,0.2033333333333333
-1.573125,-0.7725,-1.920625,-0.108125,-0.4975,0.0525
-0.7961538461538461,-1.23,-0.5461538461538462,-0.6207692307692307,-0.4753846153846153,-0.0069230769230769
-0.6083333333333333,-0.6208333333333333,0.0991666666666666,-0.7491666666666666,-0.4891666666666667,0.0266666666666666
-0.4369230769230769,0.26,0.9176923076923076,-0.7223076923076923,-0.5753846153846154,0.15
-0.3208333333333333,1.346666666666667,1.5066666666666666,-0.5975,-0.6124999999999999,0.3875
-0.2623076923076923,1.6907692307692308,0.2730769230769231,-0.6215384615384616,-0.53,0.4776923076923077
-0.0558333333333333,-0.0458333333333333,-1.2466666666666666,-0.585,-0.4308333333333333,0.5266666666666667
0.2657142857142857,-1.9614285714285715,-1.26,-0.4957142857142857,-0.3999999999999999,0.6057142857142858
0.7288888888888888,-2.5194444444444444,-1.213888888888889,-0.4133333333333333,-0.2916666666666667,0.6627777777777778
1.1953846153846153,-1.81,-1.583846153846154,-0.4530769230769231,-0.003076923076923,0.5223076923076924
1.1283333333333334,-1.4908333333333337,-1.5508333333333333,-0.4641666666666666,0.165,0.3316666666666666
1.0323076923076924,-1.3192307692307692,-1.4207692307692308,-0.3946153846153846,0.1930769230769231,0.32
1.0291666666666666,-0.8366666666666666,-1.3333333333333333,-0.3283333333333333,0.1175,0.3658333333333333
1.3707692307692307,-0.7715384615384615,-1.0138461538461538,-0.2792307692307693,0.0723076923076923,0.3776923076923077
1.4533333333333331,-0.5650000000000001,-1.2675,-0.2808333333333333,0.0474999999999999,0.3566666666666666
1.4728571428571429,-0.8285714285714285,-1.65,-0.27,0.03,0.35
1.7105555555555556,-1.173888888888889,-1.7761111111111112,-0.1866666666666666,0.0511111111111111,0.3305555555555555
1.9384615384615385,-1.5684615384615386,-0.9607692307692308,-0.0384615384615384,0.1076923076923076,0.3176923076923076
1.9675,-1.3724999999999998,0.24,0.1033333333333333,0.1475,0.4325
1.79,-0.3225,0.815,0.1383333333333333,0.1783333333333333,0.4408333333333333
1.593846153846154,0.5684615384615385,0.9084615384615384,0.0169230769230769,0.1446153846153846,0.4153846153846153
1.7561538461538464,0.666923076923077,1.103846153846154,-0.1584615384615384,0.0546153846153846,0.4715384615384615
1.8758333333333332,0.36,1.2483333333333333,-0.2825,-0.0433333333333333,0.5408333333333334
2.1157142857142857,-0.0828571428571428,1.417142857142857,-0.3171428571428571,-0.1042857142857142,0.56
2.48,-0.7894444444444444,1.4383333333333337,-0.3305555555555555,-0.1605555555555555,0.5894444444444444
2.9007692307692308,-1.1738461538461538,1.1623076923076925,-0.3415384615384615,-0.18,0.61
2.9933333333333336,-1.2308333333333332,1.2191666666666665,-0.3741666666666667,-0.1033333333333333,0.5733333333333334
2.38,-1.4138461538461538,1.8146153846153843,-0.4323076923076923,0.1553846153846154,0.4692307692307692
0.6966666666666667,-1.4908333333333337,3.07,-0.5666666666666667,0.4308333333333333,0.2108333333333333
-1.8946153846153848,-1.3023076923076924,3.833076923076923,-0.7630769230769231,0.4015384615384615,0.0276923076923076
-3.8683333333333336,-0.6491666666666667,3.355,-0.8666666666666667,0.1041666666666666,-0.1025
-4.1225000000000005,-0.3999999999999999,1.96875,-0.80125,-0.15375,-0.17875
-3.436470588235294,-0.3688235294117646,-0.326470588235294,-0.5388235294117647,-0.3723529411764706,-0.2047058823529411
-2.316153846153846,-0.16,-1.8692307692307693,-0.2623076923076923,-0.5,-0.2492307692307692
-1.1416666666666668,-0.7525,-1.3233333333333337,0.0825,-0.4383333333333333,-0.1525
-0.546923076923077,-1.0161538461538462,-0.1692307692307692,0.5238461538461539,-0.3469230769230769,-0.1684615384615384
-0.6791666666666667,-0.2433333333333333,0.8575,0.805,-0.3458333333333334,-0.2833333333333333
-0.8284615384615385,0.6384615384615385,0.8853846153846153,0.7646153846153846,-0.3446153846153846,-0.39
-1.0058333333333334,0.6133333333333333,-0.1591666666666666,0.6749999999999999,-0.3483333333333333,-0.4708333333333334
-0.5414285714285715,0.9514285714285714,-0.5557142857142857,0.5771428571428572,-0.3157142857142857,-0.42
-0.4722222222222222,0.135,-1.4005555555555556,0.3294444444444444,-0.3083333333333333,-0.6477777777777778
0.2371428571428571,-1.2042857142857142,-2.9114285714285715,0.4207142857142857,-0.1885714285714285,-0.7707142857142858
0.7227272727272728,-0.2854545454545454,-2.778181818181818,0.6045454545454545,0.05,-0.7209090909090908
0.6538461538461539,1.2046153846153846,-1.8292307692307688,0.5923076923076922,0.1776923076923077,-0.7092307692307691
0.315,1.9083333333333328,-0.9425,0.5,0.1991666666666667,-0.6575000000000001
0.273076923076923,2.109230769230769,-0.7453846153846153,0.3207692307692307,0.1815384615384615,-0.6069230769230769
0.4191666666666666,1.3583333333333334,-1.044166666666667,0.1566666666666666,0.1308333333333333,-0.605
0.6585714285714286,0.7542857142857143,-1.2142857142857142,0.0699999999999999,0.0699999999999999,-0.5514285714285715
1.2466666666666666,0.4483333333333333,-1.2638888888888888,-0.0183333333333333,0.0583333333333333,-0.4911111111111111
1.4346153846153844,0.3884615384615384,-1.6084615384615384,-0.0623076923076923,0.1384615384615384,-0.4269230769230769
1.4241666666666666,0.8733333333333334,-1.825,-0.0983333333333333,0.3066666666666667,-0.3775
1.3046153846153847,1.1846153846153844,-1.716153846153846,-0.1923076923076923,0.42,-0.2853846153846154
1.2891666666666668,1.0616666666666668,-0.93,-0.2775,0.4483333333333333,-0.2208333333333333
1.389230769230769,0.38,0.2907692307692308,-0.2484615384615384,0.4538461538461539,-0.1853846153846154
1.5625,-0.1941666666666666,1.4174999999999998,-0.09,0.4558333333333333,-0.13
1.5471428571428572,-0.1985714285714286,1.9285714285714288,0.0642857142857143,0.47,-0.1
1.133888888888889,-0.0772222222222222,1.825,0.1638888888888889,0.4127777777777777,-0.145
0.7923076923076924,-0.3592307692307692,1.6538461538461535,0.1615384615384615,0.2207692307692307,-0.2338461538461538
1.3983333333333334,-0.7308333333333333,1.8333333333333333,0.1525,0.0275,-0.3675
2.566923076923077,-0.8623076923076923,2.1607692307692306,0.2538461538461538,-0.1115384615384615,-0.49
3.52,-0.3675,1.7166666666666668,0.3658333333333333,-0.165,-0.5125000000000001
3.9384615384615382,0.5215384615384615,0.5761538461538461,0.4223076923076923,-0.0438461538461538,-0.4738461538461538
3.2825,0.8375,0.4225,0.4016666666666666,0.2558333333333333,-0.4483333333333333
1.9857142857142855,0.9914285714285712,1.56,0.4228571428571429,0.4057142857142857,-0.3185714285714285
0.2233333333333333,1.5811111111111111,2.388888888888889,0.4516666666666666,0.4327777777777777,-0.1505555555555555
-1.5015384615384617,1.1984615384615382,2.6115384615384616,0.6453846153846154,0.3323076923076923,0.1192307692307692
-2.105,1.4116666666666668,2.1533333333333333,0.8266666666666667,0.3175,0.2791666666666667
-2.611428571428572,0.97,0.4578571428571428,0.8314285714285715,0.2792857142857143,0.2871428571428571
-2.900909090909091,-0.0781818181818181,-1.2972727272727271,0.7045454545454546,0.1263636363636363,0.2
-2.6785714285714284,-1.1528571428571428,-2.079285714285714,0.4314285714285714,-0.09,0.0892857142857142
-1.7872727272727271,-2.063636363636364,-1.5663636363636364,0.13,-0.2690909090909091,-0.0736363636363636
-0.7635714285714286,-1.8664285714285715,-0.1557142857142857,-0.1335714285714286,-0.3242857142857143,-0.1557142857142857
-0.4145454545454545,-0.729090909090909,0.8281818181818181,-0.2963636363636363,-0.3163636363636363,-0.1436363636363636
-0.5338461538461539,0.8323076923076923,0.8738461538461538,-0.4538461538461538,-0.41,-0.1653846153846153
-0.1975,1.345,1.225833333333333,-0.4216666666666666,-0.4775,0.0349999999999999
-0.2792307692307692,2.0576923076923075,0.7900000000000001,-0.4953846153846154,-0.49,0.1276923076923077
-0.0341666666666666,1.2583333333333333,-0.3783333333333333,-0.5633333333333334,-0.46,0.2033333333333333
0.722857142857143,-0.7635714285714286,-0.8871428571428571,-0.5357142857142857,-0.4185714285714286,0.325
1.171818181818182,-1.619090909090909,-1.2754545454545454,-0.49,-0.2945454545454545,0.4009090909090909
1.3718181818181818,-1.55,-1.6063636363636364,-0.4845454545454545,-0.13,0.4181818181818181
1.3457142857142856,-1.205,-1.522857142857143,-0.47,0.075,0.3321428571428572
1.1264285714285711,-1.0307142857142857,-1.2107142857142856,-0.4114285714285714,0.2257142857142857,0.3035714285714285
1.0254545454545456,-0.7718181818181818,-1.1918181818181817,-0.3409090909090909,0.22,0.3518181818181818
1.333846153846154,-0.6730769230769231,-0.9823076923076924,-0.26,0.1869230769230769,0.4023076923076923
1.3833333333333335,-0.3116666666666667,-0.905,-0.2583333333333333,0.1175,0.4341666666666666
1.43,-0.5930769230769231,-1.1346153846153846,-0.2692307692307692,0.0361538461538461,0.4615384615384615
1.6983333333333333,-1.0541666666666667,-1.4391666666666667,-0.21,0.0425,0.455
2.023846153846154,-1.5115384615384615,-1.4715384615384617,-0.0807692307692307,0.1407692307692307,0.4161538461538461
2.15,-1.5425000000000002,-1.0516666666666667,0.0691666666666666,0.3008333333333333,0.4475
1.6714285714285713,-0.8057142857142857,-0.2157142857142857,0.1428571428571428,0.4035714285714286,0.4885714285714285
1.1727272727272726,-0.0681818181818181,0.6118181818181818,0.0981818181818181,0.3290909090909091,0.5436363636363637
1.2764285714285717,0.4378571428571428,1.262857142857143,-0.0471428571428571,0.2514285714285714,0.5864285714285714
1.3336363636363635,0.5490909090909091,1.6663636363636365,-0.1972727272727272,0.2045454545454545,0.5736363636363636
1.2892307692307694,0.1238461538461538,1.7215384615384617,-0.2976923076923077,0.1061538461538461,0.5784615384615385
1.6391666666666664,-0.6008333333333333,1.5375,-0.3366666666666666,-0.0391666666666666,0.66
2.362222222222222,-0.8966666666666667,1.4522222222222223,-0.35,-0.1733333333333333,0.7477777777777779
3.2975,-0.573125,1.471875,-0.368125,-0.2275,0.7681250000000001
3.6884615384615382,-0.4346153846153846,1.5092307692307694,-0.4423076923076923,-0.0815384615384615,0.7153846153846153
2.87,-1.0225,1.9083333333333328,-0.5016666666666666,0.1841666666666666,0.6175
1.1676923076923076,-1.9507692307692308,2.856923076923077,-0.5476923076923077,0.4069230769230769,0.3969230769230769
-1.1358333333333333,-2.485,3.5766666666666667,-0.5816666666666667,0.4675,0.1875
-3.5176923076923075,-1.2730769230769232,3.2884615384615383,-0.6423076923076922,0.3123076923076923,0.0584615384615384
-4.178333333333334,0.0966666666666666,1.8716666666666668,-0.6991666666666667,0.0441666666666666,-0.0391666666666666
-3.6757142857142857,0.2414285714285714,0.2542857142857143,-0.6185714285714285,-0.1385714285714285,-0.0628571428571428
-2.807777777777778,0.38,-1.531111111111111,-0.4577777777777778,-0.3766666666666667,-0.12
-1.1284615384615384,0.1138461538461538,-1.5884615384615384,-0.1353846153846153,-0.5069230769230769,-0.0092307692307692
-0.0925,-0.4016666666666666,-0.1541666666666666,0.2866666666666667,-0.4183333333333333,0.015
-0.4884615384615384,-0.48,1.1876923076923076,0.7453846153846153,-0.44,-0.0284615384615384
-1.2083333333333333,0.4633333333333334,1.3875000000000002,0.8991666666666668,-0.555,-0.0833333333333333
-1.4007692307692308,0.9646153846153848,0.38,0.6984615384615385,-0.6369230769230769,-0.1769230769230769
-0.8691666666666666,0.1908333333333333,-0.9875,0.5,-0.6566666666666667,-0.2658333333333333
0.1342857142857142,-0.3207142857142857,-2.271428571428572,0.4164285714285714,-0.5564285714285714,-0.3657142857142857
0.7472727272727273,-0.4318181818181818,-3.1990909090909088,0.3763636363636363,-0.3790909090909091,-0.5181818181818182
1.0307692307692309,-0.1946153846153846,-3.3530769230769226,0.42,-0.1492307692307692,-0.5323076923076923
1.1058333333333332,0.53,-2.7716666666666665,0.4524999999999999,0.0325,-0.52
1.1730769230769231,1.1338461538461535,-1.6546153846153844,0.4330769230769231,0.1876923076923076,-0.4569230769230769
0.9675,1.5841666666666665,-0.81,0.3791666666666666,0.2666666666666666,-0.3583333333333333
0.9515384615384616,1.6292307692307693,-0.3976923076923077,0.2107692307692308,0.31,-0.3092307692307692
1.0233333333333334,1.2025,-0.1591666666666666,0.0916666666666666,0.31,-0.2708333333333333
0.97,0.9557142857142856,-0.1014285714285714,0.0371428571428571,0.2471428571428571,-0.29
1.0644444444444443,0.6566666666666667,-0.42,0.0277777777777777,0.1094444444444444,-0.2905555555555555
1.3276923076923075,0.5392307692307692,-1.106923076923077,-0.0061538461538461,0.0584615384615384,-0.3192307692307692
1.5791666666666666,0.1491666666666666,-1.545,-0.07,0.21,-0.4225
1.5799999999999998,-0.2769230769230769,-1.5861538461538462,-0.1923076923076923,0.4038461538461538,-0.4792307692307692
1.4508333333333334,-0.86,-1.0391666666666668,-0.2675,0.4783333333333333,-0.5
1.4,-1.253076923076923,0.0807692307692307,-0.1915384615384615,0.4176923076923077,-0.5876923076923076
1.65,-1.1083333333333334,1.275,-0.0008333333333333,0.3625,-0.6875
1.61,-0.5785714285714285,1.9442857142857144,0.1471428571428571,0.32,-0.6928571428571428
1.1955555555555557,0.381111111111111,2.045,0.2594444444444444,0.1688888888888889,-0.6988888888888888
1.2223076923076923,0.9138461538461538,1.6338461538461535,0.2630769230769231,-0.0315384615384615,-0.7392307692307691
2.2025,0.5533333333333333,1.4400000000000002,0.2241666666666666,-0.1333333333333333,-0.75
3.704615384615385,0.0515384615384615,1.613846153846154,0.2699999999999999,-0.1676923076923077,-0.7707692307692308
4.880833333333333,-0.265,1.5558333333333334,0.3466666666666667,-0.1316666666666666,-0.7983333333333333
5.087692307692308,-0.03,0.7907692307692307,0.4776923076923077,0.0269230769230769,-0.7215384615384616
3.5666666666666664,0.9541666666666666,0.1833333333333333,0.4991666666666667,0.3141666666666666,-0.615
1.7971428571428572,1.4442857142857142,0.7071428571428572,0.4257142857142857,0.4757142857142857,-0.59
-0.175,1.3494444444444444,1.992777777777778,0.3755555555555555,0.5866666666666667,-0.515
-2.3428571428571425,0.7042857142857143,2.8242857142857143,0.5357142857142857,0.6421428571428571,-0.18
-3.453636363636364,0.2127272727272727,2.685454545454545,0.8681818181818183,0.5972727272727273,0.0472727272727272
-4.0842857142857145,0.2164285714285714,1.4278571428571427,1.0164285714285717,0.3271428571428571,0.1742857142857143
-3.9527272727272726,0.4718181818181818,-0.0727272727272727,0.8972727272727272,-0.01,0.2363636363636363
-3.457692307692308,0.6815384615384615,-0.8853846153846153,0.5676923076923077,-0.3984615384615384,0.2215384615384615
-2.1733333333333333,0.6849999999999999,-0.4858333333333333,0.125,-0.6858333333333334,0.2425
-1.4728571428571429,1.12,0.0585714285714285,-0.2642857142857143,-0.8014285714285715,0.2928571428571428
-1.1772222222222224,1.721666666666667,-0.1111111111111111,-0.675,-0.8983333333333334,0.3533333333333333
-0.0185714285714285,1.1878571428571427,-0.3535714285714286,-0.7921428571428571,-0.8578571428571429,0.4821428571428571
0.868181818181818,1.2609090909090908,-0.3309090909090909,-0.6963636363636364,-0.7072727272727273,0.6427272727272727
1.1333333333333333,1.3883333333333334,-1.4241666666666666,-0.7866666666666666,-0.4833333333333333,0.68
1.1223076923076922,-0.2953846153846154,-2.028461538461538,-0.8246153846153845,-0.2053846153846154,0.7415384615384616
0.8607692307692307,-2.5953846153846154,-1.8061538461538464,-0.7061538461538461,0.0123076923076923,0.7930769230769231
0.5883333333333334,-3.3241666666666667,-1.5358333333333334,-0.5141666666666667,0.1075,0.7691666666666667
0.6799999999999999,-2.7414285714285715,-1.1357142857142857,-0.4028571428571428,0.1685714285714285,0.74
0.8344444444444444,-1.5766666666666669,-0.6499999999999999,-0.3222222222222222,0.2411111111111111,0.6444444444444444
0.8892857142857142,-0.7178571428571429,-0.7357142857142857,-0.3271428571428571,0.2521428571428571,0.5392857142857144
0.9754545454545456,-0.4409090909090908,-0.83,-0.3036363636363636,0.1945454545454545,0.5081818181818182
0.9746153846153848,-0.2284615384615384,-0.8730769230769231,-0.3376923076923077,0.1038461538461538,0.4823076923076922
0.9841666666666667,-0.4125,-1.1958333333333333,-0.3658333333333333,0.0083333333333333,0.4866666666666666
1.4792307692307691,-0.9253846153846156,-1.756153846153846,-0.3223076923076923,0.0261538461538461,0.49
1.9883333333333333,-1.6941666666666666,-1.9175,-0.1683333333333333,0.1983333333333333,0.4341666666666666
2.005714285714286,-2.0685714285714285,-1.562857142857143,0.0185714285714285,0.3214285714285714,0.4385714285714285
2.03,-1.195,-0.6944444444444444,0.1261111111111111,0.3955555555555555,0.5327777777777778
1.79,-0.1058333333333333,0.5558333333333333,0.0808333333333333,0.4375,0.58
1.4376923076923078,0.1715384615384615,1.2607692307692309,-0.053076923076923,0.3938461538461538,0.5753846153846154
1.0942857142857143,0.0207142857142857,1.4392857142857145,-0.1914285714285714,0.2828571428571428,0.585
1.0581818181818183,-0.2481818181818181,1.1045454545454545,-0.239090909090909,0.1381818181818181,0.5854545454545454
1.580769230769231,-0.4276923076923076,0.8061538461538462,-0.2176923076923076,0.023076923076923,0.5746153846153846
2.6566666666666667,-0.4275,1.0841666666666667,-0.2241666666666666,-0.0841666666666666,0.6341666666666667
3.5785714285714287,-0.3028571428571429,1.4785714285714284,-0.2514285714285714,-0.1028571428571428,0.687142857142857
3.960555555555555,-0.1927777777777778,1.745,-0.365,0.0233333333333333,0.6394444444444445
2.8185714285714285,-1.0042857142857142,2.376428571428572,-0.4892857142857142,0.3842857142857143,0.5235714285714286
0.4536363636363636,-1.6754545454545455,3.555454545454545,-0.5427272727272728,0.5390909090909092,0.3163636363636363
-2.1546153846153846,-2.087692307692308,4.568461538461539,-0.6476923076923077,0.4353846153846153,0.0784615384615384
-4.476666666666667,-1.115,4.598333333333334,-0.7858333333333333,0.0841666666666666,-0.1008333333333333
-4.525,-0.1428571428571428,2.347857142857143,-0.8264285714285714,-0.3357142857142857,-0.2342857142857143
-3.3345454545454545,-0.4954545454545455,-0.7036363636363636,-0.63,-0.56,-0.3218181818181818
-2.544285714285714,-0.7057142857142856,-2.3657142857142857,-0.4228571428571429,-0.6528571428571429,-0.33
-0.835,-0.7494444444444445,-2.687222222222222,-0.0455555555555555,-0.6522222222222223,-0.1672222222222222
0.7607692307692309,-0.5838461538461539,-1.1684615384615384,0.5053846153846154,-0.3253846153846153,-0.0907692307692307
-0.0575,-0.4066666666666667,0.2375,0.925,-0.095,-0.205
-1.0646153846153843,0.666923076923077,0.9230769230769232,0.9730769230769232,-0.1061538461538461,-0.2769230769230769
-1.3708333333333331,1.2083333333333333,0.6216666666666667,0.6983333333333334,-0.1866666666666666,-0.3616666666666666
-1.0084615384615383,0.5461538461538461,-0.35,0.4492307692307692,-0.2630769230769231,-0.4769230769230769
-0.5583333333333333,-0.1399999999999999,-1.8241666666666667,0.3475,-0.3025,-0.5975
-0.2314285714285714,-0.6442857142857142,-2.932857142857143,0.3628571428571429,-0.2928571428571428,-0.6828571428571429
0.4027777777777778,-0.5788888888888889,-3.635,0.5055555555555555,-0.1283333333333333,-0.7444444444444445
0.9476923076923076,0.3707692307692308,-2.6061538461538465,0.6030769230769231,0.1769230769230769,-0.7315384615384615
0.6525,1.7575,-0.95,0.5725,0.2825,-0.6141666666666666
0.5592857142857143,2.3535714285714286,0.0699999999999999,0.3228571428571429,0.3321428571428572,-0.5757142857142856
0.3827272727272727,1.219090909090909,0.0436363636363636,0.1727272727272727,0.2663636363636363,-0.5227272727272727
0.53,0.44,-0.1807692307692307,0.1184615384615384,0.0846153846153846,-0.483076923076923
0.7733333333333333,0.1275,-0.6491666666666667,0.125,-0.1466666666666666,-0.4608333333333334
1.07,0.3071428571428571,-1.16,0.1442857142857143,-0.2414285714285714,-0.4114285714285714
1.4605555555555556,0.8155555555555556,-1.646111111111111,0.0905555555555555,-0.1727777777777777,-0.3844444444444444
1.9335714285714285,1.212142857142857,-1.8635714285714289,-0.08,0.0928571428571428,-0.3714285714285714
2.0872727272727274,1.018181818181818,-1.608181818181818,-0.2063636363636363,0.2536363636363636,-0.3190909090909091
2.2123076923076925,0.3646153846153846,-0.81,-0.223076923076923,0.3392307692307692,-0.3192307692307692
2.2958333333333334,-0.44,0.5525000000000001,-0.0708333333333333,0.4383333333333333,-0.3075
1.9921428571428568,-0.5885714285714286,1.8292857142857144,0.1157142857142857,0.4657142857142857,-0.3178571428571429
1.4163636363636365,-0.520909090909091,2.370909090909091,0.1890909090909091,0.3536363636363636,-0.35
0.9385714285714286,-0.3928571428571428,2.552857142857143,0.1842857142857143,0.1957142857142857,-0.35
1.0605555555555557,-0.2122222222222222,2.585555555555556,0.1688888888888889,-0.1105555555555555,-0.4294444444444444
2.8514285714285714,-0.1064285714285714,2.375714285714285,0.2485714285714285,-0.3771428571428571,-0.6121428571428572
4.294545454545455,-0.039090909090909,1.5445454545454544,0.3372727272727273,-0.3836363636363636,-0.6990909090909091
4.864615384615385,0.2676923076923077,0.5846153846153845,0.3876923076923076,-0.1215384615384615,-0.6907692307692308
3.561666666666667,0.5108333333333334,0.765,0.3999999999999999,0.3216666666666667,-0.6308333333333334
0.7838461538461539,1.22,2.0507692307692307,0.4161538461538461,0.5346153846153846,-0.4876923076923077
-1.7283333333333335,1.5066666666666666,2.735,0.5083333333333333,0.5591666666666667,-0.2683333333333333
-3.2085714285714286,1.1842857142857142,2.7414285714285715,0.6742857142857143,0.4957142857142857,-0.0785714285714285
-4.058421052631579,0.7942105263157895,1.6426315789473684,0.8921052631578947,0.28,0.1010526315789473
-3.576923076923077,-0.3607692307692307,-0.1084615384615384,0.9653846153846152,0.0261538461538461,0.103076923076923
-3.2654545454545456,-0.7718181818181818,-1.1727272727272728,0.7654545454545455,-0.2427272727272727,0.0672727272727272
-2.542142857142857,-0.91,-0.9721428571428572,0.3892857142857143,-0.4985714285714286,0.0421428571428571
-1.6945454545454546,-0.3454545454545454,-0.0163636363636363,-0.0718181818181818,-0.57,-0.0154545454545454
-1.4792857142857143,0.7792857142857142,0.3085714285714286,-0.4464285714285714,-0.6192857142857143,-0.0349999999999999
-0.8809090909090909,1.6109090909090908,0.0818181818181818,-0.6936363636363636,-0.7354545454545455,-0.0672727272727272
0.0328571428571428,0.9642857142857144,0.37,-0.6771428571428572,-0.7871428571428571,0.0328571428571428
1.0083333333333333,1.142777777777778,-0.1744444444444444,-0.5777777777777778,-0.5994444444444444,0.1833333333333333
1.4207692307692308,1.093076923076923,-1.7876923076923077,-0.6138461538461538,-0.2015384615384615,0.3476923076923076
1.2558333333333334,-0.8733333333333334,-1.8208333333333333,-0.62,0.0533333333333333,0.445
0.6407692307692308,-2.602307692307692,-1.639230769230769,-0.4938461538461538,0.0838461538461538,0.5276923076923077
0.4058333333333333,-2.1416666666666666,-1.2525,-0.3733333333333333,0.0808333333333333,0.5716666666666667
0.5542857142857143,-0.8957142857142858,-1.0992857142857144,-0.3757142857142857,0.1235714285714285,0.4435714285714285
0.8236363636363637,-0.4581818181818182,-1.161818181818182,-0.3981818181818182,0.1709090909090909,0.4054545454545454
0.9871428571428572,-0.4271428571428571,-1.292857142857143,-0.3785714285714285,0.1585714285714285,0.4457142857142857
1.3250000000000002,-0.355,-1.252222222222222,-0.3238888888888889,0.1177777777777777,0.5416666666666666
1.481428571428571,-0.3507142857142857,-1.2378571428571428,-0.2828571428571428,0.1257142857142857,0.6035714285714285
1.3781818181818182,-0.9727272727272728,-1.4563636363636363,-0.2245454545454545,0.1454545454545454,0.6054545454545455
1.52,-1.7307692307692308,-1.446153846153846,-0.0538461538461538,0.2169230769230769,0.5915384615384615
1.5958333333333334,-1.8616666666666664,-1.07,0.1516666666666666,0.2983333333333333,0.5875
1.6223076923076922,-1.2107692307692308,-0.223076923076923,0.2507692307692307,0.3592307692307692,0.6153846153846154
1.6625,-0.2183333333333333,0.435,0.1633333333333333,0.3541666666666667,0.62
1.7714285714285716,0.1942857142857142,0.8185714285714285,0.0328571428571428,0.3242857142857143,0.5957142857142858
1.7294444444444443,0.2027777777777778,1.2777777777777777,-0.1494444444444444,0.2988888888888888,0.5266666666666667
1.2630769230769232,-0.2192307692307692,1.6592307692307693,-0.3084615384615384,0.2361538461538462,0.5146153846153847
1.1058333333333332,-0.5366666666666667,1.5,-0.3408333333333333,0.0725,0.5533333333333333
2.0,-0.55,1.27,-0.3538461538461538,-0.0976923076923076,0.6084615384615385
3.4450000000000003,-0.2925,1.2166666666666666,-0.3575,-0.1583333333333333,0.695
4.667857142857143,0.1492857142857142,1.157857142857143,-0.4178571428571428,-0.0057142857142857,0.7035714285714285
4.133636363636364,-0.0199999999999999,1.0818181818181818,-0.5045454545454545,0.2590909090909091,0.7281818181818182
2.704285714285714,-0.72,1.52,-0.51,0.4528571428571428,0.7700000000000001
-0.2994444444444444,-1.366111111111111,2.815555555555556,-0.4522222222222222,0.5466666666666666,0.6144444444444445
-4.077857142857143,-1.462142857142857,4.147857142857142,-0.5264285714285715,0.38,0.2342857142857143
-5.163636363636363,0.0763636363636363,4.259090909090909,-0.8545454545454546,0.0654545454545454,-0.0045454545454545
-4.284285714285714,0.2828571428571428,1.6514285714285717,-1.0478571428571428,-0.2035714285714285,-0.205
-3.0254545454545454,-0.3045454545454545,-1.0863636363636364,-0.96,-0.3718181818181818,-0.3
-2.089230769230769,-1.13,-2.273846153846154,-0.6446153846153846,-0.5461538461538461,-0.2561538461538462
-0.8483333333333333,-1.6508333333333332,-1.8125,-0.09,-0.6091666666666666,-0.0591666666666666
-0.1185714285714285,-1.62,-0.9414285714285714,0.4028571428571429,-0.5457142857142857,-0.0328571428571428
0.0210526315789473,-0.5526315789473685,-0.0178947368421052,0.8778947368421053,-0.4336842105263158,-0.1468421052631578
-0.0516666666666666,1.0266666666666666,0.2933333333333333,0.9183333333333332,-0.2683333333333333,-0.2966666666666667
-0.3333333333333333,0.7433333333333333,-0.11,0.6666666666666666,-0.1725,-0.4291666666666667
-0.5635714285714285,-0.4521428571428571,-0.9828571428571428,0.47,-0.1685714285714285,-0.6114285714285714
-0.0581818181818181,-1.1981818181818182,-2.111818181818182,0.4018181818181818,-0.1645454545454545,-0.7827272727272727
0.6028571428571429,-1.1835714285714285,-2.9092857142857143,0.5142857142857143,-0.015,-0.835
0.6763636363636363,0.0236363636363636,-2.5890909090909093,0.6036363636363636,0.1509090909090909,-0.8918181818181818
0.5971428571428571,0.7085714285714285,-1.6785714285714286,0.63,0.22,-0.8742857142857143
0.3022222222222222,1.907777777777778,-0.4988888888888889,0.6005555555555556,0.2022222222222222,-0.7827777777777778
0.1561538461538461,2.5776923076923075,0.073076923076923,0.3707692307692308,0.13,-0.7246153846153847
0.4783333333333333,1.544166666666667,-0.235,0.2166666666666666,0.0475,-0.6616666666666667
0.9530769230769232,0.72,-0.7846153846153846,0.133076923076923,-0.0523076923076923,-0.6107692307692307
1.1558333333333333,0.5066666666666667,-1.4316666666666666,0.1058333333333333,-0.1716666666666666,-0.5675
1.51,0.6657142857142857,-1.9035714285714285,0.0421428571428571,-0.1614285714285714,-0.5364285714285715
1.8727272727272728,0.87,-2.0209090909090905,-0.0445454545454545,0.0172727272727272,-0.4818181818181818
1.9685714285714284,1.0942857142857143,-1.851428571428572,-0.1357142857142857,0.1985714285714285,-0.4485714285714285
1.791578947368421,0.9610526315789472,-1.2957894736842106,-0.24,0.3526315789473684,-0.4126315789473684
1.8315384615384616,-0.0723076923076923,0.0623076923076922,-0.2392307692307692,0.3892307692307692,-0.4292307692307692
1.791818181818182,-0.6918181818181818,1.4263636363636365,-0.0545454545454545,0.3618181818181818,-0.3881818181818182
1.6785714285714286,-0.8371428571428572,2.402857142857143,0.1314285714285714,0.2571428571428572,-0.4964285714285714
1.55,-1.0827272727272728,2.6245454545454545,0.2190909090909091,0.1463636363636363,-0.6045454545454545
1.265384615384615,-0.9384615384615386,2.087692307692308,0.2699999999999999,-0.0184615384615384,-0.6207692307692307
1.6275000000000002,-0.2474999999999999,1.3825,0.3416666666666666,-0.2675,-0.7058333333333332
2.5685714285714285,0.4442857142857143,1.115714285714286,0.3671428571428571,-0.3999999999999999,-0.7557142857142857
3.832631578947369,0.9257894736842104,1.318421052631579,0.363157894736842,-0.2889473684210526,-0.7531578947368421
2.876153846153846,0.8138461538461539,2.8884615384615384,0.3761538461538461,0.193076923076923,-0.5653846153846154
0.4918181818181818,1.3763636363636365,4.244545454545454,0.5481818181818182,0.3818181818181818,-0.2518181818181818
-1.2707142857142857,2.067142857142857,4.462857142857143,0.8028571428571428,0.2985714285714285,0.04
-2.0675,2.8866666666666667,3.0775,1.0291666666666666,0.13,0.4166666666666667
-2.299230769230769,2.729230769230769,0.2869230769230769,0.9976923076923078,0.0292307692307692,0.4646153846153846
-2.1427272727272726,1.5399999999999998,-1.5972727272727274,0.7454545454545454,0.009090909090909,0.3845454545454546
-1.9930769230769232,-0.0446153846153846,-3.087692307692308,0.43,-0.0423076923076923,0.3684615384615384
-1.624285714285714,-1.1828571428571428,-3.0742857142857143,0.0192857142857142,-0.1071428571428571,0.3407142857142857
-1.28,-1.55,-2.25,-0.21,-0.12,0.31
-1.303415032679739,-1.492794117647059,-2.172565359477124,-0.1706699346405228,-0.0733660130718954,0.276813725490196
-1.3268300653594771,-1.4355882352941176,-2.0951307189542483,-0.1313398692810457,-0.0267320261437908,0.2436274509803921
-1.3502450980392158,-1.3783823529411765,-2.0176960784313724,-0.0920098039215686,0.0199019607843137,0.2104411764705882
-1.3736601307189542,-1.3211764705882354,-1.9402614379084968,-0.0526797385620915,0.0665359477124183,0.1772549019607843
-1.3970751633986929,-1.263970588235294,-1.862826797385621,-0.0133496732026143,0.1131699346405228,0.1440686274509803
-1.4204901960784313,-1.206764705882353,-1.785392156862745,0.0259803921568627,0.1598039215686274,0.1108823529411764
-1.44390522875817,-1.1495588235294116,-1.7079575163398697,0.0653104575163398,0.206437908496732,0.0776960784313725
-1.4673202614379086,-1.0923529411764703,-1.6305228758169936,0.1046405228758169,0.2530718954248366,0.0445098039215686
-1.490735294117647,-1.0351470588235294,-1.5530882352941178,0.1439705882352941,0.2997058823529411,0.0113235294117646
-1.5141503267973857,-0.9779411764705882,-1.475653594771242,0.1833006535947712,0.3463398692810457,-0.0218627450980392
-1.537565359477124,-0.920735294117647,-1.398218954248366,0.2226307189542483,0.3929738562091504,-0.0550490196078431
-1.5609803921568628,-0.8635294117647059,-1.3207843137254902,0.2619607843137255,0.4396078431372549,-0.088235294117647
-4.0675,1.0641666666666667,2.165,1.0729166666666667,0.1716666666666666,0.2229166666666666
-3.1361538461538463,0.2123076923076922,-1.5,1.0215384615384615,-0.2053846153846154,0.2815384615384615
-2.1215384615384614,-0.3984615384615384,-2.293846153846154,0.6984615384615385,-0.3515384615384616,0.2061538461538461
-1.2558333333333334,-0.2983333333333333,-1.99,0.1483333333333333,-0.3858333333333333,0.02
-0.793076923076923,-0.6723076923076923,-1.060769230769231,-0.4738461538461538,-0.3846153846153846,-0.1930769230769231
-0.4825,-0.8058333333333333,-0.3391666666666666,-0.7091666666666666,-0.4725,-0.2283333333333333
0.3446153846153846,0.2284615384615384,0.2615384615384615,-0.716923076923077,-0.5784615384615385,-0.1623076923076923
1.3925,0.8816666666666667,1.37,-0.65,-0.5425,-0.0008333333333333
1.115,1.5508333333333333,0.8224999999999999,-0.7441666666666666,-0.4391666666666666,0.1208333333333333
0.5066666666666667,0.9544444444444444,-0.911111111111111,-0.76,-0.3411111111111111,0.2855555555555555
0.2126666666666666,-0.204,-2.028,-0.7533333333333334,-0.3266666666666667,0.414
0.615,-2.0357142857142856,-1.9364285714285716,-0.5721428571428572,-0.3571428571428571,0.5357142857142857
1.0575,-1.2816666666666667,-2.0058333333333334,-0.4508333333333333,-0.3133333333333333,0.6333333333333333
1.8438461538461537,-0.2669230769230769,-1.7123076923076923,-0.51,-0.0638461538461538,0.6230769230769231
1.7315384615384617,-0.2538461538461539,-1.396153846153846,-0.5392307692307693,0.1484615384615384,0.6115384615384616
1.2958333333333332,-0.6425,-1.3325,-0.4358333333333333,0.1291666666666666,0.665
1.3516666666666666,-0.935,-1.725,-0.3075,0.0258333333333333,0.7399999999999999
1.82875,-1.1675,-1.98625,-0.2475,-0.015,0.7675000000000001
2.4011764705882355,-1.468235294117647,-2.165294117647059,-0.1894117647058823,0.038235294117647,0.7305882352941176
2.880769230769231,-2.1569230769230767,-1.7384615384615385,-0.0653846153846153,0.1846153846153846,0.73
2.8625000000000003,-1.9966666666666668,-0.8291666666666666,0.0566666666666666,0.3608333333333333,0.7841666666666667
2.365,-1.1335714285714285,0.3478571428571428,0.1264285714285714,0.4907142857142857,0.8321428571428572
1.7183333333333335,0.2916666666666667,1.235,0.0766666666666666,0.465,0.8383333333333334
1.625096153846154,0.0957692307692307,1.6079807692307693,0.0113461538461538,0.4045192307692308,0.7873076923076924
1.5318589743589746,-0.1001282051282051,1.9809615384615389,-0.0539743589743589,0.3440384615384615,0.7362820512820514
1.438621794871795,-0.296025641025641,2.353942307692308,-0.1192948717948717,0.2835576923076923,0.6852564102564103
1.3453846153846156,-0.4919230769230769,2.726923076923077,-0.1846153846153846,0.223076923076923,0.6342307692307693
3.156285714285714,-0.7871428571428571,2.7497142857142856,-0.4248571428571429,-0.2022857142857143,0.6131428571428572
3.0200000000000005,-0.6866666666666668,2.798666666666666,-0.5866666666666667,0.4386666666666666,0.4693333333333333
-1.0863636363636362,-1.1109090909090908,5.007272727272727,-0.8018181818181819,0.6254545454545455,0.1190909090909091
-4.384166666666666,-1.265,6.645,-1.1541666666666666,0.2025,-0.2075
-4.633076923076922,-1.3515384615384616,4.765384615384615,-1.287692307692308,-0.4223076923076923,-0.28
-3.0715384615384616,-1.6376923076923076,0.6353846153846153,-0.8984615384615384,-0.6392307692307693,-0.3407692307692307
-2.346,-1.2419999999999998,-2.342,-0.524,-0.561,-0.412
-1.63,-1.1553333333333335,-3.0900000000000003,-0.0993333333333333,-0.4506666666666666,-0.2086666666666666
-0.5566666666666666,-0.7891666666666667,-1.31,0.3575,-0.3433333333333333,0.0283333333333333
-0.1223076923076923,-0.2815384615384615,0.4423076923076923,0.8046153846153847,-0.2915384615384615,-0.0369230769230769
-0.5891666666666666,0.82,1.0875,0.9708333333333332,-0.3083333333333333,-0.1666666666666666
-0.945,1.22,0.7108333333333334,0.7983333333333333,-0.3433333333333333,-0.2866666666666667
-0.2757142857142857,0.5092857142857142,-0.3314285714285714,0.5878571428571429,-0.2407142857142857,-0.3921428571428572
0.0733333333333333,-0.1875,-1.4425,0.4524999999999999,-0.16,-0.5241666666666667
0.27,-0.5153846153846154,-2.296923076923077,0.4238461538461538,-0.0946153846153846,-0.6338461538461538
0.0615384615384615,-0.5169230769230769,-2.8815384615384616,0.5307692307692308,-0.0646153846153846,-0.7061538461538461
-0.0249999999999999,-0.1508333333333333,-3.065,0.6816666666666666,-0.0016666666666666,-0.6875
0.2472727272727272,0.8272727272727273,-2.6818181818181817,0.6890909090909091,0.0472727272727272,-0.6445454545454545
0.8257142857142857,1.3728571428571428,-1.842142857142857,0.5585714285714286,0.1264285714285714,-0.6035714285714285
1.1608333333333334,1.6308333333333334,-1.1091666666666666,0.3349999999999999,0.2183333333333333,-0.5833333333333334
0.9558333333333334,0.7983333333333333,-1.095,0.2058333333333333,0.1941666666666666,-0.5791666666666666
1.0915384615384616,0.3376923076923077,-1.3061538461538462,0.0861538461538461,0.1069230769230769,-0.5646153846153846
1.3314285714285714,-0.0914285714285714,-1.6014285714285716,0.0414285714285714,0.02,-0.5771428571428572
1.8805263157894736,0.2310526315789473,-2.0210526315789474,0.0147368421052631,0.0221052631578947,-0.5863157894736841
2.363636363636364,0.95,-2.1872727272727275,-0.08,0.1963636363636363,-0.5754545454545454
