accx,accy,accz,gyrox,gyroy,gyroz
0.7827202,-0.1492299,0.07376454,-0.2343337,0.8185418,0.08436481
0.7390286,-0.1231486,0.09254965,-0.3406911,0.6188442,0.02727466
0.6596048,-0.1032201,0.05125684,-0.4987398,0.3168929,0.0996386
0.6591401,-0.1105709,0.05141235,-0.5373003,-0.01570286,0.2049985
0.6752303,-0.1436601,0.07759115,-0.4754684,-0.3088608,0.2937047
0.6916566,-0.1784929,0.1106588,-0.3634599,-0.4954035,0.3204356
0.782343,-0.221316,0.1257791,-0.2008066,-0.5363228,0.1758165
0.8508258,-0.2553033,0.1380423,-0.002825688,-0.5115939,-0.02432008
0.872754,-0.2530574,0.1763603,0.1063314,-0.5330535,-0.1815152
0.9064131,-0.1874952,0.1889903,0.1104825,-0.5622246,-0.2292462
1.046961,-0.1141466,0.1554034,0.04235703,-0.5285152,-0.1424998
1.228983,-0.1411508,0.09054183,-0.02709732,-0.4197571,-0.03812093
1.272462,-0.2246811,0.03329119,0.1613314,-0.2339051,0.06874562
1.314438,-0.2595113,0.03967974,0.4042448,0.0703212,0.143897
1.460299,-0.2059624,0.0997757,0.3335016,0.5975185,0.1462682
1.564957,-0.157549,0.1665114,0.1717774,1.162863,0.1698332
1.572395,-0.2784317,0.1981649,0.1636997,1.339756,0.1978721
1.425822,-0.4528103,0.1607929,0.4468728,0.9869553,0.1669903
1.121978,-0.5141837,0.06320032,0.8859657,0.360566,0.1153334
0.8831527,-0.5315849,-0.01969407,0.9815336,-0.01375961,0.03345706
0.777408,-0.4243073,-0.0293067,0.8985937,-0.03829983,-0.06538562
0.7190441,-0.1560343,-0.0666355,0.8256554,-0.0834578,-0.07983536
0.7628189,0.03679155,-0.1994355,0.3753638,-0.2864151,-0.04090886
0.8661546,0.05421857,-0.2295406,-0.05124705,-0.7640484,0.01166565
0.9558195,-0.1211799,-0.124473,0.05329011,-1.215872,0.08021864
1.054119,-0.3815074,-0.07502002,0.3352737,-1.127336,-0.03794814
1.067092,-0.4310534,-0.05756351,0.6188467,-0.8225436,-0.3327518
0.9505666,-0.2903858,-0.05764781,0.8059953,-0.7348394,-0.5501808
0.8040361,-0.1559413,-0.07727955,0.7353937,-0.9791072,-0.6312035
0.7692639,-0.05666559,-0.06697714,0.6592597,-1.318512,-0.4946688
0.8734272,-0.03377022,-0.103754,0.664476,-1.24508,-0.2558255
0.9465676,-0.07577675,-0.1278773,0.657867,-0.9931818,-0.1455941
0.9484173,-0.09376308,-0.1064049,0.7293009,-0.9063356,-0.03453159
0.9492441,-0.07992506,-0.1179791,0.8160502,-0.7644287,0.09363542
0.9438393,-0.02161194,-0.1207885,0.8169072,-0.4928676,0.205442
0.9312236,0.068414,-0.1244736,0.7462838,-0.2744793,0.3418901
0.9096882,0.09171317,-0.1191851,0.5974755,-0.4199297,0.3630403
0.9321773,0.08456285,-0.09068359,0.4792726,-0.6588433,0.3533528
0.9804579,0.1104521,-0.0713033,0.4528548,-0.5296071,0.4098774
0.9813331,0.05676764,-0.04882467,0.4667425,-0.4535507,0.4561804
1.013131,-0.05735072,-0.06031467,0.5114217,-0.4111608,0.5316503
1.084007,-0.1077566,-0.1017177,0.5230483,-0.1849585,0.5405405
1.116276,-0.104127,-0.1948779,0.494674,-0.1960044,0.3184097
1.114987,-0.04597615,-0.3168981,0.399638,-0.3168924,-0.06204213
1.13673,-0.01434493,-0.2977106,0.2015853,-0.4344256,-0.3358178
1.225904,-0.1294717,-0.260334,0.02680838,-0.5564699,-0.5163829
1.307507,-0.2371876,-0.3572268,-0.08239333,-0.5290704,-0.8172722
1.330207,-0.1777759,-0.4004627,-0.2092253,-0.4463946,-0.9402769
1.33615,-0.1315442,-0.4110036,-0.4205504,0.0275739,-0.7965591
1.284544,-0.230129,-0.4592528,-0.5183348,0.9240573,-0.7342722
1.14023,-0.3217971,-0.3256007,-0.30176,1.701224,-0.5631144
1.015223,-0.3912196,-0.06706508,0.01226145,1.899981,-0.2129883
1.011436,-0.4317704,0.0380924,0.2534536,1.373283,-0.008420186
1.082836,-0.2976207,-0.02568253,0.2419634,0.8798065,0.03774549
1.147829,-0.1259848,-0.07471611,-0.04847363,0.8087059,0.006022568
1.144259,-0.08733457,-0.04068731,-0.2667388,0.7970323,0.04169679
1.060368,-0.1094039,-0.0590887,-0.4298581,0.8121886,0.1946564
0.9070143,-0.1077098,-0.08874971,-0.537768,0.8185018,0.3026335
0.727883,-0.09523132,-0.06357413,-0.5351328,0.8025397,0.377848
0.7013648,-0.1293465,-0.08031106,-0.5881844,0.7980137,0.3649472
0.7535533,-0.17333,-0.05015126,-0.5154525,0.7685027,0.2305296
0.6921177,-0.241274,0.06984527,-0.4053343,0.6536262,0.08489979
0.6774306,-0.3029904,0.1682594,-0.4285097,0.3168575,-0.03898241
0.7167518,-0.2502791,0.1533765,-0.3855214,-0.07979246,-0.02328191
0.7188453,-0.2101184,0.09198844,-0.3130323,-0.3138316,0.05777913
0.7928031,-0.1969056,0.1433651,-0.1885276,-0.4162104,0.06843724
0.8586697,-0.1465231,0.1560978,-0.0686283,-0.4736348,0.0527618
0.8592423,-0.1490319,0.1403841,-0.0480192,-0.501484,-0.06062853
0.8670945,-0.1231574,0.232556,-0.020841,-0.5403732,-0.1862704
0.889299,-0.04151074,0.2343218,-0.1302772,-0.7041125,-0.1868356
0.9990678,-0.008488144,0.1746176,-0.3326241,-0.802208,-0.074408
1.199394,-0.04835093,0.1460811,-0.3423376,-0.5558199,0.07301009
1.359742,-0.15876,0.1396517,-0.04061968,-0.08631632,0.07951504
1.389437,-0.2307754,0.1728204,0.2337694,0.3465304,0.04827628
1.38403,-0.1934891,0.1439488,-0.02155699,0.7096335,0.1192598
1.468846,-0.1766504,0.1334164,-0.257978,0.9977373,0.2088011
1.496704,-0.3117375,0.1278863,0.10014,1.020445,0.2712527
1.362368,-0.4938711,0.04054545,0.509677,0.7545234,0.2176897
1.121259,-0.571621,-0.03782666,0.69257,0.3300591,0.1216252
0.8385252,-0.5887359,-0.1095467,0.7639165,0.01470556,0.1209468
0.7603885,-0.4859054,-0.1165677,0.7213903,0.05888786,0.1483221
0.9373537,-0.2418571,-0.1854016,0.6579492,0.104551,0.1402493
1.037275,-0.1231673,-0.3138484,0.4807975,-0.2049894,-0.03770553
0.9742189,-0.2019222,-0.1397999,0.3712702,-0.8803384,-0.3835002
0.9579988,-0.2734722,0.03831205,0.5601659,-1.549096,-0.5804531
0.9934819,-0.2662704,-0.09121164,0.7251601,-1.41659,-0.5542165
0.9561699,-0.2391818,-0.1426248,0.8516969,-0.8743641,-0.5451719
0.8848327,-0.1579921,-0.07041185,0.95281,-0.8329511,-0.5633231
0.8341778,-0.05952541,-0.09018342,0.9166704,-1.040903,-0.3921431
0.8434333,-0.05096472,-0.1011059,0.9713252,-1.203728,-0.08910161
0.9163822,-0.05033581,-0.09157476,1.01954,-1.042592,0.09043222
0.9314401,-0.02432751,-0.1298951,0.9734893,-0.6832969,0.1585609
0.9096082,-0.01028595,-0.1285624,0.9497831,-0.7519472,0.2625412
0.9112916,0.02114728,-0.1197014,0.8653018,-0.7016629,0.3855114
0.9144019,0.03696083,-0.1360834,0.7347423,-0.4344629,0.4724389
0.9494773,0.03900644,-0.1112838,0.6036604,-0.4707977,0.524789
0.9736376,0.04272303,-0.1009047,0.5221472,-0.4904511,0.5222234
0.9933671,0.04798488,-0.102018,0.4714178,-0.534817,0.4885916
1.013162,0.05904335,-0.08739928,0.3988087,-0.5009362,0.4895603
0.9957785,0.0226488,-0.09800027,0.3590317,-0.3148191,0.5138177
1.027155,-0.06471217,-0.1225954,0.2830849,-0.2539756,0.5248194
1.075837,-0.1538629,-0.1767188,0.2042206,-0.150182,0.4429996
1.105081,-0.1741531,-0.2187208,0.1793715,-0.2153874,0.1841498
1.151702,-0.1343101,-0.190131,0.1398473,-0.3510434,-0.1371396
1.178801,-0.1379384,-0.1404048,0.1316844,-0.3708445,-0.334884
1.201294,-0.1702948,-0.09801039,0.08825338,-0.5469347,-0.4522938
1.221517,-0.185861,-0.1155803,-0.08116227,-0.5745302,-0.6356459
1.253128,-0.1929332,-0.2816515,-0.2923147,-0.4391755,-0.7736824
1.301755,-0.2136312,-0.4926219,-0.4728309,-0.05229449,-0.770414
1.291077,-0.2696833,-0.5068557,-0.5181577,0.9731481,-0.7467645
1.181635,-0.318892,-0.3228909,-0.3309845,1.911767,-0.6146379
1.042165,-0.3581871,-0.1265913,0.01392563,2.034268,-0.3066769
1.053826,-0.3448847,-0.02551044,0.2465782,1.76009,-0.03200535
1.195146,-0.2178992,-0.06626547,0.1054359,1.660217,0.03972263
1.247498,-0.1227915,-0.1057912,-0.2939131,1.512464,-0.0645615
1.138142,-0.1118828,-0.05671774,-0.6809423,1.096305,-0.09608472
0.9719821,-0.08874289,-0.08295605,-0.928332,0.923378,0.01575709
0.9231121,-0.09904178,-0.1130904,-0.9794711,1.058191,0.1077431
0.8952441,-0.1528398,-0.0765111,-1.001347,1.023591,0.1694828
0.7683974,-0.1702623,-0.05691044,-1.004621,0.8923813,0.2096829
0.7094154,-0.1772283,0.03369324,-0.8921133,0.8259807,0.2202214
0.6883838,-0.2015135,0.1020935,-0.9136874,0.663019,0.200579
0.6502061,-0.187449,0.07322813,-1.013483,0.3954784,0.1742308
0.6800879,-0.1751044,0.07509185,-1.063449,0.07824231,0.2151311
0.7254394,-0.2053721,0.06787722,-1.091539,-0.1501234,0.2512176
0.7964428,-0.2245584,0.06927302,-0.9464947,-0.2072795,0.2292767
0.8700761,-0.2564961,0.1138558,-0.7425364,-0.2940252,0.1615809
0.866947,-0.2668156,0.1655017,-0.4898757,-0.367215,0.01385085
0.8643287,-0.2060639,0.2329642,-0.2419814,-0.467529,-0.1393633
0.9113472,-0.138118,0.2497858,-0.2140768,-0.6534799,-0.1953056
1.024105,-0.102626,0.2080252,-0.2225608,-0.5837291,-0.120067
1.174433,-0.137755,0.1317552,-0.2232073,-0.3681184,0.03920958
1.233634,-0.1755976,0.06978034,-0.1446838,-0.2407291,0.1592648
1.221135,-0.1461094,0.1165888,0.06219058,-0.1810965,0.1565121
1.277273,-0.1008653,0.2051079,0.1070496,-0.1088203,0.05347381
1.404986,-0.06208996,0.2494821,-0.09108798,0.3098958,0.008713766
1.472719,-0.1369827,0.2273145,-0.3164496,0.9746769,0.1039494
1.361821,-0.311682,0.1378535,-0.2082978,1.309305,0.2125877
1.145311,-0.4326732,0.01920859,0.06434923,0.812555,0.2438392
1.051809,-0.5507873,-0.1056747,0.2653907,0.02431741,0.2429556
1.073421,-0.6281107,-0.1650099,0.5396013,0.04761088,0.2573613
1.007812,-0.5196463,-0.1636386,0.5617625,0.3115762,0.2357661
0.8376333,-0.2380413,-0.1984499,0.3415651,0.2163975,0.1244878
0.7211261,0.01463546,-0.2065569,0.07713757,-0.002777474,-0.078143
0.8444148,-0.09059562,-0.09479594,-0.1857835,-0.6276536,-0.3158807
1.057723,-0.3399503,0.02054635,0.005954915,-1.189513,-0.4518034
1.086165,-0.3272176,-0.01565092,0.3700564,-1.226936,-0.4794739
1.096179,-0.297945,-0.07302158,0.5627163,-0.8873527,-0.489267
1.044636,-0.2461704,-0.04179421,0.7066842,-0.4383027,-0.5218025
0.8063834,-0.05822616,-0.07565407,0.5508909,-0.6279049,-0.5371342
0.7533604,-0.05742782,-0.09631405,0.3886175,-1.060772,-0.3679812
0.8345418,-0.07094432,-0.05542195,0.4091078,-1.15408,-0.08270586
0.8313335,0.00370477,-0.09661743,0.3389218,-1.107467,0.06637229
0.8894416,-0.06411099,-0.09501046,0.3961065,-0.8676861,0.1346637
0.9109006,-0.110775,-0.07343771,0.5177019,-0.8298345,0.2582669
0.8957648,-0.09438478,-0.115266,0.5415293,-0.7245127,0.3753643
0.9460845,-0.05508642,-0.1247561,0.5255248,-0.3286267,0.4501896
0.9598566,0.02021278,-0.1589065,0.3936315,-0.3754652,0.5268773
0.9600822,0.04007421,-0.157851,0.2933876,-0.4437234,0.5735602
0.9638922,0.05269905,-0.1150828,0.2457765,-0.3608922,0.5897899
0.9728511,0.0630571,-0.1252166,0.1985962,-0.417481,0.6194578
1.002472,0.04070949,-0.1007991,0.2128059,-0.2640482,0.6231308
1.024193,-0.03318959,-0.08218192,0.2004738,-0.1182836,0.5996992
1.068711,-0.158311,-0.09406297,0.211674,-0.09011367,0.5061872
1.099811,-0.1983377,-0.1183479,0.2078731,-0.1447047,0.2257668
1.093985,-0.1360543,-0.1910629,0.1256781,-0.3201904,-0.1197542
1.116025,-0.09425671,-0.2175812,0.02495449,-0.3993196,-0.2761767
1.192608,-0.0896937,-0.2105941,-0.1751121,-0.5185594,-0.3615001
1.254901,-0.05640915,-0.2549909,-0.3524855,-0.6320187,-0.6400075
1.259029,-0.06207627,-0.3223601,-0.4720776,-0.6007195,-0.8715559
1.28313,-0.1560498,-0.358414,-0.6568797,-0.3907615,-0.8587471
1.274259,-0.252328,-0.359194,-0.6999029,0.1759072,-0.8185253
1.151855,-0.3438124,-0.3502988,-0.54428,1.093061,-0.6802108
1.028129,-0.3842454,-0.2566813,-0.3010209,1.897074,-0.3759731
1.000636,-0.3611206,-0.07603981,0.03176409,1.783245,-0.1490255
1.051605,-0.3233557,0.01812684,0.166626,1.317698,-0.06917248
1.091722,-0.1976298,-0.04480488,-0.1065716,1.286792,-0.08605727
1.106292,-0.05974006,-0.09780345,-0.4855932,1.021753,-0.09748093
1.093205,-0.06096488,-0.05403169,-0.7709506,0.8586915,-0.01950506
1.014273,-0.1507181,-0.06274367,-0.8850486,1.072191,0.08927283
0.9533913,-0.2092921,-0.07689089,-0.7792461,0.9706776,0.1907466
0.8937998,-0.2062554,-0.01891076,-0.7237062,0.8998705,0.2300196
0.803407,-0.1960875,0.01486815,-0.6987773,0.8531157,0.1965782
0.7591219,-0.1900783,0.0649227,-0.6291975,0.6780788,0.16311
0.7141552,-0.175196,0.07868521,-0.7614309,0.6065322,0.1418766
0.695152,-0.1664221,0.04736232,-0.9151943,0.3219711,0.1741314
0.7305759,-0.1806065,0.08480968,-0.9166757,0.07635723,0.2603016
0.7553281,-0.2154145,0.1103005,-0.839572,-0.0650643,0.2890089
0.8047957,-0.245501,0.1355444,-0.6320774,-0.3527891,0.2431872
0.8522229,-0.269158,0.1645853,-0.4160624,-0.4515916,0.1425427
0.8712091,-0.256863,0.1652951,-0.2422954,-0.4452544,-0.03608377
0.8939011,-0.1786694,0.2351267,-0.08180838,-0.458431,-0.2006092
0.9156486,-0.06576968,0.2918044,-0.04242667,-0.4808163,-0.2398768
0.9528078,-0.007535165,0.256342,-0.1616839,-0.5137394,-0.1615817
1.042569,-0.07686546,0.1662879,-0.3095095,-0.3687395,0.007043011
1.205949,-0.2093292,0.04706123,-0.2230002,-0.2180592,0.1836178
1.282963,-0.3090712,0.006532754,0.04850697,-0.1401873,0.2023421
1.277119,-0.2615256,0.07822249,0.2015948,0.09097693,0.0934446
1.459706,-0.1250642,0.1321486,0.05410951,0.6388642,0.05926273
1.607804,-0.1548446,0.1028227,-0.1619122,1.279254,0.08691041
1.408462,-0.2847986,0.1082299,0.0480778,1.395573,0.09242591
1.110305,-0.3881352,0.1317531,0.3991303,0.8087925,0.09440229
0.936755,-0.4609729,0.05283191,0.5435646,0.005031674,0.06203512
0.8950239,-0.4351944,-0.03368621,0.6409499,-0.2190302,0.04220549
0.9254024,-0.3289724,-0.1351841,0.5727675,0.05512928,0.09017344
0.9017796,-0.1097491,-0.3098663,0.4023137,0.03936053,0.1586881
0.8869819,0.007306078,-0.3550871,0.1166567,-0.1415602,0.1838553
0.9458454,-0.1150805,-0.2110769,-0.1112069,-0.4798789,0.05872201
0.9835333,-0.183412,-0.08289315,0.1468189,-1.070446,-0.1875046
1.038397,-0.3076436,-0.03016065,0.4281699,-1.112404,-0.415302
1.081256,-0.4224709,-0.01681049,0.6107473,-0.6784538,-0.5739632
1.011248,-0.2714294,-0.07212775,0.7644394,-0.5492412,-0.6384989
0.9225267,-0.1535542,-0.1048197,0.6357495,-0.7126725,-0.5754769
0.8629407,-0.07883661,-0.08484485,0.6240203,-0.9530869,-0.3712063
0.8579826,0.02343698,-0.09694936,0.6144743,-1.094255,-0.08937826
0.9075124,0.01167757,-0.1012651,0.4684312,-1.002857,0.1379803
0.9167642,-0.01323426,-0.08823628,0.5255704,-0.877541,0.2256064
0.9187657,-0.04435183,-0.07588278,0.5472522,-0.7926903,0.2955644
0.9206835,-0.06403027,-0.07411668,0.540889,-0.6683997,0.4342054
0.9127747,-0.006998355,-0.1016281,0.5306026,-0.582313,0.5019478
0.9356141,0.05087386,-0.1179538,0.3887854,-0.557686,0.5617722
0.9475923,0.07137629,-0.1211174,0.3183791,-0.5670666,0.6348164
0.9626321,0.05561824,-0.1056015,0.2809052,-0.5637556,0.6178344
0.9914997,0.03267771,-0.0794387,0.2861293,-0.4244644,0.6484946
1.015794,-0.02995127,-0.07210893,0.3214051,-0.1785614,0.6624468
1.040423,-0.1412574,-0.09896171,0.2814165,-0.05278785,0.5244299
1.039882,-0.179842,-0.1747433,0.279655,-0.1806946,0.2297315
1.053199,-0.1145522,-0.2065154,0.2375997,-0.3362038,-0.1817364
1.1303,-0.07197343,-0.1597414,0.1527845,-0.3248663,-0.4067899
1.272722,-0.1645288,-0.1154053,0.1157986,-0.3183225,-0.4628157
1.367352,-0.249563,-0.1258751,0.02713497,-0.3693177,-0.6603207
1.31304,-0.1955936,-0.2183711,-0.1613143,-0.4227697,-0.8796452
1.27561,-0.1440608,-0.3194362,-0.4227955,-0.3961357,-0.8913128
1.293384,-0.1481843,-0.3698054,-0.5604349,0.06636253,-0.798496
1.22083,-0.2238365,-0.4042519,-0.5000257,0.9550157,-0.7219166
1.095401,-0.3730228,-0.3422613,-0.2681757,1.621243,-0.5404094
0.9690846,-0.4191954,-0.1215786,0.1992212,1.673737,-0.3364259
0.9340377,-0.3928352,0.04656191,0.4711214,1.492305,-0.2648186
1.057511,-0.3591557,0.03612842,0.312532,1.38075,-0.2095672
1.151786,-0.1749937,-0.001957635,0.01019471,1.043973,-0.1707768
1.130509,0.03653045,-0.01613177,-0.479569,0.6284921,-0.06630477
1.081924,0.06778723,-0.04393955,-0.8937564,0.6143248,0.1925342
1.012225,-0.01368078,-0.08021284,-0.9611514,0.8256634,0.3806807
0.9106293,-0.07876318,-0.08682532,-1.028626,0.9170636,0.4539513
0.8278097,-0.09979701,-0.02600424,-1.040186,0.8502678,0.4677094
0.7980223,-0.1608241,0.03966222,-0.9521881,0.7554657,0.3648352
0.7659032,-0.234404,0.08651262,-0.95641,0.6987621,0.2342112
0.7206493,-0.2379202,0.1036713,-0.9087599,0.550468,0.20933
0.7137944,-0.2360657,0.09495125,-0.8849811,0.2463646,0.2590326
0.7471511,-0.2394917,0.1243478,-0.8300782,-0.1077887,0.2777175
0.8179724,-0.2466477,0.1465299,-0.5734635,-0.3192086,0.2708597
0.8858881,-0.2676932,0.1512133,-0.3355252,-0.3689226,0.2108166
0.9077547,-0.2614773,0.1569863,-0.1214442,-0.3950139,0.05089196
0.8883921,-0.24021,0.1603893,0.04220423,-0.3787047,-0.08058661
0.8599001,-0.1636279,0.2120319,0.03315064,-0.4153697,-0.1196482
0.8708836,-0.04559854,0.2509163,-0.02488401,-0.6188742,-0.1035749
0.9457028,-0.03187599,0.1953286,-0.1418008,-0.7457484,-0.003991206
1.140348,-0.1478907,0.06850709,-0.2103728,-0.5424788,0.1593169
1.325781,-0.2961337,0.008775122,0.0509617,-0.1534149,0.2363133
1.306005,-0.3479681,0.1478561,0.4358029,0.07894464,0.1565233
1.318845,-0.2280587,0.2938994,0.4555215,0.3101375,0.08545229
1.442462,-0.1186919,0.2623562,0.2155294,0.7926664,0.08794635
1.390838,-0.2007624,0.249333,0.1461003,1.079752,0.08037344
1.271626,-0.280522,0.2716611,0.2565475,0.7814418,0.0746221
1.115372,-0.3145707,0.1093183,0.4325236,0.1930605,0.02653225
0.8545071,-0.463796,-0.04877397,0.5687835,-0.1994144,-0.01675546
0.8902383,-0.5029294,-0.02821066,0.6245768,-0.238439,0.09510779
1.030861,-0.3664424,-0.06406554,0.6376596,0.03807738,0.2277701
0.9145769,-0.257843,-0.2030372,0.4422358,0.2544218,0.2151126
0.9423113,-0.149766,-0.24862,0.1709915,-0.1295384,0.09107927
0.9963764,-0.15028,-0.1306301,0.1473799,-0.7518046,-0.1616245
0.928219,-0.2809353,-0.001717668,0.2979626,-1.084225,-0.4936824
1.01485,-0.3194494,0.003704738,0.4678542,-1.064693,-0.6348741
1.000942,-0.2738353,-0.04934855,0.6247868,-0.7215933,-0.5764817
0.9048392,-0.1859433,-0.09914141,0.6929576,-0.5728333,-0.548404
0.8666023,-0.08800914,-0.1057597,0.5945521,-0.8310506,-0.4206414
0.8038123,-0.02373716,-0.09543028,0.468153,-1.040468,-0.1150315
0.8797404,0.01575494,-0.1093428,0.4042226,-0.9454655,0.1215166
0.9284988,-0.02295192,-0.09292289,0.3604554,-0.8023149,0.1990538
0.905068,-0.05288892,-0.07320466,0.3933804,-0.7996952,0.2186189
0.9312759,-0.04350685,-0.06654085,0.4259965,-0.6310533,0.3381308
0.9029189,-0.04683915,-0.06876188,0.4282292,-0.4959442,0.4812611
0.9390363,0.008718867,-0.09870212,0.3994912,-0.5089357,0.4947637
0.9773187,0.04823175,-0.113749,0.2806479,-0.388507,0.5105143
0.9605293,0.04356791,-0.11813,0.2336065,-0.4157558,0.5394018
1.005711,0.05268387,-0.1171969,0.242304,-0.3804773,0.5300613
1.032524,0.03302497,-0.1079437,0.2122358,-0.1123906,0.5239572
1.052493,-0.01560249,-0.1033077,0.1798307,0.03139946,0.4673426
1.059204,-0.09611272,-0.1029047,0.1107683,0.04951622,0.2991867
1.061796,-0.1579763,-0.1291002,0.08848267,-0.1592001,-0.02051615
1.103742,-0.1610767,-0.1464816,0.05606978,-0.3248938,-0.2678739
1.13495,-0.1214719,-0.1414584,-0.06935966,-0.2080866,-0.2565906
1.199922,-0.0627891,-0.1579771,-0.1197269,-0.2358465,-0.3058011
1.238891,-0.08917452,-0.2043928,-0.1389469,-0.526128,-0.5710436
1.221269,-0.1435288,-0.2817476,-0.3078379,-0.74992,-0.8084349
1.256405,-0.1590093,-0.3442845,-0.5615023,-0.4025992,-0.8520505
1.294048,-0.2287541,-0.3927538,-0.6346621,0.4483218,-0.7713936
1.234312,-0.3252451,-0.423775,-0.4969971,1.257136,-0.7068566
1.101228,-0.3835665,-0.2667856,-0.2431035,1.6739,-0.556629
1.031655,-0.3741017,0.006193747,0.1643229,1.503949,-0.2949065
1.0944,-0.3377049,0.06495706,0.2826148,1.287633,-0.1577472
1.191076,-0.281345,-0.02394859,-0.04127934,1.231143,-0.1495258
1.206473,-0.1306631,-0.0184474,-0.2611824,0.9091451,-0.1425893
1.126252,-0.06681014,-0.004971843,-0.4384229,0.7309466,-0.04553811
1.009653,-0.124988,-0.05144662,-0.6181222,0.7444862,0.1777539
0.9007981,-0.101539,-0.07695143,-0.600542,0.6320753,0.3391015
0.8287698,-0.0939448,-0.06490556,-0.6150511,0.6312134,0.3777867
0.7842645,-0.1456677,-0.009083135,-0.5956463,0.6379972,0.388497
0.7435797,-0.1779453,0.06789568,-0.5172202,0.6102998,0.3171221
0.7004327,-0.2188288,0.1124813,-0.5204474,0.5481537,0.1857066
0.6795758,-0.2182156,0.1180056,-0.5038809,0.3438288,0.1451418
0.7139457,-0.1998502,0.1232684,-0.4978534,0.1952816,0.1885477
0.7469656,-0.2013424,0.1456174,-0.4071705,-0.009272077,0.1807972
0.7849135,-0.1798062,0.1515412,-0.2519578,-0.2295937,0.1223631
0.8407247,-0.1752145,0.1646778,-0.1796307,-0.2334845,0.04660245
0.8762453,-0.1654283,0.2123015,-0.05517531,-0.1909961,-0.08612193
0.9382922,-0.09444889,0.24714,0.05686141,-0.2235803,-0.211896
0.9969556,-0.01039144,0.2114026,0.03059012,-0.3870777,-0.2140047
1.093944,0.01190329,0.09093889,-0.09259987,-0.5149821,-0.02961968
1.238078,-0.06025232,0.01889641,-0.1697464,-0.3076445,0.2229656
1.266751,-0.1762816,0.1282907,-0.05269944,0.07976866,0.2935133
1.301226,-0.2512544,0.2867755,0.04939974,0.3603424,0.1919923
1.415578,-0.2416504,0.3030299,-0.03920717,0.6373917,0.1504128
1.484865,-0.2521494,0.2584627,-0.102102,1.087586,0.2066635
1.489424,-0.3601459,0.233123,0.03352621,1.30132,0.2095318
1.269296,-0.3987663,0.1120145,0.3016834,0.7286849,0.1436145
0.9250207,-0.3698577,-0.003492404,0.5423389,-0.1404835,0.05492463
0.8054571,-0.3757017,-0.005886723,0.5421185,-0.3996817,-0.00169154
0.8235966,-0.2818447,-0.07691632,0.4085857,-0.3270654,0.1224496
0.875072,-0.1210437,-0.2130137,0.2833111,-0.2451,0.2786282
0.9723058,-0.06707865,-0.2421686,-0.05158922,-0.04466841,0.2308321
0.988974,-0.1624739,-0.1485319,-0.175546,-0.4762465,0.08547541
1.007733,-0.332893,-0.02765729,0.1198875,-1.17726,-0.1341217
1.081651,-0.4010668,0.004994861,0.3597711,-1.085399,-0.4163128
1.051082,-0.3124557,-0.05978096,0.7024678,-0.7570038,-0.5667784
0.9571062,-0.1568333,-0.1065808,0.8207261,-0.5284404,-0.5886301
0.8624331,-0.04362328,-0.08328055,0.5987762,-0.4871575,-0.5255592
0.7795468,0.01548087,-0.07843196,0.6543733,-0.8629261,-0.3224762
0.820919,0.05001106,-0.102861,0.5293999,-1.081949,-0.0786932
0.8944738,0.01207929,-0.09634878,0.3340517,-0.9907508,0.07419457
0.9110294,-0.03245693,-0.1030742,0.4516127,-0.8809179,0.1611743
0.9238296,-0.05978472,-0.1114065,0.4046415,-0.82358,0.2833787
0.9035602,-0.05983259,-0.1017223,0.4059733,-0.7224318,0.4385522
0.9272384,0.02423359,-0.1279301,0.3918723,-0.5067096,0.580637
0.9748403,0.06132583,-0.142481,0.2106119,-0.3585796,0.6821906
0.9660875,0.05487227,-0.1165047,0.1858517,-0.2837121,0.6637271
0.9847734,0.07097677,-0.09985846,0.1129398,-0.3196691,0.616153
0.9818285,0.05889949,-0.1065608,0.05633446,-0.3555567,0.5985729
0.9731173,0.001732327,-0.1274026,0.06690647,-0.2162272,0.5324559
1.00034,-0.1047241,-0.1395203,-0.02017285,-0.1640941,0.5297153
0.9985414,-0.1417911,-0.1513417,-0.04772023,-0.2063012,0.5022845
1.024645,-0.1604541,-0.1836169,-0.03812355,-0.315924,0.2733199
1.064269,-0.2460594,-0.2183518,-0.009365553,-0.4425742,0.0003897911
1.119488,-0.2293516,-0.2165028,0.01698125,-0.3679544,-0.1584586
1.22366,-0.1961766,-0.1881667,0.03324011,-0.3356942,-0.2548021
1.293967,-0.2250965,-0.207527,0.03921418,-0.4524664,-0.5230677
1.317314,-0.1751736,-0.2684234,-0.1110104,-0.4981382,-0.8461825
1.316912,-0.1334089,-0.3443174,-0.3027615,-0.2418064,-0.8886238
1.307902,-0.1799203,-0.443987,-0.4907552,0.5821225,-0.8309756
1.233495,-0.2360191,-0.4907375,-0.6001277,1.576276,-0.778219
1.05851,-0.2942903,-0.3911243,-0.4237328,1.800712,-0.6142501
0.9330209,-0.3588267,-0.1712466,-0.131651,1.436096,-0.3954522
0.9641172,-0.3783978,-0.01695006,0.05679283,1.367034,-0.1482392
1.108128,-0.3229788,-0.02516561,0.01399233,1.260949,-0.04306947
1.245962,-0.2154033,-0.06768094,-0.1803956,1.050188,-0.114582
1.271342,-0.1140426,-0.07153446,-0.3612347,1.204862,-0.1004213
1.139593,-0.06645977,-0.08871078,-0.573226,1.169311,-0.04329555
0.9407079,-0.06449076,-0.1135018,-0.6702963,1.02932,-0.002449118
0.8113533,-0.06218427,-0.05120059,-0.6813238,0.965868,0.1494347
0.7351405,-0.05015148,0.06235753,-0.7652027,0.6224496,0.2702525
0.7181746,-0.06856365,0.1166328,-0.766425,0.4598051,0.2860718
0.7393144,-0.09291682,0.1369515,-0.7685682,0.2982177,0.3156207
0.7351044,-0.08103742,0.127884,-0.8232515,-0.03555551,0.3254986
0.7536441,-0.08504727,0.09351334,-0.8378475,-0.03445528,0.3507293
0.764198,-0.1293232,0.07503334,-0.8682908,-0.01762627,0.3706407
0.7563948,-0.1872722,0.07689973,-0.7654631,-0.159639,0.2905143
0.7651696,-0.2470948,0.1217687,-0.5542759,-0.3048685,0.1879422
0.7699675,-0.2854569,0.180687,-0.3853824,-0.4366101,0.03954284
0.7984653,-0.2741109,0.2301096,-0.2292825,-0.5101424,-0.1056859
0.8739384,-0.1920034,0.2807211,-0.2113068,-0.620738,-0.1193773
0.9987494,-0.0993598,0.2844513,-0.3103964,-0.6530362,-0.04201474
1.138982,-0.09816444,0.1752186,-0.3652889,-0.5487797,0.09210725
1.28481,-0.1517914,0.00154833,-0.3065966,-0.2251516,0.1662591
1.371685,-0.1816566,-0.02451816,-0.1188724,0.2694864,0.1447149
1.334369,-0.1961606,0.1095051,-0.01358402,0.4949386,0.1347858
1.362184,-0.1987644,0.1876768,-0.1682162,0.7541334,0.1248075
1.435688,-0.223557,0.1869318,-0.3240603,1.282329,0.09592426
1.378613,-0.3161897,0.1702388,-0.07838595,1.294798,0.04507808
1.230858,-0.3962067,0.106044,0.3166121,0.5879002,0.02221265
0.9872143,-0.4292022,-0.00464181,0.4466205,-0.01940614,0.1160831
0.8401644,-0.4606217,-0.09168907,0.5242351,0.04779388,0.2455659
0.8795878,-0.4056895,-0.1160499,0.5965219,0.2531315,0.2660106
0.8743407,-0.254471,-0.1153232,0.5056554,0.04994997,0.2296943
0.933029,-0.171946,-0.1077343,0.3672826,-0.1636979,0.1356972
1.041441,-0.1967793,-0.05679748,0.3343514,-0.5983033,-0.1721043
1.029242,-0.2510651,0.0134235,0.4053111,-1.203969,-0.4698727
1.038054,-0.279194,-0.004578689,0.4715754,-1.047243,-0.587379
1.011753,-0.2215126,-0.06701998,0.5685668,-0.7622297,-0.7236989
0.8746343,-0.1015876,-0.07040582,0.5518375,-0.8676791,-0.7647778
0.7500555,-0.01650068,-0.0647295,0.4011652,-0.9532115,-0.5775488
0.7227672,0.0001890121,-0.05684291,0.3815805,-1.228006,-0.2271437
0.8405729,-0.03951966,-0.07371727,0.3595121,-1.211837,0.1199107
0.9404839,-0.07823867,-0.118145,0.404197,-0.8388817,0.1533276
0.9145598,-0.06873864,-0.1043534,0.5502024,-0.6505532,0.1143733
0.8966916,-0.04383856,-0.09963117,0.5395535,-0.4295432,0.3268233
0.9189509,0.02920676,-0.1072816,0.5208206,-0.3357908,0.4762949
0.9389438,0.1370477,-0.09291596,0.4690493,-0.2998091,0.499259
0.9784435,0.1380312,-0.1010909,0.3568212,-0.2316012,0.5259597
1.012742,0.09275547,-0.08157147,0.3155427,-0.3181461,0.4579782
0.9913228,0.07689343,-0.06526296,0.2391645,-0.2410983,0.4265378
0.9856348,-0.04017613,-0.0951954,0.1734555,-0.2286778,0.4318077
1.02731,-0.1662248,-0.1387118,0.1571928,-0.3393909,0.2842432
1.083912,-0.1549736,-0.1844574,0.2125976,-0.3953875,0.02608659
1.180739,-0.145715,-0.1843805,0.3046311,-0.5183536,-0.2263469
1.232658,-0.1935959,-0.1712049,0.2810897,-0.3163955,-0.3492837
1.225123,-0.2092955,-0.2086947,0.2114718,-0.1202328,-0.5101947
1.265508,-0.1514628,-0.2856379,0.0183016,-0.3872978,-0.8372649
1.316845,-0.09013232,-0.3632344,-0.3956138,-0.4641471,-0.9808884
1.323798,-0.1672662,-0.3746628,-0.7610008,0.07536047,-0.8900885
1.250366,-0.3186578,-0.3167857,-0.7678024,1.017152,-0.7672354
1.134813,-0.406099,-0.163714,-0.4495823,1.626943,-0.5396814
1.115942,-0.4200016,0.04077249,-0.1516349,1.482875,-0.2243013
1.158487,-0.364614,0.04578547,-0.009353862,1.119453,-0.03594839
1.188111,-0.2591526,-0.08020509,-0.08668228,0.9477898,0.01691868
1.209684,-0.1178398,-0.08552337,-0.405734,0.9439013,0.07523572
1.106881,-0.07696364,-0.08198402,-0.6693193,0.9490618,0.154742
0.9002344,-0.1720145,-0.1169729,-0.7365755,0.8245236,0.2635439
0.8165779,-0.1680339,-0.1059086,-0.6755703,0.7187083,0.3142758
0.7984186,-0.1169384,-0.05190295,-0.6560992,0.706982,0.2864694
0.7041464,-0.1286055,0.05820425,-0.6614134,0.685234,0.2984485
0.6774424,-0.1429323,0.1028264,-0.5337897,0.6910545,0.233717
0.7045159,-0.2002119,0.08550187,-0.5130897,0.6107837,0.1015509
0.6651043,-0.2021765,0.119305,-0.5427263,0.390214,0.04373086
0.6794117,-0.1713992,0.1314052,-0.4655698,0.1924321,0.06124328
0.732055,-0.1977343,0.1506123,-0.4110062,-0.07276803,0.1214037
0.7583559,-0.1719727,0.1747179,-0.2850847,-0.3113552,0.1089189
0.8433596,-0.1662667,0.1691819,-0.1809682,-0.3388269,0.03204507
0.9094511,-0.1759382,0.2047757,-0.1079355,-0.2639067,-0.08864702
0.9345681,-0.1201856,0.2277652,-0.04205574,-0.214358,-0.1912662
0.9856544,-0.07095544,0.2177862,-0.1550666,-0.3238566,-0.1274363
1.049719,-0.06014107,0.1493192,-0.2210715,-0.3744319,0.0005376305
1.185164,-0.1549617,0.05915279,-0.1168499,-0.1108054,0.1500071
1.284364,-0.2507241,0.1235995,0.04265689,0.2757685,0.2142261
1.293146,-0.2157605,0.2522842,0.1066447,0.5756675,0.1171987
1.409327,-0.203477,0.2933657,-0.07034877,0.8124561,0.1294078
1.539471,-0.2701959,0.2226876,-0.1687297,1.10902,0.2007646
1.470573,-0.3600583,0.094913,0.1779927,1.13906,0.1911594
1.201946,-0.4454059,0.03119841,0.652419,0.6504,0.1212734
0.8888167,-0.4352973,-0.04686308,0.6962653,0.1049077,0.02057299
0.8112047,-0.3224958,-0.1116365,0.5207184,-0.06530138,0.1162561
0.9077928,-0.1931982,-0.1287023,0.4085107,0.1643619,0.2318741
0.8964721,-0.08727442,-0.2345104,0.1287127,0.2157565,0.1281435
0.90643,-0.09125433,-0.1688222,-0.03540712,-0.3792017,0.006440678
1.00817,-0.2434403,0.02447086,0.1398501,-1.115579,-0.205374
1.039018,-0.3668187,-0.02021375,0.3826188,-1.320527,-0.4757534
1.050057,-0.3347466,-0.0639249,0.6729595,-0.8897382,-0.5789291
0.993129,-0.2232527,-0.05478303,0.8186275,-0.5448371,-0.6392989
0.8793293,-0.1365727,-0.08699776,0.7203503,-0.7026771,-0.6091951
0.8649403,-0.05939173,-0.0437396,0.7296853,-0.8236384,-0.385028
0.8545215,0.006318314,-0.06244413,0.7524164,-0.8760047,-0.1257822
0.86267,-0.009615898,-0.07215863,0.6408004,-0.9326569,0.08667796
0.8981745,-0.03041927,-0.04308025,0.6332555,-0.8458219,0.2037363
0.885396,-0.03055106,-0.0916983,0.6468205,-0.8103711,0.3257556
0.9201881,-0.05080836,-0.1007539,0.6201251,-0.615041,0.5077313
0.9622373,-0.02611569,-0.1187611,0.6366176,-0.3095245,0.5630585
0.9796419,0.01645714,-0.1157716,0.5770566,-0.2952705,0.5531926
0.9864494,0.04866666,-0.06918162,0.4957235,-0.3582955,0.5417972
0.9592146,0.09020466,-0.08376442,0.4282176,-0.368757,0.5079288
0.9675158,0.1015364,-0.06194664,0.3701171,-0.363142,0.5345122
1.003948,0.05679352,-0.03740792,0.3851953,-0.2131593,0.5364576
1.043939,-0.01530155,-0.03187099,0.3664602,-0.003705095,0.5208154
1.047177,-0.0427007,-0.02476778,0.3051673,0.009796048,0.4850841
1.027228,-0.01613334,-0.08624979,0.2227447,-0.2124591,0.3002575
1.067661,0.02905881,-0.1342062,0.1289575,-0.4777653,0.0413206
1.097422,0.05964128,-0.1591184,0.00646099,-0.6456644,-0.1458962
1.147401,0.02947857,-0.2036155,-0.2322776,-0.6239115,-0.2439171
1.269471,-0.01286765,-0.2811699,-0.3849054,-0.6597096,-0.5172531
1.323871,-0.009366335,-0.3519434,-0.4677048,-0.8328432,-0.8601295
1.301051,-0.05173628,-0.3444795,-0.6928789,-0.5341121,-0.8078737
1.305848,-0.1791452,-0.4307282,-0.8095835,0.2353913,-0.6882393
1.290478,-0.2609522,-0.5277284,-0.7440521,1.078976,-0.7226313
1.12814,-0.3086494,-0.3312687,-0.6370227,1.645997,-0.5514242
0.9380819,-0.4089256,-0.04135792,-0.3951992,1.468939,-0.3405782
0.9614672,-0.4181186,0.04059747,-0.2396583,1.232351,-0.2182424
1.138365,-0.2768327,-0.03995074,-0.4040742,1.307525,-0.0728527
1.244073,-0.1481038,-0.08407552,-0.6326328,1.052616,-0.04823372
1.205147,-0.08190705,-0.04565648,-0.8173585,0.8480883,0.003720716
1.115482,-0.06350771,-0.06067607,-0.9204533,0.8849035,0.2006233
1.029218,-0.1212656,-0.09550629,-0.8440363,0.8737241,0.3125238
0.9098611,-0.1848371,-0.08681651,-0.795312,0.9556314,0.3228055
0.817817,-0.188934,-0.06536658,-0.7608294,0.9579623,0.2683056
0.7868058,-0.1862873,0.02096335,-0.6534736,0.9846771,0.1546865
0.7446581,-0.2040094,0.11371,-0.6202293,1.022232,0.06199416
0.6893184,-0.2047707,0.1429806,-0.578929,0.7020688,0.03033085
0.648092,-0.1845373,0.1570295,-0.5448763,0.1933025,0.07586392
0.6549143,-0.1659219,0.1624302,-0.5103112,-0.3248547,0.1225821
0.721433,-0.1463095,0.1738397,-0.3398199,-0.613544,0.1574925
0.8005252,-0.1437526,0.1676104,-0.2015965,-0.6431728,0.1483648
0.8789612,-0.1579918,0.1556756,-0.07819918,-0.6401274,0.00976376
0.9139567,-0.1475224,0.1945234,0.08361381,-0.5068294,-0.1271956
0.9254834,-0.1106413,0.2158617,0.09765975,-0.4057442,-0.1633701
1.008515,-0.07283849,0.1906028,-0.0245175,-0.4025232,-0.06626499
1.126062,-0.09372699,0.1248983,-0.1079122,-0.355744,0.08390913
1.227942,-0.1585143,0.05776681,0.02386602,-0.2386062,0.1207769
1.28725,-0.1711401,0.0992503,0.1401989,0.1428008,0.1423608
1.349142,-0.1373881,0.201857,-0.05319164,0.6394062,0.1938217
1.510294,-0.125225,0.2493833,-0.2246381,0.979582,0.2626147
1.602421,-0.2350459,0.1963771,-0.118346,1.105256,0.3415066
1.393608,-0.417839,0.0827237,0.1809217,0.7843197,0.2562721
1.027098,-0.4841605,0.01302447,0.4864734,0.1580138,0.09880446
0.861106,-0.4733065,-0.01339589,0.5195935,-0.137384,0.05481762
0.883824,-0.4104004,-0.03714904,0.4803735,-0.1188653,0.06096994
0.8788395,-0.2364201,-0.1010306,0.5475622,-0.1264018,0.06020346
0.8956974,-0.1087287,-0.1915699,0.3520687,-0.1198349,0.04264006
0.9183824,-0.1128928,-0.1517152,0.1040591,-0.5304474,-0.02230561
0.931676,-0.1739362,-0.068091,0.1899647,-1.273457,-0.1648774
1.008168,-0.262271,-0.09518845,0.3689556,-1.404385,-0.3220899
1.034369,-0.3068233,-0.08332216,0.5981104,-0.9811606,-0.4611901
0.9426029,-0.2102556,-0.05260762,0.7373611,-0.7060039,-0.6217564
0.8133281,-0.06605399,-0.08079316,0.6260473,-0.8722799,-0.6356061
0.8147501,-0.03987177,-0.07609119,0.589002,-1.029975,-0.4164205
0.9232982,-0.02903096,-0.0920172,0.5697476,-0.8958591,-0.1727168
0.9740494,0.03466359,-0.1105679,0.4679216,-0.8131062,-0.01259946
1.005629,-0.0003170532,-0.08354519,0.4514511,-0.6138363,0.06465495
0.9847363,-0.04699384,-0.08248308,0.438904,-0.4447339,0.1259723
0.9408997,0.01543772,-0.09106259,0.4191082,-0.4505072,0.2648829
0.9433899,0.06926394,-0.106963,0.3680522,-0.2898238,0.3821185
0.9239408,0.08496024,-0.1188403,0.2416039,-0.3114846,0.4441332
0.9411795,0.08479071,-0.1103293,0.1559884,-0.4407011,0.4918802
0.9454504,0.06952057,-0.1168752,0.1244083,-0.4386863,0.5206169
0.9321138,0.07839484,-0.1191517,0.1377627,-0.4803694,0.5951509
0.9799995,0.06044524,-0.116691,0.1619121,-0.3220483,0.6294612
1.007581,-0.02463545,-0.1121607,0.169761,-0.1205816,0.591627
1.04558,-0.1104976,-0.1051244,0.2174323,-0.06228217,0.547017
1.079241,-0.1518244,-0.1162501,0.2675039,-0.06609115,0.3481751
1.099051,-0.1647092,-0.1425346,0.2775283,-0.2560932,0.01776362
1.131924,-0.1329502,-0.1726445,0.1642429,-0.4066717,-0.1878299
1.124741,-0.05564358,-0.1715496,-0.1054394,-0.4270324,-0.2354473
1.17531,-0.06103481,-0.1733941,-0.3250304,-0.5546802,-0.3973873
1.230208,-0.1141279,-0.2225012,-0.4870987,-0.6953893,-0.7206361
1.237202,-0.1240446,-0.2875888,-0.719285,-0.4248409,-0.8741955
1.290903,-0.2006504,-0.3637357,-0.8380421,0.3656802,-0.8516042
1.269919,-0.2717141,-0.3830296,-0.7321791,1.238984,-0.7769317
1.174115,-0.3228526,-0.31778,-0.5134903,1.664219,-0.5443264
1.096569,-0.4072802,-0.2119738,-0.2105353,1.412608,-0.2755961
1.07995,-0.3690445,-0.05584064,-0.04594948,1.153905,-0.1059762
1.197635,-0.2834574,-0.02086094,-0.2200343,1.167932,-0.03946007
1.278416,-0.1711199,-0.09786046,-0.4423694,0.9420131,-0.09148648
1.195243,-0.05238797,-0.03843012,-0.6275162,0.8825529,-0.09089489
1.051698,-0.1097862,-0.01176417,-0.7942708,1.017144,-0.00588709
0.8906721,-0.1249309,-0.07039753,-0.7823229,0.9791499,0.09350242
0.7523759,-0.04614885,-0.04016018,-0.8450134,0.963512,0.2632521
0.7047884,-0.05854059,-0.01536124,-0.9212094,0.8115864,0.3320317
0.7157738,-0.08890616,0.03617674,-0.8155038,0.7123282,0.2589748
0.7097275,-0.1434085,0.09191896,-0.8255289,0.5951198,0.2287783
0.7032438,-0.1882707,0.08362122,-0.8329376,0.1850131,0.2066367
0.7204296,-0.1917899,0.1094756,-0.7463832,-0.0950166,0.1961395
0.7553437,-0.2264563,0.1090508,-0.6442509,-0.2954366,0.2110998
0.8246937,-0.2335614,0.1242509,-0.4010801,-0.408478,0.1614236
0.8690343,-0.2291705,0.172588,-0.196634,-0.3959937,0.06240328
0.8709101,-0.231474,0.1807784,-0.05171888,-0.4556563,-0.07207318
0.9004923,-0.1805195,0.2398085,0.1001359,-0.4390472,-0.207059
0.9532975,-0.1017369,0.2722621,0.1260266,-0.4988208,-0.233772
1.04484,-0.04048735,0.2062837,0.03945723,-0.5548504,-0.09791651
1.187662,-0.06410559,0.1227026,-0.04196724,-0.3606885,0.1184127
1.260753,-0.1454618,0.09240814,0.04308828,-0.1139137,0.2112779
1.262736,-0.1830671,0.1521226,0.1223851,0.1107337,0.1562543
1.34959,-0.1669161,0.1890599,0.0625507,0.4227164,0.1539301
1.51249,-0.1447237,0.1659623,0.06374416,0.9060504,0.225846
1.615736,-0.21748,0.1520757,0.1114331,1.198863,0.2461173
1.449139,-0.3432278,0.1239563,0.2939696,0.9392295,0.1981879
1.038881,-0.3955016,0.05022377,0.5532667,0.3874392,0.07116194
0.8162583,-0.3947736,-0.008107009,0.5338506,-0.09493412,-0.07254695
0.8274339,-0.348599,-0.02260602,0.4420148,-0.2205017,-0.04272308
0.9131312,-0.2502142,-0.1382924,0.4584023,0.03612335,0.1404548
1.047595,-0.1437209,-0.2726161,0.2996185,0.1272294,0.2426612
1.029516,-0.1574969,-0.1614377,0.1125933,-0.3916196,0.1106126
1.001636,-0.3075414,-0.005318057,0.1530524,-1.056501,-0.1921453
1.038234,-0.3655524,-0.04278274,0.3242005,-1.209801,-0.4776818
0.9369139,-0.2981324,-0.07762711,0.5681598,-0.9539209,-0.6755012
0.8497535,-0.2014035,-0.06138711,0.6807994,-0.8170759,-0.7370946
0.8012541,-0.1139337,-0.09349254,0.664066,-0.9256326,-0.6189058
0.817522,-0.04837382,-0.1069861,0.731531,-0.9112336,-0.3925049
0.9305863,0.0355755,-0.1303171,0.7081757,-0.83067,-0.06210011
0.9527204,0.03271617,-0.137111,0.6532932,-0.8207184,0.2194975
0.957514,-0.007785189,-0.08551709,0.6304693,-0.7037654,0.2811306
0.9538941,0.02204245,-0.08782352,0.526601,-0.6271454,0.3460189
0.9425459,0.01946316,-0.08900698,0.5279298,-0.509474,0.4628004
0.9775571,0.05515043,-0.08238897,0.492846,-0.3334665,0.4916565
0.9573927,0.1133448,-0.1049666,0.3266069,-0.3571082,0.5309466
0.9583856,0.1051428,-0.0921282,0.1922422,-0.4026433,0.544205
0.9637976,0.1149212,-0.09557782,0.03328337,-0.4043573,0.5052014
0.9703103,0.1049602,-0.07385306,-0.05292524,-0.3090075,0.5289299
1.026199,0.04530869,-0.02812573,-0.07443556,-0.1194022,0.5408251
1.011936,-0.01878368,-0.05316592,-0.1038924,-0.1149387,0.5069719
1.040336,-0.07365356,-0.1055682,-0.06549851,-0.1757792,0.3498278
1.115611,-0.1168054,-0.1605944,-0.02928335,-0.2743278,0.009619796
1.112352,-0.1254093,-0.1622936,0.003684144,-0.4457902,-0.1752998
1.127678,-0.09835225,-0.1364536,-0.002252449,-0.4304352,-0.1544941
1.174368,-0.1352768,-0.1638698,-0.087645,-0.4581251,-0.2963951
1.211496,-0.1702116,-0.1891726,-0.1797715,-0.6470908,-0.600795
1.237421,-0.1570105,-0.293671,-0.332011,-0.50334,-0.8000307
1.291185,-0.2406127,-0.4888764,-0.4970853,0.1796814,-0.8013363
1.322771,-0.3326013,-0.528373,-0.5086696,1.230676,-0.7458461
1.202248,-0.3515334,-0.3517113,-0.2634294,1.860623,-0.7079157
1.054119,-0.3877924,-0.1286225,0.1059308,1.499769,-0.5484603
1.036829,-0.3831207,-0.01576032,0.2041528,1.178156,-0.3215364
1.150882,-0.2556563,-0.05479578,-0.01987996,1.228625,-0.2051745
1.252483,-0.0811438,-0.08592556,-0.317682,1.033463,-0.1392843
1.179624,-0.009925832,-0.02634016,-0.6070395,0.9712915,-0.04525497
1.049158,-0.05240606,-0.02966966,-0.7891783,0.9030773,0.07901499
0.9306436,-0.0683419,-0.07751073,-0.8548298,0.7985569,0.242692
0.7910778,-0.03803156,-0.07706705,-0.9496076,0.9878318,0.3736216
0.7341978,-0.05855481,-0.05016042,-0.9848994,0.9124406,0.4047856
0.7196819,-0.1146021,0.04245186,-0.9043717,0.8613996,0.3394738
0.6855075,-0.1761492,0.119902,-0.8808659,0.8418721,0.2371817
0.6720686,-0.2442016,0.1324237,-0.8915415,0.4180064,0.1592233
0.6694833,-0.2415674,0.1452768,-0.8376316,0.08148127,0.115573
0.730657,-0.2171858,0.1342974,-0.6977367,-0.3047492,0.1293044
0.8346542,-0.2201321,0.1466388,-0.4571456,-0.5306095,0.1288459
0.8827419,-0.2043559,0.1637523,-0.2349304,-0.3629595,0.04121025
0.8853528,-0.2115274,0.1663466,-0.03866404,-0.362896,-0.09074569
0.8788809,-0.1882849,0.2377068,0.1713939,-0.3658389,-0.2420415
0.8996271,-0.1137856,0.29073,0.2114256,-0.405795,-0.2799055
0.9539686,-0.04534196,0.2413591,0.05290146,-0.5133993,-0.1327602
1.079627,-0.001929657,0.1303548,-0.06681462,-0.3707057,0.09415812
1.251825,-0.05634214,0.06312319,-0.03676366,-0.148025,0.3178108
1.307443,-0.1370763,0.1006281,-0.007312681,0.1763203,0.3675093
1.339334,-0.1700183,0.1608879,-0.04497111,0.6298032,0.3251087
1.503882,-0.2024669,0.1877237,-0.04643418,1.022074,0.4430325
1.614338,-0.2732569,0.1532326,0.01171815,1.162455,0.5055591
1.453697,-0.4056449,0.07204413,0.2371084,0.8022363,0.364094
1.119274,-0.4794855,0.01097004,0.5350762,0.1915223,0.2114996
0.8934612,-0.4769839,-0.007946823,0.5518719,-0.05517397,0.1027781
0.8175142,-0.4311275,-0.007348978,0.507177,-0.02869918,0.02707147
0.7972433,-0.251707,-0.06546886,0.4999999,-0.1226895,-0.008960302
0.8466763,-0.08268228,-0.1570159,0.1776817,-0.2175828,-0.005974563
0.9011728,-0.06057058,-0.1598755,-0.06868731,-0.5234357,0.01794734
0.9418143,-0.1620229,-0.1072149,0.03252334,-1.066889,0.008617804
1.004675,-0.330628,-0.08028578,0.1885976,-1.163694,-0.09016314
1.021262,-0.3684997,-0.06160164,0.4285861,-0.7877002,-0.3050581
0.9316484,-0.2563839,-0.06246948,0.5259264,-0.5701832,-0.4806292
0.788772,-0.1307664,-0.076971,0.417686,-0.8511286,-0.4938752
0.7585832,-0.05232117,-0.06861469,0.4060116,-1.151516,-0.3889104
0.8381084,-0.04645961,-0.0959431,0.3450525,-1.080402,-0.1973557
0.9182838,-0.04390417,-0.1408161,0.2983723,-0.9721379,-0.04548533
0.9962973,-0.05487418,-0.138031,0.3581458,-0.8309714,0.001402151
1.002486,-0.09724988,-0.1245293,0.396301,-0.6441073,0.04792219
0.9751214,-0.09602872,-0.1115783,0.5257174,-0.5137546,0.1285988
0.9845407,-0.04971416,-0.1119779,0.5828285,-0.3734018,0.2063721
0.944762,0.0302225,-0.1217643,0.4615113,-0.4334459,0.278447
0.9173139,0.08018827,-0.1181924,0.3665129,-0.5590219,0.3703195
0.9481789,0.07893374,-0.1215147,0.2930099,-0.5287362,0.4373775
0.9632116,0.07705915,-0.1103719,0.2745586,-0.5091392,0.4615418
0.9981204,0.02259207,-0.08585362,0.3422506,-0.3830258,0.4784201
1.044285,-0.07635036,-0.07511243,0.4105443,-0.1380738,0.4651844
1.057218,-0.1291443,-0.09891763,0.4974916,-0.06365672,0.3922402
1.06493,-0.115499,-0.1745358,0.5578025,-0.1335774,0.1860518
1.086222,-0.1094779,-0.2207009,0.4648882,-0.1723327,-0.09101639
1.166097,-0.1543572,-0.1742849,0.1882804,-0.2416087,-0.3207227
1.257961,-0.1663559,-0.1458677,-0.1293189,-0.4729821,-0.6332612
1.248861,-0.1147284,-0.2545514,-0.2957662,-0.6827947,-0.9656546
1.240832,-0.07461591,-0.3717988,-0.4626885,-0.6253736,-1.052486
1.295587,-0.1317363,-0.3906699,-0.7969748,-0.2733349,-0.9647853
1.288741,-0.253129,-0.4489691,-0.8762845,0.5081253,-0.8632322
1.245795,-0.3130109,-0.444451,-0.5040699,1.442725,-0.6601462
1.164607,-0.3414819,-0.1874192,-0.07836831,1.735531,-0.3504008
1.036789,-0.3854587,0.05073893,0.2433826,1.460021,-0.1158606
1.069875,-0.3534338,0.02317083,0.2897683,1.265662,-0.02466214
1.164766,-0.1969153,-0.04586095,-0.04013409,1.062328,-0.05016647
1.142869,-0.04160901,0.006289046,-0.3823836,0.8147069,-0.04706888
1.140985,-0.04682026,-0.003589842,-0.6053709,0.8649353,0.0982591
1.063288,-0.09260418,-0.07272192,-0.7191427,0.913274,0.2776436
0.8648018,-0.04947083,-0.08116333,-0.7570547,0.81109,0.4696416
0.7701396,-0.05440651,-0.08866261,-0.7966701,0.8324116,0.5622021
0.773444,-0.1241828,-0.007247743,-0.7305598,0.7982199,0.4737305
0.7475776,-0.1817326,0.1157177,-0.6790338,0.7041927,0.3880256
0.6815394,-0.2268998,0.1100569,-0.6832212,0.5510428,0.2359779
0.6764595,-0.2260319,0.1095629,-0.6508121,0.2246442,0.06409617
0.6869932,-0.2385722,0.1410436,-0.5999837,0.01559354,0.08241047
0.6787291,-0.2708665,0.1440297,-0.4039768,-0.1349372,0.1016613
0.768768,-0.2417244,0.1626218,-0.1692011,-0.3122288,0.02080611
0.8155298,-0.2283968,0.1960293,-0.002283649,-0.3544824,-0.09338702
0.8431677,-0.2063955,0.2422549,0.1451693,-0.3720074,-0.2429133
0.9369507,-0.1238976,0.2556477,0.1659242,-0.4113683,-0.2969537
0.9666609,-0.06690482,0.2131598,0.07560283,-0.4346829,-0.1629942
1.104293,-0.04260053,0.1030208,-0.01223753,-0.3395034,0.05763377
1.26683,-0.110731,-0.001396708,0.05295941,-0.1570654,0.2192342
1.26427,-0.2059415,0.0556265,0.1549907,0.05767868,0.2528288
1.32356,-0.1721523,0.1846184,0.07321533,0.4721835,0.2196932
1.429797,-0.1429603,0.2448566,-0.03571058,0.8794683,0.2543246
1.499283,-0.1864958,0.2274043,-0.07693385,1.070971,0.3386304
1.511179,-0.3045522,0.1897448,0.1761353,0.9596235,0.3364248
1.289774,-0.5153841,0.1863707,0.6738021,0.4682169,0.2384198
0.9686913,-0.5718067,0.08179155,0.7931486,0.005620201,0.1394565
0.8509476,-0.4344455,-0.09792396,0.6944482,-0.1347999,0.1411116
0.8833247,-0.3099388,-0.1417142,0.6655371,0.1025278,0.1562393
0.8909688,-0.1679305,-0.1515856,0.4037921,0.2914076,0.06713632
0.9011779,-0.08847774,-0.1695792,0.1327001,-0.2562707,-0.02947928
0.92914,-0.1912913,-0.08916843,0.1928087,-1.020959,-0.1625586
0.9525809,-0.293979,-0.05106263,0.4397043,-1.281061,-0.3235821
0.9882664,-0.3315206,-0.07041051,0.6904818,-1.081543,-0.4168225
0.9627098,-0.3083448,-0.06678546,0.8369254,-0.8179337,-0.5440053
0.8812343,-0.1964544,-0.08506816,0.8525695,-0.8708593,-0.5951158
0.8320861,-0.1114811,-0.08135625,0.8441615,-0.9327406,-0.4207848
0.8499705,-0.04946931,-0.08769215,0.8681472,-0.9270214,-0.1560122
0.9295409,-0.02304333,-0.1169979,0.8471626,-0.8773344,0.05606178
0.9818024,-0.05679023,-0.1033784,0.8130883,-0.6137188,0.1402791
0.9903186,-0.03655816,-0.0999319,0.793402,-0.5282993,0.2025948
0.9733019,-0.01239011,-0.09835827,0.7291921,-0.4293198,0.3140026
0.9379982,0.008727286,-0.08895547,0.6585109,-0.2643912,0.3667321
0.9488254,0.04825357,-0.0898715,0.5647222,-0.3830122,0.3865156
0.9445292,0.03457927,-0.07419028,0.4823307,-0.4252905,0.4291246
0.9271216,0.05053162,-0.06989989,0.4628872,-0.4535607,0.4886244
0.958485,0.07059276,-0.06632136,0.4443408,-0.4279447,0.5498323
0.9859928,0.02310315,-0.03957853,0.4457677,-0.1861399,0.5652898
1.023373,-0.03648817,-0.01615343,0.4427272,-0.08727114,0.5367976
1.027558,-0.1008178,-0.03926322,0.4173428,-0.06401585,0.4394831
1.012399,-0.1124855,-0.1140629,0.3646126,-0.1789401,0.2169403
1.074153,-0.06644894,-0.1674477,0.2148574,-0.4393806,-0.05007182
1.14282,-0.05122475,-0.1814723,0.01799496,-0.5689299,-0.2435519
1.194405,-0.09096377,-0.2010526,-0.1651037,-0.729948,-0.4407615
1.220922,-0.139493,-0.2602335,-0.2718347,-0.9260634,-0.7196722
1.235026,-0.1387002,-0.3247556,-0.3749458,-0.9814621,-0.9114901
1.285956,-0.166767,-0.3662545,-0.615074,-0.7684327,-0.9365921
1.275005,-0.2698166,-0.422243,-0.7108176,-0.113,-0.9095423
1.200889,-0.3450333,-0.367278,-0.492431,0.9278385,-0.7866631
1.099679,-0.3700146,-0.1520265,-0.1595657,1.756942,-0.4715555
1.013904,-0.3646744,0.02258435,0.1991334,1.76876,-0.105026
1.085788,-0.2881851,0.05858149,0.2871885,1.447245,0.07041685
1.169378,-0.1248287,-0.01253722,-0.04569751,1.201451,0.0629111
1.132992,-0.004708869,-0.06436462,-0.4292451,0.8031477,0.05603951
1.100589,-0.04835587,-0.07695351,-0.729058,0.6296346,0.0862131
1.029596,-0.1184449,-0.1305387,-0.8210626,0.7832695,0.2087202
0.9384341,-0.1298365,-0.1231308,-0.6960641,0.827955,0.4245446
0.9266774,-0.1634386,-0.08293344,-0.6974529,0.8080124,0.4957956
0.8795819,-0.194137,-0.02893508,-0.6312809,0.9390294,0.4168613
0.7917052,-0.2215949,0.09071655,-0.4899207,1.086563,0.3435877
0.7642138,-0.2313059,0.09435158,-0.5612407,0.9480876,0.2194911
0.7086902,-0.1889303,0.06443809,-0.589903,0.6341431,0.09158388
0.6062526,-0.1933122,0.1282985,-0.5769134,0.2720928,0.09331363
0.6275947,-0.2040126,0.1267669,-0.4987298,-0.1537311,0.1256499
0.7189247,-0.1853453,0.1320687,-0.2561119,-0.360659,0.1075547
0.7447844,-0.1967614,0.187112,-0.1584425,-0.386576,0.07396858
0.8212627,-0.1659217,0.1859868,-0.1294097,-0.3742861,-0.01499966
0.9002894,-0.1220541,0.2007936,-0.1006848,-0.3123201,-0.08340156
0.8898926,-0.07794347,0.2217083,-0.2034913,-0.3651667,-0.0266059
0.9414726,-0.02558707,0.1770295,-0.2733787,-0.4005807,0.07683948
1.103004,-0.1062162,0.104614,-0.1877778,-0.3099098,0.1649699
1.342367,-0.2572007,0.04848562,0.1157232,-0.06863324,0.1736257
1.490239,-0.3120825,0.09394113,0.354535,0.5292845,0.1343319
1.463092,-0.2580437,0.1798221,0.07948949,1.211709,0.1721738
1.498644,-0.2251605,0.1620717,-0.197713,1.453919,0.196493
1.476143,-0.3374116,0.1368986,0.195908,0.9739026,0.1647544
1.217437,-0.4725103,0.09165675,0.6489452,0.2280434,0.1078757
0.9645692,-0.501784,-0.01437074,0.6877653,-0.01112173,-0.0461166
0.8012737,-0.4379175,-0.02695414,0.7460439,-0.1323533,-0.1423321
0.7525148,-0.2976258,-0.0654229,0.6885842,-0.3416793,-0.0726541
0.8934753,-0.1318114,-0.1732835,0.3962244,-0.2383088,-0.04989806
1.030781,-0.05457111,-0.153288,0.2062183,-0.3887111,-0.1245608
1.018031,-0.1424032,-0.08807418,0.1630112,-0.8697229,-0.197452
0.9908114,-0.2569976,-0.05602688,0.3619761,-1.03745,-0.2726899
1.017386,-0.2831758,-0.04309553,0.5909492,-0.8285241,-0.3466729
0.9705814,-0.2620713,-0.06444587,0.6018588,-0.5556877,-0.4444111
0.8691665,-0.1700642,-0.05514057,0.5834763,-0.6824606,-0.5206012
0.831979,-0.06426867,-0.05397924,0.500594,-0.9746715,-0.4040518
0.8556636,-0.01018526,-0.08308531,0.396127,-1.061815,-0.1705159
0.9143342,0.001443376,-0.08800653,0.3820533,-0.9797995,0.01494911
0.9303263,-0.03929931,-0.0843722,0.4111111,-0.6934881,0.1641138
0.9074257,-0.04845311,-0.07476374,0.4610972,-0.6364591,0.2424071
0.9173444,-0.03254129,-0.0857071,0.4805586,-0.6178439,0.3243272
0.9351414,-0.009414589,-0.1136537,0.5055286,-0.3226691,0.4602849
0.967757,0.0596603,-0.1189193,0.4719334,-0.2592778,0.5135734
0.9708429,0.08589506,-0.1208149,0.3924914,-0.2534386,0.5393614
0.9586283,0.08639212,-0.1110023,0.3537023,-0.2249997,0.553958
0.9799376,0.07997937,-0.08919652,0.2649193,-0.2151496,0.5269153
0.9700511,0.002027941,-0.07062897,0.1838594,-0.07636058,0.5335665
0.9901066,-0.1290399,-0.0640096,0.1408467,-0.1442558,0.438954
1.041089,-0.2160592,-0.07775273,0.178368,-0.2718808,0.1668737
1.090048,-0.1238728,-0.08439367,0.2636126,-0.4212813,-0.1264631
1.18257,-0.02200211,-0.1069075,0.1607133,-0.6088691,-0.2548956
1.224532,-0.07050942,-0.1597531,-0.01034997,-0.5675692,-0.2921404
1.232689,-0.07688882,-0.2230721,-0.1573263,-0.7014619,-0.5485336
1.283814,-0.06883391,-0.2844439,-0.3531063,-0.8930366,-0.8444199
1.31536,-0.1264382,-0.3011734,-0.5272731,-0.5237785,-0.8532781
1.286755,-0.2003034,-0.3100793,-0.6644913,0.3263924,-0.7537307
1.18611,-0.338311,-0.3290908,-0.6310904,1.236721,-0.6778663
1.099752,-0.3721393,-0.2833543,-0.4212839,1.665328,-0.5661589
1.127894,-0.2970502,-0.1289468,-0.2015887,1.469427,-0.4295645
1.18589,-0.3203337,0.03122748,-0.08192271,1.291182,-0.2666913
1.210085,-0.2640803,-0.0138904,-0.200619,1.284613,-0.1479031
1.225672,-0.1570972,-0.09773954,-0.3756734,0.9916711,-0.1778721
1.146748,-0.1620711,-0.03238174,-0.5248476,0.8028302,-0.1454446
1.019317,-0.1147143,-0.06417348,-0.705901,0.8769219,0.1032455
1.0066,-0.0985766,-0.1147858,-0.7285528,0.8227958,0.2782091
0.93384,-0.1467328,-0.04262277,-0.7509999,0.8701216,0.3145663
0.7648247,-0.1239096,-0.00771172,-0.790472,0.8692775,0.3350234
0.7608244,-0.138363,0.05426402,-0.7338204,0.7635742,0.2807937
0.7656207,-0.1478957,0.09833592,-0.8160039,0.7120262,0.207772
0.6518658,-0.1132284,0.08479621,-0.9115575,0.4397457,0.1749199
0.6496608,-0.1318318,0.1189562,-0.9494246,0.163605,0.2110067
0.704256,-0.1504506,0.09729067,-0.9628331,-0.1056663,0.2709237
0.7283748,-0.189311,0.1013781,-0.806863,-0.3824186,0.2266846
0.8043298,-0.2365567,0.1475966,-0.5915095,-0.4322085,0.0923729
0.829023,-0.2120934,0.1451067,-0.3709883,-0.5014952,-0.09676558
0.8490856,-0.1845683,0.2268899,-0.2607994,-0.497942,-0.2042494
0.9618159,-0.1307901,0.2675022,-0.2597853,-0.4348303,-0.2084312
1.031383,-0.0406729,0.1977045,-0.243388,-0.4607809,-0.1925939
1.122757,-0.05437207,0.1502479,-0.3235073,-0.3086603,-0.01805622
1.233494,-0.1310069,0.1065612,-0.2583975,-0.1389975,0.1704109
1.250251,-0.1679274,0.1165315,-0.09635035,-0.04530506,0.1919291
1.324043,-0.1921489,0.1749453,-0.1178336,0.3067435,0.2075224
1.439375,-0.2191526,0.2091888,-0.118937,0.8450212,0.2868375
1.51663,-0.3032915,0.1876048,-0.09877097,1.045781,0.3754855
1.492918,-0.4278552,0.1167919,0.1137199,0.8191022,0.3244684
1.239661,-0.4758554,0.05681615,0.5286795,0.5182822,0.1565651
0.962425,-0.4817788,-0.02460169,0.6335276,0.1507191,0.03176923
0.820096,-0.423291,-0.06248056,0.5264174,-0.01457345,-0.03626388
0.7923148,-0.2457675,-0.07160702,0.4333953,0.170385,0.004175727
0.8466986,-0.1086956,-0.1752914,0.2190772,0.09152145,0.03818571
0.8853378,-0.08410614,-0.192061,-0.01733357,-0.2933265,0.00562228
0.9746252,-0.1556818,-0.1079834,0.01973289,-0.8106379,-0.02993985
1.057427,-0.2928876,-0.08496188,0.2646207,-1.186001,-0.1951583
1.054082,-0.3440068,-0.06200468,0.4401967,-0.8323191,-0.3762778
1.008246,-0.279071,-0.05347848,0.579345,-0.5220788,-0.5034498
0.8691767,-0.1822098,-0.05948154,0.5994429,-0.7897847,-0.5876535
0.8043859,-0.09584918,-0.04658021,0.5447585,-0.9132684,-0.4471421
0.8678886,-0.03459146,-0.07805398,0.5730343,-1.008497,-0.2311171
0.8973324,-0.009340123,-0.1034776,0.4928689,-1.060426,-0.06232066
0.9045935,-0.02914963,-0.09404395,0.4476266,-0.8896037,0.08214499
0.9021833,-0.03797341,-0.09756892,0.4779517,-0.9142932,0.1512457
0.9231744,-0.03623645,-0.1082892,0.4496583,-0.7942262,0.2532102
0.9681716,-0.03099649,-0.1131098,0.4902458,-0.4984171,0.3120375
0.98242,0.01833538,-0.1079652,0.4541935,-0.4305284,0.2953408
0.9629275,0.04871821,-0.09608099,0.3757975,-0.3763363,0.3479771
0.9349339,0.06219167,-0.07099594,0.3504392,-0.3955107,0.3981958
0.9576206,0.07528358,-0.06466622,0.309276,-0.4021822,0.4398336
0.9963609,0.02695134,-0.08015804,0.3661616,-0.2342965,0.4731726
1.02787,-0.04607133,-0.0729322,0.4005664,-0.1143333,0.4508883
1.041311,-0.08442317,-0.08025701,0.3811991,-0.06095871,0.4051774
1.018218,-0.08292285,-0.106134,0.4058527,-0.1646941,0.2373007
1.041496,-0.08117327,-0.1443558,0.3709876,-0.359283,-0.02906762
1.092554,-0.05445327,-0.1880367,0.2474355,-0.4634567,-0.1978039
1.168269,0.005364638,-0.1810929,0.03421922,-0.4998435,-0.330313
1.273032,-0.0286872,-0.208105,-0.1451997,-0.5455874,-0.6198687
1.302033,-0.09699437,-0.2891649,-0.2896025,-0.6838784,-0.9026522
1.312169,-0.1066333,-0.3155196,-0.5438604,-0.4401966,-0.9148224
1.329143,-0.1473061,-0.3639775,-0.6780134,0.3663442,-0.8255309
1.245748,-0.220783,-0.4304916,-0.5899176,1.206873,-0.7393498
1.088931,-0.3128576,-0.3054576,-0.4007962,1.614684,-0.5117745
1.005665,-0.4011963,-0.05643798,-0.06554122,1.360306,-0.2939826
1.087343,-0.4128482,0.03450665,0.1547096,1.199848,-0.2054047
1.211504,-0.3282901,-0.03327789,0.01591597,1.324978,-0.1371697
1.24867,-0.1396286,-0.06383908,-0.3012081,1.039291,-0.08497086
1.192188,0.01840654,-0.03699048,-0.7103045,0.8993915,0.03545055
1.046333,0.007042545,-0.06105852,-0.9511596,1.050437,0.2547339
0.9028612,-0.07051281,-0.09136967,-0.9124335,1.019983,0.3663449
0.8100054,-0.1167642,-0.04360503,-0.9643544,0.9504979,0.3596699
0.7625229,-0.154338,0.01232984,-0.9536087,0.8065086,0.3235097
0.7627431,-0.1859146,0.06236919,-0.8242616,0.7459258,0.2152792
0.7225722,-0.1860286,0.1105452,-0.8504326,0.6631361,0.1004649
0.6719468,-0.174892,0.1101732,-0.8515545,0.4007944,0.08471563
0.6732413,-0.1795867,0.109678,-0.8579123,0.1976299,0.1554821
0.7072026,-0.2032394,0.1196815,-0.8300139,-0.154952,0.2125067
0.7997029,-0.2469561,0.1379597,-0.6281813,-0.4224992,0.1863689
0.8789272,-0.262346,0.1692973,-0.4428912,-0.3955656,0.1013977
0.9008228,-0.2389599,0.1817716,-0.2258903,-0.4254991,-0.03827949
0.9097671,-0.2008524,0.2194371,-0.04064134,-0.4230786,-0.1779079
0.9193097,-0.1104202,0.2536947,0.02247348,-0.4185045,-0.2343516
0.9856694,-0.007512095,0.2101637,-0.01277752,-0.535805,-0.202083
1.113418,-0.01189,0.1068201,-0.1673115,-0.5790366,-0.04910599
1.228502,-0.1193481,0.03095301,-0.1766343,-0.3729342,0.1628312
1.259256,-0.1903694,0.1000786,-0.02476369,-0.018505,0.2484199
1.307729,-0.1662251,0.2095359,0.07279546,0.2368885,0.2155883
1.510419,-0.1589576,0.1977015,-0.05186551,0.6322728,0.2439914
1.626689,-0.2607349,0.1480677,-0.2258763,1.1433,0.3064142
1.438276,-0.4189944,0.08103625,0.03158057,1.175468,0.2769384
1.112799,-0.5304926,-0.01473299,0.4159223,0.8112235,0.1815693
0.8718723,-0.5188013,-0.0192788,0.5923166,0.3976929,0.05347446
0.791503,-0.386345,-0.0227204,0.66236,0.04240244,0.02321471
0.8253979,-0.2016053,-0.1487817,0.5590249,-0.02151782,0.07680053
0.8826425,-0.02694752,-0.239201,0.3321986,0.02631393,0.01462809
0.9238448,-0.0136995,-0.1851853,-0.01494173,-0.2359606,-0.01775024
0.9909994,-0.221157,-0.08644633,-0.07552738,-0.7343542,-0.05338868
1.057584,-0.4091948,-0.04645647,0.2985143,-1.06666,-0.2574842
1.071589,-0.4195039,-0.03780715,0.5332491,-0.9638398,-0.4194393
1.046539,-0.3496128,-0.0354517,0.7421679,-0.6397193,-0.5194005
0.9236802,-0.2550168,-0.05018516,0.8709305,-0.5184466,-0.5609969
0.7633533,-0.0945608,-0.03504999,0.7894529,-0.8213741,-0.4455072
0.7500191,-0.01881286,-0.04090084,0.8345547,-1.240589,-0.2275488
0.8596483,-0.0561019,-0.08485353,0.7788357,-1.169972,0.01757281
0.9156848,0.01710602,-0.103138,0.7227901,-0.9389186,0.1304979
0.8956497,0.01424391,-0.1071925,0.7780812,-0.9382079,0.2025595
0.9141625,-0.08757797,-0.09585396,0.7212696,-0.7539656,0.3545698
0.9467378,-0.02929521,-0.1164033,0.727888,-0.5082937,0.4154736
0.9690349,0.008959047,-0.1390472,0.628812,-0.3406527,0.4316157
1.002145,0.04786403,-0.1126593,0.435079,-0.2436787,0.4429646
0.994693,0.1083494,-0.1002253,0.3520354,-0.3946861,0.4119247
0.9879358,0.05641361,-0.07179163,0.2431927,-0.3989749,0.4229545
1.004609,0.06867606,-0.06464439,0.1861822,-0.266317,0.4081929
1.020969,0.03549352,-0.08787084,0.1671705,-0.1906046,0.3704855
1.047675,-0.08955488,-0.07505279,0.1779722,-0.06798217,0.3548901
1.046759,-0.1339895,-0.09516156,0.2230578,-0.1336389,0.2433097
1.044741,-0.1504344,-0.120963,0.2402337,-0.2387725,0.06466889
1.097714,-0.07231815,-0.1380201,0.3052128,-0.3021772,-0.04527403
1.168729,0.008343729,-0.1779973,0.2465207,-0.3922891,-0.06940366
1.211267,-0.06284271,-0.1865416,0.06240541,-0.3749121,-0.1632057
1.23004,-0.1116067,-0.2079632,-0.06193527,-0.4899167,-0.4176565
1.251304,-0.09805989,-0.2522113,-0.1667812,-0.5787968,-0.6459929
1.273835,-0.1579719,-0.2879831,-0.3204051,-0.3370795,-0.7398472
1.27135,-0.2495409,-0.3399168,-0.5286084,0.1955447,-0.740992
1.198065,-0.2403649,-0.3445115,-0.5829491,0.963964,-0.6576783
1.047403,-0.2269555,-0.2353821,-0.5241537,1.483456,-0.506009
0.9725913,-0.2891259,-0.09056479,-0.4995451,1.489798,-0.3160296
1.085923,-0.3084408,-0.0604513,-0.3559625,1.36614,-0.1391243
1.196352,-0.2931705,-0.1044507,-0.3168077,1.340194,-0.02211811
1.168697,-0.236754,-0.08873121,-0.4882462,1.189127,-0.02137934
1.127593,-0.1516738,-0.08525118,-0.6290638,0.8435907,-0.03146241
1.04805,-0.1535786,-0.1027937,-0.7316746,0.7139076,0.1044296
0.9126055,-0.1577851,-0.08033931,-0.7205308,0.8704056,0.2757843
0.8851236,-0.1445191,-0.07494693,-0.6927408,0.9469991,0.3755615
0.838179,-0.1942164,-0.03428868,-0.7545438,0.8511132,0.3428643
0.7058664,-0.2074141,0.04361209,-0.7657329,0.7675538,0.2228758
0.7157385,-0.1894933,0.06935672,-0.8133695,0.69746,0.1354353
0.7458195,-0.2092717,0.08103364,-0.8254283,0.4859278,0.04743646
0.7242949,-0.2158939,0.08836184,-0.7061941,0.22296,0.06429861
0.8044198,-0.225907,0.09967377,-0.5709799,-0.03798502,0.1038497
0.8540445,-0.2301012,0.1279512,-0.3839644,-0.2483575,0.01573904
0.8696389,-0.2052645,0.1429891,-0.225039,-0.2876669,-0.02777694
0.9004707,-0.1940916,0.1818419,-0.1220347,-0.3130433,-0.1075796
0.8791519,-0.1447504,0.2395601,-0.03153552,-0.3650531,-0.2102614
0.9034999,-0.05415177,0.2679167,-0.06572496,-0.3882893,-0.1869669
0.9404828,-0.0118135,0.2480694,-0.1743783,-0.4062986,-0.115689
1.001197,-0.03637467,0.1779229,-0.2463233,-0.3576032,0.03930157
1.145461,-0.08618213,0.1144142,-0.1778703,-0.2565783,0.1215759
1.236026,-0.120355,0.1195186,-0.04467643,-0.07225328,0.04776603
1.30706,-0.1430782,0.1803483,-0.08977681,0.274472,0.05269868
1.403459,-0.146904,0.2070287,-0.214248,0.7891443,0.1450749
1.476485,-0.1953471,0.1703479,-0.2562719,1.10723,0.2556884
1.473115,-0.3280789,0.1262977,-0.0839477,0.8586249,0.2871643
1.261787,-0.4162342,0.06382326,0.2953972,0.4903323,0.1607937
0.986086,-0.4475671,-0.01093844,0.472456,0.2081954,0.00629148
0.8672734,-0.4265744,-0.02814026,0.4313172,0.01459162,-0.03592495
0.8494417,-0.3095632,-0.06342623,0.3614069,0.2262828,0.06124026
0.8814051,-0.1752287,-0.1986083,0.1312007,0.2271931,0.1586871
0.9356359,-0.09700729,-0.2398791,-0.110226,-0.3128784,0.1420924
0.9697485,-0.1726332,-0.1289696,-0.09373926,-0.8685526,0.014221
1.027969,-0.3325652,-0.07171553,0.1978876,-1.134758,-0.2184462
1.066491,-0.3767594,-0.06387408,0.5722691,-0.8154092,-0.476357
0.9675055,-0.3016034,-0.06078608,0.756976,-0.4914398,-0.6778111
0.8350793,-0.1690913,-0.06483036,0.7602857,-0.6099033,-0.7199924
0.8289683,-0.0849067,-0.04460412,0.749173,-0.8327144,-0.498711
0.8809586,-0.01779522,-0.08229178,0.7474669,-1.160565,-0.1681141
0.9167367,0.06164865,-0.1213195,0.6966657,-1.035435,0.04778835
0.9351925,0.02154123,-0.09736313,0.6361971,-0.7173029,0.1658982
0.9256032,0.009112464,-0.08974928,0.6061941,-0.8619171,0.2821721
0.9258205,0.03508225,-0.08527464,0.5733492,-0.7375944,0.3857955
0.9444356,0.005607518,-0.09188679,0.5595829,-0.5144102,0.4376196
0.9594416,0.05693787,-0.1052642,0.4980455,-0.4818174,0.4673407
0.9700078,0.08393301,-0.08907273,0.367314,-0.3895217,0.4825135
0.9740035,0.073939,-0.07000219,0.2805989,-0.4801437,0.4615568
0.9860038,0.08880161,-0.05814583,0.2665126,-0.4197741,0.4528432
1.009989,0.03056143,-0.06313254,0.3066778,-0.2472799,0.4458621
1.03489,-0.04904432,-0.07922031,0.3216446,-0.1858319,0.4019667
1.048256,-0.1470318,-0.1067051,0.3153503,-0.09996469,0.2858643
1.044631,-0.1763288,-0.1408644,0.3498478,-0.235051,-0.003271963
1.060529,-0.04967892,-0.1447715,0.3379887,-0.3186896,-0.2698798
1.144056,0.03912059,-0.1612539,0.2276479,-0.2942924,-0.2760153
1.26358,-0.01290424,-0.2376521,0.08160308,-0.391035,-0.3674206
1.313245,-0.0786947,-0.3109842,-0.05330244,-0.4635016,-0.7321657
1.304197,-0.05979507,-0.3350643,-0.2726342,-0.5691961,-0.9206748
1.315361,-0.1053176,-0.3720968,-0.4918014,-0.3131373,-0.8384351
1.247829,-0.2345223,-0.4050845,-0.479277,0.4401408,-0.7751256
1.080464,-0.3003452,-0.3335245,-0.3872432,1.190847,-0.654348
1.014121,-0.3445061,-0.226194,-0.2017875,1.577338,-0.4365873
1.066883,-0.3570807,-0.1174382,0.1604987,1.349596,-0.2945566
1.123476,-0.3267823,0.02245493,0.2737462,1.126876,-0.2099042
1.201638,-0.1664296,0.008349074,0.06569054,1.166849,-0.1476957
1.252024,0.09776244,-0.08708615,-0.2567345,0.9341152,-0.0701676
1.173966,0.1050681,-0.04830959,-0.7041062,0.8380925,0.1429553
1.0585,0.005242448,-0.06567658,-0.9918497,0.9481657,0.3793946
0.9269817,-0.01760932,-0.0775901,-0.977394,0.8592265,0.4261421
0.7305979,-0.1682401,0.04425426,-0.9579837,0.764655,0.3679156
0.7111482,-0.2017036,0.05844176,-0.9189228,0.6153058,0.3272573
0.8164065,-0.1243053,0.05458243,-0.7661619,0.5279263,0.2420781
0.7521293,-0.1974929,0.09381166,-0.7263073,0.5846899,0.1775287
0.7393841,-0.1762421,0.06070253,-0.7674752,0.442196,0.193095
0.787518,-0.1254714,0.0629259,-0.7451938,0.1708074,0.2049149
0.7462289,-0.1827738,0.06801204,-0.7293908,-0.1216369,0.2322751
0.8116009,-0.1784684,0.07801854,-0.6340949,-0.3085089,0.2300558
0.8602598,-0.2273005,0.1276499,-0.4165274,-0.3151867,0.1375606
0.849389,-0.2856042,0.1581871,-0.2118461,-0.3487153,0.02385652
0.8898104,-0.2394341,0.2048615,-0.08558132,-0.3156091,-0.1141699
0.8783529,-0.1803878,0.2481911,-0.0521632,-0.2857543,-0.2371369
0.9191358,-0.05359816,0.2835516,-0.1089518,-0.3965273,-0.2551739
1.026567,0.01897086,0.2259253,-0.213447,-0.4177422,-0.09232162
1.155973,-0.06791966,0.06255874,-0.1921593,-0.2471387,0.171572
1.267054,-0.1759478,0.02780612,0.04478797,0.08251349,0.2322039
1.263728,-0.2501673,0.1595389,0.2418034,0.4089791,0.1667278
1.358255,-0.2148745,0.2810184,0.1053525,0.7559222,0.1991448
1.523827,-0.1581325,0.2326334,-0.1456001,1.249326,0.2164093
1.537864,-0.2579462,0.1411268,-0.07504836,1.427419,0.211438
1.357727,-0.3795795,0.1137984,0.2310338,0.9462242,0.1940961
1.004489,-0.4089685,-0.005579565,0.4914565,0.2897304,0.1428535
0.7852143,-0.3715635,-0.06148552,0.4821121,0.01901186,0.1639274
0.7974833,-0.2649315,-0.0610538,0.2861745,-0.02404935,0.222094
0.8790567,-0.1456282,-0.1976721,0.1443076,-0.06917844,0.2311097
0.9883904,-0.08084261,-0.2220269,-0.2024829,-0.169367,0.1100745
1.007155,-0.1865451,-0.09887347,-0.315999,-0.7015845,-0.1733231
1.003555,-0.3986184,0.009206095,0.1526991,-1.259184,-0.4565254
1.029612,-0.4215488,0.04892226,0.4349629,-1.140979,-0.6471154
0.9632554,-0.3046061,-0.03980492,0.6084059,-0.7902017,-0.7329251
0.8850912,-0.1963737,-0.09305178,0.7724594,-0.6645378,-0.6888051
0.8504551,-0.1014219,-0.06569519,0.7279343,-0.8174776,-0.5433128
0.8571237,-0.06885296,-0.07195632,0.8092162,-1.022858,-0.2746064
0.8882864,-0.02403332,-0.0778846,0.8232841,-0.9308637,-6.640292e-05
0.893082,-0.005438462,-0.07349667,0.7892541,-0.8610355,0.137233
0.9238525,-0.02949148,-0.0738389,0.8099252,-0.8395464,0.2758367
0.9488781,0.004531852,-0.08352417,0.7250383,-0.5546908,0.4203555
0.9447668,0.01370855,-0.08989955,0.6793395,-0.3721882,0.4792698
0.9606641,0.0472491,-0.08551849,0.5319371,-0.3713379,0.5192077
0.9651234,0.0975043,-0.07569877,0.3763192,-0.3359468,0.5259289
0.9682442,0.07670042,-0.05580075,0.3147508,-0.3785586,0.5305624
0.975847,0.08485381,-0.07129416,0.2491116,-0.369355,0.5703041
0.995036,-0.3232657,-0.1573607,-0.6226316,1.505741,-0.3227768
0.9015665,-0.3919525,0.0177755,-0.4460628,1.520919,-0.2304044
1.026742,-0.3387756,-0.04804027,-0.3571812,1.550448,-0.05372664
1.125795,-0.2648539,-0.0819113,-0.5640872,1.272404,-0.01022482
1.074237,-0.1767876,-0.01550514,-0.8431454,0.7756821,-0.003864248
1.049348,-0.05915871,-0.04671494,-0.9832747,0.4582853,0.1605179
1.033499,-0.1128572,-0.08603515,-1.040926,0.6350283,0.3092188
0.9697403,-0.1698807,-0.07220957,-0.98871,0.8102053,0.3253358
0.910959,-0.146809,-0.04672261,-0.961752,0.7445428,0.2461864
0.8353227,-0.186862,0.04261262,-0.9386595,0.8421545,0.1517937
0.7858138,-0.1598622,0.1001464,-0.8977716,0.8481224,0.0535142
0.7648754,-0.1327292,0.07686865,-1.021917,0.7437368,0.01176558
0.7426672,-0.1474753,0.08593299,-1.137035,0.6761591,0.09483798
0.7730849,-0.1198001,0.08835001,-1.145784,0.3609921,0.1838227
0.8021964,-0.1421516,0.0798718,-1.094915,0.03646265,0.2490932
0.831512,-0.1602797,0.1003233,-0.9846138,-0.1389509,0.2549869
0.8716813,-0.1824911,0.1134241,-0.8894149,-0.2312393,0.1433077
0.8517406,-0.2243514,0.1540213,-0.7576941,-0.2106234,0.01250734
0.8486403,-0.1977422,0.2085161,-0.6970782,-0.2792353,-0.09931416
0.8688181,-0.1574784,0.2630945,-0.7401678,-0.378603,-0.1158829
0.9020849,-0.1103606,0.2712365,-0.7281423,-0.3934346,-0.04991914
1.078926,-0.1375409,0.1358527,-0.6625435,-0.2371524,0.01543927
1.277544,-0.2465644,0.03420199,-0.443062,0.1121128,0.1553211
1.298204,-0.2671565,0.146345,-0.2063449,0.3353932,0.207721
1.362577,-0.230823,0.2571217,-0.3009084,0.6346182,0.139346
1.574817,-0.2065227,0.1790007,-0.5122046,1.16514,0.175802
1.545438,-0.2651766,0.1100406,-0.4816888,1.352418,0.1934923
1.25885,-0.3740723,0.09973623,-0.2613368,1.003094,0.1406436
0.9779666,-0.3821034,0.02149064,-0.003037975,0.4549389,0.08210974
0.7460406,-0.3610459,0.006069773,0.06418711,0.08813753,-0.006672633
0.7465998,-0.2972237,-0.02204754,-0.06804618,0.04191839,0.02963445
0.8557882,-0.1497135,-0.1704,-0.1368478,0.1594107,0.1177518
0.8824265,-0.09234727,-0.2233731,-0.3272,0.126136,0.1213252
0.9802351,-0.1813685,-0.166481,-0.5067076,-0.3936061,0.1499175
1.026739,-0.3348377,-0.0805426,-0.329699,-1.010605,0.07049161
1.032757,-0.4197878,-0.02080158,-0.1030298,-0.9891076,-0.1919271
1.033297,-0.3574558,-0.04176016,0.1981825,-0.5475173,-0.4654833
0.9070642,-0.2171991,-0.0524254,0.4206058,-0.3985589,-0.6466928
0.8404752,-0.07872518,-0.05018683,0.3038918,-0.6651767,-0.5930815
0.844284,0.01303364,-0.06419817,0.281095,-0.9912507,-0.3648095
0.881638,0.02060866,-0.07386125,0.2396865,-1.081274,-0.1467822
0.9363124,-0.01833736,-0.07717694,0.1391544,-0.997509,0.02621542
0.9117704,-0.0248207,-0.07282462,0.2212994,-0.9988404,0.09932881
0.9302982,-0.03763356,-0.08594407,0.2189459,-0.9692071,0.1881402
0.9481739,-0.04019519,-0.09381923,0.2165306,-0.7603442,0.3166158
0.9387008,0.002598069,-0.0982816,0.2114414,-0.5799502,0.3641203
0.9734897,0.01912134,-0.1106854,0.07313661,-0.5073037,0.4301328
0.9854826,0.05864094,-0.1133116,0.02819367,-0.5204403,0.4596712
0.9994945,0.07865775,-0.1188751,0.02976781,-0.4907313,0.4885264
1.007296,0.06204252,-0.1166632,0.05740308,-0.3223035,0.5976615
1.029001,0.08551402,-0.1212477,0.09901197,-0.08284879,0.5845035
1.075008,-0.01762649,-0.1186154,0.0306021,0.1999649,0.5195187
1.083959,-0.1472241,-0.1039018,-0.03043238,0.2232514,0.3766529
1.065368,-0.1032328,-0.1226944,-0.06949147,-0.05841835,0.02640244
1.021585,-0.06672897,-0.1321304,-0.1408352,-0.3032965,-0.2228363
1.056097,-0.02003467,-0.1256558,-0.2109814,-0.3885934,-0.2307766
1.152825,0.08744127,-0.1305768,-0.2403417,-0.2155644,-0.1793177
1.219216,0.03123723,-0.135927,-0.2484721,-0.09184284,-0.2135673
1.282186,-0.07661049,-0.1761392,-0.3185782,-0.2935756,-0.3650944
1.256825,-0.04861276,-0.2561798,-0.4183136,-0.3744465,-0.5419516
1.223125,-0.1158815,-0.3248182,-0.577962,-0.05381925,-0.5897777
1.224651,-0.2638426,-0.354893,-0.7057432,0.6155562,-0.5171721
1.117873,-0.302441,-0.3529056,-0.6213035,1.334614,-0.5130225
1.017545,-0.3466114,-0.2573141,-0.4421812,1.594707,-0.4551224
0.9985637,-0.3748875,-0.07528809,-0.2041897,1.5037,-0.2457038
1.061645,-0.3439313,-0.01364929,-0.09151138,1.490802,-0.1163029
1.167414,-0.2915367,-0.06232903,-0.3091777,1.418155,-0.06695711
1.14095,-0.1548392,-0.03209364,-0.5663648,1.050886,-0.01077559
1.064604,-0.0713897,0.001645237,-0.7719364,0.6618345,0.1104807
1.016559,-0.1087684,-0.04484169,-0.8855386,0.6072186,0.2687458
0.9564795,-0.134231,-0.06605387,-0.8132979,0.8077235,0.2964439
0.9299843,-0.1455828,-0.02988042,-0.7939838,0.9136783,0.3242789
0.8703239,-0.1529646,0.01377514,-0.7970214,0.9172487,0.367913
0.8016205,-0.1504308,0.05667553,-0.7965364,0.9400613,0.2695781
0.7670929,-0.1629379,0.08719854,-0.8762566,0.795632,0.1715068
0.710828,-0.173951,0.09544883,-0.8452174,0.493052,0.1289438
0.7035623,-0.1825457,0.1265689,-0.7693879,0.1556569,0.108503
0.7209727,-0.1974192,0.178276,-0.6692598,-0.1725971,0.1186277
0.738415,-0.1945821,0.1892929,-0.4585084,-0.3629367,0.08998388
0.8061981,-0.1923626,0.1843989,-0.3292327,-0.3819638,0.02202352
0.8437554,-0.2083171,0.212995,-0.2333792,-0.2585011,-0.07989837
0.8706853,-0.1926079,0.2561854,-0.1211592,-0.2432655,-0.1998556
0.9342254,-0.1347433,0.2775481,-0.1290094,-0.4575892,-0.2223865
1.023578,-0.06971269,0.2064669,-0.1825958,-0.5881747,-0.03910271
1.191992,-0.06884895,0.05264851,-0.1908591,-0.4327259,0.2131855
1.325108,-0.1513631,0.005207697,-0.1137261,-0.02865324,0.2429085
1.317876,-0.1875993,0.1514201,-0.05490417,0.3821446,0.1365557
1.325964,-0.1341848,0.3288103,-0.2176591,0.6807068,0.1266572
1.427308,-0.1013972,0.3516479,-0.419279,0.946627,0.1503364
1.484342,-0.1796048,0.2421303,-0.3492671,1.098824,0.1435942
1.31559,-0.3129121,0.1432783,-0.0723308,0.7864774,0.1156914
1.006131,-0.3811149,0.03886643,0.1647487,0.08475914,0.08706666
0.9071849,-0.3979069,-0.08391202,0.2156633,-0.06827437,0.1355356
0.984114,-0.3679083,-0.1115039,0.1860144,0.1859654,0.2520362
0.9688377,-0.2673708,-0.1308273,0.1805599,0.2293033,0.3135979
0.9337958,-0.15108,-0.1939268,0.0397593,0.3058119,0.180371
0.9462773,-0.1127308,-0.117759,-0.08852701,-0.2822122,-0.1130051
0.9773386,-0.2305146,-0.02645137,0.01538148,-1.261422,-0.3659094
1.029972,-0.3304799,-0.08413839,0.1839112,-1.202234,-0.519555
1.019326,-0.2758508,-0.0885201,0.4369406,-0.7417766,-0.6186927
0.9380554,-0.2117065,-0.05856728,0.6251008,-0.6529352,-0.6584344
0.8424519,-0.1291905,-0.08292598,0.578518,-0.7043643,-0.5632229
0.7939178,-0.02145034,-0.06133993,0.5858919,-0.8786778,-0.2659453
0.849797,-0.008316937,-0.07140071,0.5826717,-0.9635399,0.042682
0.912968,-0.01663423,-0.09467057,0.5028262,-0.8403396,0.163319
0.9167587,0.00517201,-0.06235597,0.4822296,-0.7255475,0.2314811
0.9209295,-0.009043607,-0.06205636,0.4368102,-0.719257,0.375035
0.9374546,-0.02058203,-0.07517801,0.4258208,-0.6260283,0.4744279
0.9571031,0.009685459,-0.08414244,0.3775545,-0.4434373,0.4829676
0.9537409,0.04550595,-0.08621748,0.2162994,-0.4923534,0.5007999
0.9324408,0.07210573,-0.07701237,0.09554377,-0.5994312,0.5158016
0.9521814,0.07322607,-0.08467157,0.01954232,-0.5536054,0.5420921
0.9767304,0.05429431,-0.07377422,0.02004966,-0.4793357,0.586945
1.002247,0.02161908,-0.06174852,0.07000021,-0.286989,0.5546227
1.04279,-0.06688709,-0.06203275,0.08095275,-0.1570051,0.5034472
1.0434,-0.1648437,-0.07339382,0.08099434,-0.2517337,0.3800701
1.066555,-0.1768237,-0.1330586,0.05667091,-0.3090178,0.08780214
1.120481,-0.07363877,-0.196091,0.03468203,-0.3704202,-0.1340606
1.160812,0.03309625,-0.2236144,-0.0164108,-0.4484046,-0.2015261
1.239267,-0.02364548,-0.2302634,-0.1770307,-0.4278054,-0.3770779
1.286973,-0.1010664,-0.2622585,-0.3532428,-0.3953446,-0.6967294
1.265575,-0.07152412,-0.3317372,-0.484515,-0.3319362,-0.8509345
1.24535,-0.1078682,-0.378167,-0.6593544,-0.1405022,-0.7926232
1.192102,-0.1961212,-0.3993456,-0.8107333,0.4351736,-0.7497882
1.106165,-0.2871682,-0.3234556,-0.7480579,1.252415,-0.6573363
1.05874,-0.4103188,-0.108746,-0.4733178,1.591238,-0.4325685
1.074934,-0.4375784,0.03057767,-0.07218124,1.429742,-0.2340904
1.153041,-0.357694,0.001034493,0.1302046,1.290608,-0.1150636
1.214568,-0.2047072,-0.04298026,-0.07038899,1.182914,-0.06284962
1.187848,-0.03273559,-0.0342784,-0.2778794,0.9196296,-0.06116594
1.118818,-0.01043555,-0.0440651,-0.4909236,0.7859759,0.03954545
1.003518,-0.07663181,-0.06147884,-0.7334914,0.8614726,0.26246
0.8538215,-0.09158359,-0.03007281,-0.7129433,0.7915355,0.4045617
0.8081576,-0.09336845,0.00265397,-0.7355153,0.7193096,0.3955341
0.8065819,-0.1229512,0.05171946,-0.7780479,0.7088434,0.3457907
0.7258051,-0.1482236,0.1081509,-0.7052162,0.6181575,0.3059421
0.6928572,-0.1583975,0.1033091,-0.7715279,0.5787185,0.2566308
0.6980873,-0.186109,0.1161967,-0.7602506,0.37549,0.2300295
0.675327,-0.2080098,0.1504781,-0.6888372,-0.01240552,0.24062
0.739546,-0.2191213,0.1595425,-0.6173608,-0.2885951,0.2247839
0.8144541,-0.2351445,0.1828371,-0.4103129,-0.4047971,0.172868
0.8365242,-0.2232588,0.2021513,-0.2679987,-0.3887081,0.0742623
0.875713,-0.190564,0.2286347,-0.1142737,-0.4187909,-0.08851673
0.9105605,-0.1308752,0.2564699,0.01009479,-0.4676904,-0.2112118
1.002024,-0.06795697,0.2054309,-0.04048647,-0.4825816,-0.1849352
1.156754,-0.1031448,0.07107458,-0.08585865,-0.5274847,0.02550703
1.278978,-0.2312598,-0.04877358,-0.06679507,-0.3425046,0.2893992
1.329117,-0.3083521,-0.01894981,0.1626038,0.05055809,0.3368532
1.386271,-0.2058178,0.1249591,0.3747725,0.5396429,0.1855884
1.5656,-0.04469795,0.1957773,0.06368165,1.150661,0.09624334
1.608332,-0.08731739,0.1565591,-0.2620192,1.397254,0.0968596
1.297771,-0.3089101,0.07809488,-0.00296846,0.9908326,0.08122099
0.9639529,-0.4800558,0.02859601,0.3232802,0.4041851,0.02088428
0.9061903,-0.4643916,0.0447749,0.3851822,0.03529493,-0.05654073
0.958771,-0.3503544,0.02316049,0.4121418,-0.09979316,-0.03255911
0.8905041,-0.255637,-0.1113123,0.3190432,0.04423468,0.05234774
0.8793535,-0.1079172,-0.2278304,0.1274822,0.1661301,0.07419041
0.9753502,-0.1018278,-0.1747493,-0.08133468,-0.1726354,0.08307856
0.9686954,-0.2499315,-0.043505,-0.1306074,-0.7065244,-0.0001019057
0.9664785,-0.2110147,0.002608039,0.1752871,-1.034607,-0.2251333
0.9786543,-0.23967,-0.008248884,0.4177492,-0.9111731,-0.4688156
0.9511849,-0.332186,-0.03678061,0.585326,-0.5634326,-0.6557137
0.9621549,-0.2243829,-0.04597116,0.7132426,-0.5742089,-0.6551507
0.9124742,-0.1183629,-0.03885594,0.5844607,-0.8028401,-0.4483443
0.8731479,0.04157123,-0.07837156,0.567185,-1.043039,-0.1536845
0.9143586,0.08476268,-0.08931345,0.5319807,-1.067867,0.07569731
0.9276101,-0.02331573,-0.08301712,0.405807,-0.8855604,0.1635
0.9229984,0.02902848,-0.08585626,0.4540399,-0.9776133,0.2685434
0.9110094,-0.008820375,-0.06146667,0.4521193,-0.8928326,0.3753812
0.9203262,-0.0360608,-0.08053464,0.4591052,-0.649623,0.4406509
0.9406725,0.053021,-0.1080883,0.4300551,-0.620525,0.5332926
0.9598531,0.0288566,-0.1212651,0.3161937,-0.4595711,0.5390486
0.9862085,0.06360688,-0.1202468,0.3156205,-0.4777625,0.5236919
0.974339,0.07926418,-0.08348622,0.3062493,-0.500644,0.5645415
1.006054,0.01792841,-0.09030527,0.3102126,-0.2211014,0.5671297
1.063387,-0.03783273,-0.09371957,0.3140108,-0.0009391585,0.5419962
1.063765,-0.1627244,-0.08978886,0.2678859,0.105023,0.3873771
1.049839,-0.1695101,-0.1409913,0.2111198,-0.1909952,0.02630242
1.04863,-0.05624099,-0.171513,0.07951535,-0.5072362,-0.3015997
1.135131,0.00304656,-0.1738577,-0.01119786,-0.4356089,-0.3598951
1.257366,-0.02148893,-0.2002156,-0.1088525,-0.5261112,-0.4003262
1.286799,-0.07770382,-0.2695879,-0.2607536,-0.7079221,-0.6782221
1.291922,-0.06389082,-0.3217,-0.3313444,-0.7685962,-0.8403522
1.325924,-0.1190081,-0.3548224,-0.4251968,-0.5514682,-0.7895999
1.291677,-0.2568728,-0.415338,-0.5042787,0.2472689,-0.7672203
1.133614,-0.3245429,-0.3366777,-0.4215457,1.207934,-0.6659118
0.9674607,-0.3621692,-0.1259606,-0.207104,1.596963,-0.4743033
0.9343928,-0.3542884,0.006034379,0.1275358,1.376979,-0.2830404
1.067867,-0.2893127,0.01515346,0.2926465,1.261482,-0.1176314
1.207968,-0.1706802,-0.06088513,0.05625866,1.248289,-0.07492843
1.192915,-0.06238138,-0.08560051,-0.2734942,0.9287494,-0.05901281
1.134793,-0.05169895,-0.05665765,-0.595091,0.694201,0.06889286
1.070225,-0.0177518,-0.07432165,-0.7801499,0.6144473,0.2955239
0.956446,-0.04515655,-0.06906229,-0.6437718,0.5500257,0.466928
0.8970463,-0.182435,-0.05427642,-0.5909438,0.5946447,0.441356
0.8904315,-0.2121203,-0.01071366,-0.5371256,0.6804632,0.350303
0.8698872,-0.2194852,0.08583114,-0.3348655,0.8545635,0.2610313
0.8081932,-0.2467913,0.1183529,-0.3617776,0.8507818,0.1598362
0.7337403,-0.1907946,0.1156612,-0.3954754,0.5853926,0.1384396
0.7147862,-0.1601158,0.1210533,-0.3670317,0.3133395,0.1455333
0.7278728,-0.1548471,0.1220143,-0.3818973,-0.04870039,0.1674421
0.7559319,-0.1494974,0.1330318,-0.2565014,-0.2683775,0.2138368
0.7972697,-0.1738849,0.141692,-0.1364347,-0.336047,0.1770277
0.8222216,-0.1753789,0.1690365,-0.01757643,-0.4517374,0.07925376
0.8511068,-0.1813157,0.2099979,0.08825069,-0.4242292,-0.05095776
0.9064549,-0.1512639,0.2328807,0.08984146,-0.4499041,-0.144259
1.00852,-0.07295105,0.1897434,0.05892295,-0.5190295,-0.06556532
1.183713,-0.0678623,0.06606767,-0.0159114,-0.3969243,0.06741867
1.322236,-0.1136746,0.001549689,0.09026087,-0.1370306,0.1405726
1.302969,-0.1698867,0.1161623,0.3162923,0.2608232,0.1602835
1.277882,-0.1951174,0.2774043,0.3397982,0.5215662,0.1243649
1.340672,-0.139837,0.2802587,0.1427425,0.7373772,0.1424846
1.366438,-0.1161687,0.2271472,-0.06422855,1.031079,0.1792351
1.341676,-0.2092055,0.212734,0.1501654,0.7783168,0.1440287
1.195824,-0.3581295,0.08970963,0.4815816,0.2111897,0.08939153
0.9619532,-0.446927,-0.02825436,0.4776233,-0.09940835,0.02032212
0.9113519,-0.4408081,-0.005728006,0.5367493,-0.2293151,0.0721211
0.9465678,-0.3631983,-0.03836475,0.593522,0.05159988,0.2161323
0.9195574,-0.2196844,-0.1357796,0.3584223,0.2768249,0.2079575
0.9604025,-0.1368277,-0.1077168,0.09974564,-0.2539608,0.08168819
0.9900266,-0.1943735,-0.04286295,0.08586049,-0.8855604,-0.1469514
0.9815847,-0.2792641,-0.0480306,0.3052971,-1.080888,-0.3870707
1.019362,-0.3146099,-0.02300768,0.5040663,-0.9571924,-0.4839894
0.9855279,-0.2739198,-0.04310061,0.6337768,-0.7591645,-0.5656465
0.8944039,-0.1649504,-0.1007045,0.6666483,-0.762365,-0.5871482
0.8383832,-0.08050352,-0.06567016,0.5671572,-0.9955038,-0.4212006
0.8373112,-0.04693588,-0.08034379,0.5431697,-1.275672,-0.1227226
0.919362,-0.04251894,-0.1203814,0.5254347,-1.064479,0.1415312
0.9673504,-0.0554977,-0.09955529,0.5140545,-0.6366796,0.1915876
0.9395261,-0.03980999,-0.09842344,0.5609935,-0.62295,0.2100804
0.9258036,-0.02652462,-0.08098023,0.5246319,-0.5190705,0.3458836
0.9263157,0.002928403,-0.09056664,0.4716073,-0.3904268,0.4354382
0.9337693,0.07336525,-0.1162703,0.3434473,-0.4739818,0.455721
0.9397411,0.06906173,-0.09542983,0.1971931,-0.4343235,0.469562
0.9530432,0.04496525,-0.09242192,0.1938822,-0.4656994,0.4885457
0.9830247,0.05341678,-0.08044614,0.1986299,-0.4071163,0.5131644
1.003532,0.01839157,-0.06758802,0.2199524,-0.1666146,0.5359729
1.010942,-0.03715762,-0.07011302,0.2457854,-0.05343024,0.5316594
1.022243,-0.1199613,-0.06741572,0.2299513,-0.06491838,0.411379
1.06341,-0.1540764,-0.1058597,0.2405066,-0.2528692,0.1440738
1.099311,-0.08946291,-0.1539462,0.2271204,-0.3945714,-0.1466652
1.144373,-0.0663003,-0.1852614,0.1388818,-0.4601137,-0.3369482
1.224723,-0.1034457,-0.230969,-0.02271248,-0.6168146,-0.5234592
1.272672,-0.1395879,-0.2993425,-0.1435015,-0.6323189,-0.7735603
1.324407,-0.1523281,-0.3715235,-0.2608345,-0.5256927,-0.8952558
1.344254,-0.1632707,-0.4178924,-0.4957337,-0.1577243,-0.8741336
1.259085,-0.2333845,-0.4422955,-0.5772665,0.7150493,-0.8350123
1.182396,-0.317483,-0.3846563,-0.4384477,1.528616,-0.710659
1.111761,-0.3553064,-0.1727287,-0.1831318,1.666077,-0.4848674
1.03734,-0.3819565,0.04834351,0.2332332,1.485153,-0.2339428
1.102374,-0.3500574,0.04398433,0.3299976,1.403862,-0.09717858
1.203583,-0.1773378,-0.0488379,-0.02605598,1.110225,-0.1181758
1.136241,-0.0143873,-0.002226393,-0.2836079,0.7582641,-0.06232548
1.036295,0.0002464043,-0.03775128,-0.5098236,0.7424556,0.0872706
0.9642261,-0.04810914,-0.136664,-0.7044595,0.7855454,0.246031
0.8153773,-0.09239288,-0.07535669,-0.6893348,0.7198868,0.4042319
0.7661938,-0.1244295,-0.01990291,-0.7273649,0.6626312,0.3688045
0.7825443,-0.1601623,0.05969121,-0.7022185,0.6707473,0.2688663
0.7019733,-0.1749259,0.1436768,-0.6511683,0.6484772,0.2311072
0.6920199,-0.1610433,0.09803689,-0.7444387,0.5094598,0.138029
0.7277953,-0.188504,0.1154922,-0.7422475,0.3269328,0.1590371
0.7503497,-0.2095507,0.1401451,-0.6994639,0.04556211,0.2064388
0.805709,-0.2061832,0.1226379,-0.5817474,-0.2564725,0.1622167
0.8254869,-0.2175458,0.1584879,-0.36495,-0.3882037,0.1472281
0.8568281,-0.2213908,0.1719552,-0.2058369,-0.4379349,0.03244285
0.8659437,-0.2261787,0.1985598,-0.03664723,-0.476392,-0.08257796
0.8612453,-0.1917226,0.1956935,0.02120979,-0.4965577,-0.08060962
0.9787759,-0.09350165,0.162516,-0.04324002,-0.5378244,-0.04085885
1.101447,-0.01266051,0.1495752,-0.1258429,-0.5377492,0.1225919
1.169777,-0.07596473,0.0318095,-0.1716412,-0.3695763,0.2836859
1.272371,-0.2347894,-0.06005651,0.05615036,-0.06507134,0.2601892
1.320596,-0.2607326,0.06048674,0.2825551,0.2914696,0.1168175
1.315134,-0.1582685,0.2252804,0.04757541,0.8023902,0.03232105
1.441021,-0.07655267,0.2209837,-0.2463654,1.341991,0.09440529
1.533074,-0.1264494,0.1507316,-0.1232318,1.425112,0.1217242
1.302429,-0.2974026,0.1380857,0.169938,0.7991578,0.02904384
1.004294,-0.4194136,0.06073115,0.4088062,-0.01534958,-0.04073805
0.9407866,-0.4347462,-0.03925573,0.4850199,-0.1064964,-0.002462403
0.9592536,-0.3258821,-0.08323452,0.4156031,0.1794411,0.07961535
0.916808,-0.1751821,-0.1303829,0.4351856,0.1212737,0.1338811
0.9351316,-0.1216728,-0.1319844,0.2800647,0.1123429,0.1262812
1.015594,-0.1733158,-0.06047917,0.09595392,-0.2938862,-0.03966562
1.038056,-0.3143685,0.02965367,0.290262,-1.223861,-0.3286977
1.073953,-0.3633616,0.03917262,0.4805467,-1.306761,-0.571517
1.06698,-0.2983757,-0.02369532,0.6596791,-0.799543,-0.6612323
0.927723,-0.2071013,-0.05290781,0.8036417,-0.5971017,-0.6545225
0.7973736,-0.04028121,-0.05739714,0.7275163,-0.6422777,-0.6061021
0.7511009,0.009029763,-0.05408793,0.6927026,-0.9825865,-0.3531683
0.8464658,-0.02600992,-0.07749917,0.5848738,-1.196304,0.01153078
0.9457283,0.02079413,-0.110252,0.4915976,-0.960563,0.2397709
0.8987596,0.01368217,-0.09107628,0.5386673,-0.720013,0.3599585
0.8987943,-0.02161527,-0.07727547,0.5196549,-0.7592404,0.421346
0.9269483,-0.02361263,-0.07369541,0.5492154,-0.7569615,0.4777437
0.9136833,-0.01251208,-0.07472206,0.5129895,-0.5277745,0.516791
0.9496658,0.04146696,-0.1034097,0.3759843,-0.4682472,0.5068521
0.9674022,0.1079466,-0.1203134,0.290725,-0.4931886,0.4882336
0.9628841,0.1225361,-0.111189,0.1920529,-0.4339269,0.4466961
0.9766678,0.09275668,-0.08417868,0.1950635,-0.3787075,0.4439203
1.004653,0.08039093,-0.06590907,0.2152722,-0.1646815,0.4396823
1.033691,0.03002464,-0.0709814,0.136868,-0.0474567,0.3501908
1.032432,-0.05429195,-0.08906541,0.10756,-0.1334949,0.1669481
1.039656,-0.07645051,-0.1261843,0.08465885,-0.3211683,-0.1066123
1.072865,-0.06949637,-0.1609572,-0.02739865,-0.5726782,-0.2436052
1.185761,-0.07698002,-0.1769892,-0.179794,-0.5425597,-0.3203862
1.327741,-0.122934,-0.2232036,-0.2068727,-0.5734308,-0.6313674
1.318533,-0.1662663,-0.2989739,-0.245977,-0.7917803,-0.8649938
1.296694,-0.1566401,-0.3219827,-0.4913346,-0.4711662,-0.8048151
1.355927,-0.1879637,-0.3713699,-0.5731001,0.3163115,-0.7388022
1.276644,-0.2870277,-0.4493555,-0.4009067,1.175313,-0.6831099
1.104341,-0.3677751,-0.2960029,-0.1294846,1.760331,-0.5340702
1.014889,-0.4071043,-0.02463936,0.294179,1.66301,-0.368096
1.009497,-0.4111092,0.05721571,0.4712422,1.449391,-0.1923731
1.093294,-0.3128847,0.01242118,0.2365645,1.370898,-0.1210547
1.158281,-0.1122955,-0.02791119,-0.0575582,0.9554933,-0.1447618
1.123952,0.0219883,-0.04260155,-0.4149738,0.7106396,0.01742683
1.066179,0.01459387,-0.09303077,-0.7039288,0.8093604,0.2907213
0.96082,-0.05188274,-0.1367004,-0.708748,0.7494622,0.4432372
0.8540698,-0.1241768,-0.06055949,-0.7068069,0.6999288,0.4611494
0.8262886,-0.192943,0.02923623,-0.7005275,0.6734711,0.3568281
0.8012159,-0.2405651,0.09479999,-0.552535,0.6526992,0.2115243
0.7501536,-0.2430402,0.1444062,-0.4962442,0.6910116,0.1154997
0.7084101,-0.2125381,0.1329413,-0.4989868,0.5224291,0.08432838
0.7061166,-0.1861931,0.1356936,-0.4543547,0.2457757,0.1063558
0.7432086,-0.1837709,0.1459146,-0.4074586,-0.02601265,0.1491539
0.7998917,-0.1930796,0.1441973,-0.2974261,-0.2283279,0.1838971
0.8433737,-0.1905336,0.1508155,-0.1955162,-0.2917404,0.1612196
0.8360008,-0.182557,0.1564871,-0.1083071,-0.3914123,0.07904919
0.8356013,-0.1699141,0.2028383,-0.008115343,-0.4359061,-0.02449545
0.8784924,-0.1308543,0.2637694,0.03269126,-0.4265484,-0.1127686
0.9577588,-0.0613896,0.2657216,0.03881807,-0.5298091,-0.1076703
1.098445,-0.0332242,0.1649313,-0.0002791325,-0.5498627,0.001585467
1.241056,-0.1198398,0.06326756,0.007256774,-0.2275655,0.1370348
1.292284,-0.1976081,0.1219871,0.1488114,0.2539667,0.1879359
1.305053,-0.1417407,0.2280287,0.2162377,0.5019379,0.1094873
1.442796,-0.05359561,0.2453804,-0.03879894,0.7638322,0.07689911
1.58299,-0.04562481,0.2003007,-0.3594322,1.051139,0.1875075
1.458229,-0.1766426,0.1385242,-0.2272183,0.8181354,0.2356405
1.259051,-0.3490139,0.1369495,0.09585718,0.4436579,0.09941275
1.073669,-0.3504608,0.09460029,0.2145961,0.1554711,-0.02816574
0.7987225,-0.3115994,-0.06456196,0.2216267,-0.1517696,0.04229327
0.8388145,-0.2635201,-0.1712598,0.1147941,0.08824452,0.1658182
1.033411,-0.04579421,-0.2282351,-0.0203757,0.3249963,0.1891269
0.8967755,-0.01196402,-0.2135352,-0.2637799,-0.1609368,0.1453431
0.9165497,-0.2230549,-0.0871757,-0.4337845,-0.7186474,-0.01078841
1.071166,-0.3386363,-0.05171156,-0.1078897,-1.051353,-0.2030471
1.002485,-0.3940056,-0.05644588,0.2166256,-1.010795,-0.3702529
1.018197,-0.319103,-0.04771563,0.340887,-0.6439315,-0.5829272
0.9731581,-0.1970219,-0.08864946,0.443407,-0.5874211,-0.6619727
0.8706267,-0.1455667,-0.06518987,0.3708409,-0.8199526,-0.5046255
0.8752702,0.01308526,-0.06383694,0.3711333,-1.088447,-0.2255787
0.8349546,0.02751586,-0.08926106,0.375634,-1.118303,0.03096689
0.9177965,-0.06707114,-0.06395656,0.2938849,-0.9252581,0.1564064
0.9532467,-0.01354205,-0.08395154,0.3359113,-0.9208506,0.263122
0.904552,-0.04908719,-0.0818917,0.3555514,-0.765402,0.3827427
0.9723064,-0.06281088,-0.07989609,0.3892841,-0.4916246,0.4234473
0.974703,0.02994518,-0.112698,0.371562,-0.4417004,0.4255657
1.012096,0.0393035,-0.1041109,0.2581651,-0.4264982,0.4192731
1.022528,0.06683037,-0.106766,0.2217042,-0.4927177,0.4099637
0.987046,0.1015854,-0.1043298,0.1519339,-0.4503638,0.4346825
1.049796,0.09668571,-0.09541556,0.1252406,-0.2481969,0.4724782
1.022294,0.05286058,-0.08467993,0.1367465,-0.0632647,0.4612318
1.021396,-0.06711636,-0.0593134,0.08477312,0.03103982,0.4123232
1.039942,-0.1300907,-0.09853399,0.1035015,-0.1891737,0.2559786
1.001307,-0.1203105,-0.1477806,0.112931,-0.3713915,-0.03970521
1.070811,-0.09925784,-0.1561623,0.09843377,-0.3936451,-0.1992044
1.140553,-0.08126713,-0.1616624,0.1335549,-0.4207046,-0.2013341
1.211833,-0.1137228,-0.1656847,0.1618434,-0.357132,-0.3701989
1.274495,-0.1536363,-0.2086201,0.1680769,-0.3905344,-0.6487412
1.260778,-0.1831219,-0.2687222,0.09072384,-0.2736395,-0.7563436
1.265678,-0.197974,-0.3036524,-0.0517236,0.1496084,-0.7458173
1.216227,-0.2102769,-0.3598718,-0.1610277,0.7259992,-0.7197685
1.098008,-0.2540758,-0.3619446,-0.1741881,1.298496,-0.6203473
0.9902662,-0.2764454,-0.1847814,-0.03619064,1.323227,-0.4954734
0.9374446,-0.2916935,-0.0004940089,0.1024405,1.159931,-0.3459733
1.038766,-0.2756584,-0.01874342,0.03255448,1.236216,-0.1560419
1.203884,-0.1705226,-0.07025898,-0.1712035,1.084411,-0.06956156
1.212303,-0.06934583,-0.02146263,-0.4048186,0.8079169,-0.06416337
1.115533,-0.06092831,-0.03324704,-0.647394,0.6943008,0.02350229
1.049839,-0.1141489,-0.08221675,-0.7599062,0.7566658,0.1799442
0.9523073,-0.1166568,-0.06862966,-0.7880363,0.8593633,0.2647472
0.8538076,-0.08908335,-0.05447864,-0.8602419,0.7856771,0.2798948
0.8065326,-0.09678069,0.004231619,-0.9037798,0.7376906,0.2792542
0.7666041,-0.09871913,0.06564615,-0.9649172,0.7073542,0.2273109
0.7495075,-0.1295607,0.06007042,-1.054966,0.5483783,0.199367
0.7323793,-0.1703761,0.07071391,-1.077284,0.3676493,0.200272
0.7480222,-0.1923293,0.07598878,-1.009755,0.05277797,0.1841705
0.7969422,-0.2233192,0.1065372,-0.8411156,-0.237731,0.1785871
0.8316832,-0.2216564,0.1501261,-0.6596959,-0.3065939,0.09090293
0.8723196,-0.2201096,0.1402871,-0.4836989,-0.3937507,-0.04375596
0.8622394,-0.2091969,0.1694337,-0.330741,-0.4719575,-0.1429688
0.8731424,-0.154927,0.2013094,-0.2815503,-0.4801338,-0.1770196
0.963179,-0.1095568,0.193568,-0.261378,-0.5084417,-0.07583554
1.06029,-0.09012708,0.1464566,-0.2480155,-0.4645089,0.05325517
1.186665,-0.1348,0.05859086,-0.1855001,-0.2883402,0.1497876
1.241092,-0.1821545,0.0602624,-0.03476683,-0.04992561,0.1729333
1.203694,-0.1627984,0.1297143,0.03704671,0.08082587,0.07678038
1.241865,-0.1570009,0.1942914,0.01290787,0.257747,0.04066124
1.358531,-0.1788227,0.2269487,0.006581938,0.662221,0.1243157
1.448539,-0.2470542,0.1566399,0.06186823,0.828572,0.2235062
1.393928,-0.3655975,0.08237151,0.2296001,0.6638621,0.2409467
1.239024,-0.4183127,0.06923109,0.512322,0.5527381,0.1784481
1.091329,-0.4176348,0.02838273,0.6872413,0.4205864,0.1167663
0.884853,-0.4221846,-0.02205393,0.6558061,0.2753315,0.01010495
0.728274,-0.3007881,-0.06219657,0.6355544,0.2524717,-0.0859195
0.7548388,-0.08205044,-0.1530334,0.4688912,0.07273822,-0.06021846
0.8714358,-0.04532548,-0.2053851,0.09337951,-0.3805598,0.04344129
1.025549,-0.1940164,-0.1304643,0.03728479,-0.7789096,0.1165213
1.093409,-0.336927,-0.05454193,0.2846992,-0.8979219,-0.01165348
1.056378,-0.392678,-0.03602454,0.5034872,-0.7691401,-0.3049202
1.008557,-0.305227,-0.04015208,0.7030871,-0.6215286,-0.5608176
0.8697066,-0.1658537,-0.05902502,0.7404609,-0.7119186,-0.7015872
0.8059837,-0.08376027,-0.06289255,0.6664513,-0.9457635,-0.667347
0.9093651,-0.01966137,-0.08655948,0.666182,-1.097301,-0.4721486
0.9477069,-0.01293029,-0.1090026,0.6124138,-0.9794454,-0.2274245
0.9480582,-0.05776581,-0.08088192,0.5902881,-0.7143512,-0.07456047
0.9508383,-0.06646496,-0.07371898,0.6700528,-0.7073265,-0.04540571
0.9347741,-0.06625647,-0.09127681,0.719307,-0.6415222,0.06560144
0.9484338,-0.04649186,-0.09702942,0.766692,-0.3339573,0.2263042
0.945815,0.0390769,-0.09409244,0.7062301,-0.2438905,0.276142
0.9512618,0.1243232,-0.08037836,0.5555534,-0.2544488,0.3425308
0.9570427,0.1261252,-0.07339919,0.5129227,-0.2829668,0.4032342
0.9461266,0.1153982,-0.06080473,0.4710651,-0.3388306,0.4203596
0.9683153,0.1601559,-0.044281,0.398471,-0.2162583,0.4878834
0.9881243,0.08922229,-0.04459952,0.3265263,-0.08023539,0.5018008
1.003874,-0.07509251,-0.05787954,0.2420083,-0.03896724,0.4198656
1.012503,-0.1216898,-0.09290465,0.2708879,-0.1961741,0.2072198
1.038527,-0.1149149,-0.1235431,0.3093577,-0.4532206,-0.1180497
1.11855,-0.09607601,-0.1149165,0.2906506,-0.4721523,-0.2534945
1.168235,-0.07255898,-0.09691995,0.3170364,-0.4405468,-0.2356926
1.191765,-0.09948086,-0.1041517,0.2370406,-0.5209948,-0.4371626
1.224731,-0.1186197,-0.1339358,0.05472197,-0.5486611,-0.7895855
1.269597,-0.1438483,-0.230553,-0.06655574,-0.2932739,-0.9593645
1.320781,-0.1669812,-0.3688118,-0.2280317,0.3375485,-0.9642423
1.216115,-0.2141761,-0.3564071,-0.3126625,1.029886,-0.9423103
0.9891902,-0.3307347,-0.1900137,-0.0478142,1.345184,-0.8058442
0.9277623,-0.3766006,-0.04450153,0.2912188,1.168681,-0.5198508
1.085393,-0.3465764,0.006676473,0.4058127,1.039051,-0.2401499
1.306225,-0.2838801,-0.03557818,0.3425204,1.111351,-0.1245402
1.393816,-0.1321046,-0.04602681,0.009734087,0.9318922,-0.1122728
1.282833,-0.0003111109,-0.004281795,-0.4702374,0.8440503,0.00992452
1.120375,-0.01276646,-0.02182536,-0.7413142,0.9457281,0.1868623
0.9518088,-0.07339671,-0.03447599,-0.8317713,0.8205244,0.2493166
0.7839685,-0.07357172,-0.04006237,-0.9004499,0.726901,0.3194313
0.7241963,-0.0836223,-0.04105258,-0.8939165,0.6541737,0.4255866
0.7389909,-0.1162633,0.05014584,-0.8319579,0.56844,0.4067798
0.7301439,-0.140544,0.1312512,-0.8381727,0.5933116,0.3481812
0.6989909,-0.1730392,0.1298613,-0.8400149,0.3483051,0.335346
0.6836242,-0.1590282,0.1065351,-0.8148667,-0.03107996,0.3242117
0.7297716,-0.1667282,0.1099257,-0.7663711,-0.2756394,0.3205588
0.8161374,-0.2246809,0.1298002,-0.5759667,-0.402327,0.2449578
0.8623012,-0.2403656,0.1357325,-0.3556092,-0.3481565,0.09984706
0.8649701,-0.2438327,0.1733576,-0.1685729,-0.3660313,-0.03217882
0.8654869,-0.1993288,0.2181282,-0.01033566,-0.384758,-0.1694741
0.891649,-0.09798434,0.2446227,0.02330694,-0.3495306,-0.2735615
0.9770061,-0.02975667,0.2170761,-0.05093843,-0.5316576,-0.2539838
1.117435,-0.03761616,0.0636168,-0.174753,-0.6450811,-0.0570401
1.255707,-0.1284724,-0.03326381,-0.1503619,-0.4480785,0.2076247
1.310534,-0.1791355,0.07482996,0.03441506,-0.002291633,0.3309123
1.315936,-0.1353192,0.2418364,0.1132769,0.4771218,0.3270748
1.398912,-0.1181373,0.2871254,-0.0306427,0.7101208,0.3571999
1.49064,-0.2205073,0.2371366,-0.2054225,0.896741,0.4220793
1.451875,-0.3722254,0.212953,-0.005053471,1.081892,0.4187904
1.224745,-0.4033762,0.161248,0.3875274,0.8604323,0.3194431
0.8720494,-0.3492533,0.08735806,0.6077362,0.2450756,0.1198414
0.7558842,-0.3109971,0.04486369,0.6994277,-0.2109129,-0.02069021
0.8964181,-0.2466366,-0.03593152,0.6043884,-0.1341498,0.02531742
0.9083137,-0.1326753,-0.1600662,0.5104092,0.2457037,0.08641517
0.9016185,-0.03595204,-0.2503543,0.3596498,0.3259823,0.1784917
0.9766474,-0.07486461,-0.2079706,0.01838381,-0.2626534,0.3256427
0.9941453,-0.2264662,-0.1146911,0.03200321,-1.018053,0.3308418
1.055332,-0.3391738,-0.07433296,0.3541878,-1.092707,0.1388089
1.052927,-0.3356895,-0.01500964,0.627165,-0.6796896,-0.2452047
0.9737543,-0.3072309,0.02257707,0.7680523,-0.5365329,-0.6284029
0.9785612,-0.3050189,0.008361867,0.6929985,-0.5823171,-0.7438011
0.9050094,-0.12688,-0.03897872,0.6891923,-0.7336155,-0.6007328
0.8197236,0.09795327,-0.09463341,0.6449307,-1.137125,-0.3527106
0.8559961,0.05958604,-0.08772827,0.4120307,-1.29718,-0.1250515
0.8993267,-0.009224021,-0.0853256,0.3413212,-1.143633,0.06766963
0.9338422,-0.005916817,-0.09663269,0.3704649,-0.9810477,0.1661187
0.9252909,-0.08146377,-0.08847252,0.4350791,-0.7609714,0.2239717
0.9151512,-0.07314465,-0.09427728,0.5352247,-0.5731182,0.3322078
0.9538323,0.01299108,-0.08972469,0.517638,-0.4651257,0.3631084
0.9647935,0.02282614,-0.09255771,0.4410998,-0.4140182,0.4074497
0.9609092,0.05723569,-0.09612438,0.3409098,-0.4106083,0.4946926
0.9564351,0.1122936,-0.09322177,0.2758557,-0.4260639,0.5001727
0.9611785,0.1018426,-0.1022159,0.266315,-0.379489,0.5140857
0.9846523,0.04594478,-0.1081942,0.2527095,-0.2176328,0.4970624
1.013495,-0.06123176,-0.1378149,0.2621366,-0.09224526,0.3897192
1.043142,-0.1531051,-0.1524314,0.270551,-0.07826337,0.1417895
1.053233,-0.1615723,-0.1344748,0.3075197,-0.3066797,-0.1859635
1.108514,-0.08342624,-0.1345205,0.3180948,-0.5378895,-0.2627942
1.202431,0.009367059,-0.1507881,0.1772166,-0.4011783,-0.2140197
1.244953,-0.0249824,-0.1908955,-0.0007268414,-0.3247742,-0.387773
1.261739,-0.07558586,-0.2323073,-0.1575397,-0.4500993,-0.695989
1.278684,-0.07315392,-0.2702563,-0.4002997,-0.3837578,-0.9074633
1.274644,-0.1560471,-0.3408853,-0.5879665,0.09084452,-0.9157906
1.193431,-0.25167,-0.3806761,-0.5371841,0.9482335,-0.7888982
1.039978,-0.3069013,-0.3203997,-0.4181079,1.520737,-0.6376836
0.9675936,-0.3620244,-0.1837511,-0.1967473,1.391005,-0.4745155
1.054335,-0.3980438,-0.03985505,0.1622378,1.217675,-0.2717576
1.202457,-0.3906959,-0.01103584,0.2124266,1.220564,-0.09535067
1.280495,-0.2481439,-0.07087937,-0.0606753,0.966875,-0.02923827
1.244902,-0.04327666,-0.04640095,-0.3955406,0.7465736,0.0802272
1.142957,0.01691265,-0.02900453,-0.7280417,0.7832617,0.3248985
1.034431,-0.05341638,-0.06657656,-0.8612448,0.8212175,0.4875087
0.9150941,-0.08872911,-0.03397274,-0.8727443,0.8685884,0.5126578
0.8040675,-0.07339489,-0.02327079,-0.9081499,0.827424,0.53615
0.7820645,-0.1062206,0.0008874468,-0.899058,0.704119,0.4848232
0.7622285,-0.1335724,0.06683944,-0.9053633,0.6183033,0.3355709
0.6836729,-0.1450662,0.05994143,-0.92706,0.5287283,0.2487797
0.6744037,-0.1867262,0.09326274,-0.9204922,0.3636323,0.2126981
0.7030767,-0.1944762,0.1463224,-0.8733664,-0.01971943,0.1891816
0.724358,-0.2063413,0.1488475,-0.7237935,-0.3090619,0.1770175
0.8016459,-0.2303053,0.1674306,-0.4860964,-0.3657033,0.08106612
0.8627489,-0.2323676,0.1669608,-0.2456786,-0.4309827,-0.06910478
0.8727519,-0.2398119,0.1734893,-0.06111427,-0.3526736,-0.205702
0.8940925,-0.2051933,0.212149,0.05123215,-0.3120234,-0.2893777
0.9331377,-0.1291165,0.2326876,0.04641352,-0.4464499,-0.2464737
1.025887,-0.0587274,0.1595428,-0.06341547,-0.4657546,-0.06880417
1.17411,-0.05757521,-0.01449325,-0.1280632,-0.3467406,0.1728371
1.257269,-0.145496,-0.08044971,-0.02306413,-0.08206652,0.2553396
1.257698,-0.1926685,0.06640354,0.08886421,0.273531,0.1899475
1.309373,-0.1435442,0.2314834,-0.04807129,0.6843646,0.237742
1.452059,-0.1080016,0.2290379,-0.2575352,1.122916,0.2862523
1.52793,-0.2070556,0.1542668,-0.2667662,1.277764,0.2551834
1.338657,-0.3793108,0.08788734,-0.02679993,0.8521757,0.2056596
1.028191,-0.4878253,-0.034187,0.3176173,0.1311632,0.06606676
0.9197117,-0.5082348,-0.07349683,0.4191278,-0.03179523,0.005095343
0.9069893,-0.4225469,-0.05942388,0.4432118,0.1122976,0.01220719
0.864577,-0.2825318,-0.1581021,0.545249,0.04816664,-0.07278868
0.9015278,-0.1612336,-0.1964697,0.3632184,0.1285818,-0.1114255
0.9180529,-0.1140124,-0.1535417,0.194555,-0.3321455,-0.1485679
0.9339295,-0.1985928,-0.1420125,0.3003307,-1.1835,-0.2006518
1.010237,-0.2840745,-0.1104408,0.4035676,-1.186698,-0.2050364
1.003795,-0.29587,-0.09144051,0.5896937,-0.8484577,-0.3125624
0.9433639,-0.2731322,-0.07826648,0.7608143,-0.6340833,-0.4556899
0.8617309,-0.2072939,-0.04250869,0.7827682,-0.530484,-0.4839915
0.8193533,-0.1646097,-0.04081667,0.8132836,-0.7362817,-0.3544319
0.8976017,-0.1108239,-0.06980149,0.7837835,-0.8526223,-0.1106603
0.9495934,-0.02042088,-0.09597511,0.704597,-0.7719918,0.09902744
0.950311,-0.01396015,-0.09878296,0.6376361,-0.7186153,0.2528413
0.9625651,-0.04531002,-0.09987069,0.5611531,-0.7211819,0.2954019
0.9628824,-0.02710253,-0.1126729,0.5067336,-0.6777371,0.2543874
0.9661485,-0.009122289,-0.1142801,0.4191525,-0.6051344,0.253989
0.973648,-0.005061489,-0.1188873,0.321889,-0.5945174,0.2121322
0.9769678,0.00573407,-0.1207227,0.2726748,-0.5118298,0.1887914
0.9717528,0.005944722,-0.1120795,0.2396315,-0.4753743,0.2727194
0.9777117,0.01160356,-0.1079236,0.2387732,-0.4505202,0.3752406
0.9991834,0.01915231,-0.1031928,0.2609805,-0.3098064,0.4865563
1.020515,-0.006411515,-0.1082532,0.2830656,-0.2211828,0.5493266
1.048579,-0.03645153,-0.1166209,0.3033106,-0.08059478,0.5226865
1.059708,-0.0648522,-0.1114736,0.2836577,-0.02915845,0.4144811
1.079589,-0.07540027,-0.1124174,0.2615002,-0.1742309,0.1710609
1.112256,-0.06753036,-0.1195822,0.2929766,-0.2605568,-0.08807582
1.107376,-0.08227776,-0.1212776,0.309626,-0.3276407,-0.1943901
1.107336,-0.07930223,-0.1185601,0.2602382,-0.2927945,-0.2209917
1.146263,-0.09419258,-0.1039315,0.1517971,-0.2074081,-0.327588
1.181065,-0.1296024,-0.1104137,0.02406068,-0.2735148,-0.5549203
1.185112,-0.1206205,-0.220389,-0.07891953,-0.2113456,-0.785377
1.214116,-0.1563418,-0.4180043,-0.2510808,0.1963112,-0.8391596
1.248227,-0.212053,-0.509397,-0.4528226,0.954403,-0.7753876
1.152479,-0.2317385,-0.3842172,-0.473099,1.613237,-0.7257039
1.019256,-0.3345909,-0.1542666,-0.3107189,1.581719,-0.5365969
1.041526,-0.4484367,0.01891265,-0.05252125,1.344134,-0.256286
1.179541,-0.38313,-0.009801951,0.06878234,1.297719,-0.1156568
1.298881,-0.2245119,-0.09553211,-0.163978,1.087998,-0.05011566
1.293122,-0.0992638,-0.02994381,-0.4968205,0.9288046,0.03291807
1.182389,-0.02359798,-0.03775617,-0.7191748,1.059854,0.1708466
1.051394,-0.08556384,-0.08984935,-0.8349833,1.137042,0.2487361
0.8753553,-0.1465918,-0.01965152,-0.8772706,0.9956669,0.2043754
0.7445894,-0.08852453,-0.0103136,-0.9578666,0.8445351,0.2391508
0.7316474,-0.1072445,0.0466194,-0.9808051,0.804874,0.232835
0.7016671,-0.12701,0.1285873,-0.9763221,0.6837354,0.149758
0.6818689,-0.1013507,0.08447778,-1.064309,0.4606039,0.1825072
0.7084692,-0.1473077,0.09943756,-1.086977,0.2315113,0.219806
0.7200398,-0.1568538,0.09846482,-1.057542,-0.05596862,0.2550426
0.7766816,-0.1694806,0.086132,-0.9768061,-0.2805368,0.2530931
0.8339488,-0.2139561,0.1341986,-0.7665296,-0.3682541,0.1451094
0.8384994,-0.2243073,0.1289203,-0.5403529,-0.3908305,0.02804375
0.844386,-0.2395292,0.1703294,-0.3450362,-0.3990706,-0.1338272
0.8625204,-0.2109654,0.2145681,-0.2420679,-0.4167137,-0.2085041
0.9459435,-0.1410507,0.2027562,-0.2476186,-0.3918321,-0.1406668
1.109525,-0.0823724,0.1567837,-0.2617925,-0.3375531,-0.03822787
1.242912,-0.1032249,0.04220941,-0.2210496,-0.2528474,0.1395006
1.262862,-0.1918606,0.02634998,-0.01931714,-0.09609535,0.1973066
1.268883,-0.1965547,0.102503,0.1646206,0.2031881,0.1440151
1.36161,-0.1458679,0.1513295,-0.01523978,0.6994669,0.2083196
1.51302,-0.1197873,0.1762278,-0.2649316,1.22805,0.2621117
1.63918,-0.2019087,0.14852,-0.1424328,1.471391,0.2736151
1.434318,-0.3854858,0.09461997,0.1381788,1.006451,0.2340639
0.9912172,-0.4650783,0.01230352,0.354367,0.1996538,0.1012293
0.8403271,-0.4613835,-0.03957546,0.439572,0.01319439,0.0703402
0.8608071,-0.3997941,-0.0317927,0.3578502,0.1327579,0.1028532
0.8631854,-0.2301807,-0.1272428,0.2833283,0.110591,0.0976804
0.9498568,-0.09644581,-0.2437083,0.06245437,0.1134559,0.1130883
0.9891061,-0.08860445,-0.176668,-0.1366238,-0.428063,0.01561595
1.006214,-0.2406013,-0.06625338,0.07081884,-1.221117,-0.1956172
1.040651,-0.4117046,-0.06264604,0.31531,-1.171692,-0.365879
1.045798,-0.392972,-0.06428686,0.5723081,-0.6406479,-0.5211236
0.986236,-0.28275,-0.05735483,0.7766069,-0.4172452,-0.6290518
0.8210044,-0.1649119,-0.07014038,0.6702935,-0.6296917,-0.5777382
0.7727014,-0.03769297,-0.06340694,0.6533409,-1.038341,-0.3716719
0.8506049,0.01742142,-0.09338978,0.6118996,-1.22394,-0.0954583
0.8960546,0.001647698,-0.1183671,0.4887695,-1.086115,0.1308966
0.9263351,-0.02376405,-0.08473325,0.5617481,-0.9148995,0.2216786
0.9185389,-0.04369267,-0.06290619,0.5693852,-0.8808771,0.2589061
0.9247653,-0.0394649,-0.05807712,0.57287,-0.77629,0.3222975
0.9408038,0.01968424,-0.07341558,0.595365,-0.5980776,0.3598196
0.9434436,0.09965765,-0.08338685,0.4747954,-0.5566652,0.4174131
0.944185,0.1389316,-0.07354738,0.3339896,-0.5379098,0.4826346
0.9232344,0.1192621,-0.07806054,0.1805788,-0.5155102,0.5037355
0.982362,0.06364902,-0.08252745,0.1482503,-0.4381357,0.5424955
1.070489,-0.02178392,-0.1099532,0.1914121,-0.1668127,0.5024726
1.083375,-0.1384746,-0.1404923,0.1502415,0.02775688,0.2995113
1.031188,-0.1672745,-0.1364908,0.1688232,-0.03058685,-0.06300113
0.9882011,-0.03335428,-0.1375261,0.1564142,-0.2643747,-0.3997654
1.121086,0.06935872,-0.1578562,0.04386254,-0.4747258,-0.4135586
1.317036,-0.04769088,-0.1965961,-0.05569223,-0.4287029,-0.3968127
1.376858,-0.1702448,-0.2532295,-0.1584149,-0.4139296,-0.6656174
1.365248,-0.09217988,-0.3306634,-0.3129899,-0.507419,-0.9299948
1.362605,-0.08339774,-0.4188052,-0.5072892,-0.1633207,-0.9405876
1.333307,-0.2081261,-0.4781948,-0.5811216,0.6225635,-0.8168441
1.231229,-0.265711,-0.474361,-0.526168,1.36292,-0.7717715
1.107238,-0.3505519,-0.3187398,-0.3457546,1.671553,-0.6854619
1.015772,-0.4635177,-0.006490566,0.09669819,1.453205,-0.4302166
1.105866,-0.4525098,0.1485962,0.4453298,1.189861,-0.2181463
1.323553,-0.2652912,0.02778487,0.3236129,0.998871,-0.1627553
1.29578,-0.004397515,-0.02920441,-0.01233667,0.6908498,-0.1302383
1.160745,0.07824292,-0.03052829,-0.3215496,0.7003396,0.08650603
1.061569,-0.002806843,-0.1086839,-0.613425,0.8945786,0.3356351
0.8563372,-0.04800932,-0.06506012,-0.7761443,0.8726547,0.4122799
0.8014422,-0.05075712,-0.008918247,-0.8184354,0.8091918,0.4740771
0.8215882,-0.0952469,-0.008584,-0.8420776,0.6498059,0.4598487
0.7091894,-0.1597478,0.1009675,-0.7641294,0.5612097,0.3832093
0.6768908,-0.1715828,0.154519,-0.7033362,0.5258242,0.3453807
0.6908456,-0.1575555,0.1063753,-0.7312821,0.2838851,0.2500049
0.6765629,-0.1438461,0.1011856,-0.7135105,0.07756701,0.2389429
0.6836094,-0.149775,0.1005915,-0.6653411,-0.177543,0.2492228
0.7302669,-0.1877495,0.1145732,-0.5273528,-0.3554468,0.1435671
0.8141989,-0.2384975,0.1770735,-0.3292728,-0.322467,0.02597383
0.8429409,-0.2788876,0.2180626,-0.145181,-0.4101719,-0.1207683
0.8586089,-0.2416503,0.2223628,0.03101665,-0.4021864,-0.2065124
0.9036518,-0.1697995,0.2563856,0.07680174,-0.3661203,-0.2043673
0.9600046,-0.09166842,0.2734349,0.01823587,-0.4661816,-0.130979
1.093939,-0.02792863,0.1582699,-0.08184741,-0.4228012,0.1157315
1.269256,-0.08718155,0.02989064,-0.1459164,-0.2680551,0.3627894
1.321948,-0.1691206,0.07073395,-0.0112509,0.05018868,0.3944471
1.286062,-0.1953465,0.2081903,0.1111614,0.4276427,0.2942793
1.380607,-0.1772577,0.2867072,-0.08338896,0.7405963,0.2899881
1.496984,-0.1459394,0.2485157,-0.2833865,1.151098,0.370722
1.506062,-0.2740804,0.1690072,-0.0957388,1.268222,0.3611434
1.42176,-0.4312834,0.1421711,0.2733442,0.8022456,0.229795
1.10483,-0.4385486,0.07583812,0.5849627,0.1668011,0.05846073
0.8078087,-0.4461868,-0.01792804,0.6349008,-0.1349752,0.05666531
0.8242596,-0.4044728,-0.02221741,0.4581345,-0.03467794,0.1152274
0.9225263,-0.2099454,-0.1130911,0.3778846,0.01798831,0.05706796
0.9396533,-0.05390219,-0.2671118,0.1144929,-0.1525915,0.08447726
0.9629097,-0.09198823,-0.2012871,-0.1069605,-0.4925953,0.04825618
1.033981,-0.2654887,-0.06432727,0.1390422,-1.014961,-0.1391842
1.067459,-0.4100019,-0.04043066,0.3225552,-1.122778,-0.2895086
1.04904,-0.4046697,-0.03554809,0.5305028,-0.6559244,-0.4924735
0.9850877,-0.2998517,-0.04770396,0.723589,-0.490661,-0.6180112
0.8620718,-0.1995981,-0.05036997,0.598453,-0.7917719,-0.5624345
0.8046952,-0.08550153,-0.04502764,0.634404,-1.114904,-0.4091158
0.8372836,-0.0006714567,-0.09460352,0.6228564,-1.227774,-0.1509932
0.8919717,-0.01462971,-0.107167,0.516041,-1.022124,0.02809357
0.928601,-0.03422949,-0.09256925,0.6200846,-0.8173916,0.117555
0.9276812,-0.05280858,-0.09938683,0.6141963,-0.7184602,0.2327885
0.924264,-0.06622113,-0.09053408,0.6351736,-0.5387911,0.3283304
0.9292554,-0.002003742,-0.1083499,0.6496009,-0.3900729,0.4327518
0.9537856,0.06490015,-0.1150031,0.5090542,-0.3403935,0.5016796
0.9646726,0.09165406,-0.08530787,0.4482346,-0.4083882,0.5118668
0.9719172,0.08754058,-0.06349922,0.3781036,-0.4517724,0.5226511
1.007648,0.06797663,-0.0541011,0.3718387,-0.3216678,0.4946628
1.023058,0.03159997,-0.065389,0.3820603,-0.1895853,0.4570912
1.030567,-0.06575419,-0.0620852,0.2998352,-0.1527306,0.4131806
1.029804,-0.1174221,-0.07501452,0.3070821,-0.2276411,0.1951329
1.050421,-0.08048361,-0.1182516,0.3109812,-0.4356174,-0.1479521
1.126311,-0.01975952,-0.1559474,0.2973495,-0.6366682,-0.2748977
1.198658,0.0380822,-0.2094652,0.1977021,-0.6257699,-0.2530328
1.228568,-0.01800576,-0.2390811,-0.0480195,-0.6096784,-0.4977806
1.234924,-0.116707,-0.2630189,-0.18287,-0.7579112,-0.8478644
1.299237,-0.1191732,-0.2773961,-0.275648,-0.5144265,-0.9408254
1.31882,-0.1543237,-0.249678,-0.4216314,0.2464365,-0.9214642
1.184807,-0.2686027,-0.2546873,-0.4310987,1.066931,-0.8682313
1.034094,-0.3568247,-0.2015269,-0.2276403,1.502267,-0.6833871
0.9784515,-0.3673224,-0.05189905,0.09206773,1.278999,-0.4508323
1.111402,-0.3200928,0.01750347,0.3451332,1.123375,-0.2141423
1.278853,-0.246673,-0.02153151,0.3311556,1.214113,-0.07673996
1.249626,-0.08737395,-0.05778628,0.01522228,0.9772462,-0.09337135
1.14033,0.01779511,-0.04281442,-0.3748593,0.9154715,0.02406991
0.9858146,-0.06126252,-0.0526661,-0.6851826,1.008722,0.2723191
0.8229871,-0.0805473,-0.07335616,-0.8443787,0.8999314,0.3800491
0.7749379,-0.06863231,-0.02940432,-0.8796988,0.8651716,0.421624
0.765505,-0.1331171,0.001095247,-0.9115897,0.7278418,0.4420181
0.7637718,-0.1328363,0.03220933,-0.8517133,0.6390872,0.3743573
0.7594673,-0.1608826,0.08768297,-0.8129743,0.6563977,0.2777643
0.739232,-0.1821912,0.08561916,-0.8698401,0.4764309,0.1855764
0.7537124,-0.143895,0.07006757,-0.8735339,0.2710729,0.1590845
0.7679785,-0.1845338,0.08021957,-0.8781157,0.003553972,0.18865
0.7812441,-0.2001685,0.08856169,-0.7613152,-0.1962139,0.1737133
0.8155781,-0.210935,0.113454,-0.5297758,-0.2376122,0.09948009
0.8387789,-0.2636793,0.1681469,-0.3726273,-0.3381485,-0.02075484
0.8453062,-0.235646,0.2065543,-0.2283479,-0.3523203,-0.1341728
0.8508317,-0.1904268,0.2353429,-0.1393604,-0.3717975,-0.2050376
0.8980555,-0.1348548,0.2756727,-0.1530405,-0.5199176,-0.205434
1.017031,-0.05535095,0.2017529,-0.2297081,-0.5978506,-0.04087669
1.17752,-0.04925374,0.06309371,-0.2527384,-0.4167936,0.1996716
1.26241,-0.1139112,0.04881077,-0.06055554,-0.08240695,0.2626938
1.249462,-0.1857437,0.1092828,0.1516209,0.106795,0.1603007
1.307195,-0.1886199,0.2098362,0.09401378,0.51269,0.1388776
1.44394,-0.1672471,0.3070062,-0.09865166,1.255497,0.2255005
1.510795,-0.2231928,0.2181519,-0.1191013,1.577514,0.2510807
1.359672,-0.3362696,0.03401216,0.1012952,1.096319,0.156529
1.066921,-0.451746,-0.01679298,0.426336,0.34435,0.03415346
0.9472567,-0.4660509,0.01276273,0.5574613,0.08884011,0.02799084
0.8759565,-0.3977218,-0.0007667758,0.5147105,0.05889365,0.1197109
0.7850611,-0.3251984,-0.08488967,0.5215428,0.03026737,0.1755392
0.9006161,-0.1622146,-0.1897467,0.3124748,0.1534013,0.1655181
0.970719,-0.08308464,-0.1868713,0.06111311,-0.3600251,0.07240442
0.9753215,-0.2405908,-0.09359073,0.1966133,-1.131725,-0.1175076
1.060748,-0.3591957,-0.02722682,0.4772747,-1.155415,-0.3705022
1.045574,-0.3584087,-0.01912328,0.7195489,-0.8236139,-0.6099016
0.9849722,-0.2793569,-0.04022041,0.7590495,-0.5563732,-0.7081402
0.8770896,-0.1204645,-0.02987819,0.6436568,-0.6749095,-0.637095
0.7898875,-0.0338558,-0.02570206,0.6581564,-1.021342,-0.4125695
0.8536939,0.007410139,-0.06428868,0.5873728,-1.152527,-0.08926458
0.8742484,0.03805775,-0.08990777,0.4870241,-1.091808,0.122788
0.8787319,0.00655869,-0.09261021,0.5518336,-0.8414718,0.2096879
0.9127698,-0.007858787,-0.05657988,0.57393,-0.768922,0.3686387
0.9177192,-0.01257228,-0.02367675,0.5960504,-0.6944039,0.5171673
0.9532047,0.003250835,-0.04726884,0.5939172,-0.4358059,0.5376357
0.9506607,0.07461213,-0.05964562,0.4546292,-0.4946512,0.5441145
0.9363853,0.1272654,-0.05589849,0.3304055,-0.5613171,0.5245507
0.9684798,0.1348994,-0.07737179,0.2559259,-0.5326035,0.4766007
0.9958174,0.08395939,-0.09645631,0.2576913,-0.4125481,0.4620067
1.034741,-0.003007542,-0.08870829,0.2988127,-0.05698008,0.4022486
1.048301,-0.07168538,-0.08029951,0.3017607,0.02825388,0.2509528
1.020159,-0.1204834,-0.09066306,0.3554791,-0.09803256,-0.06648007
1.010282,-0.1164322,-0.1053285,0.3490761,-0.366152,-0.3888915
1.035504,-0.03037453,-0.1574294,0.2644827,-0.7165895,-0.3933987
1.129233,0.05156466,-0.2218618,0.1582289,-0.6398197,-0.3557868
1.278472,0.0001437084,-0.2362768,-0.07207338,-0.5750111,-0.5947243
1.362293,-0.1021721,-0.2812933,-0.2716306,-0.6886888,-0.8455101
1.380587,-0.1113962,-0.3394325,-0.4745263,-0.2701286,-0.8765231
1.406564,-0.1230646,-0.3224854,-0.6851981,0.3862511,-0.8165979
1.32079,-0.2147354,-0.354337,-0.5556828,0.870688,-0.7746868
1.11636,-0.335587,-0.3965529,-0.2756224,1.516231,-0.6426023
0.9972885,-0.4010831,-0.2165038,-0.01217777,1.756599,-0.4589249
1.000526,-0.410199,0.03328816,0.3575444,1.350542,-0.322247
1.111679,-0.4351512,0.07029918,0.4426708,1.199731,-0.1914491
1.25906,-0.3031684,0.001799551,0.100241,0.9794857,-0.1437382
1.259295,-0.03046299,-0.0007263173,-0.3376934,0.6027574,-0.007295912
1.167844,0.05597256,-0.0196272,-0.7002497,0.7563822,0.3835797
1.064843,-0.01010003,-0.09533657,-0.8487357,0.7909931,0.621218
0.9026287,-0.07147721,-0.09909034,-0.8476472,0.6339874,0.6097594
0.7919076,-0.1355041,-0.01970069,-0.828515,0.7088423,0.6081793
0.7830448,-0.2001069,0.07847133,-0.7436683,0.6738891,0.5380399
0.7686594,-0.2116928,0.1635144,-0.6707305,0.6720564,0.3902786
0.7293638,-0.1658012,0.1608314,-0.6638102,0.604091,0.3070958
0.6897201,-0.1445074,0.1184537,-0.683288,0.2745562,0.2663851
0.6762783,-0.1221917,0.1172065,-0.6733927,-0.01337648,0.23144
0.7216175,-0.1415926,0.1315869,-0.5943828,-0.1962912,0.2076331
0.7787875,-0.2176551,0.1662099,-0.4651532,-0.234403,0.109644
0.8124661,-0.2222558,0.1982006,-0.2654045,-0.2612542,-0.06513698
0.8674494,-0.2062414,0.2205382,-0.0919972,-0.2773858,-0.1832879
0.9337125,-0.1518108,0.2561434,-0.0001110748,-0.214171,-0.2401891
0.9932901,-0.05920206,0.2420919,0.03874647,-0.3318277,-0.2138316
1.124539,-0.06790422,0.1365055,-0.008050787,-0.3895706,-0.02235407
1.273513,-0.1466299,0.03673805,0.02625982,-0.1824208,0.213449
1.272593,-0.2269408,0.1000979,0.2480128,0.126762,0.2894702
1.214696,-0.2313116,0.2151569,0.4043932,0.4572388,0.2595403
1.270402,-0.1694073,0.1985102,0.1706442,0.7007035,0.3225967
1.429105,-0.1666732,0.1847599,-0.190966,1.039284,0.3481775
1.568144,-0.2573688,0.1868025,-0.1068004,1.272281,0.2648294
1.40872,-0.39164,0.113189,0.2160679,0.8463589,0.1936718
1.021908,-0.4287966,0.05182974,0.431715,0.2367275,0.04974873
0.8454393,-0.3868709,0.006435858,0.500645,0.1143943,0.03150331
0.8670715,-0.3627179,-0.03004752,0.391357,0.1791143,0.1773506
0.9255738,-0.2533475,-0.09763864,0.3170536,0.1607403,0.1696775
0.9725217,-0.1072255,-0.2120987,0.112772,0.09026748,0.1531174
0.9441711,-0.08981507,-0.2134062,-0.1941512,-0.4401768,0.1445632
0.9749766,-0.2022074,-0.1185406,-0.134251,-1.187812,0.03891824
1.036392,-0.358617,-0.03810583,0.1105877,-1.175302,-0.108779
1.023562,-0.4151847,-0.003856313,0.4158798,-0.6659026,-0.4104523
0.9558592,-0.3323074,-0.02430344,0.6420055,-0.5390294,-0.6624507
0.8214482,-0.2167416,-0.03072933,0.6266292,-0.8249976,-0.6719091
0.7814048,-0.1094725,-0.05296133,0.6852794,-1.180047,-0.5033504
0.8494076,-0.02337701,-0.112799,0.6827417,-1.262295,-0.2217879
0.881743,0.004848338,-0.1180006,0.6144804,-1.128961,-0.04155743
0.9013121,-0.004271421,-0.0935599,0.6467194,-1.111889,0.07624025
0.9187469,-0.02426414,-0.09766467,0.6285641,-0.9903619,0.2496316
0.9568317,-0.03251963,-0.1131688,0.6785887,-0.646468,0.3846867
0.992159,0.02042562,-0.1227602,0.6604554,-0.3915205,0.4458908
0.9816374,0.105235,-0.1097163,0.5121592,-0.3048751,0.4467001
0.9702132,0.1424681,-0.0827036,0.3805058,-0.3717183,0.4593694
0.9715223,0.1350176,-0.07873645,0.225483,-0.4214205,0.4785154
1.006478,0.106459,-0.09034949,0.2186533,-0.3262115,0.4808906
1.058939,0.03653762,-0.09853323,0.226542,-0.1777574,0.4578251
1.064912,-0.0485369,-0.1068435,0.144418,0.0628188,0.342615
1.027093,-0.08760423,-0.1072612,0.1420652,0.1375619,0.1372251
0.9998271,-0.08247231,-0.1116679,0.1484745,-0.1306418,-0.1611668
1.002726,-0.01825629,-0.120979,0.1440689,-0.3003093,-0.3242463
1.033582,0.06263701,-0.1212684,-0.01750216,-0.2206934,-0.2478979
1.150401,0.01795545,-0.1358006,-0.2659402,-0.2558928,-0.3223894
1.292135,-0.0551284,-0.1786526,-0.3652342,-0.5730416,-0.5884763
1.295494,-0.05632984,-0.242602,-0.5575172,-0.7835057,-0.7848645
1.262355,-0.1197421,-0.3071994,-0.7725659,-0.3945852,-0.8262675
1.303102,-0.187393,-0.3800246,-0.7352706,0.4455726,-0.7342207
1.2157,-0.2367114,-0.4371324,-0.6354443,1.218883,-0.6665212
1.017382,-0.3371387,-0.3178828,-0.5118604,1.54956,-0.5601056
0.9665613,-0.3603673,-0.071235,-0.2304459,1.3461,-0.350637
1.068258,-0.3693129,0.004926714,-0.0444059,1.131741,-0.2231627
1.223669,-0.3656757,-0.05982821,-0.1046313,1.135392,-0.1511154
1.291565,-0.2080446,-0.0585989,-0.2770331,0.8798419,-0.1085267
1.197502,-0.07320199,-0.04232488,-0.5629578,0.6588537,0.02231716
1.068031,-0.04290135,-0.06959001,-0.7397174,0.7382168,0.3539423
0.9426747,-0.06445631,-0.0774347,-0.7519725,0.6882406,0.5263066
0.8501511,-0.1047828,-0.04273532,-0.8425193,0.681619,0.5037675
0.8253448,-0.1142294,0.00960808,-0.8295459,0.7524601,0.4920887
0.8043467,-0.1677455,0.06319473,-0.7598153,0.7187292,0.3994295
0.7592216,-0.1792746,0.1060272,-0.7886309,0.6878822,0.2867641
0.6988705,-0.1486544,0.1126999,-0.7555981,0.4916547,0.2227576
0.6708009,-0.185561,0.1144735,-0.7429731,0.1691589,0.2101813
0.679205,-0.1757501,0.1392919,-0.6915588,-0.1527383,0.223322
0.7060437,-0.1746029,0.1471681,-0.5143329,-0.3738831,0.157628
0.7738526,-0.2017906,0.159135,-0.3463568,-0.4102784,0.03854046
0.8427715,-0.1884628,0.2048172,-0.1594904,-0.4754225,-0.1245929
0.8890164,-0.1950255,0.2395209,7.233359e-05,-0.4928837,-0.2637248
0.944169,-0.1375935,0.2516329,0.05732613,-0.4829904,-0.2876608
1.032938,-0.04651723,0.2354714,0.009050097,-0.504628,-0.2173193
1.167371,-0.04559171,0.1432877,-0.08952299,-0.3356061,-0.01792504
1.280885,-0.1106561,0.03947093,-0.09261511,-0.1339569,0.1984789
1.264907,-0.1766092,0.07096656,0.003527648,0.1032616,0.2417392
1.247793,-0.175494,0.2056349,0.09544198,0.5304601,0.2149283
1.380118,-0.1851547,0.277532,0.0219968,0.9442906,0.2711988
1.478498,-0.2675096,0.2262899,-0.0636936,1.197945,0.2719735
1.456936,-0.3783595,0.1287057,0.1641472,1.1917,0.2007478
1.275515,-0.4632508,0.06609114,0.494854,0.8104605,0.165755
0.9264497,-0.4373953,0.01080438,0.6631329,0.1777691,0.05146697
0.8064028,-0.3907591,-0.04486846,0.6513466,-0.1129679,0.03966056
0.9281921,-0.3431143,-0.09599687,0.5804215,0.1754114,0.202124
0.9425451,-0.1843356,-0.2003986,0.4864627,0.2876129,0.2250366
0.9337834,-0.1031566,-0.2273604,0.1688544,-0.1509561,0.145931
0.9811015,-0.2005685,-0.1193533,0.03248031,-0.7801698,-0.01555049
0.9990167,-0.315919,-0.05305626,0.3304067,-1.208676,-0.2322928
1.002963,-0.3843214,-0.02826555,0.574167,-1.068206,-0.4185411
