accx,accy,accz,gyrox,gyroy,gyroz
1.406423,-0.4465672,-0.01997212,0.8708178,0.334024,-0.4809282
1.346074,-0.443768,-0.02528561,0.6818236,0.6134195,-0.4133961
1.303719,-0.3536675,0.01507556,0.6254756,0.4556319,-0.2884782
1.317312,-0.198742,0.05678388,0.5588453,0.7821005,-0.1027995
1.188177,-0.120423,0.02390371,0.03532775,1.072538,0.08882931
1.031113,-0.0996005,0.04152965,-0.1096678,0.8892691,0.2920367
0.8106907,-0.1031956,0.07134364,-0.1326691,0.9384869,0.4255283
0.670779,-0.1218765,0.05716099,-0.3570338,0.9396374,0.4205148
0.6800885,-0.1374023,0.08389472,-0.3823298,0.751077,0.3768342
0.5874894,-0.1492706,0.1089547,-0.2896736,0.6174599,0.3666933
0.5732345,-0.1461996,0.1201544,-0.1323337,0.413515,0.290474
0.6563947,-0.1863694,0.151949,0.03868787,0.3484932,0.1448794
0.6464524,-0.2052028,0.1811024,0.2824881,0.2695726,0.06530986
0.7069939,-0.1587743,0.2038526,0.551792,0.1132311,0.01831586
0.7373548,-0.1078809,0.2192069,0.5262766,0.01038002,-0.01072528
0.6919538,-0.008788845,0.2584007,0.4711492,-0.2613915,0.001620061
0.7273748,0.0809587,0.327467,0.4525242,-0.4990751,-0.01145132
0.7812415,0.09574586,0.3786932,0.3346354,-0.5681305,-0.01738369
0.9364338,0.08373124,0.3781941,0.3362212,-0.5426522,-0.06686154
1.140195,0.03761033,0.3453389,0.3373874,-0.4609381,-0.1810394
1.262206,-0.0792199,0.309161,0.3116011,-0.3563669,-0.2297769
1.37673,-0.168845,0.3040551,0.4574072,-0.07240257,-0.215389
1.397839,-0.03685429,0.4856286,0.7453472,0.1838543,-0.1462143
1.360234,0.2216115,0.6735992,0.8290252,0.3331625,-0.07689857
1.389998,0.2708191,0.4247211,0.2665982,0.4458809,-0.02280886
1.442597,-0.119631,0.02560063,-0.2739452,0.3964049,0.3097933
1.428323,-0.6134027,-0.03792308,0.1327128,0.3632024,0.8550706
1.178282,-0.5790842,0.07061544,0.6573606,0.2355102,0.9084169
0.8699472,-0.3770907,0.1231991,0.5721581,0.07876635,0.332132
0.8654774,-0.3610632,0.08880436,0.5135912,-0.05287988,-0.1805816
0.8849178,-0.09655559,0.02099877,0.3897191,-0.6409099,-0.2660096
0.7782848,0.02975964,0.004218059,0.05777787,-1.136936,-0.09089573
0.8934026,-0.188845,0.002071899,0.08069904,-1.139133,-0.01550076
0.9624264,-0.1968169,0.01270902,0.2124814,-1.003379,-0.1247987
0.7998899,-0.1744116,0.02214287,0.283358,-0.7278012,-0.1251075
0.7415986,-0.2047287,0.006329533,0.4343827,-0.6161828,-0.1279053
0.7268552,-0.152349,0.01723131,0.5404445,-0.5336994,-0.2067253
0.7828719,-0.170406,0.02034151,0.7189716,-0.3187122,-0.1908726
0.9308677,-0.1304801,0.02631075,0.82168,-0.1956891,-0.1825332
0.9696183,-0.0476214,0.04053097,0.8190016,0.03956074,-0.1430002
0.948569,0.02858149,0.02737557,0.715644,0.0636308,-0.06411439
0.8982872,0.1055828,0.03983288,0.2602181,-0.05417398,0.0429043
0.9250421,0.08715311,0.05091578,-0.1224658,0.01896321,0.2394661
0.9738843,0.09066741,0.06390384,-0.1567432,-0.04458875,0.3960725
0.9482856,0.07829795,0.1139609,-0.08059471,-0.03398464,0.5500415
1.003048,0.04436831,0.1634505,-0.05646154,0.04427873,0.6303878
1.016515,0.05414728,0.2023293,-0.1022677,0.01675897,0.5325128
1.035009,-0.007835468,0.1925971,-0.002930449,0.004852914,0.4242421
1.139145,-0.09705473,0.1721592,0.1801181,-0.1520046,0.2615683
1.158007,-0.1526304,0.1797083,0.2887937,-0.2983385,0.04713083
1.123701,-0.07867064,0.1646965,0.3067021,-0.4289262,-0.04394277
1.07955,0.04943,0.1770684,0.3982651,-0.7370091,-0.1088895
1.125115,-0.003975637,0.2067263,0.7512628,-1.06206,-0.3061124
1.169797,-0.1176049,0.1499054,0.7522616,-1.332906,-0.5019228
1.074305,-0.2039855,-0.01640013,0.1077506,-1.393288,-0.5429712
1.068782,-0.2241918,-0.181417,-0.3619819,-0.9718951,-0.552023
1.230575,-0.2265856,-0.1489366,-0.1227757,-0.2259212,-0.6246922
1.461127,-0.3938358,-0.05652788,0.2188568,0.270567,-0.6470917
1.542329,-0.4609461,-0.09650767,0.07887553,0.4634393,-0.519983
1.4474,-0.3342684,-0.04027809,0.06857329,0.7277424,-0.2693785
1.430226,-0.2616183,0.05923502,0.1176048,1.01158,-0.02963776
1.345425,-0.2180182,0.02553418,-0.2219706,1.222312,0.06599664
1.068579,-0.1814978,0.0439381,-0.3158011,1.126302,0.1920341
0.7668027,-0.1289612,0.07337233,-0.345411,0.8072014,0.4389769
0.6219601,-0.0867249,0.07167039,-0.4463732,0.8017532,0.4359341
0.6528805,-0.1307023,0.1067704,-0.3325718,0.75078,0.3039872
0.6101021,-0.143315,0.104697,-0.3745717,0.5407898,0.2863074
0.5881169,-0.1552613,0.1289428,-0.3204737,0.5153824,0.08389476
0.669672,-0.2109565,0.1647343,-0.1499012,0.3686466,-0.1198343
0.6673351,-0.2190863,0.1956063,0.008371894,0.2230122,-0.1796298
0.7047014,-0.1931236,0.2571425,0.312114,0.1342346,-0.2697531
0.7257186,-0.1274322,0.263439,0.3438404,-0.1257481,-0.2228538
0.6802056,-0.03731817,0.2693457,0.2794603,-0.3608324,-0.1437288
0.7293909,0.04781927,0.2816464,0.2335067,-0.5715585,-0.06308055
0.8222093,0.1178581,0.2856214,-0.04210101,-0.6085804,0.1278843
1.030609,0.1197077,0.3101201,-0.1850937,-0.4924638,0.1655539
1.232666,0.0772435,0.2622844,-0.1613446,-0.4309842,-0.02154863
1.243691,0.010164,0.2022347,-0.2533447,-0.1984375,-0.2870669
1.261046,-0.0727878,0.2475066,-0.3451753,-0.02414984,-0.3360855
1.311224,-0.09308789,0.4492095,0.03246367,-0.005124002,-0.1086748
1.343121,0.00928709,0.6684393,0.502084,0.1648563,0.02288274
1.375841,0.07600042,0.5358604,0.2992339,0.2548028,0.06460371
1.485219,-0.2056565,0.1158423,0.1368994,0.2382636,0.2600578
1.605799,-0.6233595,-0.141157,0.3652727,0.4464948,0.6788506
1.329349,-0.6853564,-0.04285498,0.5444839,0.6336707,0.9700967
0.9051704,-0.5268537,0.1338552,0.8240649,0.3090022,0.6472338
0.8531316,-0.3950242,0.07217045,0.7698081,-0.15114,0.06006064
0.839258,-0.1954731,0.004796485,0.3724601,-0.3324078,-0.2186369
0.7264986,-0.0612994,0.0220254,0.254342,-0.7542215,-0.1619916
0.8486227,-0.1405621,-0.04680038,0.08897416,-1.162764,-0.005419635
1.022496,-0.1987298,-0.03711164,0.01865561,-0.958563,0.0106664
0.9947514,-0.1802635,-0.03531869,0.1913653,-0.7793519,-0.0431754
0.8935104,-0.2131635,-0.06559968,0.1802344,-0.7395132,-0.07412069
0.8091705,-0.2125656,-0.0106593,0.3046679,-0.5069904,-0.1332724
0.808743,-0.2081754,-0.04644084,0.5036197,-0.4202051,-0.1525577
0.8827422,-0.2214771,-0.03331691,0.6233155,-0.3117044,-0.1465133
0.9399303,-0.1689476,0.01651324,0.841518,-0.07625575,-0.1302819
1.012356,-0.1415809,-0.01220308,0.845952,0.03885361,-0.0941756
0.9979357,-0.08935988,0.0218668,0.7338762,0.1222439,-0.06460017
0.9235147,0.02123511,0.01867558,0.5613049,0.08403047,0.04656437
0.9617214,0.04428104,0.04492164,0.3415383,0.08900926,0.1943046
0.9527322,0.02920242,0.09314444,0.3261745,0.182548,0.2859307
0.8981019,0.06913363,0.06138685,0.2151418,0.08866305,0.3706963
0.8939078,0.1247365,0.09126921,0.02117184,0.04181137,0.495492
0.8775837,0.1070701,0.1246901,-0.06699175,0.01061527,0.6133488
0.9546679,0.04092079,0.1602322,-0.08166008,-0.07114284,0.5925144
1.060817,-0.003911137,0.1865126,0.01591004,-0.05417835,0.465722
1.116044,-0.05701746,0.1557545,0.1037051,-0.109734,0.2709271
1.171018,-0.05933006,0.1589321,0.2222534,-0.1885439,0.04500025
1.14794,0.01158899,0.150647,0.3126107,-0.281661,-0.04634583
1.131121,0.05210344,0.1658248,0.3863294,-0.5593212,-0.1220651
1.155787,-0.03649038,0.1615734,0.482833,-1.049721,-0.3060609
1.142354,-0.1732527,0.01020249,0.1457729,-1.448079,-0.4998138
1.166508,-0.1639397,-0.1305745,-0.4743906,-1.254969,-0.6241775
1.270544,-0.182674,-0.1097098,-0.6979008,-0.6269223,-0.6837408
1.410159,-0.3236966,-0.03399881,-0.439319,0.09197285,-0.7730146
1.447798,-0.3633495,-0.03067743,-0.2085081,0.5433031,-0.7137754
1.386824,-0.3404563,0.009051151,-0.2753162,0.4774694,-0.4648403
1.394891,-0.2836558,0.06242186,-0.2565779,0.5683309,-0.2870661
1.37093,-0.1883231,0.04422352,-0.2488048,1.031864,-0.1077383
1.158703,-0.1698143,0.07355252,-0.4673727,1.313076,0.07193296
0.8733486,-0.1523741,0.06909181,-0.5880941,1.170145,0.2276935
0.7538659,-0.1050925,0.05159056,-0.7169583,0.8845159,0.3665351
0.7838528,-0.09179354,0.09676356,-0.7873756,0.987316,0.2888809
0.7080723,-0.07907839,0.08723425,-0.6842534,0.9731025,0.2241521
0.6239359,-0.08429511,0.1006583,-0.7409544,0.6311079,0.2327689
0.6438543,-0.1232574,0.1253872,-0.7136212,0.5764939,0.07296958
0.6156548,-0.1446566,0.1401456,-0.5247107,0.4229611,-0.03573113
0.6508893,-0.1490424,0.1956494,-0.382616,0.2652856,-0.08679984
0.7128021,-0.1453396,0.2095002,-0.1770528,0.2960072,-0.1577748
0.6557281,-0.1044106,0.2379513,-0.08315551,0.05109943,-0.09336234
0.6271139,-0.03543277,0.2661905,-0.06561492,-0.208641,-0.0004698399
0.6231825,0.02819316,0.275123,-0.04050192,-0.4678996,0.0626882
0.7278741,0.05076561,0.3192465,-0.1013219,-0.6481105,0.1017459
1.032069,0.02159921,0.3065358,-0.08965223,-0.5643435,0.02880359
1.274245,-0.02935567,0.243235,-0.1252201,-0.4500258,-0.09089712
1.343443,-0.07031991,0.2329552,-0.1571996,-0.1956352,-0.164014
1.383456,-0.02627222,0.4323169,-0.0007539785,0.002659434,-0.1543081
1.486539,0.1339779,0.7028908,0.1187551,0.212375,-0.05172546
1.498483,0.2690604,0.6519283,0.117333,0.5776896,0.05601319
1.453595,0.1852044,0.427446,-0.03016792,0.5536033,0.1528701
1.588013,-0.1265375,0.2321388,-0.07638726,0.3772648,0.4303523
1.579374,-0.4521997,0.06344311,0.3454373,0.3469035,0.7449449
1.182698,-0.542003,0.09389221,0.713612,0.1752143,0.607816
0.8021106,-0.3811131,0.09311714,0.4001528,0.08636461,0.2039749
0.7841529,-0.252287,-0.05290311,-0.08953662,-0.08220601,-0.01981817
0.8446101,-0.1680313,-0.01572024,-0.2075903,-0.6929297,-0.08814056
0.6943089,-0.03182853,0.004212519,-0.2944377,-1.05863,0.03530394
0.7748999,-0.1262545,-0.04928522,-0.1980831,-0.9734486,0.1125403
0.9731206,-0.2822723,0.03049496,0.1985349,-0.8657842,-0.06476922
0.8763433,-0.2233876,0.01210209,0.267345,-0.6459023,-0.1182421
0.8350245,-0.2037503,-0.01473725,0.2838379,-0.5209616,-0.09440117
0.7664229,-0.1833803,0.03109729,0.5256383,-0.5116689,-0.1306467
0.7161847,-0.1359965,-0.003451808,0.7040609,-0.3997091,-0.1288586
0.9118842,-0.1469705,0.02649765,0.8850944,-0.2877807,-0.1585122
0.9643741,-0.0771816,0.04567357,0.9137985,-0.04831845,-0.1348386
0.9367548,-0.0075387,0.01894396,0.7114638,0.02999961,-0.1040485
0.9224938,0.0756557,0.04231686,0.3231541,-0.07918735,-0.04695933
0.8911679,0.1690144,0.03297253,-0.08850596,0.0491641,0.09569695
0.9348309,0.1359234,0.05124043,-0.2281193,0.1025224,0.1979814
0.9149884,0.1270983,0.07917813,-0.2975174,0.06119019,0.3775761
0.9571131,0.1388228,0.1001579,-0.3308373,0.1173754,0.5440967
1.036181,0.07909002,0.1635017,-0.2979209,0.1081545,0.5826091
1.103298,-0.007032835,0.1975214,-0.2447277,0.07848875,0.5551061
1.208555,-0.08658517,0.2174751,0.007419755,0.00654265,0.3480984
1.150004,-0.01813492,0.2041043,0.2087958,-0.1301914,0.03628854
1.124146,0.109159,0.1759012,0.1512928,-0.3337492,-0.2000309
1.224374,0.08001124,0.186957,0.1366684,-0.5939975,-0.2908067
1.276048,-0.06093845,0.1527133,0.3142815,-0.8092526,-0.3506698
1.303191,-0.2101655,0.08452085,0.2695962,-1.142508,-0.4634584
1.281103,-0.2509014,-0.003758624,-0.2845634,-1.392024,-0.5334898
1.280242,-0.2562424,-0.1067535,-0.7520349,-0.9198955,-0.6644014
1.312037,-0.3112142,-0.09583325,-0.5624897,0.0008725649,-0.7996155
1.358415,-0.2807046,-0.03242753,-0.2527127,0.4801346,-0.7103766
1.439319,-0.2866593,-0.0224654,-0.4034114,0.5591764,-0.4663187
1.421443,-0.3176058,0.03405757,-0.453468,0.7258826,-0.2128078
1.380001,-0.2214033,0.0563734,-0.3672672,1.035342,-0.06223097
1.332614,-0.180101,0.0100474,-0.6088738,1.351506,0.005331623
1.062907,-0.1451746,0.0580116,-0.7185136,1.225848,0.190668
0.7373327,-0.08417132,0.07310205,-0.7186155,0.9107139,0.4062663
0.6643322,-0.09638976,0.05550955,-0.7378982,1.000278,0.4031678
0.6978438,-0.08102305,0.1049301,-0.6268395,0.9413707,0.3392637
0.6155362,-0.102326,0.08718642,-0.633105,0.7291477,0.2713761
0.5319095,-0.1388425,0.0943178,-0.5760293,0.6412058,0.0420157
0.5413439,-0.1510552,0.1411275,-0.4175705,0.3457049,-0.1300767
0.5865343,-0.1848131,0.1692667,-0.1390513,0.156763,-0.1596965
0.6405667,-0.156418,0.2376763,0.1492452,0.03291404,-0.1624332
0.6559714,-0.1185559,0.2226076,0.04870252,-0.2193826,-0.1140323
0.6529241,-0.04058885,0.2068894,0.01007877,-0.4097307,-0.06476219
0.6984808,0.05029813,0.2723379,0.07262688,-0.6737036,0.003655612
0.795942,0.037383,0.2958254,0.005027854,-0.7317565,0.0496068
0.9925261,0.02979647,0.3100494,0.03727724,-0.5393954,-0.02511197
1.245887,-0.00750602,0.276126,-0.009414816,-0.309494,-0.163306
1.396123,-0.07973782,0.2235854,-0.02239263,0.001962633,-0.2692912
1.414726,-0.06731458,0.3018241,0.1888226,0.08904308,-0.1763256
1.406696,0.04159531,0.4894181,0.3374154,0.3150246,-0.01863297
1.397468,0.2430089,0.6401554,0.1334495,0.7669102,-0.01261855
1.315301,0.3090377,0.5084881,-0.2747291,0.5524086,0.1369607
1.269043,-0.0355661,0.1665411,-0.2973443,0.235037,0.5061683
1.286343,-0.5465911,-0.01627007,0.1376521,0.4144892,0.7434047
1.154907,-0.6851399,-0.008724805,0.4974618,0.3536488,0.6425368
0.9761002,-0.48749,0.04495985,0.3505496,0.2220138,0.206075
0.8965038,-0.346699,0.05141441,0.08976661,-0.02158096,-0.2645696
0.8016638,-0.2002241,0.00990896,0.131442,-0.8169989,-0.3925544
0.7700851,-0.07090374,0.01757384,-0.002561258,-1.255741,-0.1755861
0.9217297,-0.156043,0.01268467,-0.02118412,-1.147401,-0.02880603
1.04052,-0.2246048,-0.008106405,0.2470414,-0.960483,-0.1054184
0.9344351,-0.1938201,-0.006362994,0.2274885,-0.6559788,-0.09398205
0.8040498,-0.2000053,-0.02116862,0.3764407,-0.5170348,-0.09741356
0.7734063,-0.148953,0.002394031,0.6121116,-0.4075663,-0.1747439
0.7544204,-0.08799015,0.0203561,0.6099661,-0.2376116,-0.1158674
0.8056319,-0.09225009,0.029814,0.7817605,-0.125869,-0.1092639
0.8786672,-0.07660284,0.03729158,0.7985142,0.07096518,-0.1166892
0.8797995,-0.05070433,-0.009159214,0.5727307,0.01804231,-0.01024838
0.8845828,0.01567656,0.00134665,0.3166715,-0.1025436,0.1703117
0.9242347,0.1030332,0.05172561,0.1111049,0.03969606,0.4142247
0.9740175,0.1456146,0.1028227,0.1092151,0.08661112,0.4635239
0.9717651,0.1644762,0.1513188,-0.06726669,0.08546355,0.404677
0.952732,0.1214144,0.1494008,-0.2987458,0.08386198,0.482912
0.9974818,0.06782584,0.16903,-0.2966711,-0.04558548,0.5968053
1.044946,0.01176319,0.1608219,-0.1955115,-0.1270833,0.6794386
1.106842,-0.0706477,0.1442132,0.09884222,-0.1404489,0.5673545
1.165876,-0.05847609,0.1964633,0.3402859,-0.1634428,0.2436116
1.147594,0.02321142,0.1976624,0.3593319,-0.2877142,-0.02590972
1.162138,0.0722192,0.1310897,0.4950261,-0.6465163,-0.151618
1.20572,-0.0493913,0.03974649,0.7541052,-1.012401,-0.1588895
1.15713,-0.2585437,-0.04962458,0.5991683,-1.144534,-0.192364
1.146041,-0.2528043,-0.09567401,-0.03290172,-1.109823,-0.38467
1.311967,-0.2058198,-0.07740059,-0.4787802,-0.6338704,-0.6161792
1.474876,-0.2519726,-0.053411,-0.512198,0.2085358,-0.7654894
1.449013,-0.240228,-0.08217398,-0.4595539,0.4885391,-0.6782857
1.40822,-0.2487979,-0.04149581,-0.6385246,0.4473292,-0.3407038
1.460201,-0.2582224,0.005647399,-0.6979185,0.8463811,-0.07471394
1.387019,-0.229093,-0.002162458,-0.5073637,1.185108,-0.02125501
1.160545,-0.2095105,0.04318586,-0.6456131,1.339518,0.001140498
0.9427363,-0.1652658,0.03589928,-0.7160258,1.324367,0.1972736
0.7729055,-0.1504537,0.02157489,-0.6633487,1.038527,0.3519586
0.6280785,-0.1482666,0.06738722,-0.8134564,1.037416,0.272497
0.5708985,-0.1321569,0.07385243,-0.7088164,0.9663773,0.2554474
0.6202144,-0.1543952,0.09341306,-0.6705039,0.6720051,0.1760571
0.5629762,-0.1606292,0.1221696,-0.7112521,0.5417043,-0.05064984
0.5242987,-0.1603914,0.1403969,-0.4734182,0.2613203,-0.1487331
0.6590435,-0.1682453,0.1664865,-0.231437,0.08622126,-0.2126518
0.6939416,-0.1413352,0.1894115,-0.02773924,0.04644021,-0.2137282
0.7399503,-0.1229231,0.2056821,-0.003175341,-0.1088173,-0.1606833
0.762841,-0.08376904,0.2098407,0.02643439,-0.266718,-0.1304074
0.6806409,-0.003802953,0.2695481,0.1503316,-0.5564262,-0.04871924
0.8075405,0.03238912,0.332514,0.07750695,-0.6759353,-0.05466721
0.9654436,0.02403918,0.3383448,0.07126962,-0.5975451,-0.1196359
1.177231,0.001668357,0.3180847,0.04708867,-0.4119842,-0.1955497
1.414779,-0.02397642,0.239116,-0.08289366,-0.02286889,-0.2686014
1.351276,-0.02486354,0.236297,-0.03182211,0.1148382,-0.2247491
1.340253,0.02885053,0.4091531,0.1287861,0.1888193,-0.1416423
1.409878,0.1775195,0.5489006,0.1837757,0.4842376,-0.05218293
1.406414,0.2597282,0.4122222,-0.2047302,0.6424078,0.05999916
1.495167,-0.06279769,0.09050009,-0.5908781,0.6510136,0.4125592
1.476473,-0.5433122,-0.0582517,-0.147392,0.620386,0.8779064
1.196597,-0.5758138,0.005677525,0.3231834,0.5187554,0.6946738
0.8567562,-0.3990959,0.08390049,0.1027934,0.3175112,0.1396493
0.8083358,-0.3513023,0.1038278,0.01381926,-0.1216259,-0.1363611
0.8711914,-0.1701438,0.0776882,0.05069557,-0.7946578,-0.2561233
0.8072494,-0.06325231,0.02869781,-0.1823424,-1.097483,-0.07674572
0.9527209,-0.2047527,-0.03544093,-0.05935291,-0.9076993,0.09546036
1.029774,-0.2323748,-0.01710504,0.2223245,-0.868066,-0.07191044
0.8424748,-0.1677034,0.01905664,0.2333116,-0.797771,-0.04378211
0.7703653,-0.1446986,-0.01357055,0.3347817,-0.6173283,-0.00799771
0.7446817,-0.1285987,0.01225936,0.4533865,-0.5949157,-0.1134726
0.7862474,-0.1363428,0.01721475,0.5746757,-0.408859,-0.0637281
0.8963292,-0.1159477,-0.005809224,0.6507091,-0.2160611,-0.03686821
0.9430072,-0.07642685,0.02118674,0.5401784,-0.06283022,0.04045896
0.9695941,-0.0213632,0.01413518,0.4668011,0.1186378,0.06602553
0.9156996,0.07108356,0.03137864,0.207187,0.02611662,0.04294782
0.922529,0.1259665,0.06252045,-0.1168669,0.07368189,0.2107979
0.9492251,0.1142806,0.0674741,-0.1690938,0.2122983,0.2718107
0.9048255,0.09821719,0.09972458,-0.2402801,0.06439253,0.3177156
0.9599456,0.1144303,0.120389,-0.3192818,0.01868041,0.4464294
1.001947,0.07272092,0.1350597,-0.3280832,0.05233041,0.4826086
1.090671,-0.05619727,0.1617461,-0.2287984,0.01407669,0.4921734
1.20383,-0.1848017,0.1803836,0.03624346,-0.02913177,0.3441221
1.162301,-0.2027326,0.1639494,0.1873729,-0.1434775,0.09306808
1.142168,-0.02600227,0.1390523,0.1823503,-0.2919178,-0.08158753
1.14595,0.1044954,0.1752244,0.2075351,-0.4926669,-0.1816422
1.201814,-0.02310698,0.1766014,0.3510014,-0.7481342,-0.2651731
1.281489,-0.1752534,0.05083708,0.3445473,-1.090861,-0.4323902
1.169403,-0.2013177,-0.1113869,-0.1412712,-1.323459,-0.5192643
1.095049,-0.2210441,-0.1598404,-0.5935962,-0.9359161,-0.501779
1.246509,-0.2900134,-0.09063424,-0.3799087,-0.1381895,-0.579627
1.392027,-0.3494018,-0.05066396,-0.05260159,0.3830986,-0.6432961
1.374924,-0.3652144,-0.0221644,-0.1940233,0.5529321,-0.5497469
1.340273,-0.3238877,0.02557607,-0.1867553,0.6683637,-0.391967
1.359428,-0.2468044,0.03142899,-0.05022271,0.906381,-0.2370351
1.260838,-0.2081562,0.04544997,-0.2204835,1.250531,-0.06927629
1.016228,-0.1681265,0.04562894,-0.2563694,1.357016,0.08144991
0.755822,-0.1000957,0.03095696,-0.3599482,1.11772,0.27567
0.6617387,-0.08182773,0.05021446,-0.5929166,0.9485742,0.4041949
0.6759461,-0.09773066,0.06180256,-0.6014869,0.8891583,0.3235055
0.5897655,-0.1115369,0.09412066,-0.6231892,0.7090421,0.297111
0.5759418,-0.1465152,0.1274974,-0.5464052,0.5212955,0.2369831
0.6305967,-0.1993035,0.1617882,-0.3966729,0.3748207,-0.009049929
0.6269947,-0.2166944,0.2309147,-0.165636,0.2195605,-0.1328421
0.7161251,-0.1713932,0.2464972,0.1751295,0.1137524,-0.2060142
0.7527904,-0.1044132,0.2487386,0.2289927,-0.005300606,-0.2739006
0.7124007,-0.05083651,0.2890965,0.217981,-0.2012827,-0.1841268
0.7624886,0.009659189,0.3296156,0.1957188,-0.4169572,-0.08897755
0.7855839,0.08145439,0.3563529,0.08395688,-0.6084309,0.02307228
0.8774111,0.06929413,0.3360045,0.06753914,-0.6542944,0.1023791
1.127945,-0.0168735,0.3106445,0.0007886299,-0.465294,-0.01132287
1.312903,-0.06491302,0.2647518,-0.01669589,-0.1862146,-0.1417609
1.326917,-0.1140923,0.2272232,0.08340633,0.03403549,-0.1828031
1.334035,-0.09564565,0.3580901,0.3475289,0.3175314,-0.1657666
1.415955,0.1120609,0.5169,0.5162994,0.6850965,-0.1195324
1.344002,0.2725876,0.4755002,-0.1003692,0.7411547,-0.06267645
1.232416,0.06990912,0.2836256,-0.7193612,0.6499127,0.2117367
1.306934,-0.4039046,0.0538701,-0.2617045,0.8974105,0.6977209
1.285056,-0.6634285,-0.06735449,0.387887,0.9844979,0.8626854
1.10799,-0.5211834,-0.01140427,0.4130709,0.6795647,0.4750498
0.93834,-0.3530044,0.01086099,0.2753551,0.3275223,0.05502654
0.7956304,-0.2754275,-0.03902086,0.09077064,-0.2649884,-0.0135859
0.7407624,-0.1077272,-0.007944674,-0.04758575,-0.835375,0.04469265
0.8043188,-0.07843523,-0.00138761,0.08620148,-0.9326927,0.02720712
0.9879106,-0.2396202,-0.007946755,0.2196015,-0.8277979,-0.0489447
1.075884,-0.2284735,0.04416787,0.4194782,-0.7770159,-0.1057028
0.9397315,-0.1515817,0.03302661,0.4937915,-0.7318849,-0.07867568
0.8247751,-0.1203656,0.02597304,0.3915507,-0.5855528,-0.05599178
0.797359,-0.06004805,0.04186414,0.5854031,-0.5146733,-0.05700391
0.818851,-0.09046596,0.0243456,0.64146,-0.4568238,-0.008763735
0.890393,-0.04959445,0.03515687,0.5349276,-0.1579391,0.05246568
0.9470196,0.01054628,0.03778055,0.5344859,0.04186265,0.08176679
0.9491009,-0.01838212,0.04142798,0.3335563,0.03337007,0.07811443
0.9034182,0.05664895,0.05348187,0.09470505,0.02479417,0.09261005
0.909267,0.07248104,0.05676399,-0.1094751,0.07136419,0.1632682
0.9249507,0.05506173,0.08813283,-0.1644642,0.1260301,0.2511946
0.9205542,0.1058461,0.1050193,-0.09206904,0.08141707,0.3099251
0.9782306,0.1019511,0.1299796,-0.2079186,0.1075635,0.3124489
1.044163,0.08107024,0.1656738,-0.2393077,0.1283265,0.2925973
1.152752,-0.02379956,0.1565841,-0.1764933,0.02102984,0.2725684
1.224222,-0.08787432,0.1504897,-0.1020207,-0.07048384,0.2075652
1.156336,0.05450472,0.147879,0.03996007,-0.2069319,0.09737946
1.153287,0.1534785,0.1357348,0.007337268,-0.3257957,-0.04112182
1.263861,-0.009165905,0.1515761,-0.007174167,-0.5061318,-0.2058712
1.327379,-0.2196556,0.1422724,0.06581327,-0.8050521,-0.3727383
1.217646,-0.1910573,0.01563509,-0.07042629,-1.039545,-0.4824495
1.057008,-0.1642816,-0.1229475,-0.2813339,-1.117575,-0.4657044
1.080835,-0.2734517,-0.0904629,-0.317771,-0.6949142,-0.4422937
1.19734,-0.3565557,-0.01108773,-0.1283144,0.0007785643,-0.5070217
1.29307,-0.4273899,-0.009447592,0.1200106,0.3528515,-0.5103321
1.351075,-0.3658694,0.03315328,0.1555617,0.4995499,-0.4687722
1.364302,-0.2245246,0.06560394,0.03724417,0.6386123,-0.3746899
1.39106,-0.150858,0.0407326,-0.05781372,0.8920548,-0.1414264
1.246119,-0.08615351,0.05916063,-0.20514,1.274648,0.0367919
0.9195768,-0.09860162,0.06562979,-0.3918008,1.368102,0.1937656
0.7459224,-0.1243442,0.0617682,-0.5108688,1.160608,0.3922855
0.6755187,-0.1128343,0.09764388,-0.5541061,1.00268,0.4058978
0.5846629,-0.1234836,0.1190098,-0.5030696,0.8168035,0.3455447
0.5750809,-0.09801387,0.1377324,-0.4676549,0.5568443,0.3068166
0.5934997,-0.1091782,0.1502408,-0.4571774,0.4388708,0.1475025
0.6291958,-0.1531761,0.1729906,-0.3243773,0.3314653,-0.004716994
0.7058893,-0.1653498,0.2153665,-0.1364258,0.1724947,-0.06571238
0.7213143,-0.1674475,0.20676,0.009825802,0.1043122,-0.1097497
0.6865288,-0.1101255,0.2164771,0.08602541,-0.09098125,-0.089644
0.6727672,-0.03746691,0.2920793,0.1257618,-0.4024024,-0.04359383
0.706743,0.01543366,0.3416575,0.1589955,-0.5760468,-0.02522167
0.8440731,0.0530875,0.3653786,0.1295394,-0.6734358,-0.00634791
1.023638,0.06399405,0.3958788,0.08548325,-0.6699226,-0.08305468
1.128841,0.04734226,0.3573927,-0.02289451,-0.4203783,-0.2294482
1.289684,-0.04303118,0.2413201,-0.1286564,-0.0811225,-0.2721133
1.455229,-0.06341198,0.2422163,0.04552441,0.0651039,-0.1778121
1.400233,0.03623676,0.4691152,0.2095122,0.2280651,-0.04355372
1.419337,0.1055957,0.6343854,0.03715416,0.5678875,0.007448695
1.584191,0.06681682,0.3937238,-0.1181482,0.636521,0.1246788
1.559992,-0.2470872,0.1085133,-0.02443302,0.64126,0.4950838
1.371117,-0.5701865,0.2059226,0.2257563,0.8156237,0.766148
1.001128,-0.4647671,0.2066489,0.4471421,0.5562892,0.5146691
0.6925811,-0.2951583,0.01765257,0.2716333,0.1680591,0.07042286
0.7746918,-0.268443,0.03356166,-0.1011199,-0.128287,-0.01042178
0.8667906,-0.1098574,-0.02128543,-0.2275403,-0.7827532,0.07478928
0.8930913,-0.08117963,-0.09755643,-0.3363853,-1.038798,0.0527074
1.01024,-0.2408681,0.01357005,-0.2980944,-0.709253,0.01004214
0.9530586,-0.2250987,0.04507222,-0.008948866,-0.6439673,-0.1003757
0.8008197,-0.1946395,0.05051652,0.04094719,-0.6560954,-0.171091
0.7489146,-0.185078,0.05250761,0.09962849,-0.538351,-0.1463917
0.73014,-0.1255165,0.02836537,0.3399664,-0.5069243,-0.1436239
0.7863965,-0.1666083,0.05520308,0.5038535,-0.4064186,-0.1247197
0.8891341,-0.1354893,0.03032759,0.6480344,-0.1697433,-0.09355941
0.942246,-0.07368028,0.02130524,0.6239952,0.05759888,-0.05220193
0.9456949,-0.03291298,0.01699871,0.4538789,0.1158046,-0.0351282
0.9020526,0.0819091,0.004545293,0.2010883,-0.005857773,0.005360594
0.8982427,0.08143471,0.04779561,-0.05953495,-0.06678324,0.1284548
0.9328057,0.05581228,0.04828385,-0.06420837,-0.01923903,0.2215598
0.9454538,0.06906516,0.08193468,-0.06266885,-0.02104909,0.3318288
0.9985351,0.04971349,0.1438216,-0.1051752,0.001381511,0.4160363
1.051733,0.05126689,0.1590624,-0.08580211,0.05531376,0.414746
1.091628,-0.005294054,0.1712287,-0.07309589,0.03430234,0.4157949
1.144702,-0.1069687,0.1536334,0.1578234,0.01162753,0.3109295
1.173667,-0.1892773,0.1588071,0.4151736,-0.06579336,0.104086
1.161884,-0.09855138,0.1701336,0.4246467,-0.2627625,-0.03568792
1.11811,0.1036668,0.1770369,0.4342885,-0.4890314,-0.09780074
1.181935,0.07761967,0.2095756,0.4766302,-0.7388007,-0.2204554
1.24189,-0.03491577,0.1259626,0.2432062,-0.9953111,-0.4254169
1.124588,-0.09300714,-0.07991396,-0.323743,-1.128432,-0.520526
1.067334,-0.1622129,-0.2190106,-0.719394,-0.9695259,-0.4995805
1.141794,-0.236597,-0.1310277,-0.3746515,-0.4757377,-0.5114045
1.230947,-0.4052395,-0.00695687,0.1775448,0.1420513,-0.5416291
1.275425,-0.4562798,-0.0658768,0.07479861,0.5119926,-0.5203454
1.278224,-0.3121534,-0.04796399,-0.05294467,0.5853017,-0.4153559
1.349944,-0.2359324,0.0267871,0.03266565,0.7716075,-0.2404448
1.376982,-0.1983101,0.002894886,-0.2313873,1.125569,-0.09325012
1.177111,-0.1811548,0.06214008,-0.2847752,1.247503,0.01352212
0.867977,-0.1556423,0.09963882,-0.2335987,1.035398,0.1427392
0.7245645,-0.07368241,0.08683254,-0.4687102,0.8317289,0.1933033
0.7359596,-0.07108774,0.1181665,-0.5674535,0.8177255,0.1738608
0.6774776,-0.07667217,0.09794993,-0.6319798,0.7185449,0.1937501
0.6308475,-0.06843631,0.1217383,-0.5977913,0.5376215,0.1458069
0.6508411,-0.1167536,0.1565116,-0.5049924,0.4305553,0.02743906
0.6460396,-0.1409739,0.1673688,-0.4375869,0.275102,-0.08436816
0.6744383,-0.1532508,0.2263981,-0.1805963,0.187956,-0.1609883
0.6892104,-0.1310799,0.2206328,-0.04415714,0.1020947,-0.1648947
0.6455738,-0.0771105,0.2389806,0.04042576,-0.1920653,-0.1741634
0.6320551,-0.0479858,0.3017562,0.1182976,-0.4869144,-0.12183
0.6881393,0.02794352,0.3139428,0.03504121,-0.6644652,-0.01262201
0.8140741,0.0988837,0.3386478,0.03770414,-0.6952371,-0.02996958
1.058145,0.05228302,0.313339,-0.02161323,-0.5453647,-0.1039656
1.366936,-0.04046882,0.2587666,-0.2234265,-0.2736914,-0.2092718
1.43148,-0.08455862,0.2572456,-0.2716124,0.005097422,-0.2823984
1.383444,-0.09052736,0.3518088,0.1451057,0.2037077,-0.141555
1.538745,0.008955741,0.5504336,0.5538317,0.4623159,-0.01100768
1.549091,0.1368516,0.5724819,0.0002285996,0.6472387,0.003545929
1.514229,-0.04029851,0.2955719,-0.5236847,0.6524124,0.3070541
1.63165,-0.3468957,0.06282585,0.05029025,0.6780106,0.7907721
1.341648,-0.4242992,0.1244274,0.4769805,0.5504594,0.7764496
0.8788302,-0.3937543,0.1781281,0.2831532,0.3549429,0.395103
0.7484738,-0.3325544,0.0102827,0.2184044,0.07659205,0.1675781
0.7654377,-0.2440826,-0.0436161,0.1178911,-0.5888438,0.05248371
0.8492425,-0.169004,0.0005692279,-0.05058732,-0.8946888,0.08032936
0.9220662,-0.1459409,-0.02826628,0.005517797,-0.6980775,0.09631904
0.9711456,-0.2031717,0.02512969,0.1506747,-0.7325079,-0.08650476
0.9423795,-0.195039,0.06304262,0.3213054,-0.7086676,-0.1456991
0.8041517,-0.1468588,0.04200024,0.3457761,-0.5983071,-0.116724
0.7837085,-0.1302439,0.04803218,0.3611272,-0.5905761,-0.08307595
0.7897857,-0.1064342,0.04796901,0.6618058,-0.4455523,-0.01558309
0.8360027,-0.1087982,0.0623716,0.8108294,-0.3313121,-0.05060184
0.950707,-0.05830477,0.04648554,0.7350177,-0.1306671,-0.03436199
0.9333236,0.01088174,0.03167359,0.6184752,0.07922335,-0.01768971
0.9060135,0.05441312,0.0350088,0.3064112,-0.009741585,-0.03664432
0.8990632,0.1094319,0.03150609,0.04279831,-0.02234211,0.06238965
0.90871,0.09293839,0.07922452,-0.08766467,0.03572977,0.1690824
0.9512114,0.09370813,0.1080045,-0.2028574,-0.00321031,0.2949775
0.9271108,0.1288744,0.1224271,-0.2509608,0.01840616,0.3970415
0.9565012,0.1123695,0.1612379,-0.3273238,0.01487486,0.432236
1.045828,0.05561693,0.1840098,-0.3296074,-0.007800712,0.4477611
1.145107,-0.08203446,0.1806558,-0.1664457,-0.02264623,0.3725572
1.21046,-0.1384108,0.1441995,0.01812619,-0.08974941,0.2621945
1.125483,-0.02218218,0.1425318,0.1103972,-0.2069301,0.1091441
1.084135,0.02244172,0.1571904,0.1143762,-0.4517986,-0.01434084
1.217562,-0.1213057,0.155934,0.2799133,-0.7405374,-0.09921966
1.305207,-0.246384,0.1317075,0.4494351,-0.9760222,-0.391616
1.208703,-0.1589944,-0.009681123,0.1334409,-1.167873,-0.6507904
1.128662,-0.09893564,-0.1357226,-0.3046065,-1.060301,-0.5763062
1.228553,-0.2412859,-0.079312,-0.2593387,-0.5410896,-0.4739141
1.312468,-0.37872,-0.004244718,0.04277761,0.100513,-0.5179411
1.30866,-0.4391961,-0.04348073,0.203276,0.515921,-0.4961905
1.325382,-0.3851688,-0.02695007,0.1616168,0.5374057,-0.4258058
1.364941,-0.2383009,0.05580895,0.04523515,0.6321565,-0.3350323
1.418262,-0.1769519,0.04597461,-0.06594201,1.124615,-0.1057586
1.33257,-0.164808,0.04527943,-0.3279614,1.408829,0.1134257
1.001501,-0.1296132,0.0646688,-0.5037861,1.174519,0.2838932
0.7137763,-0.1019558,0.05771566,-0.4124409,0.8945013,0.3855929
0.7239153,-0.1002108,0.08449076,-0.4614835,0.8577004,0.3366591
0.7469909,-0.1121842,0.1032289,-0.4534408,0.7320395,0.3373171
0.5957917,-0.1072915,0.1481949,-0.2420471,0.5153116,0.3047539
0.6102006,-0.1422699,0.1668968,-0.1765553,0.5067511,0.1263498
0.6788382,-0.1668387,0.1582076,-0.05707276,0.4001628,-0.02538837
0.6285928,-0.1449488,0.2252769,0.127391,0.3161289,-0.1267122
0.7199743,-0.1480457,0.2454563,0.2144479,0.3198025,-0.1431804
0.7178759,-0.0989172,0.2492575,0.2602335,-0.01513637,-0.1094779
0.6224303,-0.02030974,0.2892874,0.1656536,-0.3377631,-0.06834429
0.6751408,0.04546769,0.3097919,0.0441243,-0.5664584,0.04238061
0.7376085,0.1095179,0.3605568,-0.02000327,-0.7856902,0.1005677
0.9925822,0.07156715,0.360883,-0.06070964,-0.7136657,0.03376872
1.323325,-0.05561797,0.297212,-0.1189966,-0.4243178,-0.07638776
1.433131,-0.1771622,0.2931631,-0.1498519,-0.01353498,-0.1463359
1.420591,-0.1228029,0.4207599,0.2372796,0.1935615,-0.06611423
1.375521,0.1132301,0.5508337,0.5930976,0.3356039,0.05744132
1.439355,0.1949102,0.3773734,0.09851162,0.6822383,0.0535837
1.467356,-0.07737051,0.0676581,-0.4028493,0.7213962,0.1978129
1.386828,-0.4706449,-0.01513008,-0.07028584,0.7980555,0.6196248
1.170916,-0.5143925,0.03433905,0.2989944,0.9983758,0.852007
0.7966987,-0.3524374,0.06111409,0.3660855,0.5606483,0.6487945
0.8160211,-0.3455653,0.05134582,0.4034309,0.06042384,0.2620196
0.9591098,-0.2268883,0.04023516,0.241469,-0.1913992,0.02334759
0.8573729,-0.0990567,0.01588937,0.1380507,-0.7314589,0.02305862
0.9952532,-0.1328918,-0.03459352,0.09590188,-0.9854198,0.06442786
1.035179,-0.1039982,0.009786147,0.0024893,-0.7229983,-0.01238908
0.8384087,-0.1276956,0.06307596,0.13332,-0.6545466,-0.09023664
0.792275,-0.1448726,0.0298474,0.1261239,-0.6524269,-0.00980376
0.7348269,-0.115682,0.03481986,0.1880183,-0.5004579,0.03147419
0.7428448,-0.1538476,0.04204595,0.4738014,-0.5029193,-0.05615057
0.8370671,-0.094249,0.02925356,0.4349401,-0.444627,-0.07670647
0.912126,-0.03629885,0.03764974,0.3841599,-0.1891252,-0.06067678
0.9813318,-0.02972401,0.03175999,0.283579,-0.004060756,-0.04464735
0.9128509,0.01992435,0.04397958,-0.02154672,0.0558055,-0.03641574
0.8977548,0.04319953,0.06605666,-0.2766483,0.01855239,-0.03481819
0.9419537,0.04700948,0.07017308,-0.4706212,0.07794577,0.02709696
0.9124349,0.01067266,0.08160013,-0.3282674,0.1620443,0.1061344
0.9561814,0.001252218,0.1162917,-0.1841544,0.05761486,0.2090375
0.9678285,0.02005934,0.1578608,-0.2265532,0.03949012,0.2745772
0.9894089,-0.002793694,0.1651902,-0.1542808,0.0741294,0.2843547
1.111749,-0.005634313,0.1768493,-0.1697507,0.03579202,0.3012463
1.183965,-0.05036436,0.1879789,-0.05010933,0.006749622,0.2204107
1.194374,-0.05586516,0.1372698,0.07912531,-0.1231455,0.05377646
1.157906,0.08140731,0.1063718,-0.1890743,-0.2635684,-0.09711132
1.162809,0.1772997,0.1426974,-0.3655833,-0.4297455,-0.1691092
1.228941,0.07063105,0.1575085,-0.1679622,-0.7225735,-0.2476913
1.247338,-0.1549022,0.08506596,-0.07869374,-1.045451,-0.4516712
1.175714,-0.2583051,-0.0586652,-0.5490513,-1.27129,-0.5641443
1.085698,-0.2809344,-0.1378644,-0.9111718,-1.061516,-0.5571401
1.18476,-0.3543844,-0.05269566,-0.4406956,-0.3652236,-0.6261618
1.321016,-0.4217252,0.02189532,0.06632238,0.3313836,-0.6577567
1.296263,-0.4406396,-0.06015446,0.01086339,0.5352825,-0.5458471
1.300402,-0.3472373,-0.09720162,-0.07443214,0.480086,-0.3547597
1.338899,-0.2391081,0.002513355,-0.05862259,0.827358,-0.1751509
1.315407,-0.2091942,0.0590051,-0.2213624,1.226914,-0.0388064
1.128357,-0.1962121,0.05774599,-0.3256024,1.220418,0.1303225
0.8019079,-0.1851988,0.07251697,-0.3136353,1.061945,0.2784576
0.686322,-0.1255169,0.09865666,-0.3992057,0.829651,0.2928934
0.7336727,-0.08690513,0.119552,-0.4336917,0.7441002,0.241349
0.7002908,-0.0894699,0.1207536,-0.4618239,0.7315651,0.1933467
0.6900192,-0.0679318,0.1307949,-0.543422,0.5461834,0.1015577
0.6802594,-0.09983784,0.1464178,-0.5673267,0.4258445,-0.06035289
0.6413275,-0.1421462,0.1796406,-0.495646,0.2401072,-0.2060985
0.6754579,-0.1523111,0.227247,-0.2639966,0.06302652,-0.2584114
0.7063182,-0.135682,0.2270571,-0.09109559,0.03475976,-0.2519366
0.7029014,-0.08210481,0.2390749,-0.021691,-0.14332,-0.2131392
0.7048544,-0.05551271,0.2727288,0.03209854,-0.3370398,-0.1259442
0.7044971,-0.02904673,0.2670268,-0.05266183,-0.5082482,-0.01769175
0.8015196,0.01512819,0.269096,-0.1250074,-0.637603,0.01205513
1.055444,0.04182202,0.26703,-0.1782833,-0.5313175,-0.1001319
1.319709,-0.004388276,0.2204015,-0.3352843,-0.272403,-0.2810456
1.386155,-0.08045317,0.213671,-0.3921334,0.02528519,-0.3664925
1.326766,0.004164618,0.3547488,-0.111697,0.07562949,-0.2111024
1.380292,0.1582256,0.4961026,0.1875369,0.07284892,0.000983364
1.49433,0.1524364,0.3649909,-0.05204197,0.3471805,0.01138544
1.586387,-0.1529137,0.1261736,-0.2856596,0.5555935,0.1072891
1.586341,-0.6318524,0.07950548,0.01328892,0.8001566,0.5143654
1.300388,-0.7205483,0.1468459,0.3685511,0.9623605,0.8081804
0.8949964,-0.4604814,0.1794355,0.6040912,0.5029619,0.5776701
0.7006877,-0.3412656,0.09492384,0.4802358,-0.06148885,0.109923
0.7380653,-0.2281219,-0.02084304,0.1049927,-0.4152632,-0.03384243
0.8285987,-0.1243349,-0.01147246,0.1026654,-0.9181133,0.05330577
0.9050873,-0.1929926,-0.006753803,0.1003457,-1.144776,0.05375445
0.9955365,-0.2248842,-0.01448908,0.1032556,-0.8263576,-0.02354803
0.9561409,-0.2206925,0.03987615,0.3850745,-0.6565268,-0.1459973
0.8724742,-0.2242914,0.03695436,0.3799764,-0.718812,-0.190252
0.8594678,-0.1580299,0.02676064,0.3746637,-0.5790817,-0.1518597
0.7618561,-0.1122439,0.03751024,0.6073531,-0.4871558,-0.1276108
0.7803657,-0.1185654,0.02971474,0.7130674,-0.4640823,-0.1003923
0.9303341,-0.0918213,0.050702,0.7991045,-0.2221896,-0.09516813
0.9561718,-0.01636405,0.05937625,0.7437625,0.06744648,-0.08913467
0.9506656,0.01268,0.05539836,0.5666156,0.2067983,-0.09689017
0.9095822,0.02123786,0.0566544,0.32359,0.1152851,-0.04288303
0.8784181,0.08618725,0.05782904,0.02505176,0.04920074,0.1155112
0.9160229,0.08865109,0.06973608,-0.003401218,0.1326943,0.2400955
0.9167436,0.06105851,0.07722472,-0.01803448,0.09151738,0.3269944
0.9561259,0.09888673,0.1120728,-0.1146453,0.0756054,0.3311682
0.998796,0.09989414,0.1545679,-0.1724795,0.07400815,0.3162329
1.043642,0.05790141,0.171397,-0.2623306,-0.0485702,0.3673955
1.139519,-0.007775315,0.1839665,-0.06929412,-0.09181047,0.3710344
1.165524,-0.07393166,0.1789331,0.2286505,-0.1452626,0.2998243
1.165543,-0.04115637,0.1461913,0.297616,-0.2634259,0.1111784
1.169505,0.04065091,0.1031741,0.2517512,-0.4181999,-0.09909349
1.197795,0.06236516,0.09973274,0.1506486,-0.7184497,-0.2645998
1.247528,-0.058761,0.07672233,0.02111173,-1.09203,-0.4733221
1.201411,-0.2572606,-0.05408809,-0.2929583,-1.271693,-0.5637636
1.17177,-0.2923111,-0.1416633,-0.5146498,-0.9301493,-0.5145894
1.21011,-0.2573441,-0.08233778,-0.2102474,-0.2607066,-0.5220841
1.25606,-0.3432715,-0.02520954,0.07966678,0.2284427,-0.5574488
1.336254,-0.3810308,-0.05009186,-0.03338337,0.470098,-0.509646
1.37129,-0.2991497,-0.03530374,-0.09691856,0.6058126,-0.4077338
1.358889,-0.2041446,0.01995985,-0.08646573,0.8303919,-0.2393446
1.320571,-0.1649201,0.01023685,-0.3086933,1.197143,-0.01272083
1.131191,-0.1918381,0.02660981,-0.413996,1.37406,0.1316898
0.89582,-0.1876768,0.0698597,-0.338866,1.15528,0.2831247
0.8402032,-0.1607933,0.05991919,-0.437285,0.8861741,0.3988154
0.7475334,-0.1442346,0.07619443,-0.476998,0.8253586,0.3135658
0.5660434,-0.1063972,0.09433333,-0.4315548,0.6918831,0.2677871
0.6302512,-0.1107692,0.1025924,-0.440308,0.5319057,0.2189574
0.6808536,-0.1440446,0.1514621,-0.3345192,0.4638321,0.02336149
0.6148438,-0.1693939,0.1920804,-0.1284672,0.2889119,-0.1031941
0.7263667,-0.1875356,0.2293303,0.1353949,0.2147881,-0.1594063
0.7392748,-0.1385906,0.2616229,0.3083763,0.1238161,-0.1614661
0.6737015,-0.06326282,0.273301,0.3233874,-0.1929576,-0.104806
0.7084608,-0.01297642,0.2973957,0.2975895,-0.4104137,-0.04405524
0.6771538,0.04185559,0.3184655,0.1801557,-0.6091539,0.0885806
0.7248647,0.07157886,0.3191924,0.04620422,-0.7366913,0.1396808
0.9171822,0.05021383,0.302916,-0.04640466,-0.5697609,0.01439473
1.236553,0.008292779,0.2568383,-0.2041037,-0.3079722,-0.1316721
1.480576,-0.04409352,0.2148673,-0.2614243,-0.03626835,-0.1938106
1.401622,-0.08059623,0.2938056,0.1717556,0.1125633,-0.08055405
1.391415,-0.02621032,0.5006103,0.618935,0.2323868,0.0448684
1.471589,0.1200168,0.5957754,0.19562,0.5173093,0.03770562
1.44766,0.1648279,0.3895412,-0.2216978,0.6433353,0.2132249
1.501266,-0.1583234,0.09714647,0.200133,0.7841764,0.6383907
1.381698,-0.5577081,0.05492567,0.559281,1.035695,0.8422183
1.005464,-0.4729179,0.1190769,0.6311218,0.6469432,0.5796434
0.7624571,-0.2984609,0.04337597,0.5372752,-0.05215645,0.1845303
0.7758575,-0.3280131,-0.01707869,0.1524677,-0.3987642,0.01977839
0.8519227,-0.1350854,-0.008103263,0.02767918,-0.8542313,0.03190009
0.8691291,-0.07537155,-0.01651374,0.07753862,-1.07989,0.04315637
0.9664944,-0.257636,0.01453543,0.1801125,-0.7610437,-0.04382838
0.9759349,-0.2071057,0.05764101,0.5080202,-0.7216794,-0.1824007
0.8034392,-0.1646534,0.0453715,0.5036946,-0.7414736,-0.2035565
0.7569043,-0.1296872,0.0263022,0.4437466,-0.5167285,-0.1744886
0.7508901,-0.05823415,0.04253942,0.6693266,-0.457294,-0.1753034
0.8098371,-0.09656903,0.045588,0.6888936,-0.2559193,-0.1230339
0.9663677,-0.006788955,0.03470978,0.636646,0.04277664,-0.09008734
0.9495197,0.04694881,0.04031289,0.4824585,0.1154055,-0.1103661
0.9042086,0.05406093,0.02975539,0.1114423,0.1115563,-0.09934309
0.8889814,0.1318551,0.04079892,-0.1690739,0.03877087,-0.0165427
0.8980445,0.06568658,0.07119075,-0.3639706,0.02056108,0.1382716
0.9683766,0.04687944,0.08247911,-0.4194964,0.04297327,0.2974973
0.9464375,0.09097805,0.1121473,-0.3714278,0.04662356,0.3972057
0.9968832,0.05879455,0.1498698,-0.3714851,0.09778557,0.4176549
1.112945,-0.007395196,0.2005444,-0.3124342,0.05878518,0.3911468
1.174561,-0.1602411,0.2503079,-0.1222668,0.01627941,0.3468361
1.227998,-0.2049883,0.2445967,0.1159092,-0.08241465,0.2367823
1.162285,-0.06775122,0.1663049,0.1520371,-0.2679913,0.06636089
1.106342,0.1089257,0.07518832,-0.03998785,-0.4065964,-0.05233529
1.14111,0.18028,0.09648113,-0.176372,-0.7410903,-0.1768101
1.209902,-0.0667546,0.1087233,-0.1997675,-1.114325,-0.4397153
1.297752,-0.3562244,-0.0294469,-0.3021784,-1.222194,-0.5864944
1.222403,-0.3169925,-0.1454465,-0.3586475,-1.053038,-0.5053936
1.130918,-0.2468804,-0.1423467,-0.01806464,-0.4663303,-0.5067659
1.203985,-0.3433311,-0.07958053,0.3120499,0.1932202,-0.5672501
1.256309,-0.3480983,-0.03585111,0.1642908,0.4213142,-0.5332928
1.277688,-0.2984721,-0.03785159,0.004556303,0.4722713,-0.4306529
1.306375,-0.2714749,-0.009563046,-0.03104902,0.7287448,-0.2111727
1.303283,-0.1745423,0.02877285,-0.223295,1.087457,-0.02169366
1.282423,-0.1624446,0.03339555,-0.3076556,1.31071,0.03523532
1.078838,-0.1803022,0.04753247,-0.2971002,1.163327,0.2158074
0.7463476,-0.1150072,0.07712712,-0.4861272,0.8622863,0.3994872
0.6588697,-0.1035539,0.08110592,-0.6281289,0.8657273,0.3142352
0.6885237,-0.09712931,0.06891306,-0.6169601,0.757801,0.2603786
0.5997827,-0.09047477,0.09884307,-0.5975127,0.4982375,0.2625993
0.5896154,-0.1179848,0.1343992,-0.505186,0.4370934,0.08498045
0.630983,-0.1444476,0.1628495,-0.30864,0.2270568,-0.05092634
0.6425029,-0.1888537,0.2127044,-0.02149778,0.1313733,-0.1267293
0.7112479,-0.164311,0.2319635,0.2079142,0.1062261,-0.1855114
0.7204416,-0.09346682,0.2519125,0.2797763,-0.2256327,-0.1249777
0.6950808,-0.03094356,0.290723,0.2807349,-0.4152878,-0.119224
0.7579233,0.06237365,0.3180429,0.1849615,-0.5721277,-0.110492
0.8704009,0.1085322,0.3551759,0.05987139,-0.6931118,-0.05090211
1.072538,0.0914263,0.3506637,-0.08420392,-0.536641,-0.1203171
1.276418,0.03208035,0.268523,-0.3583608,-0.3136265,-0.2418719
1.341175,-0.03557514,0.2186763,-0.456408,-0.02306944,-0.3047526
1.389079,0.002381219,0.3510294,0.04081987,0.1028263,-0.1536966
1.475561,0.0984673,0.496348,0.5067476,0.2633967,0.06025801
1.494517,0.1094761,0.3601406,-0.0218293,0.6173713,0.01982978
1.483003,-0.09295066,0.1338327,-0.5299807,0.5997383,0.1889383
1.453469,-0.4416069,0.04428116,-0.001973533,0.5189138,0.6624583
1.151361,-0.5457476,0.0199461,0.3739792,0.4984344,0.7225631
0.7507126,-0.3883663,0.0168361,0.2617471,0.2791612,0.3617922
0.7755931,-0.28847,-0.01757344,0.2514032,0.0887645,0.03100874
0.9057293,-0.1822191,-0.05010955,0.09251793,-0.4503395,-0.05152219
0.8491239,-0.1010029,-0.04559524,-0.02368148,-0.934633,0.110221
0.972108,-0.2040125,-0.02467151,0.03802337,-0.7688396,0.1604348
1.032093,-0.2522143,0.0382956,0.1388238,-0.7240079,-0.004542512
0.85009,-0.1674781,0.03256313,0.3556832,-0.7168693,-0.1291943
0.778077,-0.1194751,0.005751993,0.3547208,-0.5563171,-0.143048
0.7652455,-0.1071981,0.04022882,0.3422546,-0.5565537,-0.1016937
0.8053471,-0.1108847,0.027256,0.5604963,-0.4116896,-0.0821384
0.8986236,-0.1003285,0.03846461,0.5882117,-0.2447965,-0.04931733
0.9005727,-0.04567628,0.05276553,0.5534899,-0.04283727,0.01348356
0.9245573,0.01214727,0.02797598,0.4892667,0.2006894,0.009548408
0.9255942,0.03866682,0.05025184,0.2341901,0.1191498,0.0240232
0.9126815,0.02742037,0.06164017,0.02652624,0.08668812,0.09029291
0.9595281,0.0310918,0.08232379,-0.08082959,0.2033659,0.1606204
0.9506937,0.06517169,0.1057387,-0.0739881,0.2027435,0.2701562
0.962946,0.0969811,0.1196075,-0.0800405,0.1871043,0.3806839
0.9988906,0.1052099,0.1705466,-0.201778,0.1624702,0.4589316
1.029849,0.03857172,0.1673656,-0.2069245,0.1132916,0.4484685
1.111345,-0.06991124,0.1676744,-0.1241379,0.0434396,0.3274348
1.142542,-0.104247,0.2034421,-0.04097433,-0.1091418,0.1514466
1.111248,-0.01874724,0.1841882,-0.0001862265,-0.3223756,-0.02138027
1.094666,0.06089972,0.1824901,0.01019341,-0.4751465,-0.08407354
1.167203,-0.01654633,0.1791369,0.2095054,-0.6554342,-0.1360468
1.235733,-0.1508867,0.08658781,0.3980662,-0.9847804,-0.2951068
1.154902,-0.2340553,-0.05047072,0.2735931,-1.194051,-0.4539613
1.112617,-0.2852537,-0.1084742,-0.01809424,-1.067347,-0.5829235
1.207379,-0.2999365,-0.02346037,-0.2036114,-0.5704219,-0.6837554
1.283137,-0.3232023,0.03518186,-0.1249806,0.08950872,-0.7492751
1.304592,-0.3125155,-0.005516876,-0.007045307,0.3977933,-0.7312765
1.345299,-0.2463414,5.337e-05,-0.08720113,0.4557977,-0.5533863
1.369013,-0.2128857,0.02833143,-0.1802867,0.7172804,-0.3144073
1.2923,-0.166733,0.0372827,-0.2387776,1.011317,-0.1487846
1.142229,-0.1167814,0.07616579,-0.3752768,1.169149,-0.06833499
0.9521333,-0.105919,0.08122516,-0.5303602,1.165854,0.09611854
0.8185442,-0.09653161,0.06644503,-0.7116963,0.9610814,0.284671
0.7066441,-0.08435537,0.1017458,-0.7866553,0.8414725,0.2396074
0.580971,-0.07369815,0.1196333,-0.6956477,0.7187265,0.194025
0.6428245,-0.09250631,0.1104441,-0.7172429,0.5112427,0.2075184
0.6586899,-0.1018972,0.12402,-0.7085164,0.4465878,0.03575261
0.5858718,-0.115606,0.1494911,-0.5050993,0.3095193,-0.1401697
0.7048513,-0.1636484,0.1923918,-0.2792991,0.1793885,-0.230085
0.7231747,-0.1586558,0.2333573,-0.06154811,0.1144616,-0.2605506
0.6807979,-0.135828,0.2353481,0.04008891,-0.1341069,-0.1960822
0.6991314,-0.08565643,0.249996,0.07872669,-0.4253225,-0.1241698
0.6426555,-0.002398064,0.3012663,0.1057507,-0.6912458,0.007187229
0.7571275,0.03290099,0.3141606,0.04575332,-0.7485743,0.09830357
0.9568388,0.06156238,0.3100349,0.04430541,-0.543311,0.02141856
1.12605,0.03691565,0.3251791,-0.02158268,-0.2997455,-0.06455304
1.290763,-0.02613805,0.2751274,-0.1242214,-0.07252016,-0.1625065
1.312286,-0.02955054,0.2412158,-0.04424354,-0.02365432,-0.1922714
1.351581,-0.002292986,0.3438446,0.03398671,0.1670964,-0.04231483
1.431148,0.1044445,0.4260559,0.02341884,0.5958427,0.04113419
1.474935,0.178218,0.3446941,-0.1353183,0.7159814,0.09380305
1.502219,-0.08078638,0.1842807,-0.2626851,0.7647191,0.43634
1.427661,-0.5003899,0.08444626,0.09335992,0.7940942,0.8145805
1.201363,-0.5882245,0.0539414,0.4803234,0.481589,0.6533154
0.8785352,-0.3987504,0.02228578,0.3357038,0.2207627,0.2239577
0.78051,-0.2859192,-0.00773929,0.2046588,-0.1238077,0.05712302
0.8440856,-0.2181224,-0.01668913,0.2765038,-0.7687997,-0.03093394
0.8290063,-0.1659999,-0.02017292,0.1563688,-0.9384948,0.02482202
0.9586284,-0.2060197,-0.01192929,0.2203174,-0.6696709,0.1345818
1.023173,-0.2206075,0.01338712,0.5010848,-0.6788538,-0.0540153
0.8697595,-0.1659231,0.03069583,0.5406339,-0.6898798,-0.1109988
0.7971204,-0.1133387,0.03910635,0.5606189,-0.5110201,-0.05083882
0.7745222,-0.08875457,0.04825946,0.643067,-0.4632945,-0.09559456
0.8347276,-0.08529392,0.0704865,0.7694435,-0.369403,-0.04192504
0.9528698,-0.05635093,0.09232505,0.8618582,-0.1607591,-0.04044093
0.9643469,0.001254434,0.06641074,0.6828248,0.002227667,-0.02405711
0.9434443,0.04980865,0.0460053,0.4754304,0.1202534,-0.002762092
0.8912763,0.09995233,0.05070694,0.1792068,0.04529269,-0.02284491
0.8680636,0.1117331,0.04860541,-0.1512591,-0.03224605,0.1187401
0.9017176,0.05702885,0.08095455,-0.1561563,0.0348012,0.2728625
0.9021948,0.04366809,0.1109118,-0.1120507,-0.01554842,0.4050886
0.9224164,0.0746872,0.1231917,-0.1314445,-0.0420447,0.4430365
0.9566672,0.07688004,0.1525173,-0.1762265,-0.005269292,0.3924614
1.007252,0.0549028,0.1674924,-0.2461499,-0.05588924,0.4339346
1.074076,-0.02550764,0.157004,-0.1727453,-0.07734034,0.4022897
1.14229,-0.1363242,0.1424297,-0.02155179,-0.09672869,0.3139797
1.19499,-0.1644038,0.1549188,0.1268567,-0.1480087,0.1797879
1.139536,-0.04061871,0.1860587,0.1592186,-0.2990693,0.01952255
1.129362,0.07805789,0.2278179,0.280814,-0.5919503,-0.002786008
1.246045,-0.03020331,0.246387,0.7126626,-0.7938103,-0.05771288
1.290755,-0.1344686,0.1216142,0.749923,-0.9565108,-0.1957322
1.185208,-0.09200582,-0.08807048,0.03175347,-1.166543,-0.3379057
1.071364,-0.1580865,-0.1484398,-0.5927722,-0.979434,-0.4624621
1.170515,-0.2751458,-0.06181305,-0.4560668,-0.2782648,-0.5629684
1.298222,-0.3306004,-0.03484469,-0.214578,0.3367734,-0.6485511
1.265358,-0.3703654,-0.05432439,-0.3580639,0.5630193,-0.5394432
1.293555,-0.3052081,-0.0161817,-0.2655524,0.6394222,-0.2936678
1.3447,-0.2175595,0.02498353,-0.2025574,0.7927887,-0.09970237
1.306331,-0.2061904,0.04876572,-0.4357686,1.072371,-0.003439515
1.138648,-0.174524,0.05853822,-0.3921664,1.259938,0.0004567234
0.8282003,-0.136913,0.06392485,-0.4279011,1.120479,0.1344793
0.6901604,-0.1198045,0.07929138,-0.5382442,0.906075,0.2652199
0.7181384,-0.102086,0.07169441,-0.4924124,0.9057866,0.1950188
0.6617958,-0.08056073,0.08147524,-0.641031,0.8208902,0.1730453
0.6313914,-0.06110853,0.1026406,-0.7096011,0.5933429,0.1063422
0.6548739,-0.1040169,0.1238285,-0.7216813,0.4759887,-0.0564232
0.6860071,-0.1622281,0.1883262,-0.6140844,0.3270387,-0.1165983
0.7474514,-0.1668276,0.2233245,-0.2418161,0.2457985,-0.1953046
0.7396526,-0.1332153,0.2299329,-0.08532519,0.1955479,-0.254067
0.6863113,-0.0664683,0.2703211,0.0337714,-0.08176201,-0.1974394
0.6907442,-0.02404937,0.3113647,0.1405826,-0.3485971,-0.1257127
0.7562886,0.004168403,0.3436141,0.1140834,-0.5582871,-0.0135317
0.9105014,0.04045809,0.3703902,0.1691139,-0.6383733,0.05183
1.089105,0.02843625,0.3629373,0.1034964,-0.4979445,-0.02302744
1.218251,0.01636674,0.2603582,-0.02355323,-0.323222,-0.1279743
1.329279,0.02116724,0.1553727,-0.1897525,-0.1127847,-0.2092361
1.368057,0.008228968,0.2549005,-0.2821897,-0.03742823,-0.1613863
1.43191,0.01979241,0.4303598,0.0312645,0.07375681,0.01644971
1.581912,0.02298891,0.4437645,0.2736492,0.4799028,0.08211738
1.582189,-0.1057766,0.3237753,0.1492673,0.7073751,0.1193887
1.483841,-0.3905994,0.1959271,0.135142,0.721636,0.3711545
1.262541,-0.5699073,0.1550604,0.4718384,0.7252917,0.6207839
0.8361427,-0.4055519,0.1258683,0.687145,0.561717,0.490201
0.746759,-0.2113109,0.06531992,0.3760975,0.2790162,0.1646315
0.9256853,-0.1922733,0.01762045,-0.02625707,-0.1933483,0.08276995
0.8701902,-0.07159062,-0.1066095,-0.1804241,-0.726641,0.09922096
0.8878513,-0.04223585,-0.1224497,-0.235851,-0.8276354,0.07665583
0.9503856,-0.2178986,0.0207176,-0.07918856,-0.6418135,0.04350397
0.8738413,-0.2159234,0.0623995,0.2886025,-0.611749,-0.1589257
0.9046729,-0.188305,0.1207972,0.4048772,-0.6433896,-0.2718862
0.8539326,-0.1845151,0.1108708,0.3340048,-0.5730015,-0.1892456
0.7575739,-0.07552083,0.01307767,0.4861685,-0.5232211,-0.1264083
0.8303321,-0.09670822,0.08344369,0.6828138,-0.4082117,-0.03995672
0.880651,-0.09032807,0.06965687,0.7568521,-0.1379738,0.009872458
0.9238344,-0.002596819,0.007936988,0.685299,0.003485858,-0.002521448
0.9323643,0.01170051,0.0387857,0.4282769,-0.03170485,-0.007686568
0.8963754,0.05333791,0.009999717,0.150766,-0.0136173,0.04926377
0.950592,0.06839591,0.0470756,-0.03898941,0.06344111,0.1479692
0.9643181,0.08690499,0.07277967,-0.08957532,0.0715046,0.2139702
0.9406611,0.1200665,0.07946478,-0.183404,0.06289235,0.3223508
0.9511543,0.1254016,0.1482201,-0.3578167,0.09256973,0.3875023
0.9585658,0.1279572,0.1484222,-0.3496081,0.02410994,0.4104198
1.034041,0.02066192,0.1809817,-0.2070049,-0.0794847,0.4373158
1.176075,-0.1368264,0.2170045,0.09571161,-0.1161238,0.3170637
1.260126,-0.2042912,0.2078613,0.3087989,-0.1376418,0.148942
1.160715,-0.03554096,0.1689448,0.02062767,-0.2388451,0.0173856
1.05725,0.1725193,0.07050071,-0.1957684,-0.5662109,-0.1486734
1.17167,0.02228745,0.08697278,0.1028493,-0.9165204,-0.327101
1.249542,-0.2028951,0.06208377,0.2638758,-1.120779,-0.4329231
1.199472,-0.2936545,-0.07955364,-0.08807401,-1.130427,-0.4602723
1.199772,-0.3031526,-0.06387707,-0.3337377,-0.6192803,-0.4917719
1.195776,-0.228321,-0.01463398,-0.1858521,0.07090178,-0.5208728
1.208572,-0.3105116,-0.02220213,-0.1350635,0.2918,-0.5507509
1.272922,-0.3664084,-0.006237201,-0.2354145,0.3745701,-0.527227
1.30568,-0.261764,-0.001193071,-0.2688729,0.6435381,-0.390829
1.359835,-0.2228221,0.02575874,-0.3703745,0.8203974,-0.1967575
1.381972,-0.1483322,0.03645224,-0.4812349,1.090887,-0.02859524
1.182836,-0.12977,0.0344064,-0.4915538,1.350815,0.07212601
0.8619726,-0.1731143,0.07752153,-0.5869253,1.076982,0.2244448
0.7199815,-0.1252965,0.09435726,-0.7006397,0.8742971,0.2814062
0.7196481,-0.1444898,0.08713655,-0.6900738,0.8973283,0.1875452
0.6564102,-0.1445624,0.09750613,-0.6845436,0.6311602,0.202436
0.6287206,-0.1181295,0.1246545,-0.6394818,0.5019907,0.117269
0.6583007,-0.1711402,0.1737285,-0.4650867,0.400469,-0.07403793
0.6643823,-0.1727261,0.2122933,-0.195339,0.1353466,-0.1517668
0.7068011,-0.1435463,0.2218123,0.0350129,0.07539978,-0.2234949
0.7035126,-0.07856363,0.2189439,0.0377246,-0.09988976,-0.1954814
0.6568236,0.0003547213,0.2405356,0.001148615,-0.445098,-0.1173446
0.6734679,0.02544894,0.2845272,0.04633851,-0.7055635,-0.07220375
0.7344265,0.05982019,0.3100146,0.00292619,-0.8814383,0.03468631
0.9079335,0.05581732,0.3142062,-0.05963709,-0.8445494,0.0217629
1.14667,-0.004091699,0.2818591,-0.09318979,-0.5988757,-0.1117925
1.301047,-0.07558962,0.2114147,-0.13943,-0.2498216,-0.2051001
1.377526,-0.08596332,0.1941504,-0.05719368,-0.007212902,-0.2171219
1.419847,0.02119418,0.3721803,0.2685094,0.2046113,-0.1474274
1.434582,0.1579671,0.5652968,0.46468,0.530673,-0.1345021
1.33886,0.2506346,0.4072318,-0.08663319,0.5699005,-0.1042876
1.242684,0.1416456,0.1813077,-0.720117,0.5491448,0.1838109
0.9134351,0.1047356,0.07588918,-0.509726,0.03865111,0.157166
0.8986852,0.1129641,0.08023951,-0.5998481,0.03438156,0.3141704
0.9171883,0.1228187,0.1153364,-0.668698,0.06704812,0.3294699
0.969203,0.08736143,0.1403407,-0.7702333,0.08898136,0.3534771
1.069776,0.001971709,0.1729886,-0.7496071,0.05779517,0.3926176
1.246336,-0.1150632,0.1955927,-0.4986398,-0.006620356,0.3533957
1.290617,-0.1614147,0.2037951,-0.2167605,-0.06370902,0.2748291
1.223195,0.01955983,0.2026729,-0.06276224,-0.1901587,0.05953649
1.203618,0.1877387,0.169146,-0.2272831,-0.4127067,-0.06229429
1.302984,-0.0002625235,0.1594866,-0.3693374,-0.7912479,-0.1871644
1.376463,-0.221615,0.06034097,-0.3283398,-1.182904,-0.4416101
1.217064,-0.1981179,-0.1236077,-0.6574302,-1.202368,-0.476491
1.079833,-0.2149435,-0.1486241,-0.9636311,-0.860854,-0.4092399
1.1564,-0.3293463,-0.08126938,-0.5595677,-0.2822963,-0.4311712
1.223482,-0.4101359,-0.08081432,-0.1078443,0.2858288,-0.4705885
1.212148,-0.434429,-0.08328557,-0.2267428,0.5249953,-0.5012554
1.244534,-0.338123,-0.03171528,-0.3507014,0.6666298,-0.4485068
1.319349,-0.2370333,0.02556198,-0.2850899,0.8847437,-0.2925019
1.337083,-0.2148604,0.03763837,-0.4116881,1.165963,-0.08357303
1.166591,-0.1802119,0.04912414,-0.463707,1.401825,0.09693909
0.8815377,-0.1469966,0.08621469,-0.4814335,1.244448,0.2466084
0.7843974,-0.1103346,0.0858527,-0.7153687,1.050822,0.3229602
0.738375,-0.08162071,0.0802469,-0.8293148,1.061428,0.2622173
0.6005693,-0.07597596,0.1194974,-0.851451,0.8097076,0.2326704
0.6103681,-0.07829008,0.1309266,-0.8447,0.5941908,0.1700815
0.6043254,-0.1337685,0.1407898,-0.7334448,0.5242668,-0.04430967
0.5607263,-0.1767228,0.1944308,-0.537101,0.2538675,-0.1685269
0.6445763,-0.168676,0.2191601,-0.2324505,0.1320706,-0.1795966
0.6439444,-0.1295249,0.231223,-0.1407624,0.003115341,-0.1603559
0.6222571,-0.05427004,0.2554149,-0.2048641,-0.3776227,-0.08166464
0.6566634,0.01522023,0.2866656,-0.2253693,-0.631354,-0.01946175
0.7405245,0.07853953,0.3309828,-0.322654,-0.7752827,0.04284267
0.9935959,0.08332428,0.3536847,-0.2680291,-0.7554878,0.03457452
1.222348,0.01473338,0.3533107,-0.1823426,-0.5431877,-0.1173962
1.340185,-0.06190302,0.28041,-0.2816285,-0.3157122,-0.2813392
1.415908,-0.09885954,0.2375504,-0.263736,0.007426983,-0.35537
1.475302,-0.02304942,0.4518993,-0.09624978,0.2599693,-0.1642038
1.611264,0.02683311,0.6095203,0.03618958,0.551424,0.1001014
1.679832,-0.1249015,0.2888785,0.02364162,1.050342,0.1824983
1.560181,-0.3811056,-0.04670917,0.04592897,1.182566,0.5443473
1.222409,-0.5211914,0.06279606,0.3433109,0.9407606,0.9632705
0.7616863,-0.4310336,0.1084117,0.5020533,0.6262417,0.653439
0.6762837,-0.3342994,-0.01944717,0.2426653,0.05796059,0.1357864
0.8758364,-0.3206856,0.05816712,-0.004656939,-0.4025649,0.05878644
0.8665101,-0.1927869,0.02328592,-0.04679395,-0.7186487,0.09608018
0.9335697,-0.1379944,-0.07457239,-0.1064752,-1.1008,0.08405985
1.077719,-0.2362105,0.03534701,-0.07124099,-0.9393148,0.003321665
0.9729406,-0.2155501,0.03539594,0.1412063,-0.6730671,-0.1338877
0.8918459,-0.1672155,0.01091645,0.168386,-0.7740671,-0.09926458
0.7768731,-0.1441393,0.04361403,0.1830476,-0.6412369,-0.06037341
0.6456569,-0.08721802,0.0156256,0.3741206,-0.60078,-0.07666914
0.7838449,-0.1142769,0.03812482,0.4086546,-0.5335821,-0.004858597
0.8813751,-0.09910562,0.02841713,0.4398367,-0.1170695,-0.007872311
0.9130899,-0.01299186,0.01984145,0.3677089,0.08163494,-0.01149282
0.950235,0.03441898,0.03245463,0.01092256,0.1494758,0.03287641
0.8579169,0.08776591,0.001846336,-0.2823129,0.05380799,0.06036822
0.8541411,0.07412354,0.02695566,-0.517021,-0.0381103,0.1764857
0.9192097,0.03856054,0.04025607,-0.5231807,0.09393713,0.3097471
0.9728662,0.05592166,0.06324603,-0.3732307,0.04010898,0.4102372
1.026163,0.07858598,0.1222517,-0.4494411,0.08304647,0.4289369
1.016594,0.1184978,0.1361417,-0.495166,0.1001872,0.3511322
1.072273,0.06081263,0.157297,-0.4960148,-0.0635369,0.3067382
1.159321,-0.08274591,0.1668434,-0.3484463,-0.08642841,0.2332569
1.201813,-0.1240175,0.1631161,-0.02526311,-0.2026782,0.1084886
1.189287,-0.03465264,0.1527033,-0.01511717,-0.3100722,-0.008485024
1.142338,0.03805194,0.1303474,-0.04030828,-0.5429553,-0.1758725
1.185967,-0.09678637,0.1142777,-0.01474425,-0.9773209,-0.4231618
1.195918,-0.2529603,-0.001244458,-0.3068292,-1.119556,-0.6475884
1.169088,-0.2118724,-0.1427922,-0.529087,-0.9438506,-0.6805155
1.217145,-0.2016519,-0.1267738,-0.4505847,-0.3875796,-0.6176993
1.263018,-0.2843517,-0.08327352,-0.3538135,0.2708468,-0.6118361
1.334596,-0.3418948,-0.143919,-0.327628,0.5326605,-0.5606996
1.375413,-0.3694288,-0.1396422,-0.2321185,0.6245167,-0.4514037
1.43932,-0.3208305,-0.01290047,-0.1405184,0.8374737,-0.3354758
1.554067,-0.2725405,0.07063787,-0.1853425,1.137977,-0.2106508
1.374925,-0.258852,0.05486245,-0.1969508,1.304194,-0.05785186
1.01609,-0.1708466,0.01960656,-0.3041922,1.203522,0.1826407
0.8321738,-0.08560887,0.04576066,-0.5970524,1.067524,0.3343374
0.7403011,-0.0784913,0.05122766,-0.7801744,1.0981,0.3213563
0.6542006,-0.08233697,0.02865391,-0.8383527,0.9757755,0.3647795
0.5660742,-0.08689123,0.07828592,-0.8083588,0.6847299,0.3416218
0.4851364,-0.1223916,0.1024881,-0.7077621,0.5398655,0.1664778
0.476526,-0.1855585,0.1514429,-0.5094085,0.2990608,0.03469462
0.5258354,-0.2162437,0.2361607,-0.1579391,0.07670513,-0.09091703
0.6035306,-0.1668535,0.2301976,0.04573333,-0.04989674,-0.1431367
0.6573386,-0.08340846,0.2624516,0.06113349,-0.3285832,-0.07712139
0.6995473,-0.0004494727,0.3271578,0.09951669,-0.4819419,-0.06359282
0.8246135,0.06951748,0.3687865,0.09729848,-0.5545664,-0.05356203
0.997734,0.07913399,0.4320409,0.06715552,-0.5525841,-0.08691703
1.155265,0.04265737,0.4396063,0.07293194,-0.3672211,-0.2315986
1.285505,-0.006606359,0.3753431,0.08034625,-0.2526411,-0.2979987
1.395258,-0.0545486,0.3345621,0.1050396,-0.07255123,-0.1995493
1.460592,-0.02186183,0.4606437,0.1124227,0.2762988,-0.04418988
1.474524,0.1106824,0.5579273,-0.007933048,0.6449513,0.04985283
1.543404,0.1438683,0.3068067,-0.1937473,0.8659218,0.2493684
1.565111,-0.1800376,0.04312259,-0.1555618,0.9170468,0.7067132
1.353804,-0.5647897,0.09521871,0.2461562,0.8901107,0.9965266
0.999803,-0.4815963,0.150088,0.5703642,0.583921,0.661524
0.7596019,-0.3259723,0.05108296,0.3090441,0.1291934,0.06025153
0.8138431,-0.3618035,0.003569632,-0.03057587,-0.2833133,-0.1420039
0.8934788,-0.1306219,-0.01281737,0.037263,-0.7717506,-0.08210091
0.8714909,-0.008017423,-0.02259649,-0.02543403,-1.006149,-0.09090922
0.9820483,-0.1892462,0.02424988,-0.1056117,-0.8424438,-0.09934614
0.9839068,-0.1559487,0.01914235,0.08355104,-0.7403565,-0.1331097
0.7989051,-0.1168722,0.02604663,0.04841073,-0.7434851,-0.125168
0.7253302,-0.1434058,0.03867326,0.08051427,-0.6298846,-0.102235
0.7633772,-0.09773749,-0.004012952,0.3360627,-0.5766004,-0.1232985
0.8762815,-0.1213044,0.02719998,0.4164962,-0.446378,-0.07181396
0.936502,-0.0589885,0.03557548,0.5173096,-0.09810805,-0.07148269
0.8898396,0.01248639,0.01614679,0.5023364,0.06479326,-0.07982817
0.8622494,0.0418082,0.04422462,0.2923199,0.0223367,-0.03821456
0.8329629,0.1105761,0.02503151,0.009234361,-0.04521986,0.005379103
0.8573301,0.0824991,0.03286479,-0.3565374,-0.04970996,0.1772408
0.9386091,0.08220285,0.07039704,-0.3729717,0.005869074,0.349244
1.004551,0.1067816,0.09766467,-0.2126521,0.03610366,0.4069008
1.032283,0.08869671,0.1245839,-0.2063982,0.1786926,0.3831162
1.031586,0.08016539,0.1311293,-0.1844593,0.2264415,0.3387863
1.118914,-0.04306384,0.213139,-0.1731626,0.04718688,0.3219718
1.16594,-0.1594203,0.2709047,-0.07899653,-0.1598562,0.1942009
1.119177,-0.08924059,0.1900788,-0.01359445,-0.3478468,0.05766606
1.147263,0.08853043,0.1355854,-0.02640319,-0.4676579,0.01385471
1.166288,0.1644554,0.1628674,0.08844949,-0.7127513,-0.07716576
1.180382,-0.04945882,0.1543797,0.1304085,-1.067437,-0.2452018
1.205285,-0.2990487,0.05279794,-0.002516864,-1.256308,-0.4415942
1.113408,-0.2443945,-0.0684726,-0.1941319,-1.1063,-0.5184436
1.044944,-0.164774,-0.1240208,-0.2610382,-0.4906621,-0.5565671
1.179328,-0.2768792,-0.09435469,-0.218335,0.1517693,-0.6613138
1.350177,-0.2967066,-0.05775052,-0.2502725,0.3999288,-0.5624939
1.347952,-0.2961045,-0.06142312,-0.2017784,0.4422205,-0.3399159
1.343991,-0.3384617,-0.006996534,-0.1218905,0.6502712,-0.2483312
1.420476,-0.2646048,0.06037032,-0.1043685,1.052596,-0.1957107
1.339942,-0.252718,0.06667217,-0.1066518,1.233181,-0.0716044
1.070487,-0.1821907,0.06297516,-0.2921932,1.056159,0.2001031
0.7956288,-0.05602839,0.04753837,-0.5390664,0.8610241,0.4180797
0.7372872,-0.1149704,0.04883686,-0.6400178,0.9174885,0.3834536
0.73158,-0.1207278,0.06200079,-0.5965564,0.8431243,0.3754447
0.5442344,-0.1050077,0.07492037,-0.5430436,0.5455717,0.3840004
0.5236577,-0.1425348,0.102607,-0.5418617,0.4881474,0.2167285
0.5943323,-0.1414647,0.1279664,-0.3905993,0.3409824,0.03556808
0.5380697,-0.1923808,0.1887394,-0.1389851,0.05136597,-0.1111123
0.6297682,-0.1739942,0.2299665,0.05217889,-0.09934626,-0.1699521
0.6843342,-0.1006439,0.2305741,0.1219403,-0.3279133,-0.07818396
0.6850159,-0.04459484,0.2604316,0.0883476,-0.4951548,0.0141916
0.8302262,0.0381991,0.2949879,0.1178972,-0.5465082,0.05248487
0.9496933,0.05258803,0.3466459,0.1291538,-0.4590187,-0.01277419
1.134917,0.0438782,0.3621527,0.1028993,-0.2640486,-0.1791423
1.294907,0.02049304,0.2663345,0.04778021,-0.2034397,-0.2982291
1.341413,-0.02793285,0.2200532,-0.01007782,-0.0552477,-0.2886482
1.493226,-0.01176871,0.3935688,0.291864,0.2276659,-0.1314749
1.614136,-0.006664189,0.5408154,0.5965369,0.6272128,0.02434253
1.595397,-0.09364461,0.3172188,0.3681486,1.013551,0.1622423
1.479805,-0.3386807,0.07689259,0.2024039,0.9851839,0.5863239
1.217189,-0.5854088,0.1361656,0.4634354,0.8103802,0.9735541
0.8613614,-0.4765047,0.1243897,0.5749775,0.5399394,0.6505932
0.7585095,-0.2670776,0.04720726,0.3994068,-0.001105742,0.1156439
0.9331104,-0.2414271,0.04723179,0.302418,-0.4104875,0.01347143
0.9183135,-0.1137296,-0.03601894,0.1721822,-0.7860297,-0.02779015
0.9115893,-0.05308181,-0.009950337,-0.0792823,-1.098806,-0.07826655
0.9995861,-0.1727388,0.07651832,-0.1490027,-0.9342567,-0.0960317
0.8496512,-0.12631,0.0317903,-0.0537712,-0.7864768,-0.217535
0.7509425,-0.1169291,0.05434495,0.005572317,-0.7332146,-0.1390757
0.7365141,-0.1740961,0.0471501,0.1204123,-0.5258522,-0.06219479
0.744974,-0.1264741,0.006707536,0.3171144,-0.5445543,-0.156095
0.8650164,-0.1466591,0.04470041,0.4159244,-0.3881716,-0.1254758
0.9088762,-0.09878791,0.01112409,0.4472707,0.02810554,-0.1079065
0.9504561,-0.02195703,0.008885922,0.3966547,0.1532687,-0.07251528
0.9117864,0.008686658,0.02058053,0.1524121,0.1290688,0.03275524
0.8306481,0.1105627,-0.01101826,-0.1445246,0.02972355,0.1244749
0.9342051,0.07564226,0.01771746,-0.3309491,0.03283751,0.3067469
0.9968887,0.02164326,0.03123501,-0.2817503,0.1171337,0.4367787
1.022557,0.0848558,0.09528842,-0.1875246,0.1191274,0.4590761
1.057804,0.06790766,0.1799987,-0.2166564,0.2209096,0.4181459
1.052401,0.0127531,0.2020131,-0.1203924,0.137107,0.3302811
1.123516,-0.02478346,0.2305839,-0.005994126,-0.03757462,0.2793586
1.156939,-0.01235953,0.1563828,0.04699885,-0.1640817,0.1592066
1.144476,0.05694792,0.06439347,0.0698779,-0.4047257,0.0127692
1.189718,0.04640227,0.09698469,-0.02340585,-0.5550872,-0.08897732
1.223017,-0.1210372,0.0815064,-0.01647822,-0.8823592,-0.3209489
1.170003,-0.3107334,-0.04293455,-0.1445161,-1.261084,-0.594566
1.100038,-0.2963554,-0.11678,-0.4576132,-1.184424,-0.6254006
1.170111,-0.2692985,-0.0603678,-0.4069872,-0.7710145,-0.497429
1.269094,-0.410445,-0.008492599,-0.08171037,-0.1519691,-0.4730454
1.308112,-0.4332633,-0.03509071,0.2075239,0.3480738,-0.4939807
1.360845,-0.3307916,-0.01530045,0.2150263,0.4825003,-0.4509527
1.394773,-0.2454426,0.04375629,0.01328972,0.5497089,-0.3505396
1.446319,-0.1898258,0.04298311,-0.04124549,0.9142945,-0.1695898
1.377825,-0.2306926,0.04910657,-0.1396796,1.300358,0.01092753
1.025798,-0.2147606,0.0787199,-0.2429999,1.123484,0.1763326
0.7128968,-0.1578652,0.0755802,-0.318354,0.8435979,0.3109983
0.7115119,-0.1585475,0.08389855,-0.525867,0.8437994,0.3252855
0.7219979,-0.09324963,0.08983373,-0.5119798,0.6793562,0.340979
0.5689604,-0.0935082,0.09639834,-0.4538677,0.513837,0.3310189
0.5884721,-0.1587409,0.1387733,-0.5000197,0.4523205,0.1314425
0.6729659,-0.1670664,0.1805512,-0.3003612,0.2553196,-0.114225
0.6307323,-0.1799567,0.2201003,-0.04328711,0.1559527,-0.2304042
0.6979487,-0.1318157,0.2248224,0.1726511,0.08279494,-0.210667
0.6904391,-0.07080475,0.2249662,0.313508,-0.133925,-0.1331317
0.6404367,-0.01814983,0.2715428,0.2701889,-0.3446375,-0.02338294
0.70496,0.09842444,0.2995768,0.1763704,-0.5556842,0.1163082
0.6905369,0.1347262,0.3037587,0.00251308,-0.6197392,0.1370553
0.8852267,0.05770881,0.2616995,-0.1368481,-0.5002543,-7.91185e-05
1.281878,-0.07059456,0.1309057,-0.2284152,-0.3114995,-0.2144333
1.485257,-0.2026396,0.04956284,-0.254978,0.00197,-0.3458106
1.520623,-0.1517274,0.2566555,0.2244295,0.336466,-0.196202
1.562611,0.03461903,0.5246809,0.6613627,0.6256442,-0.02326061
1.617564,0.08065281,0.3875875,0.1181737,0.7103097,0.04821819
1.514142,-0.05378059,0.1643584,-0.4004114,0.6400292,0.4506961
1.420376,-0.3419922,0.1417928,0.1502884,0.6588085,0.9274521
1.213632,-0.5819271,0.1083192,0.5257583,0.3955972,0.7593416
0.7896522,-0.4788239,0.1383756,0.2234409,0.05773593,0.2689073
0.8005701,-0.3093635,0.0970314,0.2219619,-0.140624,-0.01078448
0.9553019,-0.2157615,-0.02357002,0.1219706,-0.735311,-0.1652796
0.8668688,-0.06516751,0.0002231911,-0.2718001,-1.009783,-0.09727956
0.9541473,-0.105813,-0.01947404,-0.2745805,-0.7702731,-0.04478149
0.984737,-0.1909293,-0.01664019,-0.2131113,-0.8133818,-0.183136
0.8393356,-0.1294843,0.01056265,-0.2427485,-0.6703587,-0.06109139
0.7579354,-0.1751761,-0.03007351,-0.08077444,-0.5000803,0.004255599
0.7368007,-0.2007115,0.01161462,0.1301876,-0.5592111,-0.1114471
0.8002598,-0.1658811,-0.005357629,0.3343502,-0.3603345,-0.07834501
0.8638847,-0.1707747,-0.02082148,0.5081747,-0.2679532,-0.1494734
0.9133681,-0.05827107,0.01641957,0.4920801,-0.1232608,-0.1563934
0.9317816,0.03613205,-0.009355053,0.2851446,0.1028969,-0.06292438
0.9075649,0.04101084,0.0266579,0.05362465,0.01448317,-0.009088999
0.9790848,0.06513782,0.04372037,-0.1912004,0.1052448,0.1892425
1.021913,0.06743078,0.04320657,-0.3549219,0.2249621,0.2825222
0.9891938,0.09241346,0.09241712,-0.318329,0.1566988,0.2962055
1.006783,0.1069707,0.1398929,-0.3465889,0.1919865,0.3718301
1.037936,0.03622179,0.2054431,-0.3419201,0.1764088,0.3606057
1.102888,-0.09872938,0.1881057,-0.09727091,0.08671207,0.3016397
1.154605,-0.157484,0.1363387,0.08274819,-0.06778664,0.1581169
1.131392,0.03579375,0.1254913,0.0751808,-0.2782671,-0.04414471
1.127978,0.2186471,0.1486966,0.07894138,-0.4931667,-0.2133226
1.14069,0.1139634,0.1852227,0.2774186,-0.7713976,-0.3620564
1.120862,-0.08520756,0.04134145,0.3512365,-1.046111,-0.5218273
1.068025,-0.1901545,-0.1489172,-0.07085443,-1.241212,-0.6108213
1.051398,-0.2082548,-0.1501382,-0.3958935,-1.052516,-0.5618619
1.210752,-0.2825911,-0.0897409,-0.02561389,-0.396308,-0.6194456
1.434929,-0.4522294,-0.07349772,0.3800227,0.2397204,-0.7074697
1.44729,-0.4340064,-0.07650139,0.1703848,0.5124747,-0.569958
1.390354,-0.2802417,-0.01848496,0.04816331,0.5502733,-0.3936875
1.504175,-0.2562927,0.08238384,0.1159449,0.8509988,-0.2645814
1.526784,-0.1923322,0.1090739,-0.1700434,1.239046,-0.09876132
1.253577,-0.1620194,0.07824702,-0.2754389,1.114948,0.120157
0.8910169,-0.2020861,0.06729807,-0.3366782,0.9245424,0.3349717
0.7193203,-0.09979241,0.075778,-0.6003231,0.9359925,0.3859564
0.7166828,-0.1023597,0.07098063,-0.5759907,0.7936841,0.3522919
0.6178376,-0.1426092,0.07904109,-0.6017564,0.6543852,0.3832225
0.5435381,-0.1050038,0.09720514,-0.576313,0.5389158,0.2917515
0.5887995,-0.1705867,0.1093334,-0.2990991,0.3628246,0.07100452
0.5946112,-0.1837557,0.1520775,-0.1270247,0.2683849,-0.02500765
0.6681274,-0.2004112,0.1975577,0.1667122,0.1908284,-0.1024887
0.7119353,-0.2044673,0.2328148,0.4307849,0.07955667,-0.2407357
0.6334925,-0.1113393,0.2601534,0.4596572,-0.1548565,-0.2596977
0.6308362,-0.06000003,0.2630301,0.4228418,-0.4486953,-0.1921708
0.7054973,0.07925608,0.2984154,0.2667254,-0.5642256,-0.1205709
0.8647199,0.2023698,0.3623962,0.1344581,-0.5694557,-0.1153998
1.108153,0.157708,0.355063,0.01525192,-0.4550954,-0.2364457
1.355809,0.05543496,0.2453891,-0.07996566,-0.2344371,-0.3258714
1.469002,-0.02177037,0.2105666,-0.01197277,-0.0791288,-0.2432346
1.381141,0.07327472,0.4619855,0.03954711,0.0867758,-0.04731114
1.35689,0.2368533,0.7184226,0.05389134,0.2728058,0.1529035
1.370543,0.2218202,0.53962,0.02340654,0.3444295,0.4001105
1.30108,-0.1374228,0.2022494,0.05590823,0.332794,0.7214285
1.314364,-0.669218,0.0705265,0.5024423,0.422211,0.8809642
1.243932,-0.7658427,0.01230605,0.9517824,0.5313547,0.6296945
1.022475,-0.4629244,0.04364937,0.7627878,0.3368425,0.1645045
0.8844263,-0.2650198,0.08788546,0.4166545,-0.1299443,-0.03278206
0.8510975,-0.1284329,0.04342782,0.3325639,-0.6681123,0.03527598
0.8917144,-0.02305566,0.07676269,0.106176,-0.9631568,0.1175598
0.962869,-0.09604514,0.03641542,0.03693592,-0.8763245,0.1539512
1.00032,-0.1537885,-0.03509003,0.274071,-0.7669059,0.05615674
0.9211697,-0.1242708,0.01333515,0.3022432,-0.6546282,-0.03873423
0.7459762,-0.1306655,0.00479969,0.4386083,-0.5669719,-0.008224567
0.7113832,-0.1113688,0.01782619,0.6743684,-0.6090033,-0.01558673
0.7847701,-0.0836973,0.02560887,0.7199033,-0.4957002,-0.05291073
0.8593883,-0.07022936,-0.01134432,0.7632738,-0.322285,-0.007606944
0.9828977,-0.02195652,0.01450545,0.6324697,-0.08472169,0.04513111
0.9876411,0.01754044,0.01012443,0.4547157,0.1769913,0.01403406
0.8857773,0.0720828,0.03377076,0.2611592,0.09085245,0.02557852
0.8681124,0.1112064,0.0694809,-0.01959965,0.03788906,0.1192141
0.8924777,0.09390621,0.06584504,-0.0913611,0.1176287,0.2018679
0.9266755,0.1148881,0.09769096,-0.1659896,0.04231177,0.2883795
0.9627387,0.1450007,0.1035788,-0.2504722,0.06352817,0.3729308
1.003513,0.1130857,0.122035,-0.2656279,0.08987297,0.488601
1.094394,0.008669161,0.1635931,-0.2704474,0.04375786,0.5508539
1.186737,-0.163915,0.178261,-0.07067726,0.04761828,0.4202272
1.209238,-0.2126175,0.1773592,0.06616958,-0.08942038,0.1669901
1.134747,-0.01903876,0.1613647,0.03638132,-0.3244151,-0.08666202
1.092569,0.118816,0.1943206,0.08272481,-0.5325598,-0.1483156
1.189491,-0.02161677,0.188302,0.2840579,-0.7662636,-0.135621
1.245184,-0.1962608,0.02802948,0.3886782,-1.061127,-0.3622661
1.154522,-0.2161283,-0.1495906,-0.09919337,-1.276588,-0.6093827
1.089495,-0.2029513,-0.1596962,-0.5980642,-1.094539,-0.6267441
1.190039,-0.2338805,-0.06714753,-0.3738927,-0.5166233,-0.6069603
1.33712,-0.3029141,-0.06158964,-0.1530692,0.1775081,-0.6435344
1.378163,-0.3490613,-0.05908386,-0.2804728,0.6132591,-0.5392004
1.364175,-0.2984438,-0.02632608,-0.1749545,0.6518818,-0.3410954
1.36951,-0.2375808,-0.04123612,-0.156238,0.8320312,-0.2505791
1.356415,-0.2138318,-0.009603144,-0.4276971,1.223917,-0.1335452
1.150945,-0.1988486,0.02225796,-0.4386825,1.255598,0.07853295
0.8267075,-0.1952402,0.0445236,-0.4417726,1.026169,0.2544245
0.74606,-0.157827,0.08660612,-0.5213615,0.9079107,0.3104391
0.7662681,-0.1208015,0.06667711,-0.490843,0.9250729,0.2426937
0.6417743,-0.1092975,0.06735614,-0.5903226,0.8920313,0.2081682
0.5828647,-0.100626,0.0844175,-0.612017,0.7053664,0.1650974
0.6018091,-0.140182,0.09848254,-0.5749546,0.5361368,0.006880836
0.604083,-0.1744715,0.1636202,-0.459294,0.3685458,-0.1158122
0.6432773,-0.1623417,0.1898452,-0.1274417,0.1804687,-0.1936337
0.6474503,-0.1244566,0.192047,0.003414461,0.008235151,-0.230954
0.629702,-0.05039804,0.2226745,0.003946005,-0.2612467,-0.1573298
0.6700791,0.003776671,0.2703745,0.05746383,-0.4826269,-0.05628214
0.7702162,0.02653644,0.3194504,0.1055481,-0.5871936,0.02412349
0.991384,0.0249638,0.3228423,0.2072766,-0.6063782,0.02595227
1.24635,-0.01876596,0.3051932,0.2263587,-0.4449085,-0.1329767
1.360384,-0.04155521,0.2948459,0.03316716,-0.1720285,-0.3678686
1.362979,-0.009350726,0.3107506,-0.141038,0.07935591,-0.437284
1.358871,0.02764689,0.3333595,0.1826397,0.1471427,-0.1745299
1.39345,0.02452503,0.3095556,0.4348786,0.2352198,0.08549696
1.449026,0.02484849,0.2702484,-0.2166086,0.5312976,0.08534189
1.508627,-0.03299497,0.2274268,-0.6897298,0.6312579,0.3651137
1.452816,-0.342829,0.1972198,-0.003123227,0.5771785,0.9560033
1.169296,-0.6558682,0.1856895,0.7816584,0.5265035,1.026545
0.9253033,-0.5593459,0.1561625,0.7431791,0.3909948,0.530043
0.9060382,-0.335775,0.09682384,0.4501396,0.2314042,0.0246827
0.8601437,-0.2462839,0.002839378,0.2786991,-0.3733009,-0.160157
0.7467132,-0.05154386,-0.02341426,0.07904696,-1.092953,0.01446548
0.8206654,0.0223809,0.002594417,0.07862985,-1.085905,0.0649059
0.9794747,-0.1420901,-0.02258552,0.177437,-0.8384068,-0.1135655
1.01347,-0.150485,0.01129625,0.1961456,-0.6989945,-0.1345406
0.9362489,-0.1269508,0.04789014,0.2475823,-0.5835565,-0.09551026
0.7551394,-0.1510374,0.02757526,0.3242506,-0.5638408,-0.08623857
0.7224986,-0.1099966,0.05560178,0.5251935,-0.4605785,-0.07368736
0.8288418,-0.1100111,0.04745569,0.6414409,-0.3648285,-0.08079731
0.8379601,-0.05777375,0.03583979,0.5697176,-0.1856887,-0.03447659
0.9426154,-0.02806741,0.05049019,0.4978361,0.03695707,-0.04469068
0.965053,-0.02429773,0.01611487,0.2579277,-0.02268103,-0.0427529
0.8840908,0.0561351,0.01914345,0.001948542,-0.04071714,0.1018289
0.9719792,0.04997797,0.03261142,-0.06788685,0.046018,0.2545138
0.9796733,0.05136553,0.05224059,-0.07331228,0.04818775,0.3506443
0.9941471,0.09989341,0.1151676,-0.07796814,0.1018956,0.3576488
1.055068,0.1064498,0.1534157,-0.1688001,0.1580142,0.3575526
1.034629,0.07529217,0.1775664,-0.1676597,0.1301964,0.3646131
1.123253,-0.02197718,0.180276,0.009411531,0.03212403,0.2836465
1.164494,-0.04069145,0.1879162,0.1208695,-0.1289396,0.183291
1.124156,0.02081076,0.1961555,0.04264922,-0.3220997,0.06877735
1.137888,0.03939606,0.175497,-0.0271742,-0.4496353,0.004558357
1.155762,-0.01283751,0.2009008,0.2651984,-0.6057723,-0.04270966
1.17337,-0.1380836,0.178987,0.5240224,-0.9566466,-0.2179355
1.089888,-0.2002642,0.01338306,0.2783312,-1.236309,-0.352056
1.02037,-0.1923576,-0.1340318,-0.09570283,-1.155116,-0.3948673
1.142436,-0.231982,-0.08331651,-0.2977864,-0.6001808,-0.5345818
1.313852,-0.3206185,0.002226782,-0.2377724,0.1314603,-0.7371765
1.386888,-0.3567816,-0.07802301,-0.09114344,0.4118116,-0.7072228
1.381587,-0.2919406,-0.07531746,-0.1325695,0.5009997,-0.4311548
1.417148,-0.2498523,0.03883556,-0.12617,0.8023676,-0.2069482
1.42538,-0.2355658,0.06654982,-0.1125569,1.035087,-0.0803632
1.230279,-0.2064871,0.0817116,-0.2714182,1.190532,-0.009342078
0.9385826,-0.1873645,0.06246265,-0.4036727,1.103036,0.15184
0.7826253,-0.1425395,0.06354803,-0.4889894,0.8098525,0.3304725
0.7086888,-0.1124059,0.1010141,-0.5239511,0.8509976,0.2554608
0.6204336,-0.09932189,0.07512914,-0.5464794,0.819863,0.2423907
0.6269794,-0.1035193,0.09575405,-0.6048419,0.5726967,0.2429192
0.6210578,-0.1493463,0.1125975,-0.5089046,0.4887782,0.02791519
0.5912346,-0.174069,0.1390753,-0.2967562,0.2666046,-0.1048184
0.67067,-0.185179,0.215249,-0.07004206,0.07291662,-0.2244688
0.6826125,-0.1370252,0.2091001,0.09048127,-0.02951171,-0.2629457
0.65683,-0.03605341,0.2199235,0.08476129,-0.2997275,-0.1152839
0.6725471,0.005973373,0.2511439,0.08754949,-0.4978207,0.0006352092
0.6961534,0.03254541,0.2724616,0.116317,-0.6365396,0.1103241
0.865853,0.04573303,0.3350943,0.1025162,-0.6105093,0.04623807
1.109113,0.02024965,0.3302743,0.06852786,-0.3724181,-0.1757999
1.298976,-0.002167845,0.2519321,-0.1093944,-0.1701363,-0.2998132
1.383736,-0.02770086,0.222406,-0.2189771,0.01482805,-0.2963204
1.409496,-0.02102468,0.4166229,0.1320391,0.1878121,-0.06680755
1.513308,0.09046679,0.620871,0.4715468,0.4145239,0.1375682
1.563482,0.1705907,0.4117935,0.08989521,0.5564498,0.1683058
1.516662,-0.104338,0.1019546,-0.2672913,0.5478463,0.4045159
1.37711,-0.4846512,0.05507158,0.1172594,0.5284771,0.7720156
1.023393,-0.4589316,0.08599942,0.3896582,0.3471787,0.7904454
0.7265507,-0.3404945,0.08076882,0.3301129,0.1935988,0.4073146
0.7786655,-0.3295554,0.03578367,0.3532771,-0.01842049,0.06788897
0.8983562,-0.1471602,-0.01531303,0.2231362,-0.5566662,0.01741601
0.8822961,-0.06093457,-0.01927544,0.05607271,-0.897087,0.101318
0.9657568,-0.1819157,-0.004221569,0.02797916,-0.9337461,0.1015318
1.021589,-0.1892948,0.03368807,0.06602505,-0.8736137,-0.0434052
0.8957847,-0.1510127,0.03821398,0.1416141,-0.7076593,-0.1352264
0.8169952,-0.1564766,0.01003905,0.1347912,-0.6743072,-0.1393046
0.7506907,-0.149646,0.01876164,0.247375,-0.6344332,-0.1352929
0.7764691,-0.1507042,0.003984292,0.4861354,-0.4630653,-0.1158979
0.9242037,-0.1126414,0.003202296,0.6107727,-0.3181793,-0.0912212
0.9529841,-0.05867103,0.02050318,0.6386059,-0.04851896,-0.01809489
0.9325547,-0.02306655,-0.005590523,0.4896151,0.1625216,-0.01963764
0.8737538,0.02126729,-6.243656e-05,0.2240148,0.08328461,-0.03237226
0.8466612,0.03389082,0.02292399,0.005607541,0.00528319,0.1233611
0.9334508,0.02899134,0.05853233,-0.06878623,0.04006161,0.2802803
0.985777,0.0674984,0.1120438,-0.01403009,0.09000264,0.3331961
1.043614,0.1285385,0.1377452,-0.07872351,0.1630562,0.2749762
1.060359,0.1297966,0.1735122,-0.1831071,0.1979269,0.2487956
1.065913,0.0509801,0.1842224,-0.1951763,0.08933426,0.3103461
1.147342,-0.03731298,0.1721443,-0.1328301,-0.06216217,0.2810659
1.161054,-0.06585298,0.1776865,0.01305012,-0.1832399,0.2093954
1.142523,-0.03774312,0.1639217,0.0489419,-0.3415972,0.09294986
1.136948,-0.06324441,0.1558302,0.2186174,-0.5751692,-0.02643273
1.170909,-0.1851444,0.1358065,0.660694,-0.9664851,-0.1194796
1.222639,-0.2836869,0.07770545,0.7142014,-1.290898,-0.3359285
1.208209,-0.2571751,-0.005778395,0.1548072,-1.214281,-0.4894863
1.267832,-0.1992937,-0.09605322,-0.3482857,-0.6681515,-0.5431546
1.346684,-0.2463203,-0.0868489,-0.1679372,0.1188612,-0.6184251
1.316676,-0.3132294,-0.0359087,0.0967739,0.4727378,-0.5684931
1.297046,-0.354432,-0.05347001,-0.06219894,0.4728183,-0.4360148
1.314503,-0.3643538,-0.0211918,0.05488507,0.7019681,-0.3081042
1.288467,-0.2896895,0.03400813,0.1687961,0.9244215,-0.2313709
1.191829,-0.2471865,0.03389893,-0.023945,1.095821,-0.1900024
1.077618,-0.2143888,0.04830774,-0.039842,1.18502,0.06468921
0.9525583,-0.1731771,0.03018862,-0.2501216,0.9658985,0.3482486
0.7969653,-0.1830817,0.02377697,-0.4126975,0.8604463,0.3282202
0.7074847,-0.1411049,0.07155672,-0.2719772,0.80092,0.2767551
0.6784066,-0.131834,0.08555527,-0.3328161,0.5307303,0.3132657
0.5931561,-0.1268426,0.1098472,-0.3240063,0.3756809,0.2025823
0.5769941,-0.08446561,0.1268766,-0.2477506,0.2667013,0.005887786
0.6715642,-0.1474293,0.1501322,-0.1990306,0.1087237,-0.1424714
0.6795058,-0.1551021,0.1967822,-0.02404996,-0.0067569,-0.207261
0.7004208,-0.0961987,0.1780256,0.00794331,-0.1240887,-0.1552086
0.7390667,-0.05604286,0.1915552,-0.0175473,-0.2627208,-0.07599281
0.6954187,-0.003855637,0.2368123,-0.04196877,-0.4579325,-0.006157419
0.7388924,-0.01836616,0.2522942,-0.1090728,-0.5393861,0.0484558
0.8314408,0.001242137,0.2911224,-0.09750338,-0.4587146,-0.01573219
0.9977303,0.03021944,0.2916704,-0.109489,-0.2936988,-0.1676609
1.21751,-0.03042336,0.2566481,-0.1783193,-0.01308238,-0.3119025
1.279718,-0.09340505,0.2465664,-0.1748671,0.1406234,-0.3484305
1.318897,-0.1131511,0.3174061,0.1352422,0.2198218,-0.2115987
1.358284,0.0007190014,0.4738091,0.4201031,0.4817944,-0.1082088
1.377242,0.1118924,0.5188071,0.03692377,0.6604564,-0.06463965
1.49355,-0.02260638,0.3441936,-0.324399,0.6752545,0.2215906
1.537218,-0.33863,0.1258783,0.09104381,0.7275397,0.6595864
1.303535,-0.568379,0.04675177,0.4162837,0.6913103,0.768219
0.913547,-0.4370973,0.02769401,0.2081681,0.5596761,0.4124579
0.7323094,-0.2111089,0.01664255,0.0805399,0.2863624,0.06469935
0.75542,-0.2221608,0.04139694,-0.07116927,-0.4236076,0.04675294
0.8124468,-0.1826111,-0.01289495,-0.2766907,-0.9847924,0.09431751
0.9812565,-0.1261327,-0.03981854,-0.1654637,-0.8641607,0.02810583
1.062572,-0.2058309,0.03037789,0.0149907,-0.7289289,-0.08965386
0.9575562,-0.1566211,0.0418721,0.1563539,-0.7382592,-0.2086339
0.8560326,-0.1119891,0.04258003,0.1995415,-0.6403383,-0.2223585
0.7922183,-0.1322971,0.03865704,0.1639927,-0.6146847,-0.1552717
0.8036578,-0.0826426,0.03155143,0.3774783,-0.5156912,-0.1440477
0.86161,-0.1083073,0.04898209,0.4983294,-0.3095373,-0.1072624
0.9016617,-0.07568098,0.02678587,0.4133249,-0.1371413,-0.009312419
0.9140173,-0.004408723,0.02914091,0.3622936,-0.009676675,-0.009949941
0.8937779,-0.007202536,0.02614327,0.1475976,-0.05066684,-0.02495321
0.8999015,0.0369974,0.0180857,-0.03709733,-0.09272997,0.07061313
0.9096148,0.01792591,0.05115554,-0.06580467,-0.02692281,0.2094412
0.9130589,0.01831601,0.04679804,-0.08686769,0.01656142,0.3501874
0.9438922,0.06952274,0.07705105,-0.05964848,0.1000665,0.3830227
0.991124,0.05973092,0.1303893,-0.08003634,0.1777143,0.2896988
1.086559,0.06335374,0.1512046,-0.06325486,0.1954281,0.211551
1.171526,-0.008599968,0.2047903,0.06867775,0.1547485,0.1763191
1.18213,-0.04818489,0.2395945,0.1434884,-0.02893287,0.09660496
1.185999,0.05665242,0.1992026,0.04119951,-0.2328543,-0.04234424
1.215798,0.1188059,0.1399321,-0.09211599,-0.3864653,-0.0853722
1.274113,0.03866369,0.1600911,0.05406659,-0.5743903,-0.08390073
1.31472,-0.1598112,0.1508842,0.1765008,-0.8317365,-0.2453229
1.225485,-0.278917,0.005165539,0.03925383,-1.121821,-0.443606
1.091372,-0.2620254,-0.07881762,-0.000489921,-1.052697,-0.507736
1.105111,-0.2496878,-0.02862516,0.02933772,-0.4978769,-0.5225049
1.20084,-0.2893157,0.02294708,0.06404764,0.06795254,-0.5640134
1.264913,-0.3237808,0.003604292,0.1269639,0.3944632,-0.5387206
1.317487,-0.2663973,0.005846614,0.03472563,0.5071107,-0.3959378
1.342049,-0.2016048,0.06940308,-0.1089299,0.631954,-0.1871948
1.337114,-0.1609241,0.07305975,-0.2281817,0.9383952,-0.007220576
1.193863,-0.1491265,0.06332745,-0.4215177,1.212081,0.05173417
0.887109,-0.1774613,0.05276769,-0.5552672,1.227654,0.1708986
0.7358923,-0.138759,0.03726363,-0.5322482,1.02667,0.3479596
0.7334309,-0.1268384,0.09036291,-0.4855832,0.9082937,0.3320321
0.6510716,-0.1331189,0.1104899,-0.4702181,0.7977917,0.3104443
0.6120397,-0.1083445,0.1116722,-0.4517088,0.6123081,0.3122592
0.632246,-0.1540958,0.1427345,-0.4047687,0.5431757,0.1658798
0.6313514,-0.1742444,0.1743935,-0.2253405,0.3639119,0.04095208
0.6861525,-0.1728968,0.2091322,0.01524226,0.2048485,-0.03099222
0.7264302,-0.1574698,0.2083962,0.1403214,0.1233302,-0.05047884
0.6883653,-0.07637325,0.2411627,0.1852003,-0.2043216,-0.006079361
0.6819439,-0.0135425,0.3058892,0.2035188,-0.5037553,-0.004972859
0.7658586,0.04182909,0.3524739,0.2187048,-0.6241138,0.00237156
0.9554401,0.04167063,0.3758087,0.2570378,-0.5611555,-0.06605897
1.194448,0.006089407,0.3382615,0.2574304,-0.3641906,-0.2387682
1.303564,0.01487948,0.2806395,0.1093169,-0.2085732,-0.318375
1.305369,-0.003515089,0.2506387,-0.003775082,0.006853079,-0.2945429
1.38715,0.00120118,0.4521501,0.2910799,0.2326366,-0.1521445
1.48799,0.02542827,0.6560559,0.5205611,0.5054112,0.02629968
1.526423,-0.0503956,0.2785982,0.03230272,0.749215,0.1031088
1.537503,-0.3106339,-0.09730009,-0.3617202,0.8107817,0.4376323
1.324263,-0.5925395,0.09768293,0.1108201,0.8540183,0.9405093
0.9359464,-0.4880492,0.1768209,0.4908378,0.6441344,0.80201
0.8247573,-0.2747208,0.01598249,0.2321781,0.190964,0.2544612
0.8892758,-0.2803901,0.03328483,0.1447019,-0.1994301,0.008149373
0.8446049,-0.1091515,-0.01154646,0.1685929,-0.6680729,-0.05479891
0.8663713,-0.001902997,-0.08572517,-0.05381088,-0.923961,-0.01647479
0.9277233,-0.1851306,0.03821912,-0.02462022,-0.7603571,-0.04938075
0.9247978,-0.1769355,0.0838643,0.1137035,-0.7114477,-0.1991598
0.8761076,-0.1245728,0.065284,0.1052255,-0.7056197,-0.1274936
0.7428628,-0.1505247,0.09110948,0.2224834,-0.5294546,-0.09180841
0.7225498,-0.1073511,0.07078387,0.3656788,-0.546469,-0.09254531
0.8271476,-0.1199258,0.07369568,0.4889962,-0.504013,-0.02032247
0.9068944,-0.05442079,0.04712185,0.5046966,-0.225984,-0.07934203
0.988382,0.0229383,0.02490045,0.3194884,-0.04969146,-0.03279942
0.9528187,0.02693765,0.05053289,0.1202807,0.03649913,-0.00794721
0.888248,0.07340503,0.03398201,-0.1704339,-0.01380291,-0.006078978
0.9167923,0.05095546,0.05025947,-0.3899803,-0.03194578,0.1827992
0.9160216,0.04739003,0.06919898,-0.3782121,0.05875188,0.2940078
0.9617317,0.06028188,0.09159678,-0.3239239,0.0358537,0.4008971
1.027288,0.02911793,0.1512585,-0.1962935,0.09602861,0.4421781
1.062636,0.0304917,0.1634434,-0.1037404,0.1539349,0.323939
1.153636,-0.04489429,0.187649,-0.03553529,0.1148465,0.2475594
1.180043,-0.09180376,0.2089767,0.08071305,0.0453769,0.1442232
1.129545,-0.02556598,0.1395264,0.04519268,-0.1955015,0.03323606
1.123244,0.01555493,0.06746031,-0.0005779369,-0.4610965,-0.07325594
1.167559,-0.02913821,0.1026565,0.01702325,-0.7774618,-0.1995806
1.206235,-0.2010828,0.1208986,-0.03966871,-1.110824,-0.3925834
1.175151,-0.3458573,-0.01082687,-0.179993,-1.175104,-0.640454
1.152371,-0.2877209,-0.09787011,-0.3016529,-0.9187219,-0.6473368
1.196579,-0.2138263,-0.04733808,-0.096824,-0.3249094,-0.560982
1.240946,-0.3235374,-0.01590169,0.157957,0.2112771,-0.5663927
1.274404,-0.3926507,-0.03405086,-0.01036348,0.3588795,-0.4917524
1.303432,-0.3147442,-0.007521258,-0.1296347,0.4687858,-0.4318322
1.353136,-0.2645196,0.0477104,-0.02123,0.7365819,-0.3381286
1.412093,-0.1833596,0.03021918,-0.1233775,1.065185,-0.117164
1.341019,-0.1555823,0.02033932,-0.3034302,1.281562,0.07930482
1.073933,-0.1954695,0.05034499,-0.4401443,1.163057,0.2879437
0.7768998,-0.1325119,0.04333276,-0.5765966,0.9797976,0.3872769
0.6789005,-0.1472603,0.06095482,-0.5416774,0.9478589,0.3010604
0.6670159,-0.1838119,0.09655943,-0.4550047,0.6932035,0.3257775
0.5565436,-0.1424976,0.1232268,-0.375101,0.4566267,0.3182591
0.5557007,-0.1768908,0.141489,-0.2554956,0.4710588,0.1305898
0.6224333,-0.1929566,0.1499548,-0.06172965,0.3033048,0.002557903
0.5991762,-0.1866439,0.1983348,0.2812928,0.1764922,-0.1109506
0.6700185,-0.1669027,0.2274535,0.3988247,0.09441835,-0.1498229
0.6886791,-0.06110644,0.244274,0.3155242,-0.2403922,-0.08794508
0.6357173,0.0354769,0.3062119,0.332739,-0.5034005,-0.08314597
0.7327035,0.09837765,0.3722372,0.239559,-0.6407606,-0.01505112
0.8672747,0.1027614,0.4197153,0.1751653,-0.6269551,-0.01674647
1.102322,0.04956828,0.3909854,0.1691822,-0.4205015,-0.165249
1.321836,-0.01797858,0.3006434,0.05251834,-0.2298736,-0.2212483
1.353777,-0.1083659,0.2681267,0.09522956,-0.02092928,-0.1737918
1.4521,-0.08761289,0.4162151,0.2635008,0.3908547,-0.06394953
1.567049,0.07679813,0.5604887,0.3109005,0.8632061,0.024688
1.599759,0.128336,0.3012576,0.06426217,0.8935012,0.1669095
1.564921,-0.1639008,0.03009754,-0.1746683,0.8223872,0.5176698
1.298501,-0.4991193,0.1858598,0.248145,0.9253643,0.7884332
0.9017764,-0.4014278,0.2317975,0.6541644,0.5996865,0.5917162
0.7274572,-0.2592192,0.04505678,0.2904321,0.1301453,0.1283083
0.8131172,-0.2973817,0.004202548,0.009573193,-0.3205157,0.01884329
0.8672437,-0.09630047,-0.004920976,0.03822448,-0.8579942,0.119818
0.9343338,-0.01605834,-0.03205798,-0.1859368,-0.8938761,0.04357387
1.02432,-0.1625733,0.01853261,-0.2672719,-0.70103,-0.04415329
0.9011099,-0.1015856,0.07606946,-0.1396823,-0.6927405,-0.1773209
0.7958629,-0.1053255,0.09387145,-0.2132615,-0.631303,-0.1947199
0.7843779,-0.1521514,0.05938444,-0.1455314,-0.5636064,-0.08515911
0.7449004,-0.1087587,0.04556426,0.1010368,-0.5366483,-0.1154114
0.8149093,-0.1483231,0.06068581,0.2477672,-0.442614,-0.05248224
0.893832,-0.09704362,0.04093213,0.3170154,-0.2171958,-0.01197522
0.9012398,-0.03554221,0.03253336,0.2147885,0.01150303,-0.06026383
0.8772409,-0.02212229,0.02352829,0.04810447,0.02682912,-0.007354422
0.8543194,0.02005005,0.01239345,-0.1460963,-0.05672919,0.0345234
0.9201392,-0.01872211,0.03190197,-0.2777973,-0.0187371,0.1851663
0.9802906,-0.00593987,0.0594152,-0.1341646,0.04797632,0.3357407
1.003489,0.05321499,0.1051014,-0.08039367,0.08400468,0.3081773
1.052526,0.0784453,0.1409143,-0.101566,0.2000285,0.2243619
1.107017,0.05372779,0.1505794,-0.01158874,0.234274,0.1151988
1.15983,-0.08010226,0.1880588,0.04310776,0.1064303,0.09825961
1.177984,-0.1173565,0.2336713,0.1644909,-0.09562382,0.07882062
1.141519,0.02911767,0.188476,0.06302287,-0.3430438,-0.02916132
1.106905,0.1413831,0.1223122,-0.09868527,-0.565622,-0.06628488
1.159749,-0.02355042,0.1336315,0.2072913,-0.9120727,-0.185703
1.209864,-0.2764845,0.02980896,0.3277,-1.29775,-0.4692328
1.157342,-0.2605496,-0.1504314,-0.1366865,-1.322188,-0.630239
1.150048,-0.2307486,-0.1409691,-0.4551225,-0.840383,-0.5865863
1.230015,-0.3116856,-0.06560711,-0.06293533,-0.08632664,-0.5863977
1.287203,-0.3300466,-0.04767546,0.345767,0.3490451,-0.6282392
1.281338,-0.3323963,-0.01475101,0.06848077,0.4182562,-0.5376512
1.278178,-0.2727971,0.0186913,-0.08010597,0.5802944,-0.4103367
1.327347,-0.2022044,0.06141239,0.01448627,0.8711817,-0.2517436
1.290515,-0.1812066,0.0899218,-0.2215757,1.242681,-0.076534
1.088774,-0.1436405,0.06147046,-0.3200714,1.458078,0.01329714
0.8278534,-0.1047413,0.05450062,-0.3751203,1.199522,0.1364878
0.706872,-0.05584092,0.06601042,-0.6040256,0.9371977,0.2121633
0.7438968,-0.06255978,0.0584061,-0.6302234,0.9113717,0.193992
0.6787394,-0.09035341,0.09739611,-0.5821866,0.6774595,0.2213344
0.5880074,-0.09794463,0.1519072,-0.5034345,0.4905556,0.1692183
0.6220661,-0.161927,0.1805793,-0.3366146,0.4975619,0.04818748
0.6278167,-0.1776815,0.206128,-0.0852707,0.3221577,-0.07815978
0.647482,-0.1564851,0.2129967,0.2329848,0.2450975,-0.2207619
0.6890386,-0.1566123,0.2314835,0.3490861,0.1814016,-0.2214706
0.6657847,-0.1043127,0.2571038,0.3643342,-0.1835553,-0.139074
0.6555696,-0.01689379,0.2769489,0.3480438,-0.4980659,-0.0445022
0.6945951,0.0823847,0.3261039,0.2308442,-0.6783512,0.06959078
0.8495961,0.1190226,0.3625442,0.1816545,-0.6451771,0.04092264
1.126795,0.06648587,0.3651111,0.0681444,-0.3792379,-0.07271503
1.320005,0.00288173,0.3393669,-0.1447106,-0.1955498,-0.1391718
1.33722,-0.04748805,0.3206588,-0.1859648,-0.08879304,-0.1463527
1.346574,-0.02176993,0.4045843,0.01244078,0.04105397,-0.04382512
1.396773,0.1127182,0.5059081,0.137142,0.3115867,0.0646943
1.38981,0.2067492,0.4521711,-0.1218008,0.5534895,0.1177161
1.414528,0.00783021,0.2563054,-0.301093,0.5193218,0.3321428
1.433883,-0.4152305,0.06156675,0.05460744,0.577233,0.7207753
1.26782,-0.6041234,0.0314009,0.4430273,0.7103331,0.838335
1.007454,-0.4289481,0.08480013,0.3909567,0.531744,0.4909257
0.8363602,-0.24134,0.0196176,0.1329468,0.1915918,0.0989433
0.7865988,-0.2024696,-0.01238454,-0.06146388,-0.2443261,-0.06954751
0.8031966,-0.1471958,0.03951115,-0.141823,-0.8075389,-0.08412752
0.9050459,-0.1232771,0.0135599,-0.06013446,-0.9920846,-0.04824791
1.014321,-0.193238,0.02653812,0.1010057,-0.7251393,-0.1177402
0.9651119,-0.1780537,0.05771974,0.264685,-0.6345374,-0.1863276
0.8545498,-0.1484552,0.03203293,0.3453035,-0.6266782,-0.1411686
0.7840672,-0.1444262,0.05287262,0.3897735,-0.4802152,-0.1193452
0.7674193,-0.0922327,0.05134884,0.6128616,-0.4651406,-0.07039924
0.8614613,-0.08303672,0.04651856,0.7176612,-0.3736701,0.01548009
0.9392449,-0.0431986,0.06495416,0.6280138,-0.1126726,0.03687115
0.9149607,0.007471944,0.04220168,0.5461616,-0.0005056686,0.02721646
0.8945427,0.01186299,0.04461919,0.248975,-0.0415053,0.04236239
0.8992571,0.04163353,0.04927922,0.01692894,-0.05792036,0.1518384
0.9131832,0.03984571,0.06027668,0.01265618,-0.008247724,0.3199073
0.9372743,0.07962977,0.1102299,-0.06477289,0.00770791,0.4135252
0.9412559,0.1380042,0.1485549,-0.1394681,0.04288172,0.3815566
0.9676621,0.1065855,0.1812881,-0.2555879,0.09617561,0.3230657
1.062593,0.05257861,0.1852611,-0.3271291,0.01916882,0.3231957
1.16721,-0.04982455,0.1755738,-0.2436021,-0.06391245,0.3055688
1.212805,-0.1051257,0.176784,-0.1332328,-0.1238446,0.2655438
1.201523,-0.004164274,0.1697007,0.03733435,-0.262951,0.1849307
1.20285,0.08462976,0.1835052,0.07103799,-0.4298947,0.04718383
1.226436,0.0358274,0.1782702,0.05101726,-0.6789418,-0.07865393
1.203965,-0.07614397,0.07594665,0.09639393,-1.015026,-0.2846366
1.156853,-0.1420745,-0.105066,-0.2023169,-1.206577,-0.447035
1.131924,-0.1623603,-0.1870679,-0.48689,-1.024617,-0.3858487
1.156273,-0.242928,-0.07819566,-0.2618557,-0.5208346,-0.3695062
1.224507,-0.4071194,-0.007883064,-0.06495098,0.03799233,-0.4589174
1.233058,-0.4193505,-0.05580139,-0.1631154,0.3665991,-0.4612304
1.21443,-0.305846,-0.04247537,-0.1972715,0.4061059,-0.4356229
1.251252,-0.3008878,0.009298776,-0.2063828,0.5680887,-0.3561132
1.302165,-0.2355176,0.01807429,-0.2982154,0.9584574,-0.1652747
1.298408,-0.1723061,0.0381619,-0.2688955,1.237526,-0.01738153
1.062593,-0.2100845,0.06818214,-0.2551909,1.284116,0.09947754
0.7499751,-0.1394095,0.08782315,-0.3775154,1.090051,0.2269756
0.7319609,-0.1057908,0.09579336,-0.4587758,0.9344208,0.2461502
0.7416206,-0.1178601,0.08956604,-0.5135705,0.8399323,0.2187778
0.6125224,-0.08722576,0.1117077,-0.4859501,0.6069957,0.2213517
0.6391074,-0.1240101,0.1463733,-0.3921968,0.4918011,0.1576967
0.6795385,-0.1504915,0.1827345,-0.2792531,0.3719731,0.01535927
0.6588428,-0.1858192,0.2287202,-0.0143255,0.2364771,-0.1057397
0.7245946,-0.1831854,0.2324195,0.1945811,0.2004894,-0.1542192
0.6882319,-0.08289759,0.2353112,0.2511186,-0.05999506,-0.1530829
0.624435,-0.02251384,0.2689079,0.2806177,-0.3172399,-0.1294515
0.6836409,0.03241738,0.3048318,0.2344626,-0.4536077,-0.1008568
0.7736701,0.08422027,0.3570369,0.1641499,-0.5762934,-0.08340071
0.9646913,0.09501117,0.3827528,0.05211992,-0.4822881,-0.1404543
1.158621,0.0525937,0.3551238,-0.07167028,-0.3045046,-0.2662886
1.293314,-0.04481218,0.2898506,-0.08056916,-0.1665539,-0.2692059
1.408582,-0.07583528,0.2685325,0.02579088,-0.10427,-0.08524298
1.394181,-0.04599912,0.4319097,0.2272839,0.07199346,0.08548474
1.42885,0.05743541,0.576437,0.2595662,0.48124,0.1026238
1.541306,0.1220716,0.3697782,0.02320419,0.5926956,0.1977522
1.528315,-0.1615293,0.1163914,-0.06587175,0.6368203,0.5770461
1.350717,-0.4829281,0.1694711,0.2591062,0.8525594,0.8290715
0.9880365,-0.3979726,0.1773337,0.5745888,0.5404153,0.5901335
0.76659,-0.2536274,0.03833409,0.3283447,0.05802241,0.2082104
0.8179389,-0.2467974,0.007649651,0.008814412,-0.2130307,0.09293215
0.8368115,-0.1015464,-0.02641197,0.003724241,-0.6866458,0.1306153
0.895686,-0.0473221,-0.04786963,-0.1459601,-0.8722958,0.1070151
0.9816417,-0.1803813,0.01441502,-0.1587459,-0.6883046,0.02406358
0.9156088,-0.1721443,0.06583853,0.04985651,-0.7072158,-0.1430303
0.8264297,-0.146148,0.1032535,0.0335147,-0.7077659,-0.2372944
0.7744864,-0.1475636,0.06882983,0.1151624,-0.6277888,-0.1464461
0.7578301,-0.1276381,0.04181924,0.2950964,-0.6252441,-0.1084373
0.8343537,-0.1607048,0.05330821,0.3987165,-0.5099218,-0.1040932
0.9352636,-0.1050145,0.02559613,0.5192877,-0.2341403,-0.02496198
0.9352671,-0.04348766,0.04212844,0.4598466,-0.002295557,0.02317477
0.8888571,-0.003326376,0.04471827,0.3205024,-0.05141011,0.01314185
0.9043599,0.06101937,0.03670445,0.09992395,-0.1432233,0.03282843
0.9388883,0.04119666,0.06710509,-0.1651077,-0.01155457,0.1595328
0.9780676,0.0486719,0.07365666,-0.1898724,0.03490764,0.2714516
0.9932959,0.06933188,0.1128659,-0.1939011,0.03913411,0.2862888
1.005734,0.06372489,0.1439033,-0.2126711,0.1575145,0.2720492
1.092671,0.03692427,0.1499606,-0.158909,0.1626755,0.2346427
1.144288,-0.07979918,0.1826851,-0.06622193,0.1440244,0.1931206
1.14978,-0.1201747,0.1922499,0.1480502,0.06509646,0.142897
1.153104,-0.02633112,0.1720053,0.2002453,-0.1687227,0.05062224
1.130863,0.08259381,0.1390112,0.04129092,-0.3512547,-0.05214139
1.152903,0.07436425,0.1581529,-0.01538441,-0.5808147,-0.1170365
1.146554,-0.1169777,0.1512075,0.05778412,-0.9240016,-0.2583046
1.049036,-0.2873153,-0.02601083,0.08621157,-1.226657,-0.4892911
0.9994845,-0.2804442,-0.1750563,-0.09847915,-1.16606,-0.5368651
1.124181,-0.2419177,-0.1165566,-0.2438989,-0.5338679,-0.5447588
1.319185,-0.3412078,-0.03745316,-0.0651471,0.1789582,-0.6957692
1.328324,-0.4049367,-0.06791979,0.1513208,0.5076259,-0.677734
1.284699,-0.3282065,-0.02027888,0.176021,0.5599011,-0.520919
1.378365,-0.2870649,0.08428481,0.1584829,0.7306111,-0.3781989
1.410058,-0.244585,0.07291626,0.1218667,1.053067,-0.209779
1.282348,-0.1817644,0.07510775,-0.03159859,1.178772,-0.1197197
1.005927,-0.110651,0.09086618,-0.2277893,1.119479,0.05717143
0.7523728,-0.0373017,0.07669186,-0.426182,1.022149,0.3038943
0.7427874,-0.07979864,0.1039993,-0.5407929,0.9623507,0.2794723
0.7260544,-0.09033597,0.109451,-0.4956092,0.8121666,0.2296661
0.6118261,-0.05894445,0.1230043,-0.4869289,0.5578929,0.2655064
0.6216574,-0.1080739,0.137576,-0.4715403,0.4571223,0.1190703
0.6282407,-0.1289925,0.1510411,-0.2997673,0.3004054,-0.02728717
0.6093067,-0.1492791,0.2105442,-0.08637909,0.1490604,-0.1045778
0.6813211,-0.1356745,0.2207428,0.08385299,0.08130543,-0.1698456
0.6816288,-0.05422582,0.2350098,0.1284225,-0.2164935,-0.1032364
0.6537931,-0.01272796,0.2871979,0.1024318,-0.4939881,-0.03652361
0.708134,0.03817482,0.3199964,0.09461899,-0.6708298,0.00992037
0.8127879,0.07658583,0.3703723,0.05413163,-0.726853,0.04038509
1.059247,0.05598486,0.3852429,0.02965811,-0.5086736,-0.0712304
1.271207,0.009419019,0.3382957,-0.07295799,-0.2868236,-0.178739
1.312308,-0.0712276,0.2970593,-0.1713946,-0.1120969,-0.1990037
1.37627,-0.09504524,0.3205497,0.105737,0.04665101,-0.0857402
1.442491,-0.0198596,0.4251316,0.3923274,0.3454798,0.06967955
1.469216,0.03810983,0.473623,0.1813984,0.7359696,0.0495102
1.491638,-0.0493408,0.2843207,-0.02859364,0.731919,0.2206054
1.452444,-0.324896,0.05216483,0.0923965,0.6867061,0.6404404
1.246705,-0.5603227,0.09083279,0.1766036,0.7858616,0.7071
0.9025148,-0.4432014,0.1109624,0.2318179,0.500364,0.4114748
0.7746576,-0.2284879,-0.02561707,0.2475252,0.04102415,0.1418177
0.8485702,-0.2558222,-0.006925513,0.1050396,-0.3562019,0.06660138
0.855389,-0.2039593,0.0002477445,0.06132864,-0.7281628,0.1229564
0.9468819,-0.1143399,-0.02120275,0.06590482,-0.8185419,0.08970826
1.013432,-0.208314,0.09733913,0.1282664,-0.7329415,-0.04245863
0.879441,-0.139813,0.1026265,0.2815198,-0.6976114,-0.129818
0.7791686,-0.06467259,0.0617732,0.2270325,-0.643014,-0.1265383
0.7618181,-0.1126675,0.07961101,0.2507817,-0.5590563,-0.07749931
0.7969423,-0.06897212,0.06893558,0.4728023,-0.4604027,-0.07797087
0.8653951,-0.09556368,0.09883279,0.572036,-0.2698059,-0.08156795
0.8957017,-0.07064829,0.07732967,0.5787271,-0.02544447,-0.04571071
0.9243036,0.02513006,0.0489373,0.4084936,0.0171269,-0.03521133
0.9131437,0.04398126,0.07185276,0.08344494,-0.09730898,-0.004609838
0.9009987,0.08698221,0.04977628,-0.2178789,-0.1140999,0.05518666
0.928863,0.06642935,0.0637985,-0.4161666,-0.1059737,0.1524145
0.9219738,0.06439978,0.08178334,-0.4052072,-0.09835378,0.2800187
0.9427183,0.08697887,0.0892281,-0.3671467,-0.04489185,0.2963408
1.010617,0.03899835,0.1239021,-0.3769908,0.02985124,0.2283071
1.113183,0.01297725,0.1236284,-0.2812159,0.09713855,0.1629755
1.20731,-0.08255104,0.1372072,-0.1071709,0.02223649,0.1288582
1.192847,-0.1155127,0.154197,0.006784643,-0.1350142,0.09672375
1.146201,0.02860377,0.1492085,-0.09893991,-0.2896438,-0.001256055
1.128558,0.1018095,0.1609031,-0.1673345,-0.4830911,-0.02508947
1.171696,-0.02322056,0.1617757,0.1253474,-0.6576091,-0.0386031
1.218852,-0.1896989,0.09228773,0.3487615,-0.9325663,-0.2219769
1.090707,-0.1829604,-0.06349173,0.1504495,-1.238996,-0.3740739
0.9931457,-0.1963203,-0.1459277,-0.03983078,-1.092001,-0.3957396
1.153486,-0.3191185,-0.07572467,0.03053872,-0.4556886,-0.4702035
1.299249,-0.3583763,-0.02178043,0.0910433,0.201953,-0.640485
1.254195,-0.3712814,-0.01807295,0.1547229,0.4849565,-0.6598201
1.239788,-0.2963186,0.03903391,0.2502175,0.452812,-0.4682229
1.340499,-0.1608262,0.07228185,0.1069459,0.6054125,-0.2728423
1.349221,-0.111332,0.0419436,-0.1128548,0.9609619,-0.08278756
1.16194,-0.08438744,0.07179804,-0.2350027,1.167366,0.04408543
0.8882933,-0.1069592,0.09842982,-0.4479701,1.183747,0.1481465
0.7699596,-0.1093625,0.0808017,-0.6329674,1.020831,0.2957795
0.7969156,-0.08535952,0.101909,-0.6700171,0.8893823,0.2514993
0.7008618,-0.1054334,0.1017162,-0.6888872,0.8240453,0.1794077
0.6407986,-0.07097493,0.1002154,-0.6948163,0.6494975,0.1759607
0.6924813,-0.0701357,0.1273571,-0.6226152,0.5170682,0.04268956
0.6453192,-0.1174457,0.1584841,-0.4310822,0.3831422,-0.03825668
0.6845403,-0.1317515,0.2153198,-0.1728333,0.2669147,-0.07639655
0.7625279,-0.1267192,0.2296237,-0.01830631,0.1717224,-0.1084018
0.691326,-0.06662873,0.2353236,-0.02388798,-0.1068629,-0.02324471
0.6697149,-0.02343676,0.2840742,-0.03227162,-0.4126308,0.05131297
0.7009821,0.006250492,0.3188485,-0.0003004063,-0.6307011,0.1042066
0.7903397,0.05859887,0.3522157,-0.01242144,-0.645074,0.05727693
1.010265,0.07065585,0.3635704,-0.02169671,-0.4944827,-0.1095316
1.173256,0.02785949,0.3373923,-0.0781669,-0.3832596,-0.2475333
1.234087,-0.07268935,0.2933852,-0.1133972,-0.2503139,-0.3218752
1.317007,-0.109633,0.2670202,0.1379345,-0.1882038,-0.1342364
1.485597,-0.07027333,0.3286373,0.3966635,0.1182576,0.1189371
1.672314,-0.09148762,0.3752323,0.2899416,0.7458742,0.1255155
1.675706,-0.1863884,0.286349,0.1925375,0.9464664,0.2860307
1.439972,-0.325314,0.2044466,0.3257409,0.9003738,0.5367264
1.079899,-0.3591106,0.2163916,0.320247,0.8345519,0.4304776
0.7611533,-0.2475867,0.1182102,0.1764657,0.3429111,0.2351801
0.7102972,-0.1450671,-0.07899638,-0.06998613,-0.2158958,0.1694701
0.862147,-0.1007443,-0.09447748,-0.4672747,-0.5998109,0.1763548
0.9487419,-0.1617001,-0.01976072,-0.5039684,-0.7760714,0.2340578
0.9972868,-0.2701036,-0.004493779,-0.1871059,-0.6158262,0.1250471
0.9703326,-0.2836846,0.05677135,0.0665594,-0.6254984,-0.09396902
0.8378144,-0.2187595,0.06899428,0.2686356,-0.7130817,-0.2352606
0.8127882,-0.1373011,0.01673198,0.2746291,-0.5990253,-0.3007531
0.8258398,-0.1008765,0.03956196,0.2731724,-0.6204098,-0.16109
0.8525475,-0.09473521,0.05414977,0.4949208,-0.5234361,-0.0001128777
0.945354,-0.07257587,0.05596713,0.6026861,-0.2793686,0.01331916
0.9420413,-0.05553354,0.06741681,0.6016397,-0.1601429,0.05753765
0.9082922,0.0002356383,0.02684785,0.4855299,-0.1162749,0.05174509
0.906076,0.05405098,0.01555986,0.1406393,-0.2164381,0.04874454
0.9286125,0.03906796,0.02952737,-0.1295306,-0.2142007,0.1585296
0.9855668,0.03943254,0.03719086,-0.2077816,-0.1114618,0.2703502
0.9705478,0.05753557,0.07714516,-0.2269117,-0.07108374,0.3770709
0.9652823,0.07119417,0.1080451,-0.280333,0.04280337,0.3957143
1.010108,0.07594423,0.1371582,-0.3413539,0.08495326,0.32979
1.062541,0.003585436,0.1507275,-0.3113895,0.1089797,0.2504996
1.155615,-0.1106353,0.1325011,-0.1568391,0.110556,0.1702709
1.184323,-0.1351509,0.122624,0.09520677,0.01218198,0.1690565
1.133937,0.01017329,0.1114298,0.1710293,-0.04683043,0.1226239
1.122922,0.1230988,0.1483216,0.05759982,-0.2406371,-0.01810518
1.207915,-0.03210183,0.2362274,0.1166869,-0.488617,-0.09901642
1.268787,-0.1784667,0.2340599,0.3412874,-0.6720941,-0.2042232
1.126522,-0.09888688,0.03233953,0.4068069,-0.9324718,-0.3998685
0.9675179,-0.06673543,-0.2054915,-0.1023945,-1.044863,-0.4855945
1.024849,-0.1518109,-0.1697367,-0.676998,-0.7293817,-0.4459387
1.170924,-0.2864385,-0.01155271,-0.2835662,-0.08961047,-0.486438
1.254575,-0.4848056,0.003671619,0.2598557,0.3961438,-0.5667159
1.246102,-0.471936,0.00710736,0.133842,0.5293612,-0.581102
1.225796,-0.2930648,0.03416124,0.07202402,0.5499224,-0.5046097
1.324663,-0.2229837,0.05530702,-0.02388154,0.6746916,-0.29475
1.384593,-0.1163955,0.07625888,-0.306193,1.014156,-0.1126429
1.197965,-0.1129107,0.04800366,-0.3799621,1.240706,0.009701043
0.9199635,-0.2063876,0.0742258,-0.4943003,1.105555,0.1716721
0.7722812,-0.1281861,0.105308,-0.5524418,0.9485925,0.2276542
0.7666317,-0.1419531,0.08342661,-0.5085146,0.9078358,0.2036967
0.7258477,-0.1644197,0.1118103,-0.5587653,0.7624155,0.2127852
0.6392589,-0.1044653,0.1282067,-0.4970224,0.5681594,0.1608555
0.6688704,-0.1818741,0.1668691,-0.3677142,0.4407799,0.04874025
0.7040489,-0.1807716,0.2233267,-0.1396354,0.2618936,-0.03971542
0.7147633,-0.1424279,0.2074515,0.05841882,0.1674511,-0.088852
0.7498741,-0.1185944,0.2128693,0.04573719,0.08128799,-0.1031859
0.7058097,-0.02061222,0.2351163,0.06847124,-0.2246467,-0.05957
0.6961317,-0.006768212,0.2604017,0.04160139,-0.4636225,0.01281057
0.7563417,0.02741701,0.3039551,0.007317091,-0.6216206,0.04406622
0.8382271,0.04998878,0.3219469,0.04685238,-0.7107987,0.02323796
1.039086,-0.007445968,0.3187332,0.003926661,-0.5585321,-0.07252838
1.263812,-0.03347533,0.2641978,-0.0315537,-0.3192016,-0.2138722
1.335058,-0.117164,0.1845287,-0.03480633,-0.1043669,-0.2579668
1.268446,-0.1976129,0.1934772,0.1540823,-0.02233729,-0.1386575
1.252611,-0.156336,0.3859837,0.4166562,0.2278493,-0.0569892
1.280641,0.1137405,0.5618237,0.2548636,0.6675343,-0.1871592
1.259631,0.3824245,0.3773902,-0.2167485,0.5340377,-0.2126389
1.351051,-0.06288011,0.1715192,0.3574977,-0.2963108,-0.3103312
1.409774,-0.1045113,0.1389394,0.3359555,-0.1200831,-0.3477829
1.490088,-0.06339624,0.3521653,0.767962,-0.02272432,-0.1485335
1.567988,0.1083319,0.6175527,1.210974,0.2218958,-0.010516
1.547885,0.2008658,0.4436763,0.7436125,0.6173395,-0.005837645
1.540384,-0.06860256,0.1512376,0.1188559,0.6432031,0.193134
1.485937,-0.5403925,0.1240883,0.2696902,0.5622196,0.6132469
1.270593,-0.6569273,0.1086928,0.6616752,0.6752321,0.8275225
0.8941227,-0.4036174,0.06263688,0.8884245,0.3198506,0.5684091
0.67712,-0.2653825,-0.02113915,0.6469563,-0.1943699,0.2191581
0.8186695,-0.2491711,-0.08442456,0.2441447,-0.364219,0.0462515
0.9060409,-0.1674099,-0.03800517,0.4314673,-0.767643,-0.0005683914
0.851575,-0.1177051,-0.07199811,0.5430507,-1.127998,0.002070687
0.9278993,-0.1629867,-0.0530802,0.4415686,-0.9707122,-0.1645298
0.9360403,-0.1723959,0.01603313,0.7215817,-0.8190695,-0.3193616
0.788837,-0.1195688,-0.00855455,0.8044799,-0.767012,-0.2423751
0.7274404,-0.1214002,0.03430804,0.815276,-0.6693613,-0.1889551
0.7491799,-0.1221081,0.01610906,1.060224,-0.6588372,-0.1940503
0.8519085,-0.1025906,-0.02763413,1.092148,-0.5136612,-0.1770708
1.000196,-0.08560647,0.002380184,1.116278,-0.1783869,-0.1920203
1.016744,-0.0175368,-0.02533199,1.072629,0.02773802,-0.1700755
0.9412138,0.07433476,0.004434109,0.8179503,0.05370675,-0.1078625
0.8861618,0.1890883,0.03312456,0.5026462,0.01209614,-0.03589208
0.9080902,0.189233,0.02341202,0.1836961,0.04114021,0.07439022
0.9327982,0.09990464,0.05608127,0.1919435,0.112039,0.1930097
0.9023495,0.1231095,0.07991162,0.2658468,0.07906704,0.3396796
0.9333211,0.1007147,0.1319204,0.2301951,0.0900047,0.4832575
1.003472,0.04045901,0.1255645,0.3547251,0.1099184,0.5133354
1.124091,-0.001169828,0.1076594,0.4459465,0.03070627,0.4530086
1.226814,-0.09659768,0.1538925,0.4675024,-0.067511,0.3173497
1.160332,-0.07235894,0.122717,0.3287008,-0.2739037,0.1143459
1.110013,-0.04516625,0.07836878,0.1678632,-0.5237403,-0.02684564
1.109204,-0.1084711,0.05021278,0.4503482,-0.8224797,-0.07023065
1.086715,-0.1296417,0.01282806,0.7973232,-1.266595,-0.08983635
1.109051,-0.2664912,-0.03745836,0.7378567,-1.511379,-0.1793602
1.085939,-0.4148122,-0.137584,0.3612655,-1.297009,-0.4098115
1.112058,-0.3479425,-0.1264423,0.03895378,-0.769191,-0.6420397
1.364869,-0.2674324,-0.09508016,0.09489559,-0.09683874,-0.6872613
1.632422,-0.2936663,-0.228507,0.08705899,0.4505469,-0.5316987
1.611919,-0.2897635,-0.2745227,-0.2022549,0.560028,-0.2518238
1.444544,-0.2396439,-0.1223007,-0.2040847,0.611566,-0.03376716
1.408058,-0.208312,0.008489665,-0.1523936,1.003914,-0.003447079
1.287234,-0.1651244,-0.01667746,-0.4258942,1.316373,-0.009379073
1.011904,-0.146669,-0.03964394,-0.5547909,1.290456,0.1372105
0.8262226,-0.1454303,0.04758099,-0.5659932,1.126755,0.322102
0.6875205,-0.1119607,0.03007847,-0.6149071,1.072359,0.2968154
0.6264837,-0.1166794,-0.002500714,-0.5699332,1.007595,0.2140034
0.6050903,-0.1139021,0.07952011,-0.5939393,0.7001753,0.2001869
0.5213406,-0.1062144,0.08869716,-0.6127745,0.4272119,0.01456292
0.5644949,-0.146528,0.1048775,-0.5851844,0.2722182,-0.2100048
0.6454131,-0.1612982,0.1449602,-0.4662214,0.1027948,-0.2917093
0.6685047,-0.1457846,0.1570882,-0.1540247,-0.09173121,-0.3253858
0.7488306,-0.0958232,0.2072093,0.02610355,-0.2613479,-0.2526638
0.7641871,-0.04461633,0.2033462,0.05627269,-0.3659239,-0.1563574
0.7281336,-0.02036999,0.223884,0.09594452,-0.5959502,-0.07597342
0.7577175,0.01926675,0.2831548,0.1322338,-0.782583,0.03855001
0.8658375,0.04741939,0.2810693,0.1766684,-0.7432117,0.01406878
1.099963,0.06191599,0.2418085,0.06088617,-0.5226493,-0.1068717
1.308054,0.04725201,0.09432569,-0.2093099,-0.09305319,-0.2111581
1.346748,0.00923923,0.02491325,-0.2906644,0.1354965,-0.2507621
1.336261,0.01692653,0.2476422,0.1211677,0.09682858,-0.1350749
1.37929,0.1073922,0.4413798,0.4673688,0.2534099,-0.01552141
1.484031,0.1778072,0.2690582,-0.09158027,0.5392087,0.09382985
1.610176,-0.07608656,0.002524575,-0.5824379,0.6984928,0.3614931
1.610032,-0.5657236,-0.01261898,0.06211843,1.013741,0.6180965
1.266082,-0.7532091,0.03655888,0.6904904,1.272562,0.6001698
0.807393,-0.5327147,0.06141264,0.5661177,0.5543275,0.2816487
0.7923088,-0.2715341,0.0680081,0.3936715,-0.3638811,-0.1622922
0.9506791,-0.1469316,-0.01795288,0.2787968,-0.5081787,-0.3647711
0.8833264,-0.07468058,-0.03481417,0.1144254,-0.8446841,-0.1886899
0.9758298,-0.09298718,-0.03593733,0.04266835,-1.154431,-0.08064765
1.110568,-0.1676607,-0.06128666,0.1022792,-0.7796228,-0.1719647
0.96881,-0.1723995,-0.02539087,0.359688,-0.7069749,-0.1264583
0.826929,-0.1924625,-0.03230901,0.5111212,-0.8021873,-0.08796452
0.7219267,-0.1831155,-0.04194989,0.5398401,-0.6092131,-0.1360718
0.7011853,-0.1367903,-0.04663895,0.7079117,-0.6247753,-0.1243132
0.8286061,-0.1457899,-0.04445661,0.8179464,-0.4621485,-0.1665314
0.89389,-0.1028721,-0.006921627,0.885683,-0.1420079,-0.1560336
0.9350026,-0.0554224,-0.01768454,0.8832965,-0.05327303,-0.09453522
0.924661,-0.002445199,-0.0140412,0.7108628,0.07714897,-0.1022944
0.8752828,0.09364633,0.0027155,0.483778,0.03849956,-0.03047241
0.9242415,0.1080324,0.00967376,0.216902,0.0001290642,0.06760952
0.9172791,0.1062031,0.03091609,0.1215211,0.1078742,0.2184834
0.8899846,0.1125419,0.02886779,0.0982046,0.01611064,0.469904
0.9192873,0.1073962,0.06215607,-0.01240343,0.01844822,0.5655251
0.9684734,0.1000215,0.09826703,0.02827107,0.1011467,0.4949395
1.125719,0.02347287,0.1092134,0.1078187,0.1460956,0.3654152
1.227186,-0.07779133,0.1324619,0.1741514,0.1950448,0.1988267
1.185018,-0.1057244,0.1086075,0.2408599,-0.01435556,0.1409843
1.151894,0.05709787,0.09434595,0.1554737,-0.3205482,0.1557932
1.150043,0.2069778,0.1528783,0.1303077,-0.51255,0.02233287
1.212054,0.0456462,0.1901972,0.3492642,-0.6674766,-0.1419678
1.269959,-0.09672616,0.09902217,0.4944703,-0.9993267,-0.1431653
1.179268,-0.02387889,-0.1043418,0.09162606,-1.465927,-0.1333749
1.08941,-0.05695533,-0.2442796,-0.6408024,-1.568311,-0.1653675
1.195697,-0.2403254,-0.2215543,-0.8767063,-1.17276,-0.2041381
1.361274,-0.4098165,-0.1686855,-0.4181532,-0.3561941,-0.3493553
1.409362,-0.4792763,-0.1589418,-0.002559989,0.478306,-0.5043962
1.343278,-0.3886694,-0.0876039,-0.04117806,0.6948387,-0.474527
1.251745,-0.2801044,-0.02902708,-0.002249916,0.6655227,-0.2772467
1.247636,-0.2304247,-0.04721685,0.07619538,0.9127123,-0.07369578
1.164202,-0.1618097,-0.01130495,-0.1447023,1.219319,0.0436538
0.8979492,-0.1504928,0.02388909,-0.1964649,1.364462,0.1036479
0.7221963,-0.1275878,0.04800611,-0.227798,1.168681,0.2019072
0.697368,-0.06689781,0.08583984,-0.3846504,0.8582543,0.2766683
0.709622,-0.07461334,0.06181671,-0.3419459,0.9131171,0.2044795
0.6634095,-0.04497682,0.0807373,-0.4408147,0.8856201,0.1760434
0.5808429,-0.04709062,0.1030295,-0.4682937,0.5570954,0.1693775
0.6133446,-0.0958382,0.09061849,-0.3050137,0.4524246,0.01636703
0.6654004,-0.09708302,0.1542816,-0.2572296,0.3667913,-0.09368388
0.70349,-0.1471128,0.1979191,0.01267141,0.1972598,-0.1396885
0.7327198,-0.1356499,0.2052799,0.17499,0.0806932,-0.1494176
0.6856057,-0.04644496,0.2346466,0.1273692,-0.2233956,-0.09821835
0.6896094,0.02385091,0.2854919,0.2474528,-0.5066563,-0.05872287
0.7188053,0.09335841,0.3210181,0.2205227,-0.6639963,0.008271186
0.8251934,0.0572823,0.2698758,0.1561056,-0.7017565,-0.005114767
1.136479,4.285504e-05,0.1977978,0.09678652,-0.5246869,-0.09069172
1.354884,-0.01446324,0.1304288,-0.008896634,-0.3298029,-0.123696
1.339959,-0.09891339,0.1522319,0.1438994,-0.07781452,-0.1668912
1.397516,-0.1159926,0.3073938,0.3240955,0.1925366,-0.1329458
1.552505,0.05966435,0.3786271,0.284007,0.4979844,-0.03044933
1.535208,0.2180306,0.3123827,-0.08489191,0.7622449,0.11121
1.527556,-0.00354842,0.1411612,-0.4077057,0.649166,0.4632117
1.564968,-0.4732566,-0.006337943,0.04688276,0.5876933,0.8160051
1.24583,-0.6369023,0.0301674,0.5564096,0.5636752,0.7332531
0.8374808,-0.4410458,0.04016682,0.3282615,0.2251058,0.3082884
0.7584927,-0.2363237,-0.03344748,0.1760045,-0.1225314,0.002102967
0.8479756,-0.1995994,-0.04170434,0.2530528,-0.6432734,-0.06891833
0.8815943,-0.1746948,-0.05231236,0.04375106,-1.046062,-0.01590008
0.90903,-0.1229628,-0.05237582,0.05800406,-0.9214889,-0.01677541
1.012068,-0.2062824,-0.002888126,0.3138428,-0.8033798,-0.1663912
0.9371815,-0.2115654,-0.002898635,0.4481287,-0.7218941,-0.1857989
0.7610581,-0.1460843,-0.01429282,0.6481826,-0.6227264,-0.1077708
0.7443421,-0.1689549,0.006599208,0.7446818,-0.6320472,-0.07894668
0.7553062,-0.1347909,-0.00942309,0.8737558,-0.5340184,-0.03220726
0.8505877,-0.127752,-0.01404922,1.021224,-0.3090351,-0.05493102
0.9573481,-0.07559508,-0.01123402,0.8706752,-0.02755559,-0.02335653
0.9298519,0.04203231,-0.03803133,0.7342696,0.1020203,0.01583998
0.9266737,0.06626009,-0.02770497,0.4139538,0.03816386,-0.000638636
0.9456267,0.1186941,-0.007419551,-0.006059579,0.05900064,0.08358301
0.9545772,0.1294516,0.01545972,-0.06119862,0.1163436,0.1359105
0.9346261,0.1190402,0.03306143,-0.1380475,0.09959003,0.2518952
0.9130944,0.1475819,0.04734841,-0.2157541,0.1214977,0.404351
0.9704793,0.1028911,0.1119596,-0.1595207,0.1711836,0.4132373
1.055578,0.04069778,0.1288052,-0.122092,0.1156915,0.3999261
1.165013,-0.07344193,0.118156,0.05121933,0.04315925,0.29564
1.212687,-0.1143743,0.1485629,0.1685563,-0.04286878,0.1574249
1.14312,0.0188855,0.1472732,0.05059911,-0.2832177,0.04949993
1.107352,0.09102728,0.1438095,0.00674124,-0.5313197,-0.09916634
1.165966,0.01243516,0.1319885,0.2379835,-0.8367174,-0.1692702
1.209643,-0.1474604,0.07535375,0.3614552,-1.24434,-0.1749624
1.158463,-0.2353518,-0.04224784,-0.0405283,-1.349572,-0.2142365
1.12953,-0.2125712,-0.1775848,-0.4288193,-1.091347,-0.3359148
1.186084,-0.215317,-0.1517563,-0.2822844,-0.5924826,-0.4413765
1.301616,-0.2800929,-0.09839443,-0.1780715,0.1557537,-0.4494143
1.423151,-0.3315297,-0.1539617,-0.347534,0.6364994,-0.4295997
1.36406,-0.3065293,-0.1041964,-0.3064009,0.6474975,-0.2806064
1.261815,-0.2709716,-0.02813675,-0.2602302,0.7412365,-0.0498292
1.29446,-0.2394942,-0.02817594,-0.3440051,0.997769,0.04325332
1.173219,-0.206191,0.01679463,-0.2788478,1.275706,0.01793126
0.8952114,-0.1910442,0.03369988,-0.3004033,1.337041,0.0893741
0.7449675,-0.1347767,0.03006029,-0.3590777,1.072606,0.2396758
0.704026,-0.09210998,0.03995932,-0.3824614,1.012538,0.1999977
0.6799169,-0.07701742,0.03424095,-0.527634,0.9151022,0.1497741
0.6152118,-0.07349164,0.07711561,-0.5416146,0.5984026,0.1912658
0.560848,-0.1206448,0.1098797,-0.4957208,0.4820597,0.06223581
0.6066453,-0.1528903,0.1326975,-0.4037172,0.2643526,-0.09521072
0.649439,-0.1637403,0.1777348,-0.1555314,0.04336033,-0.1743034
0.6688955,-0.1437222,0.1968384,-0.01939772,-0.07113109,-0.1953489
0.6758612,-0.08375347,0.2307042,0.07491552,-0.3460896,-0.123039
0.6612403,-0.01331287,0.2733513,0.1622081,-0.5923003,-0.06006364
0.7421785,0.07605897,0.3095332,0.1214185,-0.7783147,0.0325119
0.9167731,0.1034451,0.3107083,0.07604664,-0.7453452,0.05677082
1.1403,0.08569314,0.2522211,-0.03728499,-0.4920746,-0.06933483
1.336175,0.06721862,0.1469336,-0.3796685,-0.184723,-0.1888158
1.402598,-0.00741046,0.06785464,-0.5822623,0.1278248,-0.2769404
1.436616,-0.03782233,0.2544833,-0.05168258,0.1981667,-0.1975437
1.500242,0.06288843,0.4578095,0.4450796,0.4331135,-0.03794969
1.581453,0.118367,0.2428213,-0.1585343,0.8068214,0.02364794
1.622442,-0.1159235,-0.01168298,-0.6557811,0.7708671,0.2943789
1.439377,-0.443428,-0.01200031,-0.05202748,0.7663557,0.6316425
1.030649,-0.4689574,0.01011844,0.3826948,0.7606601,0.5961984
0.7293775,-0.3545976,0.03186741,0.2382517,0.3017422,0.3270322
0.7933016,-0.2982236,0.03331679,0.1831863,-0.2486063,0.03523078
0.925383,-0.1657455,-0.03554349,0.06250283,-0.604921,-0.1239791
0.91301,-0.08060791,-0.04604921,-0.08257178,-0.8771325,-0.05782341
1.013256,-0.146917,-0.01966536,-0.07716419,-0.9932034,-0.05392629
1.061271,-0.1753912,-0.02499698,-0.04940103,-0.7787707,-0.1980115
0.8853914,-0.1577973,-0.004358102,0.1000871,-0.5896867,-0.2237718
0.7541935,-0.1654569,0.02124975,0.2275473,-0.6180706,-0.1762582
0.7053836,-0.1481304,-0.004403029,0.2979476,-0.5588249,-0.1516785
0.7685005,-0.1511998,-0.03157734,0.4875208,-0.4994197,-0.09732797
0.896276,-0.1671557,-0.01734404,0.6561723,-0.3303704,-0.06976846
0.9198544,-0.1182591,-0.01995768,0.7302955,0.001908114,-0.04020797
0.9031345,-0.04659267,-0.03707326,0.6931644,0.1245333,-0.02694569
0.8657798,0.03714085,-0.02272457,0.5092873,0.06085206,0.001035426
0.9030308,0.1007596,-0.01523699,0.2165607,-0.02002672,0.1314346
0.9866047,0.1132283,-0.007862088,-0.02013188,0.1117145,0.1986908
0.974748,0.1565162,0.02478873,-0.07929574,0.2600252,0.258945
0.9924864,0.1765853,0.06606984,-0.1304963,0.1782764,0.3729241
1.013803,0.08934435,0.113024,-0.1558244,0.2072175,0.3508596
1.062792,-0.01412292,0.1419335,-0.1008037,0.1676561,0.2771153
1.174318,-0.07192514,0.1520155,-0.03875371,0.02811001,0.2061391
1.188976,-0.08425862,0.159791,0.05758081,-0.0623158,0.08143163
1.143632,0.02127921,0.156534,0.06742055,-0.3421972,0.02274246
1.090057,0.1725416,0.1501474,0.1088499,-0.5731441,-0.006984596
1.101742,0.104898,0.135645,0.3597073,-0.8041597,-0.1009564
1.121476,-0.1337387,0.05151356,0.5384966,-1.220668,-0.1392738
1.028655,-0.2793558,-0.1077356,0.3704868,-1.430733,-0.1847649
