accx,accy,accz,gyrox,gyroy,gyroz
0.7097866,-0.1727875,0.09385834,-0.6729549,-0.1012465,0.1078535
0.7937896,-0.1309687,0.1020179,-0.7419505,-0.1169241,0.04375046
0.8780732,-0.1064933,0.1366377,-0.7621147,-0.05741419,-0.01689621
0.9876694,-0.06299469,0.1802479,-0.8065252,-0.0379467,-0.05967132
1.092459,-0.04538824,0.06379214,-0.9047423,-0.009001727,-0.1698542
1.048351,-0.1279582,-0.09093876,-0.9564119,-0.02896251,-0.2430245
1.083147,-0.2503368,-0.1441249,-0.8038034,-0.06741181,-0.1572348
1.275864,-0.3321133,0.07753888,-0.5033407,0.03487385,-0.02551089
1.508214,-0.1862879,0.3431474,-0.4325871,0.3516844,0.1061287
1.56622,0.05996674,0.2335191,-0.6301502,0.6431404,0.2395495
1.444403,0.05821436,0.03141562,-0.7816176,0.3316523,0.5244507
1.406337,-0.1964088,-0.1167472,-0.622221,-0.05280227,0.8569386
1.295481,-0.5005559,-0.3170228,-0.3053119,0.3723479,0.7782601
0.9991756,-0.5611462,-0.3116966,-0.1676409,0.6708036,0.4545446
0.7914746,-0.3744551,-0.1440821,-0.1895425,0.3957145,0.2438484
0.7758604,-0.2601183,-0.08390659,-0.29067,0.3168402,0.08690137
0.8402305,-0.2292985,-0.1841645,-0.4605152,0.2231617,0.0364749
0.8694397,-0.2356596,-0.3148417,-0.6181653,0.1010034,-0.001088264
0.9307682,-0.3057466,-0.2037182,-0.4293102,0.1972664,-0.09920518
0.9993968,-0.3157361,-0.02376329,0.01328835,0.1412693,-0.1598973
0.9260487,-0.2648283,-0.01146768,0.07097537,0.03959995,-0.3523838
0.8515808,-0.1542762,-0.009418539,0.08393473,-0.03687203,-0.4288121
0.8308149,-0.023485,-0.05882375,0.2213326,-0.1529217,-0.2469374
0.8027646,-0.0003300669,-0.100351,-0.004029047,-0.08512385,-0.20105
0.8318491,-0.01055205,-0.08027617,-0.1966894,-0.01453482,-0.1825889
0.8419936,-0.01714856,-0.1003546,-0.2170317,-0.01711551,-0.1144757
0.8298629,-0.04392066,-0.03420812,-0.1864631,0.005112944,-0.07877721
0.8596147,-0.06436591,0.02974509,-0.07769383,-0.0408086,0.001443785
0.8714157,-0.06558909,0.0362064,-0.126719,-0.03835716,0.0587108
0.888079,-0.03267535,0.05307578,-0.0893613,-0.002863034,0.1528581
0.9624607,-0.03031524,0.04791132,0.02272178,0.0455647,0.2155193
1.052462,-0.04250469,0.08819295,0.05019758,0.2089031,0.171048
1.053738,-0.05251426,0.06730585,0.1411117,0.2577962,0.1135709
1.030294,-0.08081777,0.01690231,0.1074637,0.1717218,0.04764461
1.085177,-0.04377545,0.01644446,-0.009998527,0.09450138,0.03895332
1.122843,0.001077703,-0.009799066,-0.1304646,-0.03534827,-0.04547206
1.211763,-0.0216453,0.08751118,-0.1701192,-0.1411576,-0.2048962
1.3268,-0.1104418,0.1917325,0.01380472,-0.2818863,-0.2294266
1.281875,-0.2164684,0.09745395,0.05901174,-0.476221,-0.3367668
1.246906,-0.2151206,-0.1172222,-0.1594044,-0.4390679,-0.6037425
1.267323,-0.2146265,-0.3485967,-0.3659876,-0.2995395,-0.777046
1.217419,-0.2830766,-0.3700048,-0.3264935,-0.1718016,-0.8032184
1.160935,-0.3035132,-0.1984572,-0.1023815,0.2435073,-0.6085166
1.070985,-0.315081,-0.05492033,0.1116988,0.5208862,-0.1587263
1.024271,-0.2396563,0.0620525,0.288267,0.2045235,0.2498939
1.124055,-0.03516823,0.05305119,0.03744633,0.02870911,0.4162536
1.206915,0.05760165,-0.09422654,-0.4496718,0.3246467,0.4055248
1.188682,0.02749529,-0.1293425,-0.533201,0.4513367,0.3611029
1.017336,-0.03191494,-0.05480226,-0.5698676,0.2450704,0.3711286
0.7120244,-0.1406122,-0.001107181,-0.6640024,0.03613441,0.355057
0.5904666,-0.2002897,-0.01452684,-0.6430303,-0.01889828,0.3433386
0.6997685,-0.2036057,-0.05283175,-0.6975482,0.03093767,0.3297283
0.7552128,-0.2145025,-0.003943274,-0.6605399,0.08850562,0.1882766
0.7575547,-0.2029535,0.01799417,-0.579693,0.0822713,0.05101287
0.7785723,-0.1796084,0.02246698,-0.5776498,-0.04214389,0.02595992
0.7531505,-0.1579852,0.09568124,-0.5619184,-0.234006,0.06159995
0.7534056,-0.1278546,0.1075862,-0.6438861,-0.3518141,0.07934361
0.8148666,-0.07241691,0.1313108,-0.7652706,-0.4113826,0.06256474
0.9276383,-0.03060751,0.1521592,-0.8171827,-0.4963024,0.03954552
1.10784,-0.0728826,0.07149079,-0.8007102,-0.460616,-0.07805357
1.174078,-0.1624108,-0.04839279,-0.7026132,-0.3702688,-0.1819067
1.141105,-0.278902,-0.1233013,-0.510909,-0.3821185,-0.127335
1.270562,-0.3337899,0.04276233,-0.2914619,-0.1908216,0.02449964
1.46699,-0.1581421,0.2329028,-0.2696034,0.09548823,0.2282256
1.520462,0.04059539,0.1430974,-0.3759193,0.1067971,0.434442
1.509275,-0.03904658,-0.007938,-0.3519746,0.1507169,0.723997
1.484326,-0.2660877,-0.1706459,-0.1579986,0.3974598,0.9044484
1.266572,-0.453788,-0.3201929,0.03874738,0.6353779,0.6244302
0.8967482,-0.4829767,-0.2685822,-0.02532603,0.7342517,0.2327582
0.7567081,-0.2955658,-0.2002143,-0.1654398,0.5904594,0.03028752
0.8614625,-0.1491235,-0.2233946,-0.2240057,0.3506426,-0.04196057
0.8975298,-0.167784,-0.2054057,-0.4552682,0.189154,0.05486131
0.9362937,-0.2724302,-0.1963776,-0.4919646,0.1395018,0.0588941
1.089036,-0.3966093,-0.1258722,0.003076669,0.1829099,-0.1496231
1.092441,-0.3523934,-0.006352407,0.4290069,0.08263667,-0.4379106
0.9463996,-0.2366941,-0.05332794,0.4294794,-0.05730546,-0.6769554
0.8690467,-0.1930141,-0.09684794,0.4038915,-0.02923562,-0.5335934
0.8185984,-0.1368966,-0.06137443,0.5242563,-0.06828858,-0.3022464
0.7905506,-0.1153818,-0.08535118,0.4745465,-0.1250455,-0.2959736
0.7676507,-0.06120627,-0.07245129,0.3735715,-0.08277683,-0.1712647
0.7709508,-0.01794838,-0.05213249,0.3592849,-0.01675756,-0.07518859
0.8623082,-0.0569142,-0.04445853,0.1718545,0.07938954,-0.0535393
0.8549483,0.03076611,0.01471154,0.05234224,0.0518178,0.07315023
0.8155409,0.1090753,0.04167514,0.02380944,-0.08188468,0.1541519
0.8530196,0.05715507,0.04207739,-0.05537695,-0.1485055,0.320714
0.8888196,-0.0007166653,0.04331238,0.06657962,-0.07183995,0.4378386
1.024214,-0.0999535,0.03881102,0.2034996,0.1059497,0.3160237
1.138614,-0.1496066,0.04642153,0.2909544,0.1601944,0.2023624
1.148972,-0.1021926,0.04465184,0.3200472,0.1141855,0.107125
1.176864,-0.0178907,0.04824169,0.1178023,0.0451371,0.051538
1.20418,0.05985223,0.07496772,-0.09678167,-0.05655809,-0.02483005
1.267825,-0.02428221,0.1514868,-0.1667912,-0.1107945,-0.1925585
1.306541,-0.1552252,0.2123734,0.02922631,-0.260001,-0.1992689
1.287737,-0.1316744,0.05890137,0.1727546,-0.4481378,-0.2602195
1.252713,-0.1093537,-0.1906932,-0.1467586,-0.4228295,-0.5911528
1.136325,-0.1640023,-0.2727132,-0.411586,-0.3777522,-0.7999273
1.037733,-0.2081999,-0.2837031,-0.3316177,-0.374181,-0.7857435
1.013089,-0.2554719,-0.253355,-0.2263834,-0.08699075,-0.6206607
1.04523,-0.2295457,-0.08893707,-0.07329566,0.3657654,-0.1887876
1.131292,-0.1118332,0.01313043,0.1802038,0.4953542,0.2654519
1.200707,-0.007383785,-0.01987481,0.1039865,0.2320099,0.4128459
1.259306,0.07699168,-0.05270118,-0.2388011,0.07524941,0.3678532
1.180791,0.04459578,-0.06442619,-0.4021949,0.3418319,0.3692158
0.9013768,-0.06390363,-0.03310662,-0.5875729,0.5134477,0.3949256
0.6626191,-0.1088117,0.007038418,-0.6599704,0.2245667,0.3862067
0.6363115,-0.172585,0.00303221,-0.5662774,-0.08129913,0.4109669
0.71825,-0.1957996,-0.008057209,-0.6620731,-0.1272939,0.3604307
0.7246534,-0.1679602,-0.006648222,-0.6360358,0.005593896,0.1977473
0.7533699,-0.1675653,0.0209431,-0.5842575,0.1008145,0.0580474
0.7952839,-0.1300976,0.05747451,-0.6273316,-0.06932128,-0.03326532
0.7534813,-0.09876441,0.09960035,-0.5348067,-0.3075253,-0.03487814
0.8199641,-0.0548066,0.1505934,-0.5795557,-0.3796209,-0.01603876
0.8744324,-0.02681913,0.1520067,-0.6535469,-0.3375446,-0.00425788
0.9072217,-0.07068836,0.106367,-0.6837157,-0.2790009,0.0352816
1.057868,-0.09932276,0.01128517,-0.7307217,-0.339352,-0.01705132
1.041128,-0.2009473,-0.1602914,-0.5844676,-0.6217354,-0.0599224
1.023176,-0.2976333,-0.227168,-0.3895651,-0.773144,0.01066106
1.261982,-0.2562101,-0.04463667,-0.1678562,-0.1212582,0.1302137
1.551083,-0.2111437,0.168938,-0.07398329,0.6606237,0.3095034
1.696478,-0.06406562,0.2138677,-0.2842408,0.4294518,0.5432738
1.569303,0.115506,0.0749467,-0.3714159,0.2233164,0.7665224
1.411782,-0.09193447,-0.167916,-0.1871473,0.564976,0.750078
1.274697,-0.4701687,-0.2665772,-0.005200416,0.4821624,0.4715069
0.939857,-0.5097551,-0.1779005,-0.001925498,0.4929317,0.1899052
0.7276971,-0.3323823,-0.104892,-0.08610665,0.5216666,-0.04611991
0.7478555,-0.1476592,-0.1289226,-0.2391033,0.02661661,-0.1065522
0.8166793,-0.05824545,-0.2332386,-0.4338652,-0.05801571,0.03782338
0.9601968,-0.2286616,-0.2946706,-0.2689456,0.0908051,0.04424183
1.063263,-0.4137682,-0.1434595,0.109357,0.07082618,-0.2268212
1.048085,-0.4078107,0.06214742,0.3522904,0.1036706,-0.6336735
0.9639001,-0.3353303,0.02044516,0.5573439,-0.01340575,-0.7863607
0.8477413,-0.2135627,-0.05649588,0.6291844,-0.04846428,-0.5347255
0.762343,-0.0822152,-0.003372197,0.6016946,-0.1540838,-0.3263235
0.7509941,-0.002634847,-0.06221906,0.4918741,-0.304391,-0.2461307
0.8092722,0.01302072,-0.09539413,0.2995936,-0.1053767,-0.1049468
0.8297902,0.003580905,-0.01949026,0.2842793,0.04395674,0.005429299
0.8093907,0.03895241,0.02091974,0.2675764,0.02779666,0.102324
0.8194679,0.06449016,0.08106778,0.1509829,-0.06172983,0.1839183
0.8599137,0.0402937,0.07822161,0.1114403,-0.0963676,0.211754
0.9677451,-0.02384579,0.0570348,0.145703,0.04592017,0.2816185
1.056849,-0.09162194,0.06901597,0.2789924,0.1259148,0.3396723
1.060986,-0.1096296,0.01409476,0.3478443,0.08634566,0.2927712
1.09511,-0.08021707,0.01019268,0.2164638,-0.02503336,0.2207264
1.184809,0.0004425809,0.04091153,0.01290282,-0.05680813,0.1064074
1.248477,0.04599027,0.08865382,-0.05275877,-0.1359538,-0.1306804
1.260216,-0.08112001,0.2000965,0.06960028,-0.4067241,-0.2583071
1.257081,-0.245649,0.1858985,0.224638,-0.5738343,-0.2206265
1.239686,-0.2114767,-0.03879534,0.3329216,-0.636644,-0.4192053
1.213433,-0.1534755,-0.3120416,0.1097721,-0.6344331,-0.7942059
1.165615,-0.2273663,-0.3686111,-0.2854109,-0.5202502,-0.8800397
1.07661,-0.2649996,-0.2345618,-0.2339646,-0.1942493,-0.7205177
1.028671,-0.2978196,-0.1355688,0.04013963,0.2845744,-0.4744299
1.057829,-0.2266161,-0.02029577,0.2718788,0.3758276,0.009446539
1.158386,-0.0001633002,0.02355842,0.3970897,0.01578825,0.442508
1.259441,0.03864642,-0.08251418,0.1378297,-0.2111876,0.4423867
1.25017,-0.01159588,-0.1082412,-0.1354846,0.1195183,0.3387217
1.1564,-0.003250572,-0.08680573,-0.1780668,0.4374704,0.3472773
0.9078376,-0.09441174,-0.06119451,-0.2744018,0.1747759,0.3702828
0.5918607,-0.1919156,0.01157494,-0.3196281,0.02760026,0.4257821
0.6118805,-0.2026592,-0.01273212,-0.2661067,0.1386187,0.4072389
0.7828966,-0.1644604,-0.03141408,-0.2691106,0.1077449,0.3120207
0.7209705,-0.1492138,0.02057395,-0.266919,0.1277296,0.1782574
0.719189,-0.1347267,0.02496007,-0.2537946,0.01611947,0.02832743
0.7918239,-0.08634149,0.06585861,-0.2819448,-0.2646973,0.007693004
0.7600982,-0.08252857,0.1155806,-0.3200395,-0.3414333,-0.01217855
0.8430461,-0.04992119,0.1073922,-0.3961311,-0.3018854,-0.07434403
0.9309466,-0.02219963,0.1066579,-0.5220893,-0.3095551,-0.05911787
0.991238,-0.06537728,0.07892682,-0.5737324,-0.3646616,-0.09393375
1.086593,-0.1286591,-0.00313126,-0.467211,-0.5008787,-0.1677735
1.093827,-0.2523529,-0.05076424,-0.289624,-0.5910409,-0.1559196
1.258605,-0.2898341,0.04098959,-0.1787536,-0.2674167,-0.03150088
1.501383,-0.1479125,0.2180547,-0.1814043,0.2798144,0.1646884
1.533579,0.04333557,0.2831016,-0.2570898,0.3536257,0.3858567
1.490449,0.09709162,0.08214899,-0.3030336,0.2224802,0.72781
1.428184,-0.1651018,-0.2222976,-0.2031385,0.3814281,0.9466801
1.246393,-0.4815365,-0.2729417,-0.03986309,0.4793381,0.6934983
0.9411505,-0.4883639,-0.1738726,0.01435068,0.4420879,0.2589171
0.8260383,-0.2980039,-0.1094945,-0.03486944,0.4351301,-0.09236819
0.9334414,-0.1562598,-0.01941561,-0.1488024,0.365241,-0.2388523
0.9151302,-0.1437798,-0.1108775,-0.2825158,0.2725746,-0.08490497
0.9102385,-0.2855074,-0.2556675,-0.2401276,0.2123727,-0.07821244
1.016979,-0.4535415,-0.1151346,0.1526842,0.1483399,-0.2828951
1.051462,-0.4281065,-0.00777195,0.6120597,0.04083174,-0.4675731
1.026061,-0.306674,-0.0645264,0.6723738,-0.03563227,-0.6802913
0.9384898,-0.191374,-0.06913454,0.5717566,-0.006909449,-0.5314229
0.8025166,-0.05100648,-0.1039458,0.5756679,-0.02464261,-0.2449752
0.7313313,-0.02549806,-0.1367875,0.4246015,-0.1215598,-0.2646349
0.7661788,-0.06272747,-0.09975609,0.3524301,-0.1322401,-0.1482496
0.810272,-0.05966852,-0.08126061,0.4559113,-0.03659114,-0.0460026
0.80892,-0.07777927,-0.03552196,0.3856016,0.03605538,-0.08099569
0.8151341,-0.04126776,0.01893611,0.3523536,0.01827545,0.05158129
0.8080906,0.03553512,0.02941476,0.3466583,-0.006205921,0.1398894
0.8300941,0.04368704,0.04969895,0.2738753,0.01014363,0.233851
0.9226282,-0.000810979,0.05576354,0.3704438,-0.02555936,0.3674433
1.018535,-0.06021051,0.0219002,0.4351816,-0.0958435,0.3803597
1.128483,-0.07627433,-0.002032867,0.4392744,-0.08955817,0.3263344
1.215631,-0.02901645,0.02688569,0.3634812,-0.01302389,0.1649457
1.248193,0.008886997,0.09169673,0.03262998,0.05614198,-0.07033006
1.287039,-0.02250855,0.1622942,-0.2004057,-0.01417292,-0.3524097
1.306152,-0.1096322,0.1954422,-0.1732528,-0.2134746,-0.4783304
1.264805,-0.1775448,0.08620891,-0.09265779,-0.4547526,-0.4122069
1.216791,-0.1680468,-0.06842873,-0.1076468,-0.7451247,-0.6075284
1.204091,-0.1616873,-0.1358098,-0.1516816,-0.8352128,-0.8843312
1.144235,-0.2536025,-0.2486613,-0.1286617,-0.6074702,-0.8776248
1.074233,-0.3164835,-0.2927126,-0.09345854,-0.1836439,-0.6848529
1.101056,-0.2912125,-0.1362352,0.126745,0.4397057,-0.3203826
1.105338,-0.2881992,-0.04039068,0.3611949,0.6909058,0.09588211
1.11472,-0.2028495,-0.02659827,0.2607228,0.1687383,0.3824124
1.231475,0.02936144,-0.04632751,0.01199103,-0.1975942,0.4569697
1.285274,0.1605474,-0.1173068,-0.2104647,0.08711639,0.3918285
1.156634,0.05291033,-0.06529245,-0.2853253,0.2177289,0.3845339
0.8927333,-0.1036978,-0.009862866,-0.2539689,0.0001907093,0.4041047
0.6790833,-0.1622904,-0.02746883,-0.2910889,-0.06312426,0.4251856
0.6697095,-0.1950169,-0.02498382,-0.2867172,-0.06061901,0.4474912
0.7116813,-0.2108665,-0.07471946,-0.2553436,-0.02486983,0.3228088
0.716151,-0.2044669,-0.05303045,-0.259889,0.1255554,0.1115716
0.7845266,-0.1859716,0.009867869,-0.2057633,0.07626317,0.03316065
0.8200898,-0.1270526,0.02756707,-0.1627325,-0.08616978,0.04102916
0.791809,-0.102938,0.1174962,-0.2018386,-0.1722997,-0.01817157
0.8482048,-0.07483589,0.1621284,-0.2545711,-0.2360319,-0.05083828
0.9263847,-0.0152354,0.156773,-0.2996641,-0.2460421,-0.04825128
0.9992515,-0.04406387,0.1075673,-0.3222976,-0.3365104,-0.110774
1.073153,-0.1569545,-0.06419477,-0.2629976,-0.4804226,-0.1471045
1.061501,-0.2943439,-0.1356268,-0.09083418,-0.557422,-0.1354439
1.172437,-0.3154712,-0.002061348,0.07954736,-0.3624734,-0.06522234
1.466302,-0.1692783,0.2032448,0.03140523,0.4043978,0.0839017
1.602394,0.02871507,0.2776189,-0.1089379,0.9578115,0.2449195
1.506815,0.1612281,0.124351,-0.1023714,0.4095982,0.5552865
1.4125,-0.02957251,-0.07417334,-0.02431355,-0.1588049,0.8646134
1.30968,-0.3992222,-0.2074447,0.162642,0.3441374,0.7243671
1.020204,-0.4870471,-0.2595467,0.3428698,0.6485625,0.357387
0.8022126,-0.3841095,-0.1574608,0.2491461,0.1715997,0.08827787
0.8542329,-0.275036,-0.06413654,0.1039095,0.1229839,-0.1011174
0.9022844,-0.1567375,-0.2386239,-0.07377259,0.2509427,-0.08605384
0.930952,-0.14857,-0.3928565,-0.2422539,0.1500948,-0.05749541
1.006278,-0.2827643,-0.199534,0.1536351,0.1359768,-0.179289
1.044164,-0.4091367,-0.01046119,0.7214763,-0.04624937,-0.3606095
1.051616,-0.3647906,-0.01844678,0.7629538,-0.08811023,-0.594102
0.9550806,-0.238727,-0.05265705,0.7639312,0.02414677,-0.5137897
0.8019963,-0.1320052,-0.0934532,0.8925851,0.0006308347,-0.2890091
0.7385068,-0.01267939,-0.09600231,0.7647013,0.01568056,-0.2916409
0.7667498,0.004858392,-0.08213878,0.6179779,-0.06198869,-0.142256
0.8041541,0.005400043,-0.08253842,0.5170195,-0.1102221,0.01569574
0.7931536,0.048424,-0.04016598,0.3695286,-0.1267412,0.07325992
0.8104799,0.005621506,-0.008081705,0.348039,-0.1783164,0.2071454
0.8178404,0.01720651,0.007266828,0.28628,-0.1295679,0.1899083
0.8053725,0.03866244,0.02861744,0.2191809,-0.1383766,0.2400774
0.9052543,-0.009276718,0.03753629,0.3147855,-0.08834074,0.3803288
1.033751,-0.01701776,0.03863879,0.375908,0.0062276,0.3572718
1.123534,-0.07535804,0.02047991,0.3860506,0.03993193,0.2980541
1.181349,-0.08927655,0.006643305,0.3189806,0.1100221,0.2075767
1.203047,0.0147366,0.03091955,0.1106191,0.1182852,0.1161587
1.231281,0.03622505,0.1152369,-0.06708956,0.04261645,-0.0659674
1.232994,-0.1045829,0.2238716,-0.028975,-0.2028673,-0.2612936
1.229665,-0.2786077,0.1853768,0.2019032,-0.4711947,-0.2176873
1.207939,-0.2486907,-0.08238773,0.2813136,-0.5019329,-0.375473
1.162814,-0.1847852,-0.3418355,0.064331,-0.4716956,-0.8133518
1.155944,-0.261406,-0.3288262,-0.1505873,-0.4062668,-0.9600096
1.12096,-0.2553995,-0.2231889,-0.07385148,-0.180928,-0.8059388
1.097594,-0.2517449,-0.1948531,0.1435904,0.2042953,-0.5449508
1.115381,-0.2176581,-0.05507227,0.2529266,0.4875151,-0.07388331
1.140908,-0.01268425,0.01991121,0.298357,0.3568091,0.4115444
1.223687,0.09294723,-0.09688585,0.04131725,0.1699902,0.447175
1.232423,0.06074375,-0.07744849,-0.3797606,0.2251487,0.2478065
1.093652,-0.008004491,-0.02545888,-0.4727676,0.2308581,0.2528026
0.9415903,-0.0884072,-0.04403409,-0.517171,0.1882449,0.2875445
0.8046429,-0.1465303,-0.01365601,-0.573776,0.136415,0.2960205
0.6676383,-0.2336107,-0.04503983,-0.5276603,-0.06379905,0.3203933
0.6641343,-0.2262217,-0.04399292,-0.5467936,-0.117429,0.2161591
0.7646308,-0.1448292,-0.007208982,-0.5085015,0.01893016,0.1021608
0.7312948,-0.1430021,0.001343451,-0.468698,0.0131636,0.07531645
0.7081948,-0.1350351,0.06318682,-0.4540817,-0.167091,0.09575291
0.775892,-0.1178281,0.0663587,-0.4159906,-0.4131817,0.09552356
0.786809,-0.07416892,0.09308371,-0.4736379,-0.4496467,0.04706713
0.8852142,0.002718868,0.1467891,-0.54665,-0.3059279,0.03611515
0.9772779,-0.04594626,0.06644657,-0.6436151,-0.2223059,-0.02908943
1.013297,-0.1620539,-0.04797097,-0.6690837,-0.1675763,-0.1414248
1.081037,-0.2157277,-0.1426235,-0.4460146,-0.4264806,-0.1537507
1.111689,-0.2049754,-0.08885889,-0.1877524,-0.6285955,-0.07084955
1.380424,-0.1187836,0.1117853,-0.05765244,0.08636186,0.1267061
1.635766,0.03861735,0.2017986,-0.002260359,0.7579468,0.4106443
1.508537,0.1374786,0.1134805,-0.02921108,0.2989713,0.7090763
1.437321,-0.1432915,-0.1789196,-0.0698496,0.01639175,0.9219269
1.345347,-0.5789461,-0.4374413,0.09733447,0.7750096,0.886026
1.064897,-0.5610462,-0.336255,0.2903737,1.17265,0.5333265
0.9019105,-0.411582,-0.1357872,0.2076388,0.6656591,0.04227896
0.7482336,-0.3712641,-0.1079699,0.099799,0.1131137,-0.1834918
0.6845549,-0.1325277,-0.1593287,-0.03761102,-0.103548,-0.1306481
0.916061,-0.09107826,-0.2293598,-0.2169871,0.03884781,-0.0887718
1.082806,-0.3136781,-0.219991,0.09269011,0.1443115,-0.1000313
1.114012,-0.3784988,-0.08690056,0.5953489,-0.02889918,-0.2919583
1.10719,-0.3851344,-0.01323799,0.6634932,-0.07379212,-0.5452873
0.9491881,-0.3011999,-0.04421286,0.6768091,-0.02322703,-0.4668691
0.8473316,-0.1472783,-0.08174012,0.7971737,-0.07593673,-0.3250391
0.7902299,-0.08941213,-0.0893312,0.7094506,-0.133728,-0.3134661
0.7603908,-0.04388345,-0.08896734,0.6205328,-0.150116,-0.1556245
0.8676541,-0.05230254,-0.1026986,0.6184173,-0.05910561,-0.0408493
0.842478,-0.06108315,-0.05279454,0.5629583,0.02372301,-0.02916949
0.8007253,-0.01212173,0.009804094,0.5389894,-0.08648462,0.07445567
0.8001474,0.0141945,0.01676811,0.462809,-0.1905108,0.1315818
0.76034,0.04182988,0.03921149,0.3791674,-0.1103222,0.2142164
0.8719588,0.01652628,0.06372326,0.4184163,-0.03561525,0.3344209
0.9549948,-0.01040177,0.08577177,0.4476537,-0.03221948,0.3354364
1.035013,0.01060163,0.0450732,0.4295595,-0.0276395,0.3010199
1.144612,-0.000786202,-0.04509107,0.2546765,-0.03959804,0.2403985
1.168572,0.009470438,-0.03830871,-0.07422984,0.02924327,0.1188236
1.251663,-0.004777135,0.06037902,-0.213555,0.08214219,-0.1818787
1.274236,-0.1227173,0.220756,-0.1378448,-0.102213,-0.4699345
1.269508,-0.2317271,0.2854978,-0.06030052,-0.3410846,-0.4026044
1.275973,-0.2034935,0.1178854,-0.04365527,-0.4734475,-0.514112
1.197997,-0.1265116,-0.1419667,-0.2080772,-0.5682121,-0.933661
1.167553,-0.1513485,-0.3255409,-0.465453,-0.527362,-0.9717183
1.129222,-0.2087444,-0.3034595,-0.409777,-0.2609713,-0.7522873
1.089381,-0.32597,-0.185707,-0.06312106,0.1378702,-0.5238398
1.076178,-0.4177465,-0.1137567,0.2748598,0.4050293,-0.08794187
1.100078,-0.2162153,-0.03042781,0.3765441,0.180171,0.2850259
1.2305,0.03778015,-0.05533931,0.02440891,-0.08406363,0.3568555
1.285978,0.07013797,-0.1254197,-0.3162668,0.2327165,0.3470571
1.191209,-0.009385637,-0.06288323,-0.2812576,0.4145342,0.3802269
0.9467416,-0.09693676,-0.04690396,-0.3298313,0.1795008,0.4210996
0.6766741,-0.1493109,-0.05324256,-0.4314617,0.09168335,0.4463706
0.6159349,-0.1937181,-0.01878692,-0.3737629,-0.01669489,0.4699095
0.6660789,-0.2164651,-0.05135897,-0.3639692,-0.07326688,0.3939125
0.7056688,-0.209522,-0.02709762,-0.3525628,0.007173472,0.190824
0.7295208,-0.1961448,0.01285144,-0.3121746,-0.09105974,0.08513311
0.7574336,-0.1464695,0.01563418,-0.3415201,-0.214726,0.07179032
0.8011738,-0.1194679,0.07794451,-0.3666481,-0.3195692,0.02370335
0.8819302,-0.09195469,0.1037666,-0.3929922,-0.3451172,-0.02845798
1.021687,-0.04683046,0.1102057,-0.4848136,-0.2507925,-0.08793203
1.119306,-0.06825574,0.1022612,-0.5956774,-0.2032778,-0.1305373
1.174283,-0.1143156,0.009260836,-0.6187848,-0.1388121,-0.1699809
1.155855,-0.1964399,-0.1187558,-0.4549688,-0.2979761,-0.2018021
1.146503,-0.2876555,-0.1716919,-0.2091822,-0.4658005,-0.1546125
1.366978,-0.2427057,0.02655197,-0.03957958,-0.03077093,-0.001107541
1.589324,-0.08642871,0.1931533,0.1202967,0.3697286,0.3150078
1.600257,0.0006669281,-0.0482545,0.189523,0.227317,0.6361284
1.497214,-0.1783862,-0.336097,0.1615826,0.3201882,0.791466
1.273474,-0.4707488,-0.3373508,0.2468885,0.8277329,0.8280665
0.8807435,-0.4843299,-0.221627,0.2705811,0.9700365,0.5590356
0.6120113,-0.3022437,-0.157857,0.2181996,0.6359483,0.0483247
0.6990696,-0.1610057,-0.1702751,0.1846011,0.2459317,-0.2139849
0.7450758,-0.07683638,-0.2008795,-0.04412306,-0.0291938,-0.2344935
0.7647775,-0.1278054,-0.2185057,-0.1829442,-0.05299367,-0.1544938
1.01426,-0.22053,-0.2368961,0.05802749,0.004092932,-0.04977007
1.123405,-0.2799018,-0.1503228,0.4205733,-0.08415853,-0.2847251
1.080683,-0.3526719,-0.01978695,0.6358237,-0.1080122,-0.5599944
1.034398,-0.2875805,-0.06688882,0.6731754,0.03546494,-0.4493639
0.901317,-0.1861121,-0.1074482,0.7425101,0.1485027,-0.3519608
0.8076824,-0.1459496,-0.04283164,0.7667108,0.02939593,-0.3294976
0.7937187,-0.05248371,-0.06886116,0.6391207,-0.08803241,-0.2307441
0.8406857,-0.02875995,-0.07482604,0.5286622,0.06595871,-0.190048
0.8623151,-0.02735278,-0.03898073,0.3944303,0.1445844,-0.09885067
0.8095571,0.03301551,-0.02961116,0.2784733,0.02191456,0.02735563
0.7865859,0.06678217,0.03190947,0.1920641,-0.04849557,0.1179851
0.78111,0.08906947,0.04317844,0.06534689,-0.05700364,0.2613566
0.8146391,0.03445445,0.03364525,0.07658117,-0.03963428,0.369413
0.8836861,-0.03706409,0.06855857,0.1700903,-0.02480177,0.3904677
0.9724257,-0.05536811,0.02395083,0.1818653,-0.02548777,0.3510057
1.095554,-0.07911186,-0.0497671,0.07942066,0.005703196,0.2676798
1.196617,-0.06043192,-0.06204811,-0.1352672,0.06258277,0.1064641
1.293403,-0.05685655,0.03278282,-0.2078804,0.08608744,-0.2059081
1.324101,-0.08006691,0.2003325,-0.04078823,-0.06992519,-0.4056379
1.286269,-0.1030281,0.2325393,0.1183658,-0.3396586,-0.3421439
1.279514,-0.1705418,0.0728348,0.09599097,-0.4507919,-0.4158024
1.241734,-0.1900076,-0.1744122,-0.1414371,-0.4641686,-0.7199029
1.174606,-0.1984101,-0.3435405,-0.3549237,-0.4945092,-0.9106982
1.089327,-0.285001,-0.2974489,-0.2846573,-0.4205011,-0.8982744
0.9792889,-0.3772452,-0.2004378,-0.1213607,-0.1826189,-0.7227476
0.9567544,-0.4024269,-0.150549,0.05359781,0.1875858,-0.3462325
1.013447,-0.288191,-0.04791352,0.2820078,0.3570765,0.1452163
1.106179,-0.0625882,-0.03592699,0.1548556,0.1698621,0.4325255
1.283887,0.1148615,-0.1294732,-0.2238391,0.1662949,0.4070379
1.374911,0.1107155,-0.1290798,-0.3787029,0.4446101,0.4054071
1.123083,-0.01573433,-0.07077045,-0.508781,0.5507614,0.4531508
0.7369134,-0.1116292,0.003654314,-0.5364103,0.3125431,0.422447
0.5971161,-0.1743944,0.03134361,-0.4240762,-0.06769689,0.4388591
0.6638206,-0.1980279,-0.01695338,-0.4597988,-0.1213707,0.3823281
0.7333345,-0.2053126,-0.006506393,-0.3546629,0.01524985,0.2488598
0.7752885,-0.2363813,-0.004853629,-0.2556684,0.02993875,0.1629119
0.8026781,-0.195968,-0.01416353,-0.3373386,0.09193483,0.07937675
0.7815816,-0.1468418,0.04602488,-0.2905313,-0.07773202,0.0688529
0.7748988,-0.1358655,0.09091431,-0.2846059,-0.4098603,0.03612244
0.8638663,-0.08476436,0.126795,-0.3225075,-0.4287615,-0.08606234
1.00579,-0.06892295,0.1321248,-0.3663097,-0.3604943,-0.1609044
1.176798,-0.08668747,0.08945252,-0.5032956,-0.1997823,-0.1957863
1.259011,-0.1044246,0.01865284,-0.5246112,0.02529806,-0.2394582
1.169444,-0.1559764,-0.04774712,-0.3933255,-0.1679825,-0.2661136
1.146148,-0.195487,0.03830652,-0.2123394,-0.3671364,-0.1372186
1.316343,-0.1578316,0.1881863,-0.1011185,-0.05531654,0.09527428
1.48121,-0.01051046,0.206452,-0.0212284,0.170979,0.2911417
1.478842,0.06091101,0.04335572,-0.06952213,0.1178433,0.5737242
1.395539,-0.1588903,-0.2231829,-0.2292173,0.3681556,0.8172637
1.276677,-0.4742279,-0.320917,0.02436931,0.6971098,0.7640216
1.065626,-0.5368593,-0.2480576,0.2853112,0.5870373,0.5138264
0.908996,-0.4032495,-0.200729,0.1294172,0.3853344,0.2298227
0.8150953,-0.2879419,-0.164029,0.1013163,0.3917324,-0.01172047
0.775737,-0.1485599,-0.1949971,0.05012073,0.3282301,-0.1482767
0.9028965,-0.1377376,-0.2535039,-0.1137091,0.147267,-0.2052908
1.008628,-0.3006014,-0.1570135,0.0684314,0.02250933,-0.2596143
1.112386,-0.3267759,-0.03711739,0.3812049,0.01149541,-0.3799821
1.151349,-0.2987853,-0.02884592,0.5395487,0.1003015,-0.5235158
0.9749551,-0.2837109,-0.04287471,0.6335555,0.1182398,-0.4965314
0.9288239,-0.1996675,-0.05573213,0.6824796,0.1081772,-0.3631447
0.863373,-0.1320239,-0.06482425,0.6481572,0.0386292,-0.2968799
0.7522232,-0.03336032,-0.0667646,0.5203679,-0.1670504,-0.2290846
0.8721982,0.01429679,-0.07444841,0.351347,-0.1257625,-0.1728337
0.8688337,-0.01679615,-0.06616905,0.2818016,-0.02195625,-0.079505
0.8504915,-0.01642848,-0.04136743,0.3248513,-0.06143671,0.06003819
0.9012653,-0.02530695,0.01067305,0.2984141,0.05099466,0.0954365
0.8483932,0.01442759,0.05498636,0.2134583,0.1476043,0.1142861
0.8988611,0.0568332,0.07319049,0.2012134,0.1974351,0.1508156
0.8946254,0.02155456,0.09938029,0.2272157,0.151658,0.21422
0.8741579,-0.01280239,0.06805132,0.2445999,-0.06706486,0.3121962
0.9550108,-0.04817936,-0.002705325,0.2056492,-0.1422737,0.3147957
1.034571,-0.07462821,-0.02040757,0.1112029,-0.08956601,0.2586757
1.191579,-0.05903134,0.01039622,-0.005376502,-0.03801272,0.05232897
1.230521,-0.03829805,0.09477126,-0.1020369,-0.1291634,-0.2556367
1.214093,-0.08714909,0.1959255,0.04354024,-0.3112494,-0.2972474
1.29409,-0.1653489,0.2034427,0.3261651,-0.3370398,-0.2282027
1.289205,-0.1865462,0.03897786,0.3206165,-0.3475405,-0.4016906
1.226858,-0.1914136,-0.1977268,0.07842333,-0.3477905,-0.6868577
1.125052,-0.2066116,-0.2811055,-0.09865206,-0.3314527,-0.8429855
1.0607,-0.2685995,-0.22461,-0.03210783,-0.2816778,-0.8132297
1.074125,-0.3073862,-0.1590365,0.181188,-0.03209076,-0.5656486
1.088677,-0.1852873,-0.05988649,0.2586235,0.1729029,-0.1273395
1.196851,-0.00834854,0.003644662,0.2164109,0.213897,0.2688298
1.281753,0.07077051,-0.05300188,0.01376287,0.2474794,0.3860697
1.210372,0.03135,-0.07920191,-0.2890081,0.2754456,0.3451492
1.046306,-0.03896998,-0.03770816,-0.3897632,0.2209552,0.394942
0.823431,-0.1023562,-0.03829886,-0.4632747,0.1617909,0.4068837
0.6862034,-0.1788328,-0.02895989,-0.5446459,0.1514915,0.3344207
0.703564,-0.1996309,-0.004720921,-0.47714,0.03308176,0.3390471
0.7553346,-0.2065193,-0.003461693,-0.4545881,-0.01981174,0.2799078
0.7854583,-0.2160079,0.0225342,-0.4214672,0.04689939,0.1587023
0.7939284,-0.1789391,0.04355276,-0.333215,0.004078576,0.1082332
0.7879929,-0.1652863,0.06410079,-0.3405446,-0.1427752,0.04873936
0.8080114,-0.1421661,0.08746762,-0.3721156,-0.3621568,0.001926681
0.8434813,-0.1017624,0.07180218,-0.4152096,-0.3951031,-0.01392204
0.9167159,-0.0736612,0.07334767,-0.5088351,-0.2889252,-0.02514676
1.067851,-0.01962475,0.08393999,-0.6098678,-0.2637843,-0.03780689
1.124909,-0.04411513,0.05579292,-0.6992978,-0.04756575,-0.1255947
1.049586,-0.1612164,-0.01151309,-0.6926253,0.1033262,-0.2440028
1.037849,-0.2669616,-0.08874322,-0.4933417,-0.1626304,-0.2417899
1.106149,-0.3063327,-0.0609173,-0.2432808,-0.3130659,-0.07432492
1.279741,-0.1865278,0.03383053,-0.198058,0.09260888,0.1082365
1.496364,0.07227266,0.06219649,-0.2547299,0.4765293,0.2355955
1.480424,0.2450426,0.03407608,-0.2869647,0.3244301,0.4993514
1.361696,0.009770087,-0.07504875,-0.3424227,0.2919884,0.814023
1.312395,-0.4699141,-0.2119277,-0.1119526,0.5111861,0.7797743
1.131582,-0.5937795,-0.2174651,0.2151585,0.4477339,0.4814813
0.934243,-0.4250933,-0.1407095,0.09085271,0.4841958,0.2538663
0.8370503,-0.3069523,-0.1210749,-0.03799069,0.6087481,0.07250101
0.7964281,-0.2055991,-0.1889748,-0.07287656,0.3969897,-0.004395328
0.9248977,-0.1732602,-0.2436777,-0.3000875,0.2482133,0.0159628
0.995216,-0.2524726,-0.1737252,-0.1356056,0.1887803,-0.1111519
1.020812,-0.3479194,-0.05066066,0.2820102,0.05843514,-0.351638
1.084369,-0.3407977,0.01213201,0.4194276,0.06390219,-0.6034801
0.9282062,-0.248827,-0.003362654,0.5539736,-0.03314953,-0.659274
0.8492397,-0.1814246,-0.04942756,0.6327348,-0.1557506,-0.4360333
0.8507573,-0.09488023,-0.06071738,0.5830817,-0.08938964,-0.2820427
0.8024455,-0.04631153,-0.05471423,0.540165,-0.1353912,-0.235011
0.8896281,-0.03063269,-0.05276192,0.4089782,-0.1392523,-0.1711013
0.8480006,-0.006477073,-0.02780883,0.3696129,-0.04777769,-0.08788382
0.8224662,-0.02943412,0.02037835,0.4048232,-0.09321142,0.02226099
0.8675121,0.01833853,0.05944047,0.3184058,-0.06167823,0.07067268
0.8243581,0.05201461,0.05583443,0.2136808,0.0435234,0.1056619
0.9305034,0.02187407,0.07196143,0.1641833,0.1501441,0.1371354
0.9740967,0.02572209,0.1174859,0.2133258,0.2364113,0.1352532
0.9739831,-0.03860417,0.07415828,0.2477211,0.1466707,0.1362945
1.038536,-0.08321767,0.01121585,0.2003755,0.06499717,0.1073686
1.026612,-0.06037349,0.02212779,0.1231865,0.02487907,0.07657747
1.108175,-0.008530085,0.04203438,-0.07969868,-0.08174982,-0.03804169
1.183192,0.05998288,0.1072808,-0.1863856,-0.1616459,-0.190813
1.216915,-0.04751309,0.2162751,0.02908714,-0.2848811,-0.1896296
1.246318,-0.1850222,0.2223247,0.2941544,-0.4287071,-0.2070965
1.202285,-0.1533712,0.05264025,0.307796,-0.4901567,-0.3975486
1.191623,-0.1361755,-0.1842687,0.03360607,-0.5258857,-0.6587326
1.125131,-0.1782285,-0.2894977,-0.2692194,-0.5527626,-0.8477656
1.078354,-0.2309126,-0.2743217,-0.2955847,-0.4870253,-0.8643345
1.112279,-0.2928447,-0.2461762,-0.1008848,-0.2451163,-0.7035784
1.117777,-0.2476824,-0.134551,0.1518983,0.09389281,-0.2838601
1.208752,-0.0744377,-0.008526356,0.3394459,0.3174109,0.2571105
1.301689,0.07956443,-0.04379653,0.09203145,0.2775708,0.4458971
1.291352,0.1053857,-0.08647995,-0.3628588,0.2741284,0.367292
1.129204,-0.006372876,-0.01162635,-0.3939731,0.4560272,0.4287533
0.8095319,-0.1260864,0.01107666,-0.3705923,0.3028908,0.4650921
0.6327315,-0.1633881,-0.008482954,-0.4591982,0.002689993,0.4273077
0.6431028,-0.1990164,0.003669507,-0.3845517,-0.0271921,0.4670486
0.7090839,-0.2206381,-0.01617694,-0.4202653,-0.04810449,0.3645472
0.8158568,-0.2076659,-0.008726386,-0.3906746,0.04668518,0.1641229
0.8306186,-0.1959877,0.02988492,-0.2335107,0.1344065,0.05240963
0.7807859,-0.1614852,0.06563676,-0.2453345,-0.06642934,-0.001043919
0.7858849,-0.130508,0.1171476,-0.236916,-0.2487434,0.0196905
0.8305724,-0.08783977,0.1212948,-0.2472559,-0.3315147,0.009300583
0.9350935,-0.02668412,0.1300818,-0.3048938,-0.3512372,-0.01575899
1.06651,-0.01793402,0.1292696,-0.3668677,-0.3293567,-0.005598257
1.129327,-0.08548986,0.02674327,-0.5074546,-0.266917,-0.100142
1.1142,-0.2078115,-0.06450286,-0.485235,-0.1601013,-0.2171271
1.139655,-0.3089979,-0.04855908,-0.2850616,-0.212314,-0.232001
1.307612,-0.3466909,0.1143407,-0.09005939,-0.163758,-0.1048538
1.449853,-0.275326,0.2653864,-0.07324986,0.2588759,0.0708688
1.420792,-0.03543335,0.1664806,-0.2230868,0.6286066,0.1729892
1.420933,0.1874145,0.04111719,-0.3084496,0.5100282,0.4586383
1.49516,0.08863541,0.04365047,-0.3504641,0.2436287,0.807818
1.339663,-0.2483822,-0.07307156,-0.1145885,0.3088033,0.7198718
1.004643,-0.4730306,-0.2555282,0.2625651,0.3403676,0.4612503
0.8666861,-0.4841374,-0.2671225,0.2014089,0.2754487,0.3650074
0.9151436,-0.3215487,-0.2196815,0.06853182,0.3503744,0.221653
0.8941056,-0.1579606,-0.2406208,-0.0294128,0.2689306,0.111001
0.8163546,-0.170329,-0.239207,-0.2688395,0.1507651,0.09950605
0.907059,-0.2653116,-0.1911086,-0.09733798,0.1182799,-0.005140838
1.050424,-0.386463,-0.1051046,0.2913133,0.05395917,-0.2281719
1.000494,-0.385053,0.004472822,0.4886931,-0.01284453,-0.5561952
0.9487527,-0.2500408,0.006188642,0.6696895,-0.1307467,-0.6691614
0.9129828,-0.1786994,-0.06613492,0.6737451,-0.05548255,-0.4254908
0.8206262,-0.08520722,-0.06909266,0.6196872,0.07369229,-0.2628312
0.8259597,-0.02976597,-0.0582601,0.6013077,-0.06550117,-0.2377305
0.8191436,-0.01640619,-0.05744109,0.4017256,-0.1212819,-0.1819621
0.8228871,0.02670039,-0.03528144,0.2922247,-0.07522335,-0.09857505
0.8865092,-0.0002334607,-0.01150359,0.2303323,-0.1031796,-0.006209961
0.8706003,0.03634805,0.03056584,0.09565298,-0.08872775,0.06390693
0.8778077,0.04674392,0.05053735,0.08273295,-0.06908155,0.1574098
0.9280697,-0.007605981,0.06892066,0.07605575,0.001453823,0.2073128
0.9779287,0.006572269,0.1037362,0.1311343,0.1376178,0.1993235
1.027419,-0.06428632,0.0729956,0.2510899,0.168241,0.1670808
1.035241,-0.1259762,0.04383979,0.2829526,0.1067007,0.08668772
1.055767,-0.1076864,0.04305549,0.2360162,0.05483781,0.05922942
1.077422,-0.0333807,0.03342702,0.0281989,-0.03633184,-0.007200201
1.146808,0.07226031,0.07850602,-0.1328959,-0.1846567,-0.1567413
1.259704,-0.03682364,0.1644121,-0.02357087,-0.2846666,-0.2067771
1.26302,-0.1838167,0.2031339,0.1781206,-0.4106111,-0.2076801
1.231788,-0.1691884,0.07318477,0.2210012,-0.578393,-0.354503
1.219675,-0.1543864,-0.1694352,-0.01360612,-0.57948,-0.6457615
1.160644,-0.1553434,-0.2927772,-0.2955009,-0.5134163,-0.8094295
1.101059,-0.2095419,-0.2914635,-0.3049727,-0.4219484,-0.7535298
1.036616,-0.2991386,-0.2139056,-0.05953744,-0.08346807,-0.5740757
0.9935383,-0.2858443,-0.07506986,0.1927693,0.3040126,-0.226825
1.090674,-0.1422113,-0.01940675,0.2913233,0.3938286,0.1116509
1.258916,0.04632911,-0.05328423,0.1395297,0.3024286,0.3101384
1.302743,0.09584217,-0.06289065,-0.1502403,0.3673925,0.4584215
1.150731,0.01296699,-0.04669119,-0.3045926,0.4617248,0.4319294
0.8884243,-0.04045189,-0.02946395,-0.437459,0.3122756,0.3538783
0.7016602,-0.09940047,0.005034857,-0.5332939,0.1223713,0.4136192
0.6715282,-0.1936997,0.02594317,-0.4824538,-0.04707203,0.3915768
0.7230128,-0.2507755,0.007581744,-0.4525054,-0.1555146,0.3296223
0.7831667,-0.268817,0.01637384,-0.3381236,-0.008451079,0.280259
0.7995747,-0.2256371,0.04989556,-0.2045981,0.07976735,0.1127535
0.7916806,-0.1516697,0.06619686,-0.1977108,-0.09844221,0.04171311
0.7984576,-0.1230571,0.08274547,-0.1982688,-0.3078661,0.05643546
0.8392738,-0.08026952,0.09204892,-0.2475948,-0.4111559,0.004820122
0.9458385,-0.02417343,0.1073739,-0.3291763,-0.3934595,-0.01696173
1.073798,-0.0212483,0.0964785,-0.4388637,-0.3023812,-0.07954828
1.176304,-0.06748126,0.03394745,-0.5789499,-0.1588406,-0.1549153
1.202907,-0.1465028,0.001476519,-0.5822819,-0.0695082,-0.1810711
1.200331,-0.2503875,0.04163664,-0.325926,-0.1972549,-0.1988743
1.335856,-0.3653837,0.1805883,0.03780095,-0.2815024,-0.07056509
1.497731,-0.3128435,0.2837031,0.1622997,-0.002123011,0.1557833
1.537248,-0.05410159,0.1287194,0.1406545,0.276196,0.3547399
1.593187,0.09922632,-0.07872986,0.06369593,0.2462307,0.5821241
1.599853,0.001405495,-0.0750733,-0.07801404,0.3512297,0.7622425
1.310082,-0.2737547,-0.09517582,0.1496471,0.6375434,0.7398797
0.8861694,-0.503388,-0.2177238,0.4270333,0.6011791,0.4786647
0.7100862,-0.4553236,-0.184409,0.2453663,0.3902155,0.1402751
0.8157875,-0.273593,-0.1527231,0.121498,0.317604,-0.002013255
0.8926791,-0.1661384,-0.2572742,0.05482927,0.2818829,0.02152899
0.8671455,-0.162636,-0.264671,-0.153672,0.2814257,-0.03331015
0.996791,-0.2514226,-0.1748375,0.02274324,0.2134713,-0.1619305
1.118133,-0.3318371,-0.03924914,0.3754953,0.02373484,-0.3605016
1.017691,-0.3150116,0.0624533,0.4512714,-0.04526633,-0.5614156
0.9355759,-0.2474027,0.0196704,0.5344147,-0.02699639,-0.5024914
0.8704225,-0.1616546,-0.02501603,0.6058658,-0.0384307,-0.3676271
0.7877518,-0.07112677,-0.05647588,0.5230643,-0.07907313,-0.3219366
0.7960198,-0.06332074,-0.08156235,0.4621694,-0.1266232,-0.2155076
0.80611,-0.07798435,-0.04869582,0.4290242,-0.1103024,-0.1294521
0.8077623,-0.05113212,-0.03499813,0.4240902,-0.1174301,-0.02600496
0.8334276,-0.05405353,-0.001657927,0.4168859,-0.1287758,0.07671392
0.8567637,-0.01160838,0.02377698,0.3389469,-0.09691041,0.08263806
0.8811878,0.05391857,0.02141687,0.3020875,-0.04703124,0.1430747
0.948672,0.03694838,0.07478081,0.3293615,0.09168606,0.1611634
1.034222,-0.003270794,0.08774342,0.3721113,0.1662332,0.09538825
1.03525,-0.04862946,0.04605176,0.3743199,0.1194924,0.07549814
1.01978,-0.05290905,0.02478531,0.2771367,0.09760351,0.06096918
1.062217,0.007875279,0.02660433,0.107643,0.04451424,0.03141192
1.145259,0.03608592,0.07000466,-0.07825296,-0.119022,-0.1193235
1.240982,-0.01493255,0.1361881,-0.112376,-0.3357281,-0.2889396
1.265753,-0.1462987,0.1929286,0.07534299,-0.4491439,-0.2649112
1.235652,-0.2479562,0.1352143,0.2300854,-0.4865344,-0.3427821
1.187254,-0.2206625,-0.08354659,0.1347308,-0.6048351,-0.6620533
1.12374,-0.2022108,-0.2928435,-0.004565313,-0.6741913,-0.8753799
1.123652,-0.2756188,-0.3205506,0.05177863,-0.51355,-0.8818813
1.151526,-0.3247958,-0.1779507,0.2255068,-0.126891,-0.7078286
1.119707,-0.2973957,-0.06984007,0.5071748,0.2358464,-0.2557511
1.127829,-0.1530639,-0.05009427,0.6288413,0.2223239,0.2196384
1.226422,0.09141902,-0.05640264,0.2783356,0.08726245,0.4193809
1.278125,0.1615721,-0.09553436,-0.1292186,0.183065,0.4341539
1.16943,0.02342985,-0.06016539,-0.3121736,0.2144143,0.4013207
0.9567538,-0.06552178,-0.01354818,-0.3545077,0.1583527,0.3895607
0.7947117,-0.1334494,-0.01128416,-0.3263987,0.08000781,0.3795707
0.6717805,-0.2254948,0.02745158,-0.3439704,-0.1622239,0.3589363
0.6302006,-0.24061,0.004604141,-0.2987309,-0.18291,0.323512
0.7473938,-0.2192492,-0.005693164,-0.2274897,-0.03136131,0.2047726
0.799441,-0.2010817,0.02603499,-0.2191057,-0.07369881,0.09460503
0.7877424,-0.16312,0.027933,-0.1989233,-0.1390526,0.04435712
0.8237837,-0.1254819,0.08639915,-0.2440567,-0.2565625,0.01891893
0.826998,-0.09723916,0.1091307,-0.3097696,-0.3336643,0.02201825
0.8935243,-0.0476352,0.1016764,-0.4007629,-0.3024219,0.005181462
1.029984,-0.009525275,0.1200732,-0.5260221,-0.3570755,-0.02561548
1.141404,-0.04970921,0.05557671,-0.6077977,-0.2834549,-0.1211403
1.156267,-0.1495276,-0.05414338,-0.6624351,-0.1739313,-0.2680129
1.126557,-0.2832386,-0.1002194,-0.4313106,-0.1982741,-0.2763634
1.279089,-0.3402722,0.04228613,-0.07601489,-0.0788539,-0.1279991
1.448293,-0.166507,0.2229455,-0.06922031,0.1390936,0.08969127
1.457923,0.06879558,0.1537487,-0.1050987,0.2477632,0.357482
1.430668,0.06745051,-0.02521348,-0.04635109,0.241603,0.6357245
1.334434,-0.197218,-0.1890135,-0.05964738,0.2939685,0.7819696
1.128472,-0.5053077,-0.2896136,0.1645626,0.4374033,0.6878572
0.8840464,-0.5508478,-0.2245864,0.4460801,0.4466476,0.4287113
0.8006487,-0.3485079,-0.2136656,0.327634,0.400718,0.0842328
0.8764318,-0.2024028,-0.2859627,0.1336732,0.3715756,-0.1672144
0.8914891,-0.186902,-0.2476816,0.05723965,0.2446321,-0.1681031
0.9683166,-0.2920651,-0.1698435,0.048335,0.09676715,-0.1509112
1.107221,-0.4317549,-0.04661612,0.4668912,-0.03674981,-0.2713932
1.082549,-0.3940628,0.02034812,1.007019,-0.09171088,-0.4912113
0.9758822,-0.2786663,-0.08250118,1.04997,-0.07001218,-0.7024093
0.870747,-0.1835533,-0.1277713,1.034271,-0.0344487,-0.6340443
0.7883799,-0.08527644,-0.1220583,1.168193,0.07020009,-0.4243131
0.8195337,-0.0479955,-0.1125631,1.03894,-0.02388181,-0.2830542
0.8595399,0.02099916,-0.05011802,0.886362,-0.1814117,-0.1214001
0.8314512,0.04497455,-0.05248936,0.8285718,-0.01696492,-0.04076065
0.8460198,-0.009313581,-0.02832547,0.68705,0.05299301,0.02817056
0.8549983,0.07844417,0.05885377,0.6144412,-0.01189091,0.122502
0.8331181,0.1320626,0.09308948,0.4687619,0.04446139,0.1377955
0.8559722,0.06807125,0.1003416,0.3021952,0.03692339,0.2474535
0.8755375,0.02886541,0.06692473,0.3301119,0.003062933,0.3643188
0.932349,-0.05479626,-0.01143081,0.3247014,-0.1155777,0.3723576
1.019514,-0.07965512,-0.08219692,0.3198535,-0.2246314,0.330551
1.103959,-0.07182909,-0.05804334,0.3255386,0.04172452,0.1933846
1.222745,-0.1345101,0.04793397,0.2725675,0.2859981,0.01019062
1.195958,-0.09245961,0.1235512,0.2698025,-0.02202425,-0.2492638
1.130952,-0.04302242,0.2047191,0.234029,-0.4488877,-0.4095102
1.274301,-0.1017061,0.2186699,0.2257133,-0.5329243,-0.3588831
1.354269,-0.1199514,0.05090715,0.1779752,-0.5948428,-0.525537
1.272884,-0.1061206,-0.1708783,-0.05762666,-0.6871165,-0.8455729
1.216235,-0.1365403,-0.2666891,-0.2518002,-0.5690149,-0.8807027
1.135138,-0.2304672,-0.2124039,-0.2200445,-0.2985824,-0.6546541
1.043729,-0.3260018,-0.1632654,0.06383292,0.148671,-0.2352219
1.062991,-0.269435,-0.1047818,0.2734736,0.4232229,0.273476
1.176358,-0.07171973,-0.02480412,0.0630992,0.2024055,0.4640954
1.317764,0.1110054,-0.06173711,-0.2750448,0.07008859,0.3855486
1.373955,0.1557677,-0.06993265,-0.4231152,0.2946866,0.4998314
1.152331,0.03002689,-0.01630577,-0.4961728,0.3594283,0.6014754
0.7617717,-0.1006302,-0.002104656,-0.5863844,0.1472893,0.4900881
0.6031668,-0.1378792,0.03325927,-0.605433,-0.05288362,0.4540835
0.6764553,-0.1766167,0.005552666,-0.5890594,-0.1152734,0.4067875
0.7253611,-0.2042065,-0.03461662,-0.5771027,0.0365414,0.2714741
0.7445756,-0.2136226,0.01076756,-0.5102411,0.1715668,0.143596
0.7656411,-0.2083183,0.04224229,-0.4058827,0.03623167,0.0316795
0.7647071,-0.1695835,0.07890538,-0.3065641,-0.1589024,0.02414707
0.7770148,-0.1507359,0.1074477,-0.2848801,-0.3168178,0.0282986
0.8349711,-0.1003333,0.1120759,-0.3344304,-0.3666604,0.003639779
0.9233717,-0.03296508,0.1377868,-0.425541,-0.2778514,-0.004328404
1.052306,-0.02100417,0.1038671,-0.5567941,-0.2491794,-0.0643734
1.158784,-0.06752917,0.007902049,-0.5948772,-0.2071892,-0.1391242
1.134018,-0.1885194,-0.07294042,-0.5221756,-0.1912737,-0.1915193
1.147627,-0.3000692,-0.05389579,-0.3632164,-0.184027,-0.1299138
1.331818,-0.3174967,0.1385117,-0.08298778,0.1656979,0.04230287
1.492282,-0.1385321,0.280708,0.05734926,0.5242377,0.2471456
1.510548,0.09267595,0.110385,-0.1322652,0.4835237,0.6153019
1.462864,-0.01001965,-0.1390809,-0.2256216,0.4890921,0.9133168
1.322817,-0.3203499,-0.203054,0.07186995,0.652322,0.8053054
1.011304,-0.5158887,-0.2442789,0.3135462,0.588621,0.545436
0.8065173,-0.4669116,-0.2531307,0.2437781,0.4856409,0.2817262
0.845923,-0.2357477,-0.1487427,0.1431813,0.4682381,-0.02718321
0.844438,-0.1243265,-0.1516977,0.04844596,0.30635,-0.09617146
0.8754001,-0.1347305,-0.1980375,-0.1884365,0.2334839,0.01305852
1.03549,-0.2247651,-0.1754438,-0.2905828,0.2806933,-0.04659238
1.118277,-0.3716637,-0.12882,0.04754428,0.183566,-0.2218982
1.064859,-0.3427105,0.00105492,0.4566689,0.04180717,-0.4838628
0.939836,-0.2925083,0.02822868,0.5940787,-0.08561582,-0.6335797
0.8868151,-0.2809016,-0.05073107,0.7015198,-0.08731554,-0.4322426
0.8601363,-0.1806534,-0.0479675,0.7966904,-0.0257961,-0.2887767
0.8003492,-0.1085352,-0.05683177,0.6796259,-0.103758,-0.3111436
0.8019693,-0.004101126,-0.05841285,0.5321568,-0.06244376,-0.2184496
0.7989516,0.04208225,-0.04099941,0.4508983,0.01738932,-0.07808854
0.8346139,0.005030168,-0.01477257,0.3195766,-0.05622782,0.05831456
0.8602546,0.08260586,0.04881109,0.2139751,-0.04503382,0.1486134
0.8279746,0.1046976,0.05840573,0.1197782,-0.02103227,0.1530485
0.8696114,0.07027423,0.06618347,0.06058204,-0.01866442,0.1757483
0.8937824,0.04464986,0.08568627,0.1364161,0.04264471,0.2233651
0.962342,-0.07201848,0.07721184,0.1783073,0.02831156,0.2283237
1.054449,-0.1130116,0.07368815,0.1643473,0.01339317,0.1691887
1.060175,-0.06784387,0.05853576,0.06826344,0.0005416492,0.06396789
1.133123,-0.006641017,0.07166588,-0.1996946,-0.1598669,-0.08764201
1.185682,0.06656794,0.1055615,-0.3515099,-0.3605219,-0.2051845
1.231072,-0.03768497,0.1509808,-0.2492763,-0.4422254,-0.2036718
1.304516,-0.2079449,0.1733753,-0.1110488,-0.4701729,-0.2588875
1.258124,-0.2087144,0.02199817,-0.08991827,-0.5597606,-0.5089583
1.219373,-0.1749113,-0.2102238,-0.1712827,-0.5928021,-0.7962887
1.1793,-0.1963254,-0.3079236,-0.2840778,-0.5093003,-0.883513
1.097332,-0.2260318,-0.2829687,-0.2758218,-0.2720278,-0.7331649
1.060008,-0.2825405,-0.1836059,-0.02192378,0.2219859,-0.4630001
1.02176,-0.2870636,-0.03209285,0.2525112,0.4773255,-0.03359637
1.1003,-0.13571,0.003347216,0.25363,0.1713284,0.354677
1.303214,0.06777793,-0.08731556,-0.05047608,-0.003261775,0.3757169
1.371311,0.1228201,-0.09693489,-0.3630316,0.2524942,0.3413148
1.195274,0.02900573,-0.0607708,-0.4442471,0.3732737,0.408922
0.9008227,-0.05064506,-0.04813721,-0.5221955,0.2412314,0.3916484
0.7159219,-0.1144676,-0.0160707,-0.6091976,0.1480488,0.3997707
0.6712377,-0.1877385,-0.001157332,-0.5591649,0.03452889,0.3657425
0.6812374,-0.1957318,0.01470725,-0.5200869,-0.05756919,0.2684259
0.7175495,-0.1969772,0.02435737,-0.4649065,-0.0177736,0.1929026
0.7181606,-0.196751,0.02827722,-0.3873407,-0.09585097,0.0741809
0.7340861,-0.1515429,0.06279726,-0.4014631,-0.3322891,0.04958021
0.7871897,-0.1357443,0.08734126,-0.3978512,-0.5009811,0.06709745
0.8478381,-0.1140125,0.1147947,-0.3785544,-0.5107761,0.01141861
0.9721967,-0.0736148,0.1274808,-0.4446881,-0.4077173,-0.02674157
1.097923,-0.07684207,0.09544006,-0.5039966,-0.242784,-0.07109323
1.169498,-0.1095788,0.02375198,-0.5110464,-0.0620316,-0.1365734
1.14332,-0.1816824,-0.06133749,-0.4580622,-0.1058113,-0.2005588
1.115126,-0.2736683,-0.01246065,-0.2979259,-0.2202588,-0.1318556
1.334456,-0.2992995,0.1489275,-0.03261669,-0.06729976,0.1459717
1.582317,-0.1707514,0.2097033,0.2233135,0.008814521,0.5231885
1.595565,-0.04091044,0.03726715,0.1700002,0.04137301,0.8069865
1.500618,-0.1829032,-0.2497798,0.03266648,0.3820228,0.8056858
1.29073,-0.3960376,-0.3032037,0.1939561,0.7391256,0.7280233
0.9323622,-0.4169346,-0.1848076,0.2252318,0.831987,0.5711184
0.7065187,-0.3376905,-0.1692679,0.1049599,0.665054,0.1275013
0.7725953,-0.2042821,-0.1653265,0.07377362,0.4275525,-0.1844704
0.8332686,-0.1240452,-0.1932996,-0.1417692,0.1864808,-0.2100339
0.8873068,-0.1982618,-0.2495252,-0.2753922,0.06288357,-0.1588316
1.0801,-0.2879984,-0.1526673,-0.1125601,0.1878193,-0.1088385
1.084598,-0.3311685,-0.01456955,0.1592396,0.1224466,-0.2657679
0.9633481,-0.3262296,0.0277205,0.4959451,-0.01699044,-0.4770892
0.9236896,-0.2508016,-0.02490439,0.6271414,-0.004145972,-0.493902
0.8372191,-0.153138,-0.0859605,0.5894415,-0.04141831,-0.4187682
0.7984538,-0.06093489,-0.05927403,0.6177903,0.04055615,-0.3495239
0.8028674,-0.01189081,-0.05822888,0.5703815,-0.02998628,-0.3402282
0.7999139,-0.01685767,-0.0806625,0.4298062,-0.1519033,-0.2785021
0.8403924,-0.01825855,-0.06026892,0.3242063,-0.00478392,-0.1657808
0.8478079,0.004718391,-0.05730937,0.2757949,-0.01356275,-0.1198421
0.8389679,0.04114528,0.00282667,0.2225873,-0.04864334,0.001702494
0.8295365,0.05682901,0.0848257,0.1777967,-0.01073548,0.1289278
0.8622359,0.03239582,0.06611245,0.2088598,0.05138234,0.1645025
0.9572464,-0.01170765,0.0444109,0.2729615,0.1712138,0.2147614
1.006439,-0.05949195,0.0293729,0.3146559,-0.001060949,0.2062672
1.028663,-0.07167195,-0.02832908,0.2584575,-0.1570047,0.1876232
1.087958,-0.02941297,-0.007933418,0.1110288,-0.04732012,0.1857247
1.192045,0.03677014,0.06853123,-0.08413552,-0.03387337,0.009064625
1.236498,0.06366134,0.1025951,-0.270881,-0.1527754,-0.2634174
1.233386,-0.06005061,0.1808221,-0.1255125,-0.3112641,-0.3979932
1.30402,-0.2360503,0.2436675,0.180893,-0.4983241,-0.4041499
1.261262,-0.2255061,0.1057281,0.09995166,-0.6978758,-0.5549527
1.146392,-0.1547348,-0.1556206,-0.09663329,-0.7636289,-0.8830799
1.153165,-0.1861145,-0.3279145,-0.2514165,-0.610612,-0.9831969
1.119359,-0.2188415,-0.3298663,-0.3692521,-0.2823568,-0.7388887
1.088053,-0.2679105,-0.2008399,0.04111107,0.2035364,-0.3176517
1.140472,-0.2674051,-0.03995371,0.4313176,0.4443992,0.1724529
1.186441,-0.09296976,-0.002565923,0.1688122,0.1484251,0.4385041
1.282367,0.09589901,-0.06776727,-0.145154,-0.06203873,0.4462532
1.32573,0.1330159,-0.07484544,-0.3274201,0.2630811,0.4733333
1.135587,0.02126534,-0.06290222,-0.4821556,0.4477796,0.4601187
0.8141758,-0.09133456,-0.0458808,-0.4505033,0.1592699,0.4119481
0.611499,-0.1450223,-0.001978365,-0.4302137,-0.06602328,0.4382276
0.6085391,-0.2104446,-0.02112021,-0.4679127,-0.09492104,0.366272
0.6984262,-0.2221313,-0.04322206,-0.4224245,-0.004379346,0.2124598
0.8022326,-0.2039832,-0.02264732,-0.4104429,0.1524071,0.0635601
0.8235158,-0.1877645,0.006688682,-0.3885633,0.1319364,-0.04692067
0.78104,-0.1273767,0.08416395,-0.2948538,-0.1382,-0.0217174
0.8023512,-0.09984768,0.1446855,-0.2841218,-0.4292088,-0.02026894
0.8733832,-0.07770601,0.1387064,-0.3346157,-0.3998583,-0.07373965
0.9922389,-0.04560093,0.1419822,-0.4355353,-0.2814468,-0.09606852
1.119485,-0.06226041,0.1110289,-0.5809535,-0.2550252,-0.1553542
1.17297,-0.1028292,-0.01518628,-0.6025065,-0.07341024,-0.2097541
1.180389,-0.184236,-0.08144945,-0.428518,-0.1643689,-0.2465209
1.210278,-0.2934996,0.04179056,-0.1718194,-0.2982416,-0.141594
1.34986,-0.3174516,0.2183961,-0.07604166,0.2787047,0.1181316
1.503746,-0.131653,0.2339635,-0.08836004,0.7224529,0.3140382
1.533944,0.08009513,0.04529805,-0.1598342,0.4667275,0.5949106
1.488463,-0.01852373,-0.172027,-0.2941104,0.3264905,0.898038
1.330905,-0.2854969,-0.2518583,-0.06430289,0.5394455,0.8465059
1.04214,-0.4691084,-0.2501822,0.2257437,0.5843534,0.5174028
0.8072394,-0.4844445,-0.2001329,0.1042521,0.3901,0.1622276
0.7731646,-0.2804952,-0.1188175,0.0223302,0.2353333,-0.02877987
0.8414351,-0.1436346,-0.2170275,-0.1417067,0.1034435,-0.03970125
0.924523,-0.2222606,-0.3408525,-0.4293384,0.1169383,-0.0483138
1.078958,-0.3342826,-0.186649,-0.08282219,0.1803934,-0.1065846
1.142922,-0.4472492,-0.01844773,0.5647391,0.02086665,-0.3267868
1.022612,-0.4368154,0.01269307,0.8090789,-0.02220175,-0.5970901
0.9198047,-0.2814044,-0.008899941,0.9348373,0.0311758,-0.5470447
0.8599732,-0.1420923,-0.07798989,1.004466,-0.003294211,-0.3679697
0.7927883,-0.005840298,-0.06452164,0.8541578,-0.04914161,-0.276642
0.7853715,0.05605285,-0.05579957,0.6803121,-0.1741881,-0.1472282
0.8199625,0.04581995,-0.07766706,0.5019106,-0.1794047,-0.06727653
0.8331186,0.04300606,-0.01417474,0.3720347,-0.1480543,0.008492125
0.8383524,0.01669685,0.01192235,0.3428997,-0.2050219,0.1235422
0.8458749,0.03724816,0.03525577,0.2845957,-0.1631353,0.1476392
0.8662931,0.04842441,0.06298493,0.2235758,-0.09108983,0.1815403
0.9448115,-0.007245678,0.05999783,0.1797951,0.07311104,0.2152228
1.012722,-0.03413411,0.09650547,0.2498848,0.1893241,0.181487
1.022712,-0.0368725,0.04798411,0.3398695,0.006844282,0.1521028
1.074939,-0.02289723,-0.02409324,0.1477461,-0.1335916,0.1195792
1.153511,-0.004612754,0.004517845,-0.09513064,-0.02323361,0.07247942
1.16583,-0.001759134,0.07261278,-0.1826947,0.01902924,-0.07379302
1.176583,-0.04994656,0.1883208,-0.195769,-0.1903283,-0.2420456
1.236697,-0.1669054,0.2151112,-0.02336914,-0.4177725,-0.2542029
1.249076,-0.2224798,0.03248431,0.1586978,-0.4984715,-0.365809
1.212781,-0.200894,-0.2092762,0.03255774,-0.4536344,-0.6869744
1.177624,-0.2107647,-0.3221823,-0.1119765,-0.3827798,-0.9159082
1.11392,-0.2725302,-0.2730025,-0.02997098,-0.3104732,-0.9644666
1.074813,-0.3045465,-0.1529126,0.02242357,-0.02847693,-0.7932959
1.089529,-0.1935984,-0.008953209,0.192602,0.2454594,-0.3474385
1.151613,0.01906193,0.03333456,0.4443565,0.1859636,0.144665
1.289701,0.1824417,-0.07245912,0.1455934,0.07036679,0.3997898
1.349612,0.1835433,-0.1099361,-0.3602631,0.08743928,0.3572454
1.138096,0.03892974,-0.06921504,-0.5050846,0.150026,0.3182482
0.8304159,-0.1154312,-0.05559383,-0.5867931,0.202867,0.4050847
0.7483375,-0.1855981,-0.028682,-0.610703,0.157961,0.3886781
0.7475001,-0.2088681,-0.01633252,-0.5109391,0.03910992,0.3906062
0.6346678,-0.2733702,-0.01103455,-0.4626431,-0.0156824,0.3943008
0.6492242,-0.2746658,0.006532566,-0.3868658,-0.03591191,0.2567525
0.7629171,-0.1709811,0.001812191,-0.3573086,-0.09356998,0.1830367
0.791572,-0.1289506,0.02052025,-0.4211258,-0.1841429,0.1239846
0.8372294,-0.1153477,0.05794414,-0.4358158,-0.3292407,0.08192953
0.8664067,-0.1053971,0.07909086,-0.4359121,-0.3732517,0.08506225
0.9105037,-0.1044664,0.08518389,-0.4746937,-0.2685201,-0.006221184
1.050416,-0.05685893,0.07208835,-0.5789603,-0.1230303,-0.05683649
1.100312,-0.09024963,0.04669034,-0.653218,0.06100825,-0.1178482
1.085724,-0.1691335,-0.03435049,-0.5590249,0.04584568,-0.2111468
1.118659,-0.243201,-0.0792717,-0.344848,-0.09643822,-0.1666882
1.177238,-0.3197311,0.06606455,-0.06163523,-0.04951744,-0.04019307
1.33023,-0.1673671,0.1924032,0.07187339,0.06107279,0.1629201
1.456133,0.03519751,0.07319742,-0.05603309,0.286939,0.393874
1.450119,-0.0452847,-0.1203369,-0.09267719,0.5168036,0.6152269
1.431316,-0.258634,-0.2315215,0.03047259,0.5005948,0.7805078
1.300497,-0.4511723,-0.2648994,0.1201454,0.6252661,0.7054135
0.9649006,-0.4694287,-0.1743191,0.1902546,0.816977,0.4516558
0.7189636,-0.2471319,-0.08957466,0.1261648,0.602518,0.1019058
0.8055597,-0.08710431,-0.1598008,-0.1072449,0.2477182,-0.1104084
0.9590629,-0.1129333,-0.2524562,-0.2748137,0.1288759,0.03526164
0.9887411,-0.2181364,-0.2821076,-0.2076655,0.2106601,0.04910275
1.060847,-0.3710304,-0.1592992,0.1478946,0.2644233,-0.2571547
1.067059,-0.4428302,0.05347336,0.5415215,0.1656433,-0.5536256
0.9884352,-0.3474363,0.03434944,0.6922988,0.0555228,-0.714087
0.9433543,-0.1976082,-0.05223285,0.7363244,-0.01203254,-0.5534065
0.8178722,-0.09067603,-0.01766082,0.7516718,-0.08523415,-0.335253
0.7972981,-0.02139211,-0.05862489,0.6626791,-0.1310701,-0.3118966
0.878978,0.004598885,-0.07424489,0.5455407,-0.1403238,-0.1556448
0.8494232,-0.01506836,-0.01623104,0.4485963,-0.1252254,-0.03587984
0.8700265,-0.00520689,0.007038899,0.3844545,-0.1615859,-0.02283296
0.8893222,0.02568276,0.03471487,0.3556083,-0.1990717,0.1013389
0.880512,0.0414557,0.03818115,0.2529393,-0.06311334,0.144531
0.9191904,0.04897796,0.07362818,0.1531775,0.1104596,0.1735321
0.9060366,0.0134722,0.1223159,0.1977762,0.1519655,0.2269431
0.9440339,-0.01394881,0.08555743,0.2283771,0.09369018,0.2194859
1.014568,-0.01307292,0.06678666,0.1900469,-0.00915712,0.2535179
1.082389,-0.01310151,0.05552521,0.07525133,-0.05288298,0.2179411
1.215824,0.003492947,0.01824387,-0.1883347,0.005065282,0.0791865
1.242841,-0.0128598,0.04626164,-0.2792086,0.05694108,-0.1307182
1.191733,-0.1149152,0.1366383,0.03591422,-0.09867221,-0.2778691
1.210225,-0.2924504,0.2098001,0.4688256,-0.3321055,-0.2270331
1.203178,-0.3629091,0.1509975,0.616962,-0.4028982,-0.3848644
1.129405,-0.2219379,-0.07813693,0.3642822,-0.5023978,-0.8177291
1.059428,-0.1100728,-0.3514208,0.05765731,-0.5529591,-1.057551
1.041066,-0.137766,-0.4258571,0.02681665,-0.3085119,-0.9986971
1.095954,-0.2225617,-0.2374925,0.2019265,0.1640917,-0.702538
1.172872,-0.2740204,-0.05406458,0.3493727,0.5718646,-0.2608771
1.220393,-0.128042,0.01917485,0.2410931,0.4232535,0.09510864
1.257282,0.1260521,0.0376419,-0.1528735,0.143416,0.2919989
1.251273,0.1987042,-0.0172308,-0.6312478,0.2589748,0.3787201
1.172882,0.09513892,-0.02791638,-0.891342,0.1865222,0.3376489
1.021141,-0.0239434,0.01012422,-0.8323709,0.05874047,0.2958262
0.8275388,-0.1450403,0.008919573,-0.8003818,0.11751,0.3565849
0.7210907,-0.2274346,0.01718799,-0.8319769,-0.1039287,0.340109
0.7216139,-0.2156922,0.008350547,-0.716722,-0.2150549,0.2349706
0.7807881,-0.1947056,0.0004492373,-0.6580761,-0.01691016,0.0843148
0.8490763,-0.1827457,0.01508266,-0.6285113,0.07071716,-0.0860226
0.843897,-0.1557309,0.03013708,-0.5581278,-0.002293533,-0.06376047
0.8292836,-0.1479626,0.08564647,-0.5598821,-0.1502248,-0.01679887
0.8453428,-0.1045953,0.1085719,-0.5551842,-0.2152786,-0.08448476
0.8533716,-0.02785004,0.09616068,-0.6199979,-0.3058947,-0.09094484
0.9042631,-0.02222887,0.08431076,-0.7029914,-0.3802296,-0.1433253
1.006829,-0.1021072,0.009294531,-0.6785302,-0.3040464,-0.235352
1.072026,-0.2048205,-0.08203566,-0.5401039,-0.3412699,-0.2590765
1.077419,-0.2646564,-0.08953252,-0.2685534,-0.2875905,-0.228611
1.202632,-0.2531266,0.05435266,-0.09733341,0.02659864,-0.08509072
1.467871,-0.1162791,0.185533,-0.05608289,0.3239,0.1168473
1.593142,0.04337954,0.07504264,-0.07156222,0.3925986,0.3317931
1.56219,-0.05047168,-0.09848962,-0.1332463,0.3769406,0.5015024
1.428758,-0.2524773,-0.1383131,-0.06643801,0.570871,0.5637456
1.098374,-0.2952279,-0.1185185,-0.01314008,0.6006775,0.5357835
0.8395311,-0.260631,-0.1081491,-0.05917307,0.4649144,0.3845997
0.8419917,-0.1397509,-0.1518954,-0.1477377,0.3429579,0.2538087
0.9043868,-0.04556239,-0.2465264,-0.3636235,0.05000077,0.2049738
1.012732,-0.2006685,-0.2940681,-0.4447762,0.1964533,0.1652899
1.117605,-0.4084211,-0.2070478,-0.1109834,0.4440554,0.08299589
1.017315,-0.4491829,-0.04004924,0.4120014,0.1219818,-0.1986248
1.282211,0.05155789,-0.09083647,-0.3888449,0.3734119,0.4256132
1.220566,0.07835166,-0.08656311,-0.6100981,0.3016819,0.4386246
1.036522,-0.03738708,-0.06495574,-0.7145448,0.1513748,0.4251429
0.8393842,-0.07835125,0.00261,-0.6921415,0.1020148,0.430195
0.772069,-0.1287107,-0.02459775,-0.7947434,0.09541549,0.4145324
0.7957959,-0.2218367,-0.06618212,-0.7355877,0.2477057,0.3700956
0.7757283,-0.2295026,-0.0325398,-0.6420357,0.3080451,0.306194
0.7565156,-0.2252654,-0.02768697,-0.6930023,0.1790052,0.2488824
0.7603972,-0.1934366,0.01135616,-0.6225932,0.05860139,0.2213161
0.7678223,-0.1670637,0.04361494,-0.623805,-0.05834811,0.1632928
0.8074043,-0.186284,0.03748885,-0.6755963,-0.02008403,0.04135034
0.8695807,-0.1448354,0.1034319,-0.6775444,-0.01476129,-0.04595027
0.8958193,-0.08317726,0.1495456,-0.819644,-0.1506437,-0.05060403
0.9248576,-0.01849576,0.1389041,-0.9306573,-0.1721488,-0.04712389
1.039016,0.004433521,0.08946575,-0.9775731,-0.1950085,-0.07614423
1.135202,-0.081593,-0.03247667,-0.9811612,-0.2032839,-0.1469987
1.154696,-0.2021361,-0.08324598,-0.8513373,-0.1453347,-0.1803408
1.249452,-0.296087,0.04220337,-0.6921192,-0.001022152,-0.03463489
1.424716,-0.2291775,0.1619854,-0.5662705,0.2017184,0.2560144
1.527673,-0.09671461,0.07634381,-0.6045682,0.1699069,0.5719503
1.557007,-0.1373267,-0.09531224,-0.6278128,0.2113922,0.8150528
1.492783,-0.2990512,-0.2178034,-0.3870717,0.5508267,0.8376762
1.241316,-0.4880214,-0.2556042,-0.226222,0.7812364,0.6045174
0.9013125,-0.4924274,-0.1208743,-0.2785788,0.8493835,0.2489431
0.6888824,-0.2938619,-0.0303666,-0.3361611,0.7230645,-0.05599862
0.71603,-0.1493548,-0.1222585,-0.3995511,0.3215813,-0.1167916
0.8243403,-0.05666163,-0.2068419,-0.5719843,-0.04326267,0.02840582
0.9338472,-0.1191521,-0.2761454,-0.6903392,-0.1324027,0.08697762
1.093216,-0.2720234,-0.2638058,-0.4786728,0.02642482,-0.008427701
1.075591,-0.2972236,-0.1144031,-0.2070642,0.1621139,-0.2084417
0.9506643,-0.3713224,-0.001276851,-0.0771757,0.1299053,-0.4496306
0.9160138,-0.3593728,0.0009151193,0.1340947,0.1195817,-0.458009
0.8386821,-0.2088346,-0.0674155,0.2996736,0.07015514,-0.3144672
0.8089451,-0.1535964,-0.09305838,0.2840454,-0.01453158,-0.3004861
0.8321814,-0.06330702,-0.07911958,0.2347184,0.03766747,-0.2349875
0.8082627,-0.01715674,-0.07711921,0.1772693,0.08015152,-0.09085255
0.8190319,-0.01028188,-0.02642413,0.07792713,0.07656763,-0.0148918
0.8246657,0.0905212,0.01185078,-0.02607184,0.04355406,0.1073702
0.8476365,0.09136139,0.0301859,-0.1316227,-0.01181787,0.2139398
0.889796,0.05137311,0.05669598,-0.2390166,0.07338364,0.2516478
0.9212478,0.008819083,0.05065383,-0.2396009,0.21017,0.299378
0.9729497,-0.07093297,0.04084763,-0.1517558,0.2439302,0.3041101
0.9901502,-0.09992298,0.004562166,-0.09944203,0.1726943,0.3017937
1.04972,-0.1174004,-0.02800301,-0.1028221,0.1012717,0.2925569
1.148903,-0.04144463,-0.01365414,-0.2008641,0.1121635,0.1878258
1.224623,0.02322186,0.04282991,-0.3457176,0.01278025,-0.03451796
1.318602,-0.1177698,0.145619,-0.3738457,-0.2098687,-0.2349401
1.315521,-0.2387952,0.1362726,-0.2124634,-0.3082041,-0.2347474
1.245785,-0.1831793,-0.06163472,-0.08954329,-0.3317894,-0.3223438
1.231785,-0.121287,-0.3132135,-0.302713,-0.3944001,-0.6187761
1.22804,-0.1373884,-0.4445746,-0.5817145,-0.3789342,-0.7129933
1.201125,-0.1505412,-0.3705152,-0.5707269,-0.2244986,-0.6292788
1.058288,-0.2476485,-0.1864931,-0.3872584,0.04079424,-0.4871765
0.8921829,-0.3747693,0.002637141,-0.1370507,0.2231701,-0.1039113
0.9810234,-0.2839648,0.01826607,0.02082623,0.07007071,0.3045319
1.247337,-0.07828259,-0.1161144,-0.1109245,-0.06012124,0.450839
1.413737,0.0678245,-0.1140508,-0.3050629,0.1674456,0.4648373
1.333374,0.049203,-0.08805594,-0.4036235,0.337674,0.5028358
1.058175,-0.06779362,-0.08967095,-0.5389317,0.2962613,0.548255
0.8215675,-0.07058166,-0.0225279,-0.6541777,0.2142843,0.5511658
0.7075952,-0.118371,-0.05675935,-0.7304916,0.1149155,0.5257002
0.6711829,-0.201417,-0.07476538,-0.7867264,0.1383041,0.4549388
0.7204917,-0.1768047,-0.01489039,-0.708562,0.1772567,0.2915392
0.7738775,-0.2130144,-0.007950661,-0.6126556,0.1101279,0.1276375
0.7738222,-0.2208014,0.02841077,-0.5631105,0.07612725,0.05527788
0.7778034,-0.1720494,0.05130629,-0.4874202,0.005290816,0.02019586
0.8051849,-0.1828477,0.066189,-0.4904969,-0.04743179,-0.02340392
0.8290071,-0.1336447,0.1096348,-0.5623289,-0.01990351,-0.06382895
0.9103182,-0.07042439,0.1191135,-0.6696319,-0.03014642,-0.09601952
1.05263,-0.05460134,0.1145228,-0.8189057,0.06196268,-0.1323484
1.078852,-0.0678807,0.04067279,-0.8543983,0.115264,-0.1896486
1.04844,-0.1554739,-0.05779089,-0.7307105,-0.2179368,-0.1974302
1.125848,-0.268968,-0.0517287,-0.5449276,-0.498684,-0.06061611
1.307301,-0.3092795,0.09692406,-0.3483081,-0.1683372,0.1781545
1.564773,-0.1655621,0.2266757,-0.2114095,0.230089,0.4758049
1.66003,-0.04013707,0.04751055,-0.2088256,0.2207893,0.7964634
1.54683,-0.2129696,-0.2198148,-0.1498228,0.4118709,0.9537351
1.384573,-0.4406585,-0.2538998,0.07495075,0.766996,0.8555756
1.04078,-0.4863281,-0.2074069,0.1121161,0.773367,0.538822
0.7479391,-0.3916547,-0.1500044,-0.02746518,0.7032865,0.07722683
0.7673723,-0.2075712,-0.09678911,-0.1191797,0.5261013,-0.1659319
0.7822472,-0.07343885,-0.1821971,-0.3825813,0.2050997,-0.09781621
0.8309625,-0.09817798,-0.2801854,-0.6383565,0.0836658,-0.04318541
1.028668,-0.2242691,-0.2083582,-0.4975726,0.1298038,-0.003375621
1.079262,-0.3287695,-0.09319472,-0.1893053,0.194378,-0.1555881
0.9923422,-0.3420101,-0.05241631,0.03505587,0.07543497,-0.5062696
0.9212394,-0.2723828,-0.05691062,0.2174327,-0.03341672,-0.5044032
0.8733344,-0.17608,-0.09945794,0.2957516,0.03934337,-0.3376886
0.8414914,-0.1094074,-0.1043576,0.2394723,0.007142292,-0.2898549
0.8230303,-0.06441152,-0.07503458,0.2035268,0.0319757,-0.2054643
0.8484897,-0.04692698,-0.06148194,0.1895425,0.09118133,-0.1459109
0.8435814,-0.03849775,-0.01868149,0.1468296,0.05244994,-0.04770721
0.8194349,0.01664731,-0.01355479,0.09327825,0.04939362,0.04145283
0.8219646,0.07268422,-0.02099828,-0.02092615,-0.0174217,0.1114386
0.8073881,0.07448612,0.01877123,-0.1257218,-0.01600191,0.2278099
0.8620964,0.01140829,0.03509544,-0.1266192,0.0552616,0.2464048
0.9388551,-0.07431868,0.0628269,-0.01066636,0.04822249,0.2745184
0.9651111,-0.09986194,0.06122647,0.1265958,-0.02275231,0.2519221
1.052213,-0.07105669,-0.006446911,0.1245593,-0.1155512,0.1661348
1.184298,-0.03031388,-0.04246088,0.02580959,0.03672758,0.1454788
1.230197,-0.007817154,-0.003313364,-0.1340985,0.1961074,-0.0584975
1.188453,-0.05698424,0.1425019,-0.2357428,0.009165359,-0.2858885
1.205234,-0.1741539,0.269202,-0.01061544,-0.2696176,-0.3089318
1.228845,-0.2323579,0.204302,0.2212684,-0.4618996,-0.4047922
1.182631,-0.182377,-0.01505487,-0.01486388,-0.4786889,-0.6671645
1.164095,-0.1565921,-0.3141191,-0.3579873,-0.4494647,-0.9194153
1.127359,-0.1882486,-0.499954,-0.412116,-0.4550245,-0.9692876
1.15076,-0.2164909,-0.3493105,-0.2609296,-0.07418361,-0.7351198
1.255125,-0.2430559,-0.1121393,0.07470171,0.5269261,-0.245368
1.254941,-0.2147282,-0.07318523,0.2604414,0.6696192,0.3058512
1.244825,-0.07017825,-0.07836181,-0.008048945,0.3594716,0.5323359
1.261598,0.08707393,-0.08634691,-0.3372904,0.1480573,0.3738666
1.219884,0.09078149,-0.09129546,-0.4770592,0.2876888,0.312595
1.061143,-0.01962213,-0.05068884,-0.5819097,0.3517173,0.4641779
0.7631374,-0.095859,-0.06536503,-0.6936721,0.184596,0.4777455
0.621608,-0.1415469,-0.04812012,-0.7189611,0.132028,0.4732588
0.6837775,-0.1771476,-0.02981224,-0.7015073,0.08288114,0.4511842
0.7068161,-0.1825905,-0.03248724,-0.714511,0.005178667,0.2728675
0.7353034,-0.1781456,0.03655847,-0.6509814,-0.0308478,0.2199001
0.7663364,-0.1522601,0.04842541,-0.5494636,-0.2300771,0.1864075
0.7734349,-0.1251072,0.07124959,-0.5091774,-0.3667646,0.1008313
0.8282422,-0.09691932,0.0999887,-0.5374851,-0.2792928,0.07939373
0.8736743,-0.04294378,0.07586142,-0.6372396,-0.1990656,-0.006356553
0.9537611,-0.04176408,0.1103707,-0.760957,-0.1888688,-0.02783038
1.094927,-0.08245884,0.06314834,-0.9015383,-0.1196384,-0.009307641
1.139728,-0.123226,-0.05310367,-0.9122518,-0.03891152,-0.05407516
1.128659,-0.1993573,-0.08260789,-0.7204695,-0.1923351,-0.0442095
1.244864,-0.2475497,0.04087559,-0.4703849,-0.3111271,0.03270077
1.44607,-0.1768849,0.2256636,-0.1981428,-0.1446017,0.2359989
1.523162,0.006396217,0.1803834,-0.07112399,-0.04586167,0.5292758
1.466626,0.08355297,0.02010189,-0.2047551,0.0133014,0.8339699
1.395738,-0.1566997,-0.1601223,-0.2817587,0.4580145,0.9936837
1.189994,-0.4625317,-0.3609848,-0.04674997,0.9981902,0.8188392
0.9070237,-0.4678519,-0.2523625,0.139252,0.8373777,0.5064415
0.8454974,-0.2998451,-0.06339734,-0.06861761,0.3677571,0.1901972
0.8683321,-0.2151461,-0.1070523,-0.27685,0.2899952,-0.01903513
0.8370645,-0.1726772,-0.1826928,-0.3419269,0.1755976,-0.0008042592
0.9278513,-0.2054881,-0.2760095,-0.4485498,0.06655309,-0.007734414
1.07442,-0.3198912,-0.23483,-0.2419205,0.1320322,-0.1107313
1.13355,-0.3759632,-0.05993775,0.173809,0.09225827,-0.3094074
1.051324,-0.380992,-0.05145332,0.2625578,0.09377477,-0.547192
0.8721228,-0.2822161,-0.05274941,0.2901391,0.04628579,-0.4880993
0.8016972,-0.1334689,-0.05529061,0.417476,-0.0307316,-0.3418843
0.7916982,-0.06460111,-0.1133443,0.3085092,-0.05128571,-0.326272
0.7820917,-0.02687554,-0.08821423,0.1566126,-0.1551269,-0.2248819
0.8378782,-0.04886557,-0.1054691,0.1346829,-0.1442085,-0.1420544
0.8392756,-0.07030012,-0.07660444,0.09943613,-0.09003511,-0.07521413
0.8332735,-0.06578987,0.004534383,0.1188156,-0.04957644,0.03795496
0.8514612,-0.07583535,-0.007765795,0.1290032,-0.02701523,0.09274084
0.8407096,-0.02039222,0.03243191,0.1186411,-0.07068089,0.2078005
0.889708,0.01421674,0.08015593,0.182033,0.03919891,0.3338714
0.9243943,-0.001184946,0.07061427,0.2178013,0.09077356,0.3416757
0.9657202,-0.0353383,0.04076237,0.2409359,0.0490513,0.2494294
1.060825,-0.1073976,-0.006687127,0.2366185,0.08166057,0.130778
1.096447,-0.1095554,-0.01464223,0.1056932,0.04256628,0.0962388
1.128142,-0.012868,-0.0005540034,-0.1460547,-0.02180911,-0.03709591
1.177943,0.06032123,0.08335199,-0.3076555,-0.1390418,-0.2821799
1.207181,-0.06176133,0.1907494,-0.1267388,-0.2874782,-0.3365865
1.205576,-0.2293086,0.162487,0.08049121,-0.4387034,-0.3479214
1.168773,-0.193895,-0.01354694,0.01058125,-0.6102687,-0.5944748
1.166932,-0.1658999,-0.2548636,-0.1532427,-0.6638854,-0.8845681
1.175476,-0.2255853,-0.3618898,-0.2923824,-0.598395,-0.9101663
1.16146,-0.2808018,-0.2860191,-0.2033413,-0.2370569,-0.7280397
1.143047,-0.3619147,-0.1727039,0.1411949,0.3101849,-0.4844862
1.121503,-0.2964423,-0.048446,0.4333881,0.5101908,-0.07120369
1.156866,-0.09282903,0.01452385,0.5095965,0.2897241,0.3611758
1.228515,0.02848722,-0.06069085,0.2228099,0.06990516,0.4400566
1.241546,0.06981949,-0.1139421,-0.1609112,0.1691471,0.3143163
1.169427,0.04521272,-0.09481707,-0.2775134,0.1838707,0.2972239
0.9843913,-0.0474575,-0.08362355,-0.3747311,0.00714346,0.3407711
0.7370428,-0.1825968,-0.02965014,-0.4216445,-0.03375512,0.3624951
0.6422643,-0.2797432,-0.01725319,-0.3262854,-0.1003035,0.3649714
0.735423,-0.2340471,-0.05233884,-0.3129723,-0.04229887,0.3049857
0.7870631,-0.1849227,-0.02483628,-0.2828404,0.1042301,0.1868354
0.7673178,-0.1763527,-0.02755453,-0.2537171,0.0620463,0.1274284
0.7729364,-0.127012,-0.005474246,-0.2938106,-0.05928684,0.119546
0.7587025,-0.1116217,0.05791771,-0.3118167,-0.3027933,0.07539505
0.7839176,-0.08788591,0.06666948,-0.388363,-0.3620393,0.06416243
0.9117413,-0.06755459,0.09729184,-0.469128,-0.2391759,0.04910917
1.077074,-0.09584477,0.08933894,-0.5136359,-0.2146394,-0.02638311
1.191662,-0.1223552,-0.007779031,-0.5768146,-0.01919495,-0.1082346
1.139597,-0.2184891,-0.07435663,-0.5531418,0.04703628,-0.2345739
1.100636,-0.3158773,-0.01240625,-0.3797369,-0.1443645,-0.2875154
1.262245,-0.3037003,0.1344549,-0.09813888,-0.1930058,-0.1270529
1.446767,-0.1892441,0.1760049,0.1421477,-0.1431518,0.1701609
1.618382,-0.05644551,0.06393307,0.2075746,0.02952615,0.5636724
1.685457,-0.114274,-0.1466448,0.1916639,0.3283244,0.9208977
1.508732,-0.3106558,-0.3349063,0.2600035,0.6088309,0.9673415
1.298913,-0.4312444,-0.3199634,0.3408806,0.7164083,0.6731081
1.021355,-0.3938898,-0.1386592,0.2021675,0.5919674,0.2679174
0.6851606,-0.2668593,0.008804299,0.01146506,0.482115,-0.05691493
0.7401869,-0.2347976,-0.05404975,-0.009309264,0.3389156,-0.1779835
0.9946992,-0.244159,-0.2309711,-0.1680908,0.08577845,-0.1198169
1.021672,-0.2257906,-0.3037015,-0.3502452,0.02147463,-0.0623476
1.095729,-0.2493751,-0.2708613,-0.05497918,0.1232598,-0.0666588
1.113522,-0.2829572,-0.1451902,0.3503144,0.1195684,-0.2106265
0.9121044,-0.3301541,-0.01750133,0.4465008,0.04768129,-0.4354254
0.8845058,-0.3109033,-0.004324555,0.5457857,0.03579209,-0.424209
0.8759933,-0.2009801,-0.05965466,0.6503448,0.03908986,-0.3058321
0.8097696,-0.1068272,-0.1155459,0.5446237,0.03094771,-0.30586
0.8250614,-0.02476387,-0.0931211,0.4233384,-0.03979601,-0.2389209
0.771066,-0.01562597,-0.06866766,0.3488107,-0.1346803,-0.1127282
0.8016405,-0.02927993,-0.07789306,0.2663571,-0.1117659,0.006187509
0.8192374,-0.003117537,-0.03068285,0.2534572,-0.1097164,0.1345705
0.791564,-0.01988408,-0.01301548,0.2407915,-0.1469062,0.1809437
0.875033,-0.01645401,-0.007505886,0.240753,-0.03952098,0.2263529
0.9138572,-0.01715244,0.03937609,0.3133925,0.1353651,0.2676841
1.005363,-0.04463368,0.07091444,0.3732608,0.2145041,0.1961557
1.046391,-0.0408092,0.06023347,0.3992337,0.1394896,0.111539
1.014448,-0.06488983,0.002320933,0.3243331,0.06944042,0.08075827
1.093668,-0.0694174,-0.004030275,0.1761405,0.0950815,0.07002555
1.117086,-0.01498573,0.02854456,0.05928748,-0.006996205,-0.03720202
1.180985,0.009627548,0.07898934,-0.02307283,-0.2064987,-0.2248256
1.261945,-0.09057823,0.1553455,0.08018993,-0.3308261,-0.2907925
1.224219,-0.2144572,0.08295544,0.2022973,-0.4540346,-0.3800411
1.205078,-0.1690724,-0.113214,0.004907708,-0.511616,-0.6743775
1.168235,-0.1324013,-0.2995172,-0.2186533,-0.4758508,-0.9153404
1.123723,-0.2097857,-0.3643818,-0.2222767,-0.4692404,-0.9201768
1.11543,-0.2864198,-0.2331528,-0.1076356,-0.2662669,-0.7473185
1.131549,-0.3906928,-0.111575,0.157525,0.2154416,-0.3883865
1.172215,-0.327484,-0.06611656,0.3735301,0.4813966,0.071258
1.211771,-0.04040435,-0.05126183,0.2233705,0.2750772,0.3423222
1.276262,0.141602,-0.09003864,-0.1249374,0.1050016,0.3295052
1.257076,0.1301405,-0.07323103,-0.3870451,0.3162778,0.2786179
1.061044,0.01428993,-0.05069579,-0.5460965,0.4003664,0.3076277
0.8209558,-0.09308404,-0.05715633,-0.6224546,0.2347639,0.3053133
0.7165354,-0.1667085,-0.02273101,-0.6561762,0.1631829,0.2944083
0.7154304,-0.2309788,-0.02168996,-0.6360722,0.03516989,0.2819292
0.7093554,-0.209098,-0.01937807,-0.5451074,-0.05932551,0.1924595
0.766896,-0.2082276,-0.001634149,-0.4992409,-0.02189944,0.09511179
0.7915706,-0.2051419,0.004816987,-0.4363362,-0.09985868,0.05257176
0.7554433,-0.1354848,0.04189102,-0.3763549,-0.1947249,0.05154418
0.8074649,-0.1333054,0.05716465,-0.4076575,-0.2702488,0.03151013
0.8396767,-0.07489152,0.07599109,-0.3906756,-0.3569869,-0.02489473
0.886708,-0.008068878,0.08972557,-0.447064,-0.325867,-0.03995818
1.009308,-0.06313689,0.04686487,-0.5997146,-0.1154559,-0.06203644
1.08011,-0.09583309,-0.005220494,-0.6281309,0.06286721,-0.1391519
1.115557,-0.1582787,-0.05894353,-0.5112351,-0.2260526,-0.1824201
1.181407,-0.2615663,-0.006295707,-0.2524162,-0.4845788,-0.09098819
1.3612,-0.2456793,0.1750659,0.03021982,-0.001321316,0.1220053
1.509848,-0.05505768,0.2618217,0.17487,0.4101993,0.3179359
1.494384,0.09979657,0.08792684,0.0219455,0.1795891,0.5533836
1.490649,-0.08428965,-0.1909071,-0.1603609,0.1140306,0.8191384
1.377544,-0.399818,-0.2278428,0.1441601,0.3520698,0.8260322
1.06931,-0.4913476,-0.1504297,0.4090482,0.4038415,0.6212298
0.8555147,-0.4093114,-0.169384,0.2920948,0.4449253,0.3796678
0.8127988,-0.2548267,-0.1415302,0.2454025,0.4493209,0.08907881
0.8160936,-0.09794614,-0.1957501,0.0467946,0.2414139,-0.0787527
0.8738265,-0.1087152,-0.2949765,-0.3202971,0.1536001,-0.05962478
0.995499,-0.2639036,-0.1937966,-0.3123249,0.1787799,-0.04630371
1.037205,-0.3700443,-0.06331045,0.01064437,0.0809582,-0.1115899
0.9857943,-0.3752289,-0.0003972616,0.3172502,-0.08386612,-0.2811855
0.9424771,-0.2737024,0.00318882,0.4843508,-0.1816808,-0.4532212
0.8793689,-0.1199411,-0.05765678,0.499249,-0.1123335,-0.4030007
0.7982183,-0.03940511,-0.07379039,0.4690834,-0.04052779,-0.2964434
0.7771702,-0.02041074,-0.08001397,0.3980317,-0.09377104,-0.3061246
0.8028202,-0.03048647,-0.06734981,0.2357937,-0.116053,-0.2250837
0.7872617,-0.04120616,-0.01975645,0.1864523,-0.1146449,-0.1104959
0.7818593,-0.02518025,-0.02455542,0.2286192,-0.1575987,-0.05495584
0.8363331,-0.02188507,-0.01957022,0.1583933,-0.1665184,0.06960336
0.8730191,0.00148241,0.01126523,0.1119527,-0.1403385,0.1675499
0.9154588,0.03608265,0.03091415,0.1118332,-0.0620481,0.2505529
0.9895912,0.02531518,0.06121949,0.1242924,0.1207421,0.3107826
1.054169,-0.01056663,0.06123353,0.1908771,0.226525,0.1924588
1.060544,-0.06979304,0.0332389,0.1950981,0.1109791,0.1007589
1.033827,-0.08253105,-0.00139384,0.1065753,-0.01567137,0.115315
1.07866,0.002307673,-0.02181852,-0.1026653,-0.03487139,0.04046982
1.167036,0.03967631,0.03641899,-0.2602285,-0.1398436,-0.1278912
1.269124,-0.09846973,0.1378482,-0.07187386,-0.2763853,-0.2663824
1.313819,-0.2847608,0.1637119,0.2642848,-0.3033846,-0.2931102
1.243576,-0.2912741,0.03057993,0.3812966,-0.3895032,-0.4205323
1.196679,-0.196099,-0.1864918,0.1380497,-0.4383865,-0.7575305
1.154613,-0.1804785,-0.3436158,-0.1846209,-0.3295598,-0.9430372
1.133304,-0.2012472,-0.4053411,-0.1370725,-0.1744082,-0.8644364
1.152768,-0.2439223,-0.276601,0.1525678,0.1274951,-0.6230124
1.052693,-0.2724168,-0.01768297,0.381682,0.3371054,-0.1589339
1.007579,-0.1757018,0.04557193,0.4336079,0.156249,0.2388609
1.135937,-0.01056487,-0.05727765,0.1787916,-0.002869001,0.2889976
1.261576,0.06625282,-0.1061375,-0.173068,0.1187146,0.2391076
1.284742,-0.001405689,-0.1152624,-0.3687963,0.2119112,0.2463569
1.095431,-0.1041655,-0.0753573,-0.3835314,0.2015681,0.2629323
0.8153467,-0.1861312,-0.01774598,-0.2786654,0.1739319,0.3007873
0.6769321,-0.2395577,-0.01643553,-0.2839881,0.04636426,0.3391701
0.6776291,-0.1966059,-0.03013517,-0.3149396,0.01814395,0.3307751
0.733512,-0.1605409,-0.03208238,-0.2842387,0.06585389,0.2559377
0.7541554,-0.1617792,-0.008153316,-0.3209937,-0.07018002,0.16464
0.7506078,-0.1178014,0.03017461,-0.2934875,-0.2318149,0.08878444
0.7671664,-0.1126715,0.05982586,-0.2895154,-0.4161035,0.04900721
0.8146839,-0.1079165,0.08334971,-0.3383795,-0.4842358,0.01413495
0.9079466,-0.06480658,0.08823857,-0.3437816,-0.3204117,-0.06477539
1.000674,-0.07355674,0.0752879,-0.4311994,-0.1968996,-0.06879182
1.077003,-0.1119855,0.0284025,-0.4386875,-0.04310775,-0.07393906
1.117575,-0.1779588,-0.05486266,-0.3550988,-0.07452935,-0.1941045
1.131052,-0.2583082,-0.08219085,-0.2526535,-0.3452608,-0.2306796
1.256642,-0.2778694,0.07637817,-0.009048706,-0.363381,-0.06469485
1.528144,-0.1673964,0.2412626,0.1626122,-0.1892502,0.2836881
1.70261,-0.01361727,0.07649038,0.1659114,0.04785423,0.5985117
1.622804,-0.079936,-0.1737858,0.1491727,0.2546325,0.6655557
1.399252,-0.2950358,-0.196627,0.160102,0.4342122,0.6099771
1.058061,-0.4295,-0.166556,0.1808137,0.5813226,0.4936117
0.7650543,-0.4298451,-0.1316871,0.1508681,0.4230911,0.280898
0.7238001,-0.278699,-0.1079859,0.1121473,0.3662372,0.08513361
0.7509402,-0.1488583,-0.2037261,0.03667668,0.3018247,0.03736477
0.8593308,-0.1259551,-0.2929292,-0.1724036,-0.01589514,0.08021935
1.071469,-0.2046711,-0.2582601,-0.3200642,0.1371513,0.07340943
1.108977,-0.3655771,-0.1170584,-0.1159947,0.268934,-0.003966784
1.008086,-0.3583581,0.01978814,0.2503813,-0.009229357,-0.2453669
0.9150043,-0.2614485,0.03067696,0.3837826,-0.03439592,-0.5426241
0.8503859,-0.2105121,-0.04214054,0.3989128,0.01036804,-0.5271568
0.8412535,-0.1070815,-0.07700014,0.4208513,0.02421045,-0.357991
0.8434446,-0.04374308,-0.05244505,0.3495293,0.04730175,-0.348522
0.8405529,-0.004861181,-0.05091157,0.2825626,-0.02165365,-0.3151052
0.8419995,-0.004946035,-0.04448063,0.2195704,-0.01436147,-0.2187559
0.8471297,-0.03179483,-0.008165826,0.1579165,-0.0250534,-0.146323
0.8493937,0.02203379,0.005001797,0.1394844,-0.01810773,0.004448424
0.8438693,0.02428799,0.0381378,0.1190279,0.03235618,0.09360858
0.8574588,0.02211232,0.05852633,0.156917,0.0992111,0.0998315
0.9156431,0.03018932,0.05406896,0.1934729,0.2302015,0.1386298
0.9943184,-0.034154,0.07127585,0.2192029,0.1934496,0.08614284
0.996683,-0.07579717,0.02988491,0.2586937,0.09750664,0.03664352
0.9697908,-0.1047857,-0.02620651,0.1639839,0.05289287,0.02584589
1.03324,-0.05085659,0.01271789,-0.03560586,-0.07955181,-0.09312756
1.146447,0.019936,0.09868465,-0.1831849,-0.1786666,-0.2215342
1.256206,-0.05616274,0.1720612,-0.05256153,-0.2791876,-0.2562822
1.292594,-0.157655,0.1765118,0.2465933,-0.4248476,-0.2550251
1.276377,-0.2276221,0.07345216,0.2749968,-0.4840711,-0.3882716
1.28291,-0.2078132,-0.06554599,0.07530755,-0.464512,-0.6527922
1.231937,-0.16399,-0.2015743,-0.1227226,-0.4426176,-0.8532327
1.178085,-0.2776403,-0.3008904,-0.1335214,-0.3451244,-0.8880008
1.128344,-0.3793104,-0.2714865,0.07409654,-0.03800028,-0.6773443
0.9836377,-0.3595701,-0.1515504,0.2978523,0.1694483,-0.2728811
0.946037,-0.2549108,-0.0228264,0.4776876,0.04582451,0.1437113
1.106996,-0.05116363,0.01803113,0.3201348,0.005310042,0.3501078
1.285396,0.07878205,-0.07439894,-0.07025116,0.1896443,0.3066164
1.293954,0.03907956,-0.1093671,-0.1774504,0.2580574,0.2911679
1.05581,-0.05967408,-0.04102825,-0.1887454,0.1023582,0.3096536
0.7910637,-0.1590449,-0.001909692,-0.1805095,-0.0932672,0.2734673
0.7202551,-0.2153566,-0.0007676576,-0.1461434,-0.1380087,0.2938274
0.7880799,-0.1978392,-0.0233205,-0.204608,-0.01369721,0.2891717
0.8044321,-0.1803931,-0.03203705,-0.1666163,0.1309205,0.2362928
0.7635433,-0.1822156,-0.007418238,-0.170892,0.1383426,0.1881743
0.7656962,-0.1495631,0.03945287,-0.1881897,-0.1052749,0.1441551
0.7314109,-0.1337647,0.09404824,-0.1212718,-0.4503484,0.1612615
0.7685389,-0.1234866,0.09941811,-0.1608176,-0.5057656,0.137569
0.906311,-0.0685586,0.1087266,-0.1755568,-0.3612244,0.03346533
0.9602031,-0.04693232,0.1370868,-0.2361275,-0.3265358,-0.06580744
1.034209,-0.05579742,0.08298196,-0.3881927,-0.2544397,-0.1520951
1.097885,-0.08019806,-0.009002573,-0.4304274,-0.1838164,-0.1795075
1.101217,-0.1540842,-0.04865906,-0.3329426,-0.3365528,-0.1843591
1.193491,-0.2321665,-0.005366594,-0.1346123,-0.4020696,-0.1608231
1.344553,-0.236451,0.1372154,0.003537806,-0.062103,0.01004158
1.50073,-0.1012245,0.241289,0.1296894,0.2701796,0.3037739
1.546822,0.010974,0.104391,0.1407554,0.1816014,0.5980323
1.469735,-0.1098907,-0.1665381,0.001780312,0.2052619,0.7050323
1.334621,-0.2900854,-0.3007438,0.1067306,0.5588044,0.6034984
1.060577,-0.3573746,-0.2889923,0.1572037,0.5932964,0.4210246
0.8562513,-0.3990563,-0.1719294,0.060566,0.4687498,0.112317
0.8120205,-0.3703796,-0.04896955,0.09752802,0.4953779,-0.1096779
0.7982488,-0.2156123,-0.1533359,-0.06491884,0.2859538,-0.02925858
0.9030093,-0.1297156,-0.2841015,-0.21808,0.07340836,-0.02470874
1.001824,-0.2342507,-0.2162203,-0.04458387,0.2046924,-0.1673405
1.032663,-0.3846288,-0.1149679,0.2606178,0.2996789,-0.2657192
1.024366,-0.3796631,-0.0003176502,0.6049376,0.1331641,-0.5251928
0.8951685,-0.2726369,0.03250211,0.7856756,0.009047911,-0.6637315
0.8357039,-0.1866692,-0.06473396,0.8394168,0.04835084,-0.4438235
0.8029074,-0.0722482,-0.06996076,0.8729058,-0.01184194,-0.3446561
0.7594541,-0.01500246,-0.05335904,0.7799237,-0.1272909,-0.3073342
0.8310485,-0.01981157,-0.06373468,0.6819202,-0.1566022,-0.1638913
0.8322818,0.004500228,-0.02054405,0.6290088,-0.1462977,-0.09635548
0.8510253,-0.002761927,-0.01005882,0.5575463,-0.1036879,0.03766248
0.8977588,0.03164497,0.003753655,0.4723046,-0.1056322,0.1867585
0.8658958,0.06212919,0.03687269,0.3835195,-0.09098129,0.231227
0.9375276,0.01851503,0.06764401,0.3511239,-0.02034621,0.2595816
1.003274,-0.000699952,0.1093776,0.3848088,0.02200927,0.2370711
1.014336,-0.03039904,0.07932753,0.4025839,0.01479143,0.2011417
1.043621,-0.02979016,0.03548846,0.3324055,-0.04391662,0.1799732
1.069675,-0.009694467,0.03950522,0.1803806,-0.05444343,0.1595619
1.132775,-0.03465256,0.06269311,-0.03470433,-0.117764,0.08897357
1.168103,-0.07411451,0.1351946,-0.1696214,-0.2804455,-0.08108838
1.245732,-0.1993324,0.2000068,-0.03951495,-0.4058349,-0.2038758
1.324863,-0.2908518,0.1753711,0.1896358,-0.5280184,-0.3120753
1.266197,-0.2186425,0.00661204,0.2866369,-0.5964316,-0.5638336
1.227938,-0.1519165,-0.2625805,0.2307199,-0.6557576,-0.7765181
1.215281,-0.1826138,-0.3859827,0.1080071,-0.5560637,-0.7495332
1.132139,-0.2718921,-0.3197602,0.1200317,-0.1047306,-0.606417
1.0661,-0.3471321,-0.2587939,0.3261467,0.2268949,-0.3556337
1.064623,-0.278451,-0.1057852,0.5875075,0.2236862,0.06211107
1.080201,-0.1144784,0.1182802,0.6494787,0.09514626,0.3079651
1.174184,-0.01365309,0.01532011,0.3747876,0.03746563,0.2755374
1.311835,0.06063252,-0.1627443,0.08154303,0.1548841,0.2902278
1.201573,0.05747415,-0.05801161,-0.08956905,0.2047293,0.3757508
0.947051,-0.05775316,-0.04646247,-0.2612435,0.146673,0.3862028
0.8026826,-0.1195707,-0.07070844,-0.3146902,0.076325,0.3702878
0.7035834,-0.1826537,0.02964395,-0.2771986,-0.006602628,0.3680721
0.719292,-0.2169016,-0.001101782,-0.2455272,-0.01056209,0.3163925
0.7715316,-0.1681763,0.0047501,-0.2006897,-0.01575433,0.2423851
0.7408438,-0.1677195,0.05941501,-0.191492,-0.1014163,0.2045893
0.7753819,-0.1271242,0.03514212,-0.2172192,-0.2461479,0.1659634
0.8034941,-0.09919046,0.07911518,-0.248381,-0.3172573,0.1112852
0.8254542,-0.1236275,0.1139569,-0.2642084,-0.257065,0.02513997
0.9105855,-0.07813101,0.1336287,-0.3029981,-0.2364637,-0.07350425
0.9799608,-0.07741765,0.1116129,-0.4012926,-0.2065099,-0.1273855
1.086737,-0.1177899,-0.002529908,-0.4560366,-0.2004746,-0.1616246
1.132557,-0.1780657,-0.0502598,-0.3300725,-0.3503272,-0.2073852
1.125398,-0.2824611,-0.02909857,-0.08383474,-0.3933452,-0.2073806
1.296161,-0.3086036,0.1506698,0.09841654,-0.08730718,-0.03096315
1.501617,-0.1880267,0.3420946,0.192945,0.2534919,0.2498283
1.524904,0.05266912,0.1651994,0.05071222,0.2151286,0.4641511
1.485489,0.1186149,-0.0810175,-0.1699307,0.1645216,0.7293594
1.450331,-0.1676478,-0.1462635,0.03017864,0.320976,0.8974816
1.171041,-0.5032818,-0.2412281,0.2537398,0.3704392,0.6548358
0.8075012,-0.5735843,-0.2523349,0.2196363,0.5448855,0.3109023
0.8174475,-0.3640401,-0.1869225,0.2316516,0.5840479,0.05097299
0.8976354,-0.1190383,-0.2851373,0.03978065,0.1866706,-0.180703
0.8298608,-0.03006925,-0.3265052,-0.2112786,0.1134028,-0.1798798
0.9574101,-0.2130149,-0.2133372,-0.140705,0.246707,-0.1334128
1.099834,-0.4792858,-0.1091564,0.1648825,0.1357249,-0.2133568
1.013022,-0.422134,-0.01036781,0.6698974,0.05529123,-0.3655809
0.9455166,-0.2699748,-0.0503844,0.9204863,-0.02955199,-0.5732888
0.9220989,-0.1890871,-0.1241362,0.8354961,0.008087523,-0.4792186
0.8433193,-0.02816537,-0.0826824,0.8690198,0.1261999,-0.2850002
0.8362274,-0.004812883,-0.09708961,0.7937117,0.01832874,-0.3276902
0.8569431,-0.03135438,-0.07341242,0.6379377,-0.02300803,-0.2414902
0.8216342,0.005365247,-0.01572047,0.6115093,0.01573595,-0.1155809
0.813894,-0.0298785,-0.00690589,0.5300351,-0.04149282,-0.0630031
0.8092618,-0.00239213,0.03735532,0.4637036,-0.05015497,0.08605179
0.8043456,0.02558627,0.03171136,0.372163,-0.05715294,0.1716273
0.8350765,0.01586799,0.04190593,0.2841603,-0.05565411,0.2245544
0.8974141,0.05687682,0.08989401,0.3038289,0.02502012,0.2695847
0.9923773,0.03173135,0.06733331,0.282102,0.07134921,0.2248751
1.037126,-0.01613511,0.04500044,0.2708667,0.03314792,0.1685029
1.092437,-0.03757396,0.0121706,0.169531,-0.008445284,0.1020277
1.172503,-0.02224824,-0.01077142,-0.04670066,0.009140338,0.05555458
1.132768,0.02638128,0.0316776,-0.126476,-0.02653185,-0.03867837
1.132245,-0.01211898,0.1251378,-0.08712051,-0.1938116,-0.1923345
1.21331,-0.09267561,0.2484311,0.1070389,-0.3666963,-0.2107663
1.240488,-0.1959276,0.2334765,0.3118467,-0.4604687,-0.2934861
1.285853,-0.2665325,0.0448828,0.2034943,-0.474929,-0.6158854
1.234371,-0.1862002,-0.1632981,-0.01194489,-0.4556805,-0.8564821
1.0964,-0.1509357,-0.302021,-0.1347068,-0.4283253,-0.9048518
1.065053,-0.2312568,-0.2934069,-0.196512,-0.2485644,-0.8244524
1.036722,-0.2773898,-0.1850857,0.04460866,0.1709583,-0.5169151
1.056711,-0.2597549,-0.08201285,0.3719241,0.4610419,-0.03929213
1.189893,-0.09620055,-0.03022154,0.2042796,0.2756398,0.3438136
1.329018,0.1504391,-0.07519308,-0.1852016,0.1364164,0.3959655
1.420457,0.200052,-0.1025552,-0.4842992,0.4135395,0.3090216
1.231623,0.04881917,-0.06742147,-0.6742932,0.516027,0.3538073
0.8586039,-0.08846691,-0.05027209,-0.60317,0.2799889,0.3695092
0.6832728,-0.1739411,-0.007419408,-0.6035572,0.06763463,0.3583128
0.6490506,-0.2315162,-0.003689928,-0.6460353,-0.04210027,0.3686381
0.6942457,-0.2268785,-0.03266055,-0.5239641,-0.03841371,0.2761539
0.7786155,-0.2026504,0.006318835,-0.521524,-0.03058191,0.1650471
0.7714094,-0.1702069,0.02788738,-0.4666491,-0.1083024,0.08922068
0.7811315,-0.1240701,0.05867921,-0.3846095,-0.2501451,0.05632141
0.8186472,-0.1101922,0.09429927,-0.4092262,-0.3762105,0.03244501
0.8470058,-0.08260417,0.09016519,-0.3880068,-0.2925836,-0.02190038
0.9011746,-0.03166932,0.1420834,-0.481235,-0.1991306,-0.03185427
0.9492144,-0.02300009,0.1475516,-0.5724201,-0.2617351,-0.04355033
1.066171,-0.08631484,0.03663169,-0.5885999,-0.2492977,-0.07139229
1.168818,-0.1978104,-0.1019327,-0.5349161,-0.2286245,-0.0943974
1.165761,-0.2629721,-0.1391495,-0.2900117,-0.1928564,-0.0963096
1.296422,-0.266824,0.1050039,-0.07071862,0.09486678,0.02803517
1.523438,-0.1985847,0.3389359,0.06831569,0.4013623,0.2639688
1.539147,-0.01911806,0.1850003,0.007773379,0.4394167,0.5240474
1.469525,0.07018252,-0.06848242,-0.1159201,0.4818632,0.7222638
1.447782,-0.1334403,-0.1695796,0.04608472,0.623254,0.7758459
1.192689,-0.4075593,-0.2109439,0.1323374,0.556811,0.6658922
0.8450005,-0.4289953,-0.1924581,0.1352428,0.4978436,0.4523597
0.7619239,-0.3121426,-0.1685405,0.1599036,0.5076574,0.1824895
0.798926,-0.2218118,-0.1725514,-0.03550189,0.2016837,-0.06161573
0.8598242,-0.1342671,-0.1879435,-0.1765953,-0.01839702,-0.07363864
0.972453,-0.2215014,-0.2398373,-0.1381039,0.2009247,-0.01997094
1.056753,-0.4025302,-0.1602717,0.07415457,0.344562,-0.1985064
1.032335,-0.3891996,-0.02069288,0.4873145,0.0933779,-0.4854172
0.9544647,-0.3043988,-0.02586954,0.7331547,-0.1168046,-0.6654675
0.9504575,-0.2275085,-0.03844963,0.763286,-0.007115595,-0.5357219
0.8630002,-0.09910788,-0.05270952,0.7813356,-0.05263758,-0.3172468
0.7496655,0.02282396,-0.08153584,0.7235097,-0.2084542,-0.3032871
0.8045978,0.05351626,-0.06781655,0.5658571,-0.1414968,-0.1600609
0.8349825,-0.01473711,-0.06798878,0.4476166,-0.1443526,0.03603325
0.8324682,-6.922324e-05,-0.02829711,0.4289508,-0.1813837,0.07354125
0.8559628,0.03875192,0.02933819,0.3777168,-0.1407012,0.1981891
0.8458991,0.01681021,0.05592779,0.2486126,-0.1160426,0.2827175
0.8639806,0.07116235,0.06883167,0.1718079,-0.00327669,0.2868929
0.9158895,0.0437067,0.0763306,0.1918266,0.1039072,0.3161364
0.9795198,-0.03990055,0.09885216,0.2459629,0.09881161,0.2371791
1.008692,-0.05664994,0.06373774,0.2784401,0.04399871,0.1706202
1.027287,-0.1028347,0.01268001,0.2081569,-0.003350973,0.1667018
1.109428,-0.05170541,0.02590893,0.01793365,-0.02906573,0.05756268
1.184725,0.02676354,0.07831063,-0.1058967,-0.114483,-0.1482128
1.225527,-0.003047295,0.1779166,-0.0319403,-0.3285641,-0.2640602
1.279243,-0.1120195,0.235195,0.1271722,-0.5767304,-0.2678182
1.320717,-0.2572287,0.1498029,0.1876366,-0.6791842,-0.4455024
1.272564,-0.2095541,-0.0923778,0.05357472,-0.677806,-0.7292946
1.190676,-0.1351537,-0.373085,-0.1238443,-0.5807436,-0.8233347
1.173193,-0.2288997,-0.4145548,-0.08865106,-0.3021322,-0.8107343
1.105291,-0.2759083,-0.2509531,0.1081977,0.03054314,-0.6608271
1.002272,-0.3218183,-0.1127346,0.334163,0.3097313,-0.2386048
1.02582,-0.2658298,0.03092536,0.4986261,0.2974275,0.1741624
1.11916,-0.01272281,0.05694027,0.2980107,0.06955676,0.3333473
1.243387,0.126738,-0.08220457,-0.1491046,0.1046438,0.3591583
1.288031,0.1212126,-0.08047691,-0.4480905,0.2053363,0.3618097
1.057892,0.007167666,-0.034934,-0.6431125,0.2212157,0.3625268
0.7991272,-0.1518518,-0.03665326,-0.7237173,0.2268682,0.3649485
0.7486318,-0.1617078,0.03166058,-0.6899453,0.05834994,0.3671184
0.7285342,-0.1829405,0.018687,-0.6366363,-0.008579162,0.3697729
0.7023772,-0.2380623,-0.001933625,-0.5572841,0.01279413,0.3198568
0.733743,-0.19788,0.0104504,-0.5123158,-0.04818617,0.2375701
0.7276583,-0.1901233,0.005132335,-0.4507247,-0.1115779,0.179249
0.7243952,-0.1802115,0.06176031,-0.4345545,-0.3337796,0.1335777
0.8011785,-0.132734,0.06126224,-0.4667047,-0.4107024,0.068249
0.8843104,-0.1117149,0.08073614,-0.4715304,-0.2828631,-0.03880596
0.9894878,-0.06093735,0.1259786,-0.5902856,-0.245019,-0.1220728
1.104954,-0.04096419,0.05778543,-0.7261354,-0.07822775,-0.1697831
1.144984,-0.1218299,0.005717046,-0.7498613,0.04840271,-0.2160424
1.143082,-0.2350235,-0.0201059,-0.5408484,-0.1440412,-0.2081745
1.173119,-0.3234144,0.01233438,-0.1573205,-0.318525,-0.1065086
1.35896,-0.3191121,0.107289,0.1110472,-0.1380564,0.1860946
1.625088,-0.165963,0.1105447,0.3092065,0.1026068,0.5900365
1.671752,-0.03357272,-0.02110538,0.200691,0.2261467,0.7343956
1.484141,-0.1622871,-0.2225398,-0.0530145,0.5567402,0.7033758
1.241484,-0.3618106,-0.2593665,0.1597425,0.6862918,0.7689572
0.95727,-0.3851244,-0.1690204,0.2796622,0.5171086,0.5680009
0.6948439,-0.3761276,-0.1672325,0.08058094,0.5460241,0.07609358
0.6924544,-0.295869,-0.1600309,0.005575566,0.3514849,-0.1890642
0.7895544,-0.1322725,-0.1798696,-0.1946135,0.02602716,-0.2477772
0.8235594,-0.1648044,-0.2384481,-0.3134933,0.07910576,-0.1780655
1.04086,-0.2711261,-0.1915466,-0.07571787,0.1364264,-0.07621496
1.138372,-0.3161407,-0.1077346,0.1827077,0.09287327,-0.2414528
1.002047,-0.3769201,-0.03127811,0.4486963,0.07795311,-0.4228896
1.004424,-0.3007934,-0.003219924,0.6191809,0.007548095,-0.4426681
0.8833009,-0.140588,-0.06495701,0.5930432,-0.03756394,-0.4296192
0.7294302,-0.03950104,-0.0849748,0.5634147,-0.07450295,-0.3673937
0.8285152,-0.001963317,-0.07033479,0.5037927,-0.1290141,-0.3221878
0.8364784,-0.05266509,-0.07038597,0.401972,-0.08383688,-0.2133791
0.7861743,-0.044752,-0.03003529,0.3308258,-0.02508156,-0.07301145
0.8136021,0.009696924,0.005318409,0.3256684,-0.09224747,-0.0152959
0.8245497,0.01554272,0.01495746,0.3198543,-0.1300567,0.120262
0.8637411,0.04072965,0.0239064,0.2488835,-0.02717236,0.2209944
0.8946777,0.02022102,0.02907973,0.2547634,0.1133924,0.207268
0.9444291,-0.01290911,0.03320687,0.3314772,0.197422,0.2126603
1.019387,-0.017362,0.02308637,0.350388,0.116345,0.1919476
1.014129,-0.03256295,0.02355424,0.2120586,0.006197747,0.1747667
1.031158,0.005289347,0.03782559,-0.03844156,0.02136197,0.1487646
1.144882,0.04199434,0.06759007,-0.1550823,-0.06479062,-0.003046178
1.190238,0.0516596,0.1324935,-0.162546,-0.2579734,-0.194967
1.177131,-0.031134,0.1966856,-0.07929413,-0.4075238,-0.2577519
1.261689,-0.212863,0.2337999,0.06268264,-0.49684,-0.385363
1.31253,-0.2304516,0.106222,-0.06402066,-0.4752362,-0.7902659
1.234457,-0.1462934,-0.189037,-0.2574561,-0.5054868,-1.018819
1.158544,-0.1565958,-0.3417267,-0.2390277,-0.5269322,-0.9088263
1.109426,-0.2579815,-0.3155057,-0.1620766,-0.2657194,-0.8062274
1.058583,-0.4029173,-0.2260779,0.1302929,0.1251841,-0.493975
1.046355,-0.3783636,-0.07346392,0.4550712,0.3693618,0.05207988
1.125377,-0.1504298,-0.02613831,0.2844248,0.2344256,0.3246646
1.262423,0.09602965,-0.09883058,-0.1183363,0.04922443,0.3291332
1.327666,0.1844394,-0.1093716,-0.3461634,0.258015,0.3695576
1.176896,0.02547204,-0.05876701,-0.4179249,0.309518,0.4447051
0.8813613,-0.1323984,-0.009638435,-0.4032305,0.08870532,0.4577873
0.7253487,-0.1836906,0.0005732126,-0.427973,0.01580529,0.432508
0.7280501,-0.235179,-0.01984577,-0.4446429,-0.01076288,0.3811976
0.7563083,-0.2158843,-0.02397654,-0.3916249,0.05906106,0.2568745
0.7724553,-0.1860307,-0.01244764,-0.3904524,0.08626348,0.1011936
0.743607,-0.1691616,0.02190371,-0.3354297,-0.08232203,0.04448332
0.7425969,-0.1206085,0.06335563,-0.2610816,-0.2146586,0.07953755
0.7768323,-0.1221113,0.0695272,-0.2801876,-0.2746757,0.07064286
0.8071384,-0.1070267,0.06730004,-0.2863505,-0.2236724,0.01425276
0.8739002,-0.07117489,0.09994242,-0.3779855,-0.2017208,-0.06314022
0.9983479,-0.06561799,0.1197114,-0.5029409,-0.2188523,-0.1619111
1.164573,-0.06565003,0.06559211,-0.5359787,-0.1018226,-0.2254412
1.20633,-0.1319932,-0.04823499,-0.4879167,-0.06643857,-0.26363
1.165171,-0.2285869,-0.1170711,-0.3189093,-0.06223233,-0.22963
1.250365,-0.2654713,0.03045099,-0.1742669,0.04197481,-0.06511295
1.356168,-0.1559358,0.2568507,-0.09378029,0.1539119,0.1503217
1.430425,0.0491842,0.2642205,-0.2188382,0.226517,0.4194654
1.490668,0.07023813,0.1571783,-0.4256483,0.259506,0.7065883
1.464279,-0.1689801,-0.02426252,-0.1628493,0.3693593,0.7965957
1.289583,-0.4768943,-0.2774738,0.1551068,0.4271532,0.6552035
0.9337129,-0.5511635,-0.2530616,0.1576863,0.4071067,0.4215379
0.7495381,-0.3495454,-0.1357728,0.1160455,0.3825551,0.09955919
0.8515456,-0.1577523,-0.2421423,-0.142804,0.2301941,-0.1501391
0.8629118,-0.07056931,-0.2689867,-0.4295643,0.1483811,-0.1259214
0.9017601,-0.1793428,-0.2468101,-0.3482938,0.1900117,-0.1000333
1.050952,-0.4063706,-0.2072618,0.03461632,0.1525851,-0.2201794
1.056396,-0.4290738,-0.002674968,0.5003812,-0.03452902,-0.4057861
1.005085,-0.3330907,0.00435034,0.6542812,-0.2185111,-0.6074939
0.95327,-0.212384,-0.1068622,0.6027241,-0.1218923,-0.5219471
0.8667867,-0.0619771,-0.08144896,0.6826948,-0.03543769,-0.3210695
0.8266324,-0.01471148,-0.1047747,0.627675,-0.1617307,-0.2959819
0.8420642,-0.01063463,-0.08882718,0.4638798,-0.1797078,-0.1958248
0.8693592,-0.03443236,-0.05664144,0.4598477,-0.1075262,-0.120577
0.8611264,-0.07005964,-0.05598956,0.4396284,-0.0712869,-0.09681521
0.8600806,-0.02387388,0.005319885,0.405933,-0.04891426,0.02849598
0.872586,0.02453704,0.01711366,0.3942655,-0.03745545,0.09897055
0.8929518,0.0440893,0.04408394,0.2913555,0.04224208,0.176394
0.9742083,0.02767117,0.06543014,0.2758374,0.1801776,0.2380952
1.018103,-0.02985673,0.03375648,0.3439155,0.2235421,0.2119815
1.00768,-0.07018287,0.03200672,0.3440979,0.1303031,0.2008896
1.026424,-0.09131277,-0.01643376,0.2722491,0.04990853,0.1765038
1.063393,-0.09242317,-0.02370895,0.1247634,0.06056265,0.1461406
1.146629,-0.09954084,0.07844803,0.07269552,0.04665078,-0.01027608
1.244263,-0.1218879,0.2102,0.1710171,-0.06074977,-0.2621347
1.243856,-0.1327196,0.2634664,0.3418031,-0.2560635,-0.2961027
1.184067,-0.1120313,0.09657883,0.4744513,-0.5016678,-0.2600758
1.183048,-0.06306069,-0.1507286,0.276821,-0.5946215,-0.4629747
1.190026,-0.07325619,-0.2679799,-0.03910375,-0.5242964,-0.7608692
1.152507,-0.1575388,-0.216917,-0.0636833,-0.4967813,-0.88362
1.086913,-0.3274136,-0.1465495,0.02972604,-0.3335429,-0.8027175
0.9903068,-0.48567,-0.1581856,0.2360797,0.06944225,-0.5058568
1.014286,-0.3426004,-0.08151034,0.5263567,0.2847778,-0.009181518
1.132515,-0.05102645,-0.01069037,0.3555451,0.1791998,0.331162
1.220729,0.09581872,-0.07930409,-0.1090951,0.165113,0.3583039
1.308409,0.1356001,-0.1027759,-0.3243259,0.3211899,0.3637287
1.171846,0.01866334,-0.05222561,-0.3856522,0.3113598,0.4094234
0.8747187,-0.1356181,0.003445504,-0.3639775,0.1233426,0.4062738
0.7329058,-0.1544679,0.02058456,-0.3707336,-0.07062365,0.4236918
0.6775966,-0.1789695,1.535005e-05,-0.4249102,-0.1318362,0.4199672
0.7150617,-0.1968499,0.003676435,-0.3566539,-0.02402157,0.3385311
0.7822182,-0.179089,0.008824341,-0.3561327,-0.01081081,0.2207748
0.7890017,-0.1719843,0.01453085,-0.3459565,-0.05164377,0.1360236
0.8393091,-0.1276286,0.0157933,-0.2881741,-0.02234642,0.1495412
0.8235151,-0.1154355,0.01921262,-0.3321783,-0.1143224,0.1586513
0.8016322,-0.1203579,0.06272722,-0.313749,-0.2439316,0.1169422
0.8724213,-0.08891254,0.1175698,-0.3440763,-0.3026454,0.06639282
0.9638423,-0.06849814,0.1493062,-0.4399988,-0.2671327,-0.0446902
1.146036,-0.05254167,0.08473198,-0.5164479,-0.1202385,-0.1723236
1.231116,-0.08353384,-0.04903559,-0.5674191,-0.03478727,-0.2242357
1.164872,-0.1803501,-0.09225856,-0.3765581,-0.03494596,-0.1216582
1.237303,-0.2766458,0.02092635,-0.1273957,-0.01631794,0.08501856
1.402153,-0.2470587,0.1843656,-0.06360513,0.1071451,0.2592471
1.494486,-0.04611634,0.1915127,-0.1848158,0.2827353,0.4828371
1.467374,0.06483504,0.04107572,-0.2921887,0.3959336,0.6811207
1.380962,-0.1310089,-0.1328775,-0.07433084,0.4280307,0.6470006
1.243077,-0.4137559,-0.2273172,0.158904,0.4418841,0.509866
0.9427661,-0.4418112,-0.1558664,0.1648864,0.5706315,0.3492489
0.7554566,-0.321361,-0.1059866,0.1389806,0.5040984,0.1573384
0.8246486,-0.2395208,-0.1743646,0.0735958,0.1805677,0.1290893
0.8664452,-0.1306208,-0.2109067,-0.07961418,0.002353472,0.1897378
0.9411364,-0.1753665,-0.2455471,-0.2060461,-0.08870511,0.1214539
1.05851,-0.3308891,-0.1897162,-0.02076569,-0.04067068,-0.01204999
1.024689,-0.3265843,-0.02098551,0.330273,-0.01613822,-0.2687054
0.9422432,-0.2989525,0.008008492,0.4506195,-0.1422325,-0.495212
0.8518968,-0.2309261,-0.04196584,0.5206626,-0.0908093,-0.374452
0.7711659,-0.1038654,-0.05122831,0.5829036,-0.129397,-0.2530275
0.778625,-0.0589324,-0.06752446,0.4951706,-0.1716376,-0.258814
0.8045644,-0.01783675,-0.05875409,0.4193527,-0.07399895,-0.1530822
0.8513742,-0.01652361,-0.04183622,0.3696099,-0.1233392,-0.1042304
0.8919643,-0.03441319,-0.01862173,0.3002262,-0.07457916,-0.03983313
0.8882112,-0.001148267,0.007668154,0.2063023,-0.04072442,0.1027789
0.899321,0.03626372,0.01798858,0.07929017,-0.08008118,0.1403137
0.9188684,0.0946357,0.0550416,0.001755711,0.0307651,0.2018637
0.9762023,0.0584287,0.07419818,-0.01987758,0.1371793,0.2452068
1.027215,-0.04786883,0.07266861,0.0120444,0.2347261,0.1504924
1.010421,-0.07919118,0.07085869,0.04666217,0.1751423,0.04976652
1.026671,-0.06508587,0.01848255,-0.005978497,0.03426471,0.008580191
1.079061,0.02224307,-0.03079229,-0.126523,-0.007991692,0.01550692
1.145697,0.07499122,-0.02582575,-0.2733008,-0.1707394,-0.06132379
1.246563,-0.08493109,0.02755126,-0.250019,-0.2692834,-0.2229698
1.299942,-0.3345999,0.07742634,0.04162234,-0.2788317,-0.3213046
1.281761,-0.4125522,0.007661534,0.2475031,-0.4044922,-0.4775925
1.261559,-0.2780852,-0.166115,0.1016021,-0.4396666,-0.7120309
1.24538,-0.1874701,-0.3269548,-0.1504535,-0.3274779,-0.7792824
1.155664,-0.230073,-0.3529054,-0.194035,-0.1324347,-0.6698544
1.005289,-0.2729876,-0.1934637,-0.06211615,0.1157743,-0.4843652
0.9409842,-0.2738527,-0.01288488,0.1531196,0.2461346,-0.1446868
1.020474,-0.1444474,0.03410861,0.2894676,0.1137731,0.2149664
1.153604,0.07701697,-0.0316854,0.08296716,-0.0499963,0.3441528
1.225995,0.1216859,-0.09439959,-0.2309566,0.05562241,0.3465341
1.152299,0.004029362,-0.07295934,-0.3598282,0.127296,0.3298805
0.9486989,-0.07900747,-0.04873569,-0.4328078,0.06124777,0.2955659
0.7737237,-0.1650342,-0.03716631,-0.4732986,0.08992127,0.2846443
0.7326932,-0.2466145,-0.0116873,-0.4441886,0.06443581,0.2534605
0.771467,-0.2456807,-0.03093905,-0.3825769,0.09771781,0.199416
0.7807083,-0.2303612,-0.02589048,-0.3206344,0.2006819,0.1062219
0.739038,-0.1972222,0.02074759,-0.2812594,0.082492,0.02630038
0.7407822,-0.1368257,0.05533407,-0.2624049,-0.1316953,0.04173161
0.7759331,-0.1108772,0.08355946,-0.2920035,-0.3868804,0.02254957
0.8242747,-0.09696149,0.0733369,-0.326073,-0.5072499,-0.0128318
0.9217982,-0.07707127,0.07236821,-0.4095804,-0.3115139,-0.01855998
1.044131,-0.05552929,0.07604253,-0.5724203,-0.06563588,-0.08618901
1.183002,-0.04724634,0.04037394,-0.6293762,0.123525,-0.1677971
1.174541,-0.100327,0.005423237,-0.5468595,0.0415146,-0.2307174
1.071316,-0.2210973,-0.03414437,-0.3387219,-0.2085386,-0.2197091
1.154401,-0.3000747,0.0321443,-0.03056588,-0.1230069,-0.103542
1.305439,-0.211387,0.2218398,0.08513237,0.08528789,0.03430719
1.461174,-0.01110351,0.2759813,-0.07158375,0.2807514,0.2427051
1.544142,0.1115035,0.07290409,-0.1561357,0.4126072,0.590328
1.447833,-0.05588926,-0.184757,-0.08252631,0.2917529,0.8734988
1.324721,-0.396547,-0.2437986,-0.01201014,0.3542649,0.7868087
1.023097,-0.5020998,-0.2253437,0.1127278,0.5092255,0.4990585
0.7807506,-0.4081654,-0.2197162,0.1258533,0.421856,0.2458953
0.8767837,-0.2902284,-0.1340846,-0.08679031,0.3487919,-0.0116843
0.8635196,-0.1533858,-0.200143,-0.2287617,0.2969777,-0.07284266
0.8748591,-0.1897199,-0.3019422,-0.2751103,0.2924849,-0.06439953
1.031067,-0.3318428,-0.1693575,-0.07715531,0.2372001,-0.2041166
1.0248,-0.3578877,-0.08263503,0.3983238,0.06306046,-0.3224828
1.0043,-0.3000481,-0.07695143,0.5462247,0.0309054,-0.4725898
0.9637926,-0.1864744,-0.08818587,0.4720857,0.04711122,-0.4611038
0.8767647,-0.1266064,-0.1445644,0.5607917,0.06468444,-0.2896759
0.8513965,-0.1224385,-0.09444974,0.5408506,0.007483743,-0.2894823
0.8528111,-0.05743752,-0.06624849,0.4657428,-0.1008943,-0.2139677
0.8858832,-0.03431282,-0.08896002,0.4441462,-0.05467557,-0.09047058
0.8728589,-0.05629266,-0.04808752,0.3587265,-0.07832075,-0.04178517
0.8711494,-0.05154322,-0.03219872,0.3298354,-0.1079563,0.07052355
0.8951677,-0.0388333,-0.0008525093,0.3161674,-0.05940005,0.1214038
0.8827051,-0.01460484,0.04651652,0.2824817,-0.01576958,0.1705264
0.9297395,-0.01888055,0.07823845,0.3046716,0.1579888,0.1964333
0.9505725,-0.03236056,0.1024689,0.3211157,0.2018346,0.1779161
0.9407267,-0.03945462,0.03507089,0.3376231,0.002110617,0.2444236
0.981343,-0.0674618,-0.04765294,0.2798423,-0.102203,0.2694399
1.052804,-0.07601997,-0.04649815,0.1092391,0.1081126,0.2569236
1.162887,-0.07209619,-0.01101274,-0.06156651,0.3239503,0.09497106
1.197906,-0.09053929,0.06160307,-0.1324487,0.09574263,-0.2229628
1.182395,-0.1760048,0.1589606,0.04920347,-0.2133554,-0.3673054
1.210367,-0.2699692,0.1313009,0.2506597,-0.3443932,-0.4770805
1.208893,-0.2300582,-0.0387483,0.1488768,-0.4959214,-0.7067741
1.191878,-0.1619195,-0.2081797,0.03731913,-0.5681841,-0.8723808
1.162201,-0.195546,-0.3006575,0.05073207,-0.5249145,-0.8927309
1.08299,-0.2901616,-0.2306193,0.09396674,-0.19368,-0.7675394
1.014725,-0.3708372,-0.09155065,0.3751639,0.3178749,-0.4738054
1.014962,-0.2469158,-0.02876356,0.6241718,0.3538729,-0.04688088
1.098554,0.04260584,-0.002999238,0.3805917,0.1220912,0.2646568
1.221972,0.1774427,-0.06267262,-0.07796086,0.09235866,0.3472624
1.242571,0.143479,-0.09103934,-0.4261991,0.05706163,0.3559532
1.092845,0.02446189,-0.02072583,-0.6122005,0.05871432,0.3421865
0.8851481,-0.1654122,-0.001786962,-0.5821926,0.1207638,0.3152701
0.7297006,-0.2647372,0.0322398,-0.5046555,0.04161698,0.3015102
0.7072762,-0.2565606,0.03461641,-0.4639947,-0.002088099,0.2794696
0.795094,-0.2178515,0.008420934,-0.3729369,0.03689582,0.2173067
0.8502321,-0.1616395,0.04207832,-0.3590402,0.07738795,0.1013355
0.8536657,-0.1251828,0.03619213,-0.4240866,0.1245372,-0.00259995
0.8467939,-0.1082998,0.07199138,-0.4560976,-0.01316988,-0.04965331
0.8576783,-0.1106583,0.1212686,-0.4989816,-0.1968623,-0.09752824
0.895751,-0.09659807,0.1136704,-0.5221286,-0.1789697,-0.1508882
0.9283208,-0.07190164,0.1279538,-0.5751261,-0.1672179,-0.1697473
0.9973101,-0.09125754,0.09987068,-0.685341,-0.2019395,-0.1894824
1.085844,-0.1269048,0.0583044,-0.7180367,-0.1576043,-0.2238369
1.116417,-0.2001626,0.001478799,-0.6806804,-0.1384574,-0.2413918
1.158125,-0.287189,-0.07892513,-0.6276746,-0.06078961,-0.1953256
1.248567,-0.2452076,-0.02970133,-0.6128727,0.3267592,-0.06676226
1.313085,-0.004957079,0.1247595,-0.6320636,0.680286,0.07940702
1.395929,0.2289116,0.2319486,-0.6721015,0.4347965,0.2317311
1.466454,0.1442871,0.1855421,-0.745078,0.0920779,0.4050944
1.373897,-0.09488056,0.0297237,-0.6963336,0.2351195,0.5537532
1.206491,-0.2483146,-0.1067692,-0.6430311,0.3335145,0.5665468
1.050462,-0.3633626,-0.1715624,-0.7681245,0.4065668,0.3505961
0.9297798,-0.2393662,-0.1374097,-0.8881623,0.6459532,0.1603778
0.8324906,0.01815183,-0.1206625,-1.004878,0.3439058,0.2772065
0.7178889,0.03836855,-0.1731434,-1.214443,-0.05011569,0.4190375
0.8558359,-0.06367073,-0.1848415,-1.329839,0.1401892,0.3369706
1.107539,-0.2448335,-0.207264,-1.136457,0.3504234,0.1744777
1.134049,-0.3616066,-0.1751249,-0.8117183,0.4771633,-0.1676931
1.095198,-0.2618237,-0.03429174,-0.6563036,0.4842212,-0.5746902
0.9827411,-0.2219505,-0.002236618,-0.5465607,0.2959666,-0.5918887
0.9043246,-0.1708419,-0.04524029,-0.4633606,0.2890616,-0.4790459
0.8985434,-0.07332746,-0.04846646,-0.4501743,0.292205,-0.5158128
0.839901,-0.08383938,-0.04405613,-0.3321018,0.2223241,-0.4865606
0.8947409,-0.060778,-0.02343763,-0.2801351,0.1953658,-0.4491297
0.8673083,-0.01119377,-0.01720581,-0.3415125,0.05682797,-0.4113621
0.8092221,0.03748678,0.007321914,-0.4082454,-0.04368679,-0.2954926
0.8676711,0.08140456,0.03158246,-0.5806204,-0.04849425,-0.1925348
0.8173304,0.07043626,0.03391483,-0.6591597,-0.07445759,-0.1162964
0.8327619,0.04663482,0.07861039,-0.613054,-0.1611081,-0.05611545
0.8776462,-0.0007064269,0.08246376,-0.61691,-0.2680266,0.04083774
0.9362059,-0.03201343,0.03730918,-0.5601248,-0.2079166,0.1052261
1.087777,-0.05750356,-0.01014772,-0.4733614,-0.1547289,0.05792532
1.060609,-0.1079798,-0.06169393,-0.4054597,-0.2220768,0.03501156
1.056287,-0.1734367,-0.06545684,-0.2783495,-0.1991933,-0.02450202
1.186295,-0.3075607,0.01448566,0.06046192,-0.1446724,-0.1731422
1.226892,-0.3968092,0.1781238,0.7793911,-0.05652215,-0.1939621
1.205349,-0.3226491,0.2403976,1.476881,-0.0225853,-0.04620644
1.181646,-0.1477944,0.1445844,1.633388,-0.3017618,0.04775033
1.236309,0.002335512,0.02007354,1.421206,-0.5713753,-0.115474
1.271668,-0.001400869,-0.1873257,1.195916,-0.4763443,-0.3709292
1.16964,-0.05104659,-0.3276722,0.9343841,-0.3882605,-0.4566513
1.016504,0.002603728,-0.2820327,0.5752284,-0.5110136,-0.4971516
0.9229209,0.001833905,-0.2300978,0.4716269,-0.459804,-0.4322809
1.042926,-0.1056484,-0.1200144,0.8302183,-0.1770726,-0.03100039
1.240723,-0.1806305,0.006272358,1.147214,0.2290889,0.4419696
1.276592,-0.1938158,-0.02899509,1.073359,0.5369971,0.6066994
1.225066,-0.1082367,-0.03261473,0.9533119,0.3514321,0.5121631
1.147549,-0.01595662,0.05104801,0.9640181,0.1468092,0.5033934
1.012978,-0.003299578,0.01918697,0.8552551,0.129911,0.5584424
0.8359558,0.04074661,-0.01459724,0.6331979,-0.08330697,0.521516
0.7551549,0.04245697,0.02413501,0.4576284,-0.09758256,0.5640467
0.834941,-0.03596007,0.01463256,0.391577,0.007145618,0.5267273
0.8485246,-0.09979097,0.05506555,0.4572658,-0.0740928,0.3392422
0.7731331,-0.139978,0.1400042,0.4556853,-0.09510773,0.203023
0.7648238,-0.123927,0.158557,0.3989007,-0.2411318,0.06498275
0.7858772,-0.08518428,0.1568876,0.3535835,-0.3712616,0.02712543
0.83366,-0.02857338,0.1416156,0.1458151,-0.2894186,0.02611386
0.8841411,0.02402357,0.1472848,-0.04098576,-0.3101816,-0.01067325
0.9205463,-0.006187423,0.1341012,-0.1466794,-0.3897358,0.04648586
1.017733,-0.0959729,0.02255351,-0.223904,-0.5126504,0.04104918
1.149732,-0.2709403,-0.04592087,-0.1053802,-0.6394416,0.03954132
1.329464,-0.3689478,0.05620412,0.05123358,-0.3765561,0.110326
1.485834,-0.180003,0.2349612,0.1975502,0.3791358,0.1769101
1.447942,0.05276806,0.2559883,0.2571203,0.8692422,0.3146453
1.381827,0.04829712,0.08623057,0.00962126,0.2091473,0.4559919
1.416889,-0.2120581,-0.1097533,-0.1332064,-0.521166,0.6270659
1.301656,-0.5335294,-0.2279561,0.1819987,0.002569415,0.6497738
1.099953,-0.5973455,-0.2242972,0.5715869,0.5451041,0.3318785
1.058076,-0.4532873,-0.2118347,0.5996152,0.4798092,0.04933441
0.9444509,-0.2986436,-0.2346631,0.4424677,0.544018,-0.00157757
0.743198,-0.09286391,-0.2610637,0.3574512,0.3176206,0.06481932
0.7810365,-0.07867847,-0.3067682,0.2393547,0.06078504,0.07636532
0.9592241,-0.3265982,-0.2255553,0.2681314,0.1506494,-0.0444966
1.084951,-0.4058358,-0.0458513,0.5371804,-0.02059087,-0.2425425
1.139124,-0.3481957,0.04303693,0.7195602,-0.2045708,-0.5906182
1.049757,-0.2936155,0.01001192,0.705604,-0.3596705,-0.7541963
0.9186047,-0.177295,-0.06260449,0.6331689,-0.3864096,-0.5086312
0.8934572,-0.1342836,-0.08231544,0.6652823,-0.1154876,-0.3218179
0.873835,-0.1249448,-0.1104929,0.6819641,-0.1383846,-0.274836
0.8435854,-0.1120618,-0.1018817,0.6348541,-0.1462841,-0.1923087
0.8449717,-0.1099055,-0.02812435,0.677844,-0.07170522,-0.1350585
0.8338443,-0.05369037,-0.01441947,0.633267,-0.1173797,-0.07138095
0.872494,0.008222224,0.009817104,0.5080285,0.006760248,-0.004219567
0.9032117,0.1028895,0.02337568,0.3439628,0.01701606,0.0447955
0.8765015,0.1475734,0.01349723,0.1128765,0.0626307,0.105141
0.8753304,0.09145116,0.0593845,0.0790513,0.1378247,0.1462159
0.8785004,0.02654029,0.04588992,0.1087509,-0.004469183,0.1692655
0.958369,-0.09768272,-0.0288181,0.07663883,-0.00803802,0.2029293
1.122261,-0.2103467,-0.09794458,0.08594461,0.1067784,0.1863476
1.201752,-0.2070009,-0.07298445,0.04206678,0.2207919,0.04749408
1.164647,-0.1097061,0.08789411,0.04298646,0.1133152,-0.1973444
1.140304,-0.02808702,0.2057631,0.09896769,-0.1481088,-0.3780605
1.176781,-0.06941994,0.2028951,0.1424344,-0.1766339,-0.3310221
1.163706,-0.1274775,0.06987618,0.1991998,-0.2379483,-0.3415145
1.154643,-0.1409941,-0.1169868,0.1437235,-0.4145773,-0.598881
1.171359,-0.1468244,-0.2142355,-0.0153942,-0.5587095,-0.8017713
1.104902,-0.1633879,-0.2494423,-0.1258057,-0.5173763,-0.8649878
1.039304,-0.2504977,-0.2596648,-0.03835864,-0.244475,-0.7965996
1.018166,-0.3397881,-0.2006541,0.2425351,0.0335117,-0.5085877
1.071145,-0.2997044,-0.0532814,0.441474,0.2956571,-0.01985444
1.20306,-0.1288388,-0.01733441,0.322668,0.2248937,0.3851302
1.308871,0.07466926,-0.08299797,0.02729059,0.06044483,0.3532848
1.345082,0.1286506,-0.03684872,-0.1314963,0.2132977,0.2923148
1.170526,-0.00731021,-0.04298,-0.1934674,0.1196802,0.4150912
0.8744486,-0.1208438,-0.03644691,-0.2352303,-0.008035672,0.3514205
0.7469119,-0.1679552,0.04265866,-0.2257537,0.002838284,0.3339244
0.7323567,-0.2150008,-0.003583583,-0.2418712,-0.1181469,0.3582406
0.7360824,-0.2061062,0.0006859307,-0.1957572,-0.001841756,0.2322847
0.7469099,-0.1946175,0.04517279,-0.140929,0.05401891,0.1804656
0.7418305,-0.1786995,0.04510045,-0.1622739,-0.08807334,0.1176525
0.7675488,-0.1229401,0.08279543,-0.1668344,-0.105233,0.0578363
0.8068352,-0.09538933,0.0846628,-0.2301087,-0.1565029,0.03555849
0.8400488,-0.04881028,0.1117771,-0.3154899,-0.163628,-0.05136616
0.8938942,-0.003955141,0.1339596,-0.4268126,-0.1722717,-0.05989797
0.9992391,-0.02308165,0.091072,-0.5853755,-0.1841511,-0.05672398
1.121782,-0.07919755,0.03405084,-0.5936075,-0.1527074,-0.09497713
1.146892,-0.1728718,-0.0454073,-0.4458081,-0.3342009,-0.09763864
1.172532,-0.2473595,0.008275268,-0.2286813,-0.3926437,-0.08074303
1.355049,-0.2569264,0.1936683,-0.08315361,0.001256802,0.03822096
1.519472,-0.1608826,0.2917285,-0.1101481,0.4027387,0.2598188
1.497292,0.01508807,0.212056,-0.2402847,0.3454782,0.5278298
1.440135,0.04190047,0.03820386,-0.3424741,0.2336706,0.730992
1.395747,-0.1678747,-0.07475627,-0.1533844,0.3981615,0.6810219
1.163457,-0.4183791,-0.1841302,0.1137631,0.3869536,0.4428969
0.8745607,-0.4757577,-0.2360797,0.08256661,0.4343083,0.2389484
0.8275351,-0.3202181,-0.1564439,0.02073596,0.4997684,0.155052
0.8747738,-0.1528725,-0.1828398,0.001331687,0.1432697,0.128342
0.8659568,-0.1085167,-0.2462858,-0.1035776,0.04292004,0.09741026
0.9319785,-0.2363876,-0.2287963,-0.0469164,0.2078594,0.05157221
1.059015,-0.4164969,-0.1604665,0.2356782,0.1625867,-0.1195541
1.083716,-0.402652,0.01667118,0.5726349,0.0658847,-0.478267
0.9928028,-0.2862875,0.05011339,0.7601451,-0.05423786,-0.6737395
0.9116629,-0.1944685,-0.05815096,0.7318369,-0.04083011,-0.5059704
0.8475736,-0.07574105,-0.06624372,0.7201474,-0.00135351,-0.3764081
0.8053313,-0.02917917,-0.07161895,0.6969532,-0.07384917,-0.3442387
0.818696,-0.02632629,-0.05424169,0.5913527,-0.04889164,-0.1786159
0.8081346,-0.01242064,-0.02260733,0.5557653,-0.06106515,-0.06220723
0.8069682,-0.03636441,-0.01989334,0.5137576,-0.1260198,0.005714266
0.8285465,0.002025415,0.01952778,0.4670144,-0.1769353,0.1540746
0.8253624,0.04415409,0.03694308,0.4175836,-0.2335821,0.2426397
0.8736814,0.02189637,0.0639347,0.3398343,-0.1513216,0.3016085
0.9532534,0.01090185,0.1001942,0.3751353,0.002439132,0.3629079
1.009461,-0.01566402,0.09761526,0.3814997,0.07209439,0.3206804
1.069773,-0.01960426,0.05466378,0.2915607,0.02935627,0.2316998
1.135414,-0.01781142,-0.01863819,0.1356185,-0.02200449,0.1415171
1.158493,-0.04887413,0.003480927,-0.09473882,0.002125427,0.05158726
1.158966,-0.06172296,0.1029736,-0.1139898,-0.07289938,-0.07117191
1.227199,-0.1464381,0.2042807,0.03042208,-0.2650559,-0.2428561
1.259009,-0.2533128,0.2195262,0.1965918,-0.3768915,-0.3210362
1.202281,-0.2179804,0.00887719,0.403207,-0.4345948,-0.4694219
1.173907,-0.1552692,-0.2489684,0.2695441,-0.5229303,-0.7850466
1.137367,-0.1634032,-0.3549844,-0.03462367,-0.5243691,-0.8455728
1.10153,-0.1579571,-0.3513431,0.0250081,-0.2918625,-0.7084265
1.086677,-0.1631126,-0.2529323,0.2174804,0.1337891,-0.5549987
1.041876,-0.1895466,-0.04600072,0.4205449,0.4160788,-0.1234169
1.061249,-0.141946,0.09944961,0.5155724,0.2246511,0.2667167
1.169392,-0.01795874,0.005067105,0.1476715,-0.02910251,0.2852821
1.269904,0.1193045,-0.1018704,-0.2675947,0.09754664,0.2683634
1.264243,0.1103436,-0.07686342,-0.4226828,0.15417,0.3179951
1.087933,-0.04030598,-0.06954479,-0.5414873,0.1127499,0.3486359
0.8504748,-0.1318592,-0.03955589,-0.5898441,0.2013835,0.3814033
0.7037928,-0.2120312,-0.01352784,-0.5491314,0.09777282,0.3746358
1.312142,-0.3029326,-0.1031036,-0.2318045,-0.2431802,-0.06578186
1.237416,-0.2645334,-0.2478011,-0.3855934,-0.5332355,-0.1667024
1.147011,-0.1971988,-0.4163282,-0.6259318,-0.9066097,-0.371568
1.095063,-0.2444635,-0.506882,-0.6729266,-1.014462,-0.4581032
1.003054,-0.3193769,-0.4992085,-0.6369279,-0.6577097,-0.3930244
0.9200326,-0.353285,-0.4027034,-0.5095306,-0.03702103,-0.2902344
0.9567059,-0.3039913,-0.2392308,-0.2804533,0.5141299,-0.06582335
1.025432,-0.1390286,-0.1630851,-0.07327063,0.6349862,0.2578997
1.110978,-0.07468178,-0.2416685,-0.05554479,0.294362,0.4520545
1.162174,-0.1022644,-0.2908659,-0.2414524,0.2031847,0.4832
1.097924,-0.1019435,-0.2928058,-0.4146829,0.4135327,0.4852301
1.0348,-0.1338293,-0.2986139,-0.5878498,0.4499108,0.472355
0.9034678,-0.1518,-0.2245797,-0.6636332,0.3986438,0.5118783
0.6565388,-0.2003422,-0.1650345,-0.5948721,0.2652337,0.5750144
0.6005405,-0.2581737,-0.1769951,-0.6119965,0.1888044,0.556028
0.7286848,-0.2453254,-0.1595625,-0.5723467,0.2324689,0.4924863
0.7860441,-0.2746608,-0.1090289,-0.5291633,0.2188446,0.3465725
0.8334497,-0.289763,-0.08734238,-0.5557461,0.2539014,0.1782534
0.8832186,-0.2584935,-0.08593572,-0.4734632,0.2640858,0.08556888
0.8788834,-0.2500978,-0.0488742,-0.4944937,0.2212719,0.062834
0.8860769,-0.1926965,-0.03250698,-0.5626707,0.1335366,0.1212141
0.876216,-0.1043326,-0.03290236,-0.6161193,-0.0318679,0.1775216
0.9413526,-0.04664873,-0.01794583,-0.8228708,-0.1013168,0.2147437
1.08476,-0.04728509,-0.1008735,-1.010273,-0.1136896,0.1952073
1.096455,-0.131416,-0.2330974,-1.132257,-0.1934026,0.09864581
1.112398,-0.2518739,-0.3206169,-1.063134,-0.2639782,0.08406061
1.298707,-0.3231491,-0.3321906,-0.7657296,0.02508175,0.1427331
1.500704,-0.2749195,-0.1840555,-0.607624,0.3939002,0.2590778
1.52524,-0.1840333,-0.05946078,-0.630878,0.1879776,0.5184729
1.447582,-0.1882461,-0.2019465,-0.5915857,0.1047099,0.8337776
1.442885,-0.338429,-0.4234621,-0.3343646,0.5842059,0.8965385
1.271924,-0.5371735,-0.4493649,-0.05196274,0.8511886,0.5608889
0.9188456,-0.5201453,-0.3512741,-0.03487648,0.7406727,0.2046821
0.7399353,-0.3446499,-0.2840923,-0.2016477,0.6393099,0.04901817
0.7129617,-0.2344829,-0.2818205,-0.3912093,0.6180771,0.02608246
0.7436916,-0.1505337,-0.3045491,-0.5518094,0.4241293,0.111724
0.7961497,-0.2315786,-0.2843366,-0.6164287,0.07202263,0.1098563
0.8991703,-0.4114133,-0.2889414,-0.3689513,-0.1092597,-0.02034405
1.046126,-0.4116317,-0.2999182,-0.005783712,0.08949804,-0.2780063
0.9835771,-0.3828851,-0.234056,0.01900321,0.4293904,-0.5654222
0.8338783,-0.3207137,-0.1878488,0.05583756,0.2681725,-0.5429838
0.7825653,-0.1960782,-0.1666213,0.205407,0.04829621,-0.3888012
0.740454,-0.1387303,-0.1661477,0.09549851,0.1588708,-0.3112759
0.7867361,-0.06362668,-0.1863686,0.001743484,-0.03593035,-0.2180541
0.8455875,-0.02867859,-0.17737,-0.07073722,-0.06122822,-0.170521
0.8511428,-0.0300982,-0.1880753,-0.2561817,0.1011917,-0.0617238
0.8835969,-0.01009815,-0.1650996,-0.2976307,-0.04388264,0.112685
0.8483387,-0.02654266,-0.1137178,-0.3126057,0.004078413,0.201844
0.8259373,-0.01637697,-0.09848855,-0.308228,-0.09818506,0.3186501
0.8972578,-0.02931918,-0.08607179,-0.2284823,-0.2881349,0.4498844
0.9819118,-0.08794473,-0.1256599,-0.2190506,-0.04134029,0.4465086
1.063916,-0.1447613,-0.1719902,-0.1582271,0.1862375,0.336972
1.052883,-0.1844235,-0.1692679,-0.1213456,0.3864841,0.1988579
1.031135,-0.1669452,-0.177929,-0.18472,0.5227526,0.129202
1.108033,-0.1474208,-0.1661048,-0.2704857,0.4094308,0.1356311
1.189131,-0.1407651,-0.07989318,-0.392816,0.1467833,0.02203941
1.289866,-0.2432819,0.01874742,-0.3607898,-0.1577192,-0.1689901
1.298748,-0.3805419,-0.02204107,-0.2338235,-0.2181502,-0.2092636
1.150812,-0.2810688,-0.2060268,-0.2276617,-0.4711804,-0.3132573
1.060666,-0.1916615,-0.4076161,-0.3655678,-1.140962,-0.5970564
1.053156,-0.277942,-0.5458698,-0.5531271,-1.339401,-0.6886853
