accx,accy,accz,gyrox,gyroy,gyroz
0.5695015,-0.2031718,-0.152077,-0.8995486,1.207298,0.4389304
0.584063,-0.2086695,-0.05906331,-0.8864121,0.8421987,0.331772
0.643652,-0.2276151,0.02983962,-0.9145749,0.2072345,0.2262411
0.7360437,-0.2728579,0.03874963,-0.7767501,-0.1407727,0.08179854
0.8625033,-0.2883778,0.02111395,-0.6069974,-0.20875,-0.08711019
0.8981519,-0.2511744,0.009576124,-0.369157,0.1140897,-0.06341092
0.8639772,-0.1814542,0.03586007,-0.3309595,0.3131949,-0.01450828
0.8551912,-0.1060188,0.06602169,-0.370936,0.1673619,0.01064977
0.8561135,-0.08046754,0.08664295,-0.3258038,-0.1545765,0.06794487
0.8884663,-0.1264336,0.05444994,-0.460568,-0.6064556,0.03989196
1.037297,-0.1554709,-0.03191554,-0.5679632,-0.7574754,-0.06340428
1.298616,-0.1136479,-0.09730721,-0.4443211,-0.7699258,-0.1152674
1.527823,-0.07218005,-0.2228922,-0.4379325,-0.4780535,0.03097369
1.608532,-0.05603224,-0.3066593,-0.8745193,0.7010649,0.2170548
1.58127,-0.03470918,-0.2413882,-1.285267,1.700858,0.2301958
1.402678,-0.07131314,-0.1737539,-1.051112,1.125664,0.4186818
1.121538,-0.2186639,-0.1020108,-0.6925273,-0.4037339,0.8934655
1.10422,-0.3941166,-0.1367932,-0.6843206,-1.175748,1.063456
1.197038,-0.5300721,-0.3545729,-0.6003905,-0.1640401,0.730774
1.067736,-0.6495543,-0.4857255,-0.4693126,1.991028,0.1477689
1.019033,-0.6270425,-0.4239629,-0.4744333,2.801469,-0.3880319
0.9426018,-0.3688673,-0.2530166,-0.3496462,1.458404,-0.3845709
0.6588574,-0.1328061,-0.07068321,-0.06792916,-0.2774522,-0.1024026
0.6038183,-0.08542915,0.07155029,0.3059449,-1.592626,-0.1402208
0.7501715,-0.1866489,0.1239225,0.5419332,-2.155511,-0.1925985
0.8746268,-0.2929627,-0.04199726,0.4572315,-1.923369,-0.2556498
0.9844179,-0.2124691,-0.3115108,0.2378013,-1.184455,-0.5405699
0.9815844,-0.08817265,-0.455779,-0.02047858,0.157862,-0.5660431
0.8860356,0.03230386,-0.4017207,-0.02068885,0.7820356,-0.2362007
0.7839993,0.1263342,-0.2336575,0.1062222,0.1811208,0.1137932
0.7628719,0.006398776,-0.1001555,0.003011101,-0.2613925,0.1862009
0.8085625,-0.06833383,-0.03851336,0.07739168,-0.5143757,0.03974507
0.8459797,-0.0499802,-0.09391608,0.1698057,-0.7243535,0.08505238
0.9296947,-0.06278316,-0.1597314,0.03334652,-0.3338732,0.1513652
0.9758803,0.0210882,-0.1499719,-0.006784565,0.1405999,0.2058995
0.9354151,0.03324155,-0.1433751,-0.03319112,0.2347941,0.4255419
0.940779,-0.02117867,-0.03006563,0.1435515,0.1864014,0.4664054
1.015269,-0.0488223,0.06552709,0.5197038,0.0175311,0.3613094
1.12711,-0.09382168,0.005766671,0.5679481,-0.01419663,0.2169713
1.227785,-0.05896269,-0.06724821,0.2839534,0.08129243,0.03024648
1.234768,-0.04692689,-0.1328926,-0.07284131,0.0811689,-0.01280995
1.182213,-0.06184065,-0.0642463,-0.134309,0.1952052,-0.1211942
1.14816,-0.03898537,0.06912516,0.1253755,0.1330853,-0.2797735
1.140528,-0.07382964,0.037717,0.2381024,-0.402209,-0.3050609
1.196813,-0.1613724,-0.1416652,-0.02358793,-1.089969,-0.5233527
1.265102,-0.2922207,-0.5089369,-0.6719324,-1.175328,-0.8336384
1.233829,-0.3193111,-0.7660278,-1.160858,-0.5252719,-0.788345
1.190741,-0.2239579,-0.5851039,-0.915789,0.00485164,-0.5739582
1.18539,-0.1878375,-0.418072,-0.6005124,0.2817307,-0.2932249
1.170606,-0.1553752,-0.484484,-0.6603209,0.1632589,0.160097
1.176686,-0.1365654,-0.4009812,-0.4897718,-0.1472866,0.4158269
1.160397,-0.156116,-0.2744103,-0.3909769,0.05312544,0.5144959
1.086506,-0.1623062,-0.3098065,-0.6847218,0.2446806,0.6818488
0.9629737,-0.1992397,-0.2914817,-0.6322383,0.5692546,0.6402794
0.7725066,-0.1748646,-0.2394799,-0.4054726,0.9842782,0.553454
0.6281448,-0.1244484,-0.1947326,-0.3335812,0.8591799,0.5488168
0.5987751,-0.1598016,-0.1161317,-0.3859692,0.8467145,0.3924598
0.5944751,-0.1610128,-0.06351235,-0.6020013,0.6791689,0.2963037
0.603374,-0.1593946,0.02070216,-0.38645,0.1042236,0.29796
0.6773643,-0.2129193,0.03672229,-0.1496121,-0.2641523,0.1662728
0.7966785,-0.2345522,-0.01987844,-0.2493912,-0.4227193,-0.02577786
0.8681074,-0.229464,-0.02932968,-0.05814572,-0.08570191,-0.1434509
0.8604561,-0.1945363,-0.06106206,0.0607192,0.4333628,-0.1449946
0.849846,-0.1316527,-0.02997556,0.01849567,0.5764084,-0.1378622
0.8526681,-0.0657379,0.04292497,-0.05487424,0.4813048,-0.1615206
0.8668634,-0.0153753,0.04808945,-0.3537847,0.01001761,-0.1318375
0.9748454,-0.02475459,0.03859482,-0.5779249,-0.7024951,-0.1072588
1.236331,-0.0569855,-0.03184235,-0.6585231,-1.048414,-0.06196634
1.556567,-0.07940207,-0.1530452,-0.6617236,-0.4838207,0.04550031
1.66502,-0.08327758,-0.216611,-0.8365209,0.6968541,0.1315581
1.434604,-0.06827055,-0.1131794,-1.096088,1.556056,0.1709718
1.131636,-0.1115265,0.04470001,-0.9777349,1.309261,0.2864132
1.030033,-0.2912089,-0.02525672,-0.6795473,-0.3279791,0.6274642
1.090368,-0.5934119,-0.2969762,-0.2814185,-1.598267,0.8550721
1.198585,-0.7153352,-0.6309959,0.05193,-0.7034477,0.6447514
1.265543,-0.4630581,-0.758544,0.05260598,1.229866,0.2137665
1.138708,-0.1903916,-0.5432688,-0.08303805,2.326212,-0.2940702
0.84438,-0.126382,-0.2866396,-0.3463115,1.94465,-0.4982635
0.644024,-0.1737027,0.03526204,-0.4665504,0.6636818,-0.2049024
0.6598029,-0.2481768,0.2879423,-0.06140952,-0.7365259,-0.1227092
0.771825,-0.2461064,0.11955,0.4202427,-1.956082,-0.370137
0.8245,-0.1681158,-0.1654021,0.4069087,-2.154761,-0.4767743
0.7897029,-0.06663862,-0.3838737,0.2032358,-1.235941,-0.4517558
0.7701252,-0.0265195,-0.4069936,0.2743958,-0.4211038,-0.2111221
0.81006,-0.07468304,-0.2113491,0.481619,-0.03845145,0.1467353
0.8699549,-0.06911193,-0.2170362,0.6595371,-0.09745323,0.1991585
0.96094,-0.06732954,-0.2064363,0.5577157,-0.4352034,0.02809811
1.038775,-0.0730049,-0.1535579,0.2765413,-0.3957543,-0.05318881
1.025503,0.001189955,-0.279793,0.2610448,-0.1479077,0.005493079
0.9909348,0.01662898,-0.2244864,0.1490015,0.2192886,0.05075977
0.9389409,0.01119398,-0.1448199,-0.05988884,0.3457923,0.1253054
0.836754,0.03192018,-0.0931306,0.01367121,-0.03621799,0.3435622
0.8490672,0.004584053,0.01208535,0.150372,-0.1593612,0.4564224
0.9742322,-0.04934326,-0.07213118,0.4014879,-0.2607071,0.3861976
1.091389,-0.1163507,-0.06711098,0.6359135,-0.3580584,0.2478003
1.203593,-0.1034702,-0.05644009,0.6070459,-0.09314931,0.08922972
1.223627,-0.06870132,-0.1952907,0.3888959,0.1963678,0.08210313
1.221834,-0.1017183,-0.2183567,0.0858746,0.589048,0.08349973
1.236826,-0.08580897,-0.1652856,0.1543811,0.6342015,-0.1016812
1.120207,-0.06939078,-0.01294969,0.4403762,0.2385097,-0.2011327
1.051161,-0.08888491,0.07260042,0.6159804,-0.247739,-0.188305
1.088563,-0.1206975,-0.007456366,0.7492685,-0.8840581,-0.3633367
1.157917,-0.1796353,-0.1644393,0.2071687,-0.9932494,-0.6199556
1.271609,-0.1527798,-0.4935153,-0.7088335,-0.6100786,-0.6422117
1.172652,-0.1150595,-0.6360025,-0.893281,-0.348164,-0.4779816
1.025557,-0.1801543,-0.523227,-0.6756544,-0.155032,-0.3543811
1.099787,-0.2392893,-0.4971969,-0.6203317,0.006776208,-0.2795835
1.149883,-0.2730147,-0.4270384,-0.5222386,0.1814309,-0.1468259
1.176342,-0.2631483,-0.2879814,-0.2465109,0.2970348,0.1018656
1.160994,-0.1894414,-0.2399362,-0.1220028,0.4774025,0.3707813
1.000528,-0.1294017,-0.2505322,-0.2390506,0.7053448,0.4841241
0.8535413,-0.08978492,-0.2396701,-0.2557614,0.6310885,0.499686
0.7482492,-0.09748507,-0.2075183,-0.344807,0.5645519,0.4537556
0.7201282,-0.1265001,-0.1737629,-0.5136806,0.6195436,0.3709047
0.7306053,-0.1206518,-0.1116685,-0.4254186,0.5674741,0.3957642
0.6969472,-0.1463604,-0.06575621,-0.3403973,0.5108504,0.3877451
0.7469131,-0.1849492,-0.05906974,-0.3551368,0.3006146,0.2840155
0.814385,-0.2229698,-0.06019813,-0.3253578,0.01269605,0.1726959
0.8295571,-0.2491734,-0.05637883,-0.3053385,0.03360314,0.07476665
0.8557157,-0.2178198,-0.04019209,-0.2299327,0.2159972,0.09534644
0.8491377,-0.2116657,-0.02281229,-0.1676596,0.285444,0.105298
0.8386899,-0.1892733,0.01818345,-0.1911736,0.1779141,0.06072694
0.83414,-0.1216809,0.06853404,-0.1467836,-0.1182929,0.06109664
0.8365709,-0.1081593,0.08446566,-0.1422599,-0.4198546,-0.01178306
0.885931,-0.1154098,0.04430564,-0.4347195,-0.542303,-0.1422146
0.945995,-0.1238333,-0.02270189,-0.7103857,-0.5738267,-0.2308161
1.079447,-0.1153298,-0.04635053,-0.5169812,-0.6112765,-0.1546653
1.319938,-0.09682436,-0.1026719,-0.3548888,-0.3705561,0.0125833
1.512565,-0.09554625,-0.1633626,-0.7232516,0.4867595,0.02919646
1.524042,-0.02777248,-0.07635447,-0.985543,1.306079,0.06695554
1.356581,0.0238477,0.05600273,-0.8095899,0.8214987,0.2961135
1.149966,-0.1007066,0.08347478,-0.5958109,-0.6985243,0.664854
1.107169,-0.4085659,-0.1680023,-0.3910433,-1.565989,0.9225322
1.193311,-0.7556665,-0.6233259,-0.2511866,-0.675003,0.7201875
1.176858,-0.8247887,-0.7258346,-0.1980484,1.600137,0.1596439
1.080181,-0.5230375,-0.4775117,-0.09965839,3.009742,-0.4807967
0.9326308,-0.1978054,-0.3172087,-0.1925028,2.001986,-0.6533016
0.6865086,-0.09463773,-0.1481393,-0.2771112,-0.005957434,-0.2345743
0.5741948,-0.09811854,0.08391934,0.07917914,-1.54704,-0.1007248
0.6909213,-0.200149,0.08445805,0.5385417,-2.208851,-0.2519878
0.8845696,-0.35329,-0.1524965,0.667943,-1.938323,-0.4052022
0.9923464,-0.2621605,-0.3330491,0.4684206,-1.205897,-0.6919714
0.9019046,-0.06582029,-0.3518455,0.3305782,-0.112561,-0.5367717
0.7838139,0.01124525,-0.2936557,0.4595737,0.4185266,-0.1617121
0.8011511,0.06244864,-0.2139104,0.4824672,-0.149682,-0.08350539
0.8619547,-0.005839249,-0.1511771,0.3967145,-0.351209,-0.008762643
0.9232149,-0.09000661,-0.1076748,0.3916837,-0.306419,-0.0670423
1.003155,-0.04257165,-0.1375711,0.3371381,-0.2952883,-0.1087301
1.017978,-0.007926331,-0.1822311,0.2791253,0.3592955,8.476687e-06
0.952792,0.069133,-0.1281401,0.1760174,0.4972685,0.03641453
0.8714907,0.1088567,-0.07994537,0.04147848,0.207278,0.2431687
0.781163,0.02325873,-0.005509053,0.08694081,0.08392976,0.4451336
0.773242,-0.04352934,0.06515539,0.2656472,-0.5924281,0.4709961
0.8877467,-0.1524487,0.009646032,0.5679991,-1.061812,0.4314801
1.054657,-0.2356351,-0.05315814,0.8633565,-0.9859638,0.209997
1.203971,-0.2032965,-0.1411848,0.864354,-0.3413738,0.02704272
1.2943,-0.1499223,-0.2652669,0.6283277,0.9053182,-0.0432064
1.390828,-0.07982798,-0.3173768,0.3609389,1.268431,-0.1566353
1.326184,-0.0541334,-0.1809944,0.3401949,0.8283373,-0.2577314
1.096222,-0.04706346,0.1133475,0.6177599,0.3746708,-0.2944185
1.096533,-0.04425703,0.1616564,0.7695002,-0.5465753,-0.3476571
1.187244,-0.1220659,-0.02741085,0.5071067,-1.393337,-0.5560359
1.171558,-0.1510175,-0.2698237,-0.1291404,-1.281335,-0.6567006
1.181089,-0.1224643,-0.6415304,-0.7810149,-0.6862927,-0.4907932
1.103404,-0.1455151,-0.7373615,-0.9471493,-0.2286243,-0.3486319
1.037643,-0.2152478,-0.5289332,-0.7722349,0.118534,-0.3037693
1.110273,-0.3144274,-0.4665598,-0.700179,0.2328813,-0.2193828
1.162625,-0.3325631,-0.3917505,-0.5412728,0.1701383,-0.03118796
1.165551,-0.2632073,-0.2612135,-0.2319758,0.1196741,0.1768384
1.084642,-0.201219,-0.2563532,-0.171552,0.1321469,0.4347291
0.931699,-0.1196418,-0.2878314,-0.2300673,0.3416544,0.6247704
0.7867504,-0.08808709,-0.3059795,-0.2013194,0.5309786,0.5755569
0.6948288,-0.1278815,-0.2551274,-0.2134934,0.6791313,0.5229727
0.6791543,-0.122438,-0.1608914,-0.2569597,0.7591524,0.4198819
0.6646098,-0.1210647,-0.1028509,-0.3286409,0.650376,0.3098642
0.6803106,-0.1607666,-0.04612572,-0.3277625,0.3780625,0.2968912
0.7464216,-0.1953799,-0.02004766,-0.2741974,-0.1699209,0.1347738
0.8264545,-0.2348384,-0.02441971,-0.2453727,-0.2901393,-0.0009607369
0.9009053,-0.2423699,-0.03774824,-0.06931203,0.1399839,-0.06604867
0.8798267,-0.2159908,-0.05001803,0.118048,0.4088062,-0.09886287
0.8274928,-0.1910965,-0.004868053,0.2124354,0.5490225,-0.01682535
0.8100003,-0.1612594,0.0530795,0.2424061,0.3532163,-0.0467335
0.8390946,-0.1395078,0.06030454,0.04758502,0.06449872,-0.1314832
0.9394725,-0.08074595,0.02505925,-0.3084821,-0.02306277,-0.1885655
1.020354,-0.008665221,-0.01868084,-0.5573864,-0.4616502,-0.1306239
1.172379,-0.06544037,-0.07113363,-0.4674615,-0.7577572,0.09887438
1.417905,-0.1668859,-0.1579952,-0.3960122,-0.2241065,0.1572791
1.49492,-0.1449263,-0.1768431,-0.7143696,0.9522746,0.02416766
1.386681,-0.04378469,-0.06772948,-0.8928606,1.835948,-0.03087848
1.252704,0.001334328,0.02863672,-0.7499841,0.7584211,0.2904365
1.122596,-0.2300144,-0.03418196,-0.5604214,-1.530882,0.837589
1.066463,-0.6926375,-0.3020014,-0.2681279,-2.14343,0.9485582
1.15983,-0.8592921,-0.5780338,0.003232043,-0.6062223,0.6069901
1.195883,-0.5766627,-0.5683357,0.05358514,1.590067,0.06418219
1.011446,-0.2510043,-0.4310882,-0.08893489,2.515488,-0.3850644
0.7828971,-0.1175096,-0.3290535,-0.1969246,1.124384,-0.2981833
0.6874438,-0.1587265,-0.0225971,-0.06753983,-0.6155432,-0.1317385
0.7612398,-0.2898364,0.1677317,0.2461671,-1.377021,-0.2890727
0.8481895,-0.36135,-0.09344501,0.5295067,-1.747953,-0.3826258
0.8465079,-0.2467472,-0.3137388,0.456299,-1.383781,-0.5219665
0.8318035,-0.04870496,-0.3707024,0.3020157,-0.5041001,-0.6676341
0.7865733,0.02718581,-0.3654215,0.4681045,0.1620336,-0.3868747
0.8195162,0.02058185,-0.2332515,0.5028916,0.3273341,-0.09773651
0.9088747,-0.002470319,-0.1999829,0.4046344,-0.1002344,-0.0261857
0.9079188,-0.05661431,-0.1987657,0.4414983,-0.2370831,0.03868731
0.9536597,-0.06267804,-0.1783299,0.3400222,0.005127235,-0.01218515
0.9698977,-0.02114588,-0.2017726,0.2623761,0.1014945,0.01138308
0.8918906,0.02026909,-0.1298794,0.2518087,0.3028996,0.1310015
0.8504338,0.04237966,-0.08738732,0.1608103,0.1891694,0.2581379
0.8223656,-0.006134211,-0.04434555,0.237891,-0.2368363,0.4613407
0.8886175,-0.08996131,0.01440157,0.4000933,-0.4687026,0.5047388
1.045445,-0.1341314,-0.05408877,0.5829884,-0.7351084,0.4476778
1.207539,-0.1105157,-0.1161969,0.7462192,-0.6864724,0.3418729
1.311688,-0.07579194,-0.192998,0.675282,-0.1543396,0.1800206
1.254134,-0.0939743,-0.2657044,0.4581834,0.4614714,0.1636182
1.214867,-0.09476999,-0.2658889,0.1095031,0.7450195,0.0466786
1.222761,-0.1041313,-0.1705641,-0.03639345,0.2702373,-0.2517174
1.163047,-0.1614234,0.09620945,0.4279351,-0.2057942,-0.4398278
1.191012,-0.1548914,0.1907153,1.011506,-0.317144,-0.4974243
1.244354,-0.1169813,0.002076938,1.078256,-0.5855187,-0.5123598
1.217257,-0.08999481,-0.2691331,0.3133081,-0.7754719,-0.4985685
1.157946,-0.07602811,-0.6192524,-0.8972501,-0.9410427,-0.4566865
1.046745,-0.1701443,-0.7259234,-1.400161,-1.045219,-0.4485905
1.03469,-0.2721365,-0.5699491,-1.068753,-0.6443768,-0.4791685
1.146905,-0.2546848,-0.5415768,-0.7811891,-0.0160799,-0.431414
1.187708,-0.2278465,-0.5207109,-0.5139946,0.45284,-0.1485309
1.159147,-0.2411432,-0.4121386,-0.1666883,0.7011626,0.2460301
1.08479,-0.2143744,-0.3221209,-0.2729055,0.7934296,0.3706511
0.9379949,-0.1626305,-0.2232783,-0.345754,0.6667123,0.417997
0.7634512,-0.1429389,-0.2214029,-0.1184997,0.490783,0.5824945
0.663373,-0.1511768,-0.2580916,-0.29413,0.5820351,0.4829032
0.678119,-0.1653326,-0.1841416,-0.397704,0.625515,0.3227859
0.6898189,-0.1252921,-0.1231738,-0.1805982,0.568302,0.3676964
0.691489,-0.0833583,-0.09343392,-0.2037711,0.501224,0.3383394
0.7144106,-0.1399546,-0.09687514,-0.2896704,0.1783832,0.3053753
0.7475762,-0.2057242,-0.1331599,-0.346954,-0.05933275,0.2337842
0.8383134,-0.241403,-0.08796212,-0.1722917,0.05532939,0.06232495
0.8874157,-0.2662633,-0.06370297,0.2014599,0.2953499,0.02834743
0.8767212,-0.2501546,-0.0664335,0.2482505,0.4652145,-0.01138958
0.8621398,-0.1968586,-0.004773236,0.2341053,0.3438142,-0.05826798
0.8220283,-0.09178821,0.04928807,0.2478282,0.05094651,-0.02063379
0.8672729,-0.02593295,0.07297607,0.03998015,-0.1616257,-0.06255751
0.9618324,-0.05836329,0.01437784,-0.2585897,-0.4482348,-0.1075293
1.050395,-0.09749279,-0.06429882,-0.4144179,-0.8132612,-0.09724156
1.279922,-0.1500184,-0.0869258,-0.3074035,-0.8050231,0.000847826
1.587237,-0.1885995,-0.1525925,-0.3126051,0.06804661,0.1388216
1.698253,-0.1309501,-0.1677412,-0.4646389,1.783027,0.1526964
1.462913,-0.0226428,-0.02257719,-0.5086598,2.714318,0.2326073
1.121808,0.01092514,0.1164495,-0.5168175,0.8875067,0.5247072
0.9837192,-0.2216571,0.00569744,-0.3030985,-2.196388,0.903799
1.014384,-0.6248698,-0.3443221,-0.05378689,-3.074373,1.062096
1.114835,-0.7328349,-0.7093391,-0.1012974,-1.097463,0.6629733
1.166996,-0.5116436,-0.8452637,-0.1517961,1.736342,0.01216191
1.053633,-0.2872532,-0.6024481,-0.1886975,3.085256,-0.3559274
0.8025757,-0.08894818,-0.2899625,-0.4304678,2.437981,-0.4108384
0.592048,-0.01749253,-0.07302209,-0.6086402,0.9242852,-0.3504847
0.6546333,-0.1902333,0.1415761,-0.4082342,-1.021564,-0.3302185
0.8038301,-0.3366168,0.05042248,-0.003909005,-2.348414,-0.3435597
0.8181981,-0.3127362,-0.2381612,0.2599671,-2.099851,-0.3807472
0.846397,-0.2138887,-0.4581569,0.2041766,-1.315696,-0.4374151
0.8381909,-0.0956578,-0.5816991,0.1283871,-0.2686737,-0.3509736
0.8109869,-0.06127794,-0.4062964,0.4549096,0.5974809,-0.1452571
0.8733898,-0.1130525,-0.2380364,0.685788,0.2027622,0.0478128
0.8928779,-0.1234343,-0.2058377,0.5121002,-0.2371625,0.09021348
0.9264469,-0.08697239,-0.1361524,0.4403919,-0.2211889,0.002386569
1.001658,-0.03539092,-0.2094354,0.4225795,-0.4005128,0.06145628
1.030019,0.0353175,-0.2114297,0.2504323,-0.06997914,0.1585376
1.006296,0.05140867,-0.140475,0.06805133,0.2988544,0.2670975
0.9019106,0.007949043,-0.1215311,0.01912184,0.128134,0.4794529
0.861675,-0.04578029,0.02250764,0.1774382,-0.0840094,0.4884455
0.9175849,-0.1497941,0.05288889,0.4197444,-0.6036957,0.3631332
1.002359,-0.199365,-0.01075297,0.6632718,-0.8401465,0.230774
1.134979,-0.1103617,-0.0873185,0.7104024,-0.2604139,0.08219397
1.142582,-0.07213125,-0.2567068,0.3762836,0.3498682,0.08187407
1.063003,-0.1445718,-0.2201222,0.03995647,0.5276398,-0.0102048
1.066813,-0.2293726,-0.04135302,0.1511295,0.1647692,-0.3217388
1.128932,-0.3120955,0.01913474,0.6012677,-0.2292901,-0.636368
1.264198,-0.3472911,-0.1416614,0.8710609,-0.3143688,-0.8996805
1.367881,-0.303675,-0.5081827,0.5595874,-0.3715961,-1.019115
1.308445,-0.2449072,-0.6817461,-0.211321,-0.3557149,-0.9374103
1.118211,-0.1760633,-0.5681387,-0.6634274,-0.4294781,-0.7107755
0.9565503,-0.09408135,-0.4623978,-0.3670551,-0.6208233,-0.4575174
1.053019,-0.1350455,-0.435171,-0.08958474,-0.5716218,-0.3450493
1.289256,-0.2278939,-0.4665568,-0.1956808,-0.076167,-0.2043452
1.356698,-0.1683804,-0.4993842,-0.1120127,0.6327275,0.2392492
1.222422,-0.1119332,-0.3845034,-0.02012618,0.8933697,0.6428341
0.9618125,-0.1020886,-0.2274295,-0.2404462,0.8768954,0.6955605
0.7420001,-0.04972048,-0.236923,-0.2968083,0.9912725,0.6972001
0.6707311,-0.08700628,-0.2307208,-0.2854583,0.7824793,0.631674
0.6036755,-0.1480145,-0.1383736,-0.4454116,0.3636893,0.4136482
0.5881781,-0.2060332,-0.131137,-0.4621703,0.1959855,0.2904983
0.6834261,-0.27635,-0.1088927,-0.3343893,0.05837018,0.1574306
0.7542853,-0.2510853,-0.07408952,-0.1400283,-0.05091267,-0.007743081
0.846586,-0.2675773,-0.09660978,-0.08510774,0.06167865,-0.05217473
0.906165,-0.2890853,-0.0808744,-0.06714326,0.2559732,-0.05418038
0.85885,-0.2449144,-0.05580901,0.1900723,0.3484937,-0.05674078
0.839709,-0.2440283,-0.008651914,0.235999,0.2110962,-0.08505579
0.8297133,-0.1849484,0.07109093,0.2385297,-0.1209033,-0.1084581
0.8320735,-0.1218876,0.07603434,0.342823,-0.4922818,-0.1142819
0.8979691,-0.1178278,-0.0006076277,0.09128965,-0.702309,-0.1330296
0.9846891,-0.09991503,-0.09376043,-0.1421863,-0.7614458,-0.1315351
1.160252,-0.1102787,-0.1507973,-0.157132,-0.7561166,-0.1261418
1.389045,-0.0942385,-0.2130004,-0.2634771,-0.1430036,-0.07008199
1.477646,-0.05521654,-0.2709815,-0.5718559,1.078093,-0.005627071
1.385058,-0.00521291,-0.1566469,-0.9670957,1.761197,0.01235269
1.22547,0.04772901,0.07586581,-1.049114,1.33683,0.1699755
1.085946,-0.06427896,0.1366987,-0.7423285,-0.2225617,0.5391658
1.030279,-0.3507512,-0.1306795,-0.3701327,-2.481453,0.9161858
1.125369,-0.6913445,-0.5884106,-0.0983104,-3.030372,1.000841
1.21617,-0.8357766,-0.8250624,0.1360017,-0.2589962,0.6440871
1.153544,-0.6235716,-0.6808814,0.2235211,3.016715,-0.02246013
1.000094,-0.3495597,-0.4690816,0.1318164,3.523024,-0.6087282
0.772688,-0.1912083,-0.2834876,0.08861434,1.709203,-0.7211971
0.6216702,-0.1414588,-0.02189643,0.08878638,-0.2638346,-0.4990019
0.6247464,-0.2171057,0.1559471,0.310161,-1.339914,-0.3918234
0.7124274,-0.2207386,0.09459008,0.7390614,-1.88757,-0.4725445
0.9693949,-0.1636338,-0.2335812,0.7709319,-1.758048,-0.6304193
1.113495,-0.1348659,-0.5830868,0.3605749,-0.4623212,-0.7733532
0.9511055,-0.01600984,-0.5601183,0.06810002,0.9948304,-0.5821652
0.8302863,0.03372063,-0.3066713,0.1696952,1.201137,-0.171964
0.8095579,-0.04120376,-0.1578154,0.3046784,0.2430118,-0.03271099
0.8093079,-0.0782756,-0.1050926,0.2670172,-0.4254718,-0.01742289
0.8654615,-0.1122932,-0.09565151,0.3447259,-0.5444493,0.00275783
0.9356804,-0.1095045,-0.1394079,0.3682884,-0.6274247,-0.02963707
0.9975063,-0.05908347,-0.2211575,0.2339252,-0.2546751,0.04317068
0.9954097,-0.01203317,-0.2475695,0.1774723,0.1942281,0.09929322
0.9494972,0.02911607,-0.1764775,0.1186291,0.3270121,0.2057901
0.9042945,0.003153035,-0.1019261,0.1554338,0.2239638,0.4267541
0.876961,-0.06291485,-0.03366617,0.3516489,-0.1558786,0.5079979
0.9401184,-0.1518992,-0.00287021,0.5810961,-0.4222619,0.4884825
1.073572,-0.2057602,-0.08037299,0.7641245,-0.5682973,0.3093551
1.222245,-0.1269077,-0.1848922,0.6820961,-0.1834876,0.05640179
1.28534,-0.0711602,-0.2308792,0.4514096,0.5348206,0.0267678
1.213042,-0.1074911,-0.1850064,0.1574308,0.6318852,0.001145585
1.150218,-0.1169986,-0.05530824,-0.04688806,0.5545994,-0.1581929
1.125045,-0.1335562,0.09423633,0.301559,0.3250185,-0.2601011
1.115177,-0.1955201,0.1310729,0.8040451,-0.288492,-0.3241399
1.18874,-0.2187558,-0.1095086,0.8865423,-0.9393769,-0.515601
1.239038,-0.1630692,-0.4783544,0.39731,-1.311771,-0.709362
1.15027,-0.1177377,-0.6391704,-0.4290897,-0.8859726,-0.6416701
1.026259,-0.1772392,-0.5727654,-0.6913874,-0.2952443,-0.4837288
0.9908297,-0.2646671,-0.4905869,-0.5087486,-0.08013428,-0.4405005
1.045994,-0.2798864,-0.4464602,-0.5536177,0.1126378,-0.3973224
1.109367,-0.2574695,-0.3555228,-0.5072379,0.0427564,-0.2437296
1.141727,-0.2104903,-0.3033968,-0.289343,-0.04642717,0.07578929
1.138819,-0.1499898,-0.3135685,-0.17926,0.1878143,0.371799
1.037493,-0.1323951,-0.2896709,-0.2135267,0.4239317,0.4560244
0.8565147,-0.1347802,-0.2871147,-0.3073248,0.6777922,0.4978226
0.7326141,-0.1422819,-0.2562442,-0.3612295,0.8605714,0.4922592
0.6970401,-0.1734503,-0.1941836,-0.4462947,0.8002223,0.4067248
0.6701238,-0.1877102,-0.1440784,-0.4181443,0.6591488,0.3782828
0.6879656,-0.1794284,-0.03705099,-0.2610942,0.3654698,0.2927574
0.7829086,-0.1949136,-0.01732462,-0.2339874,0.009196109,0.1649374
0.8413706,-0.2246395,-0.07364173,-0.2360543,-0.131942,0.08956275
0.8743697,-0.2303832,-0.07771725,-0.1919264,-0.1187402,0.02647078
0.9169658,-0.2206059,-0.09201688,-0.06317114,0.1106867,0.03128303
0.8915079,-0.21083,-0.07306737,0.1262039,0.4223836,0.01270009
0.8260567,-0.184773,-0.01910192,0.1582718,0.4078274,-0.038785
0.7801229,-0.1426341,0.03437103,0.152517,0.1153797,-0.08497546
0.8263406,-0.1283361,0.04636723,0.1231334,-0.2777217,-0.1964214
0.9593427,-0.1389401,-0.01892693,-0.02184935,-0.6086031,-0.227973
1.048758,-0.1206483,-0.06894717,-0.1163482,-0.7042393,-0.189333
1.147564,-0.1055401,-0.1262442,-0.1653474,-0.6367971,-0.1690396
1.353386,-0.1202435,-0.1769795,-0.2339097,-0.2451212,-0.1079304
1.543471,-0.1023079,-0.1604263,-0.4654121,0.7772076,-0.06607887
1.447693,-0.02911736,-0.03163563,-0.8088739,1.90698,-0.03879474
1.164909,0.02217065,0.1947191,-0.8261537,2.049781,0.09907122
1.108104,-0.1120032,0.1618407,-0.5353623,0.6669206,0.4117359
1.139119,-0.4050975,-0.1166956,-0.1809322,-1.457306,0.7024761
1.118112,-0.5912277,-0.3044206,0.1544914,-2.264004,0.7440685
1.189992,-0.6909461,-0.5210183,0.2455384,-0.8151165,0.6004542
1.197973,-0.8247266,-0.7501487,0.1431035,1.44679,0.1980934
1.11294,-0.6951854,-0.7033302,0.04560427,2.881066,-0.431585
0.8909454,-0.2472564,-0.395829,-0.1285941,2.563239,-0.6380188
0.6149031,0.02270271,-0.1495864,-0.2208305,0.7121215,-0.2158975
0.6217597,-0.02773856,-0.06082751,0.07120444,-1.287398,0.02895534
0.7224209,-0.1755072,0.04130004,0.5660243,-2.479644,-0.1914861
0.8225443,-0.3433219,0.003075461,0.7595771,-2.239841,-0.4230715
1.028144,-0.3941593,-0.2271675,0.4701867,-0.8908456,-0.6439946
1.06469,-0.2263223,-0.4103294,0.2613679,0.4761835,-0.6972684
0.8993396,-0.00963453,-0.4256798,0.5249375,1.12216,-0.3691396
0.7885977,0.03141892,-0.237549,0.700601,0.3143856,-0.1132795
0.7885383,-0.05687614,-0.08703537,0.5854459,-0.5564676,-0.09746087
0.8276923,-0.09144364,-0.1131273,0.5936412,-0.4819676,-0.1420961
0.9158238,-0.09995052,-0.1785165,0.6001374,-0.610576,-0.1779537
1.035637,-0.07383692,-0.2413789,0.4684991,-0.1893241,-0.1317559
1.065022,0.01212553,-0.2239072,0.347013,0.5563812,-0.04338418
0.9611767,0.06688563,-0.1250276,0.1524924,0.5580175,0.1770467
0.8638203,0.08844114,-0.03698693,0.03860083,0.3608604,0.4136861
0.8761384,0.02396193,-0.008829104,0.1973703,-0.24482,0.4224276
0.8784181,-0.09810122,-0.005727899,0.4103546,-0.7214149,0.40093
0.9399712,-0.1492315,-0.001376837,0.5404057,-0.6827331,0.3240054
1.148388,-0.1447446,-0.1100737,0.5646844,-0.3055538,0.1341557
1.235757,-0.1021124,-0.2198472,0.4568588,0.5354691,0.08903102
1.17947,-0.07847669,-0.1971621,0.2761806,0.7797984,0.09950949
1.127644,-0.1307215,-0.1065946,0.1455229,0.4267377,0.00450809
1.05636,-0.1764665,0.03570541,0.274522,0.1170083,-0.1151912
1.04347,-0.1713583,0.08391052,0.6420535,-0.120082,-0.2095748
1.11731,-0.2030999,0.02463178,0.8850801,-0.3520137,-0.3639698
1.180058,-0.2654509,-0.05870754,0.6971224,-0.764476,-0.6573291
1.19245,-0.2060929,-0.2883075,0.1025633,-0.7873126,-0.8042829
1.122785,-0.1019399,-0.5257092,-0.443926,-0.6621768,-0.5915076
1.01323,-0.1135889,-0.5536752,-0.5038555,-0.6733011,-0.4407946
0.987909,-0.1935016,-0.499139,-0.3573924,-0.2692899,-0.5243671
1.044742,-0.2706634,-0.4558327,-0.3823783,0.09454518,-0.4355345
1.108116,-0.2436812,-0.3383614,-0.2677144,0.09297411,-0.1762485
1.145562,-0.154107,-0.2224927,-0.04773945,0.04060551,0.07885665
1.116015,-0.1225359,-0.2332378,-0.09932076,0.2531809,0.3887829
1.030021,-0.08233843,-0.2743701,-0.1572097,0.5257328,0.526034
0.9422688,-0.08457076,-0.2901844,-0.2586334,0.5626633,0.4282614
0.8781902,-0.1338691,-0.2694252,-0.5123888,0.7692174,0.3972316
0.8234099,-0.1305861,-0.1896,-0.5156158,0.9489085,0.4089183
0.7451118,-0.1305883,-0.1128886,-0.4224977,0.83605,0.3759498
0.7151964,-0.1194217,-0.02744178,-0.4319886,0.5358992,0.3669158
0.7631561,-0.1360837,0.01351809,-0.4615713,-0.01226313,0.2939952
0.7952675,-0.2013171,-0.0195682,-0.4992343,-0.3408675,0.2020277
0.8397484,-0.2260475,-0.0225724,-0.3594619,-0.2589272,0.2075286
0.8953937,-0.2563584,-0.03427852,-0.1588921,-0.08044879,0.1603959
0.8770189,-0.2530941,-0.05318827,-0.07909329,0.1252529,0.04282418
0.825496,-0.2051414,-0.02902719,-0.02306781,0.240049,-0.02475972
0.7801238,-0.1680526,0.0009027865,0.0258807,0.07795304,-0.07490772
0.7740788,-0.1216573,0.04146342,0.02000665,-0.2984905,-0.1014906
0.849766,-0.1315165,0.04464302,-0.04012555,-0.7312814,-0.102174
0.993826,-0.1434038,-0.01856176,-0.05380184,-1.082745,-0.1448252
1.203769,-0.1170056,-0.1137265,-0.06130657,-0.9932888,-0.1965872
1.378424,-0.1235357,-0.2217985,-0.180548,-0.232841,-0.1768595
1.44817,-0.1147286,-0.242448,-0.415446,1.025156,-0.1346534
1.468286,-0.08982337,-0.1353345,-0.6469102,1.954032,-0.1159024
1.341465,-0.02035628,0.0579107,-0.6959908,1.749511,0.02488352
1.082091,0.09544178,0.2752592,-0.6771392,0.7782199,0.2993398
0.9754154,0.06920296,0.2902529,-0.5464025,-0.8592093,0.5184466
1.067948,-0.203885,0.01399716,-0.2002422,-2.662203,0.656814
1.177692,-0.5748471,-0.3761904,0.001330761,-2.73147,0.7165526
1.237889,-0.706162,-0.7209904,0.07252036,-0.6562457,0.5404246
1.194615,-0.5593123,-0.8022196,0.1414655,2.076055,0.1180425
0.9923141,-0.3868779,-0.5893615,-0.02250734,3.130476,-0.2563173
0.7456307,-0.1535083,-0.3365846,-0.2314468,1.80118,-0.3252828
0.6201453,-0.003765193,-0.09579175,-0.2117544,0.2510753,-0.1596593
0.6508061,-0.1785449,0.09020683,0.03318745,-1.162483,-0.06792026
0.7695893,-0.3448302,0.07250319,0.4876031,-2.522243,-0.1870858
0.939686,-0.3694159,-0.1262177,0.7611165,-2.289481,-0.4225193
1.061876,-0.3067151,-0.4062088,0.5114137,-1.299903,-0.7333858
0.9581163,-0.07548054,-0.5321433,0.3077407,-0.251707,-0.8113448
0.8177979,0.01473848,-0.3785231,0.5482005,0.6255227,-0.4757788
0.849598,-0.03663323,-0.217384,0.6469336,0.1490413,-0.1916391
0.8649615,-0.02762472,-0.1710203,0.5093188,-0.1758851,-0.1463871
0.8823629,-0.07745601,-0.1469842,0.5172076,0.02157465,-0.2056991
0.9655702,-0.05989942,-0.2023433,0.482999,-0.3209025,-0.2615298
1.018678,-0.003280563,-0.2558598,0.3743413,0.1163962,-0.1854152
1.048602,0.01888138,-0.2000116,0.3063674,0.8386295,-0.1064928
0.9949265,0.08243045,-0.1560021,0.1912217,0.9054274,0.02239309
0.8894627,0.04759718,-0.08089922,0.06292257,0.8833544,0.2477174
0.7769377,0.01597714,0.05412473,-0.03271666,0.4488086,0.3945499
0.7251112,0.01153017,0.06624858,0.05971913,-0.198575,0.4820341
0.8247197,-0.09893438,0.01344793,0.3378766,-0.828563,0.4264379
0.9221217,-0.2095365,0.00220355,0.6105733,-1.025912,0.3163974
1.104126,-0.2603426,-0.09519368,0.7514108,-0.326113,0.2686698
1.313744,-0.2121355,-0.2268432,0.6096357,0.4091157,0.1149493
1.282729,-0.1683005,-0.2109114,0.4606933,0.8570948,-0.0243408
1.226056,-0.1725199,-0.1124837,0.474073,0.7899509,-0.1047328
1.169997,-0.1129015,0.006187478,0.5251761,0.3511206,-0.1502529
1.079294,-0.1218533,0.1404517,0.8339217,0.009168848,-0.1456978
1.115159,-0.1989653,0.142583,1.154082,-0.7749726,-0.3304508
1.182125,-0.2158816,-0.08057191,0.9700239,-1.269444,-0.5657902
1.239831,-0.1344557,-0.434274,0.2401015,-0.9561603,-0.5586455
1.200032,-0.02405404,-0.6131797,-0.5785983,-0.677239,-0.4329394
1.055498,-0.1088333,-0.5214538,-0.6545339,-0.3469096,-0.3908419
0.9614977,-0.2395944,-0.4489243,-0.3158525,-0.001650985,-0.3994166
0.9057147,-0.2314966,-0.38073,-0.3486719,0.08969569,-0.2730913
0.9949536,-0.2218548,-0.2387779,-0.2588173,0.06702922,-0.03837885
1.122866,-0.1763362,-0.2140957,-0.07297922,0.050872,0.16086
1.076744,-0.1388629,-0.2457392,-0.2040438,0.1633287,0.2868747
1.025719,-0.1731432,-0.2480997,-0.2274489,0.312469,0.3271277
0.975313,-0.1766016,-0.2780601,-0.3287298,0.5489025,0.2333758
0.8944255,-0.1812296,-0.2781962,-0.5637196,0.8301732,0.1134408
0.853316,-0.1673785,-0.2254484,-0.4885394,0.8798772,0.1796338
0.7640718,-0.1327417,-0.1466273,-0.390213,0.7568495,0.2553873
0.7315276,-0.1434774,-0.06946262,-0.3065769,0.4616434,0.2347687
0.7921764,-0.1636032,-0.01305508,-0.2069746,-0.06358572,0.231807
0.7987586,-0.2103535,-0.0009889124,-0.2573385,-0.3090708,0.1580106
0.847009,-0.2654313,-0.0625234,-0.1605921,-0.05278358,0.1136737
0.9181277,-0.2700899,-0.09772422,0.02273877,0.140141,0.08478042
0.9025287,-0.2428642,-0.07023921,0.111791,0.2644531,-0.03332673
0.8814208,-0.2076702,-0.03775232,0.1695992,0.3273652,-0.07963205
0.8399355,-0.1849493,0.01257403,0.165253,-0.002456128,-0.1227453
0.8193815,-0.1727867,0.03250223,0.1434144,-0.3046744,-0.1533672
0.8799528,-0.1510475,0.01377556,0.07553591,-0.4849068,-0.09499321
0.9583842,-0.09659176,-0.009799308,-0.0212392,-0.62431,-0.07505127
1.104313,-0.05194193,-0.08933006,-0.1287103,-0.5096218,-0.03121191
1.243216,-0.07246089,-0.1986981,-0.3484174,-0.1533881,0.01006795
1.274693,-0.1013344,-0.2284129,-0.6342945,0.6146816,-0.04030157
1.265566,-0.1079927,-0.1030402,-0.8386612,1.139777,-0.05834823
1.19459,-0.08034222,0.09791071,-0.8777166,0.9490057,0.02244428
1.088102,-0.01999421,0.1971763,-0.8812399,0.6652917,0.1559981
1.033859,-0.03075896,0.1743309,-0.8367478,-0.06750113,0.2738393
1.075785,-0.1603298,0.05509658,-0.5395464,-1.33039,0.4060577
1.203906,-0.3830314,-0.2319031,-0.187465,-1.894743,0.5224626
1.327176,-0.595444,-0.5918127,-0.09475724,-1.094339,0.4810728
1.361555,-0.6371405,-0.7221382,-0.1340501,0.7294837,0.2962437
1.204936,-0.5093111,-0.55804,-0.08158302,2.671347,-0.005899178
0.8850065,-0.2753898,-0.3149459,-0.1343682,3.215368,-0.2238446
0.5990566,-0.04517402,-0.1015027,-0.2930125,1.450693,-0.08136409
0.531619,-0.001999494,0.006185627,-0.1746301,-0.95474,0.07823611
0.6688038,-0.06685895,-0.02019633,0.1090496,-2.171931,0.002514847
0.9219427,-0.1558222,-0.1186308,0.2977225,-2.091185,-0.06207791
1.240008,-0.2864385,-0.3306538,0.2392763,-0.7884594,-0.2573247
1.18205,-0.1847812,-0.4202063,-0.01342302,0.6258912,-0.4816918
0.8504133,0.02951629,-0.2372922,-0.04107946,1.005695,-0.3016598
0.8067142,-0.02750504,-0.1073522,0.001512569,0.5517205,-0.08479754
0.7301693,-0.0883887,-0.03105709,0.02185796,-0.1688808,-0.06301292
0.7175803,-0.08028477,0.01330757,0.2287077,-0.7400893,0.003414966
0.8951137,-0.1428891,-0.06573959,0.2965723,-1.140642,-0.04247384
0.9082153,-0.08888933,-0.1210259,0.2627913,-0.7902782,-0.1401274
1.085988,-0.04586135,-0.2037871,0.29352,-0.09526798,-0.09992031
1.112383,-0.04113056,-0.2052319,0.2838793,0.1452496,-0.083012
0.9017644,0.03015095,-0.09659538,0.2401608,0.4668735,-0.05927563
0.9499365,0.028448,-0.09748821,0.1146781,0.3255347,0.04656682
0.8471282,0.03162084,-0.05597671,0.08249437,-0.03378966,0.1657351
0.7939863,0.02791921,-0.02519258,0.1154364,-0.1111356,0.2694639
0.9304702,-0.03934356,-0.06778208,0.1063323,-0.4011163,0.2799414
0.9322768,-0.08145523,-0.04043597,0.1991502,-0.2433956,0.2598342
1.023349,-0.1073376,-0.06860969,0.2970815,-0.1558831,0.2790162
1.079621,-0.1073528,-0.121834,0.4123692,-0.2758366,0.2246809
1.173177,-0.150077,-0.1529975,0.4757539,-0.04766243,0.1037983
1.27983,-0.1792346,-0.1591296,0.4361573,-0.04329032,-0.03498314
1.180251,-0.1330105,-0.08426469,0.5561816,0.2756324,-0.09228956
1.205414,-0.1281212,-0.03816881,0.7660874,0.5148334,-0.03267716
1.222192,-0.09875909,0.001151305,0.9127638,0.1445746,-0.0743769
1.171595,-0.08536657,-0.01215233,0.9688689,-0.2679765,-0.2112054
1.217063,-0.1112106,-0.112348,0.8550754,-1.001653,-0.3664199
1.189165,-0.07819985,-0.1985052,0.4087445,-1.372917,-0.4837094
1.177071,-0.09914277,-0.4195362,-0.306613,-1.052948,-0.393046
1.128672,-0.1520754,-0.6595993,-0.5687944,-0.6767052,-0.3200214
1.014871,-0.1931031,-0.6274084,-0.2951873,0.007247864,-0.3557408
0.9747951,-0.2726414,-0.5145935,-0.2731517,0.5984993,-0.2924845
0.9092236,-0.3162997,-0.4588843,-0.3772068,0.4053148,-0.2499043
0.9186316,-0.2802204,-0.2569792,-0.2112844,-0.07581586,-0.1782088
1.019284,-0.1792647,-0.09159791,-0.05642126,-0.2934036,0.05265469
1.036435,-0.1370509,-0.2291341,0.005272916,-0.3253896,0.2348817
1.044022,-0.1658065,-0.3330595,-0.125022,-0.007328878,0.227653
1.052393,-0.1474146,-0.3292691,-0.4301332,0.5373585,0.1531951
0.9882025,-0.1401948,-0.3467177,-0.5025639,0.9230271,0.1688692
0.891001,-0.1238129,-0.2247859,-0.4840416,1.202031,0.1899329
0.7930611,-0.07531234,-0.1165961,-0.5095173,1.08031,0.2078144
0.7502453,-0.06386778,-0.07137658,-0.4803204,0.7172772,0.2674887
0.7708919,-0.07313443,-0.02116902,-0.5842797,0.3028068,0.2238755
0.7957121,-0.1273028,-0.02622459,-0.6505858,-0.1578805,0.1602339
0.842584,-0.1834566,-0.007567672,-0.5133707,0.03514246,0.1341624
0.8921174,-0.18592,-0.03947172,-0.3427623,0.4314951,0.08631979
0.9011237,-0.1800938,-0.03598413,-0.2512768,0.5719894,0.07438024
0.8755258,-0.1750004,0.03299387,-0.2554613,0.6617788,0.02074058
0.8178648,-0.1523948,0.03003226,-0.1919339,0.3332845,-0.05243
0.7895314,-0.0989276,0.08662899,-0.1077459,-0.07663454,-0.06556952
0.8107458,-0.07251096,0.08536766,-0.1381999,-0.3747033,-0.06721457
0.8837096,-0.08956985,0.01909982,-0.2372513,-0.4843869,-0.0568063
1.038965,-0.09026241,0.01857958,-0.3930547,-0.2395665,-0.04037435
1.181036,-0.08873476,-0.05236367,-0.4956944,-0.1784752,0.02930545
1.264027,-0.1052523,-0.1102765,-0.6271422,0.1553465,0.107911
1.333391,-0.1359157,-0.1100239,-0.8799876,0.8792469,0.08402762
1.332724,-0.1439761,0.003092093,-0.9514842,1.088249,0.07536592
1.239066,-0.1115728,0.2343892,-0.7535455,0.6051599,0.1735612
1.182368,-0.1147772,0.2403087,-0.3895235,-0.5758502,0.3655602
1.272288,-0.2589958,-0.05038937,0.0237882,-1.498168,0.6249441
1.417359,-0.520281,-0.4774714,0.06173026,-0.8096978,0.6988082
1.431322,-0.6229199,-0.7082286,-0.2094015,1.166333,0.3440991
1.224471,-0.4376322,-0.5040283,-0.2706402,2.93377,-0.1406993
0.8339355,-0.2014809,-0.2578003,-0.3018986,2.798679,-0.2436107
0.4853902,-0.08488602,-0.1073161,-0.3396787,0.7683222,-0.002369738
0.4439566,-0.1044581,0.07609874,0.01126775,-1.376599,0.1726732
0.6750282,-0.2422333,0.05930111,0.4737101,-2.566117,0.1037474
0.9750505,-0.3629389,-0.09277828,0.5938473,-2.470465,-0.2006196
1.148585,-0.3301458,-0.2148544,0.3793307,-1.327134,-0.6058587
1.07167,-0.1566844,-0.3824901,0.2574647,0.08369476,-0.6869464
0.9435648,-0.002579945,-0.4199872,0.3700727,1.032719,-0.3690144
0.8652793,-0.01601978,-0.2541585,0.3807966,0.6002928,-0.1294457
0.7078984,-0.07147986,-0.07274233,0.4171318,-0.3943395,-0.06426048
0.6922809,-0.04236649,-0.03028616,0.4802675,-0.9026154,-0.04733359
0.867236,-0.05922594,-0.1482497,0.3739609,-1.37986,-0.1004209
1.000453,-0.08877683,-0.2224127,0.3207902,-0.7642119,-0.1096765
1.109104,-0.04012035,-0.2326462,0.3055407,0.3499637,-0.07842849
1.09028,-0.006307749,-0.2283133,0.2476212,0.4978504,0.0002204689
0.9655505,0.03418039,-0.1362756,0.1694018,0.6787435,0.1767474
0.8905237,0.05675564,-0.03827395,0.09875637,0.3185148,0.3172173
0.830042,-0.002723746,0.0386365,0.1239365,-0.3455738,0.3956682
0.909744,-0.056418,0.0393087,0.157487,-0.4249183,0.4129679
1.040394,-0.09862795,-0.03080603,0.2464567,-0.5624337,0.3566503
1.102424,-0.1155355,-0.07481714,0.3656528,-0.1567145,0.2596359
1.176298,-0.1024697,-0.1577237,0.3378799,0.2939503,0.1450818
1.123367,-0.1210432,-0.180996,0.24014,0.3524391,0.1133022
1.072802,-0.1212124,-0.1151495,0.1382146,0.4115695,0.1064082
1.117499,-0.1211638,-0.04036609,0.1282866,0.09714442,-0.03028569
1.103921,-0.1634675,0.08501285,0.338189,-0.0164921,-0.2086559
1.129952,-0.2098824,0.1208716,0.7043666,-0.2226591,-0.2866717
1.166558,-0.237331,-0.02677413,0.8717101,-0.9142639,-0.4285005
1.185222,-0.1963918,-0.2865134,0.384835,-1.355129,-0.7132331
1.205609,-0.1308623,-0.5013853,-0.2824568,-1.113088,-0.7506075
1.115376,-0.1264631,-0.5300122,-0.3254332,-0.4604924,-0.51172
1.030554,-0.1880551,-0.5082838,-0.1917939,-0.1819463,-0.4046846
1.053175,-0.2553373,-0.5057784,-0.3843773,0.1349513,-0.4317943
1.120565,-0.2129377,-0.386514,-0.4660084,0.2268834,-0.350755
1.163086,-0.1292066,-0.2264673,-0.2755041,-0.100862,-0.0519237
1.11532,-0.1228337,-0.2499803,-0.09821738,0.1808137,0.3071647
1.024975,-0.1497867,-0.3383098,-0.09353461,0.2665167,0.4745973
0.9395394,-0.19655,-0.3062266,-0.1848309,0.3148527,0.430231
0.8486145,-0.2153479,-0.2729455,-0.2056857,0.7474573,0.3125127
0.7643466,-0.1982381,-0.202414,-0.1972183,0.7745886,0.2806488
0.7201409,-0.2005951,-0.095075,-0.1294897,0.9038371,0.2930801
0.7305719,-0.1697252,-0.06365711,0.02403166,0.6823072,0.278757
0.7560814,-0.1598402,-0.012137,0.07158328,0.08383689,0.2433015
0.7934921,-0.2079748,-0.01944364,0.02523695,-0.16822,0.1136898
0.8686932,-0.2481825,-0.07166667,0.02674787,-0.3629963,0.005608057
0.9345404,-0.281038,-0.03884531,0.1430732,-0.05501269,-0.03157132
0.910034,-0.2451134,-0.03100687,0.2924427,0.2960354,-0.06179126
0.8168684,-0.1753994,0.02080316,0.3607047,0.2445457,-0.03475872
0.7593268,-0.1460297,0.1104095,0.4514689,0.144636,-0.03048589
0.7648895,-0.1107144,0.1009289,0.4935177,-0.3289034,-0.06606223
0.802338,-0.09642743,0.08373061,0.2839463,-0.7072011,-0.1004652
0.8945924,-0.0853153,0.03225766,-0.01131083,-0.8777129,-0.1215386
1.111987,-0.06595365,-0.08883191,-0.1065595,-1.025992,-0.09668425
1.36732,-0.09808641,-0.180567,-0.09465153,-0.7816378,-0.08062601
1.469149,-0.1287898,-0.2276599,-0.2684661,-0.0425023,-0.05910352
1.449911,-0.1200573,-0.2148532,-0.5690351,1.298356,-0.03862122
1.387882,-0.1005406,-0.1227322,-0.7461978,2.000271,0.006233943
1.220434,-0.06286176,0.09885085,-0.688715,1.143769,0.1650986
1.035325,-0.03418473,0.3387554,-0.3468206,-0.3348979,0.3745742
1.066832,-0.1621312,0.1939376,0.06269407,-1.988689,0.5780305
1.192025,-0.4456518,-0.2421512,0.1448022,-2.497414,0.6449684
1.18003,-0.6350111,-0.5346518,0.01483648,-0.5200273,0.4130569
1.19444,-0.6291853,-0.678095,0.02053212,1.870118,-0.0329809
1.096867,-0.4357824,-0.5676217,-0.04710173,2.443941,-0.4006399
0.7812266,-0.1514213,-0.3132352,-0.2191803,1.515219,-0.3987826
0.6587912,-0.05824973,-0.2078704,-0.09220789,0.1426273,-0.2035496
0.669362,-0.1537271,-0.005586289,0.2143009,-0.9811644,-0.1978173
0.7645688,-0.2463225,0.06293515,0.4912699,-1.66424,-0.376079
1.030281,-0.3045061,-0.1702179,0.6101391,-1.411867,-0.6387114
1.124994,-0.2356953,-0.337057,0.3918929,-0.2230322,-0.7523252
1.071168,-0.09147285,-0.4638892,0.2695635,0.9855247,-0.4722651
1.006836,-0.05181224,-0.3516756,0.3776206,1.446783,-0.1212857
0.858269,-0.002879286,-0.1269546,0.3660434,0.6065926,0.01733287
0.6958167,0.004235954,-0.1301928,0.3844072,-0.3112676,0.04056001
0.6655252,-0.1223613,-0.09083685,0.489753,-0.5973895,0.02101657
0.789089,-0.122134,-0.1162579,0.5680101,-1.058364,0.02641699
0.8723976,-0.1107117,-0.1851081,0.6203526,-0.8582124,0.008691049
0.9807704,-0.1529469,-0.154452,0.5924267,-0.1679298,-0.03050239
1.096287,-0.02569897,-0.2245027,0.514932,0.4510866,0.03718601
1.011917,0.04549459,-0.2295633,0.3521164,0.9236649,0.1726335
0.9179207,0.02152977,-0.1423561,0.218073,0.3429418,0.3450623
0.8534396,0.003692372,-0.04202296,0.2930368,-0.2436994,0.4972241
0.8167882,-0.07880358,0.08215303,0.4801822,-0.5460521,0.5195512
0.9186474,-0.1016898,0.06302911,0.6346661,-0.8383591,0.4549697
1.099265,-0.09115465,-0.08983629,0.5083693,-0.1902893,0.3414666
1.295298,-0.09494915,-0.2262692,0.2451856,0.285134,0.2152937
1.226146,-0.1332438,-0.1398085,0.2493443,0.1566019,0.1474401
1.060613,-0.2051478,0.03656752,0.3150002,0.006724863,0.06165509
1.18127,-0.185097,0.04460329,0.3851401,-0.2337721,-0.08035784
1.215016,-0.1805853,0.07568666,0.6297735,-0.181649,-0.1650001
1.192102,-0.1945019,0.04804017,0.7974011,-0.3188047,-0.3110777
1.316022,-0.1450362,-0.1679339,0.6955462,-0.7119677,-0.61136
1.250479,-0.06539422,-0.3686366,0.2247096,-0.803555,-0.7301819
1.106069,0.01966424,-0.4937499,-0.4105788,-0.7558061,-0.5453269
0.9824132,-0.04604313,-0.4977442,-0.6297543,-0.5963016,-0.3419972
0.89583,-0.1587499,-0.5007826,-0.5771019,-0.3907281,-0.2825843
1.047024,-0.1635178,-0.5111251,-0.7410618,-0.1215679,-0.2637675
1.168825,-0.1885275,-0.3528503,-0.7689698,0.08752888,-0.07120181
1.188113,-0.2034945,-0.256012,-0.4513536,0.2286022,0.2337683
1.149736,-0.1858338,-0.2841342,-0.2973302,0.5410198,0.3463613
0.9537836,-0.1967271,-0.2771816,-0.3315342,0.6413933,0.3239714
0.8554557,-0.1915696,-0.2578283,-0.3312452,0.628984,0.3819273
0.8356215,-0.1723763,-0.2389821,-0.397561,0.7590725,0.3692867
0.7799542,-0.1565342,-0.2309291,-0.4951798,0.7996303,0.3048249
0.745597,-0.141272,-0.1643207,-0.4904118,0.7728092,0.3588009
0.686899,-0.1338895,-0.07562561,-0.3419521,0.5730488,0.3403638
0.7159671,-0.1438999,-0.06050883,-0.2542774,0.2480519,0.2416185
0.8064898,-0.2035518,-0.0711365,-0.2904884,-0.007599175,0.1422345
0.8644456,-0.2636372,-0.08533479,-0.2314209,-0.05181852,0.01363778
0.8843923,-0.2505865,-0.06979596,-0.1013477,0.2032534,-0.02091749
0.8477324,-0.222948,-0.05883581,0.03788509,0.4064333,-0.05159343
0.8582879,-0.2164427,-0.03763759,0.1375482,0.453539,-0.08980927
0.8621384,-0.1819494,0.01142183,0.1519462,0.3794821,-0.06642257
0.8440356,-0.119007,0.03065396,0.03890397,0.1270274,-0.1006558
0.9075803,-0.05083358,0.07977779,-0.2076822,-0.1939971,-0.1045933
1.032912,-0.02803519,0.05771107,-0.3539906,-0.5237287,-0.05558604
1.223211,-0.06383382,-0.04828004,-0.4330393,-0.5986865,-0.009582979
1.367556,-0.08082231,-0.1100379,-0.5875585,-0.2530226,0.03726088
1.419743,-0.1130612,-0.1598407,-0.75427,0.5304033,0.04248509
1.391904,-0.1606714,-0.08117122,-0.921385,1.419744,0.08918842
1.212163,-0.1379043,0.08459249,-0.9784595,1.470805,0.1591903
1.062302,-0.1669827,0.1093528,-0.7177325,0.2950478,0.2666637
1.041323,-0.3222662,-0.05224492,-0.2774347,-1.431028,0.492001
1.095006,-0.5394083,-0.3733151,-0.1458361,-2.077583,0.6211951
1.171027,-0.6816892,-0.5731512,-0.1650279,-0.7487546,0.4978646
1.123351,-0.5214818,-0.5079621,-0.01500206,1.298031,0.2014861
1.076827,-0.240559,-0.4951319,-0.01408072,2.403797,-0.1098462
1.036234,-0.1487425,-0.4855288,-0.1032298,1.761661,-0.2123477
0.815827,-0.1936399,-0.14578,-0.105319,0.2271978,-0.1187473
0.6384192,-0.2846362,0.2083677,0.06041223,-0.9519356,-0.1636493
0.6943345,-0.3176512,0.1349265,0.3779938,-1.83518,-0.3890948
0.8295624,-0.2591504,-0.09274676,0.3604683,-1.787676,-0.556855
0.8503404,-0.1184695,-0.2796468,0.1946486,-0.7711398,-0.5663201
0.8266473,0.04774804,-0.4811857,0.2336692,0.01697626,-0.3016456
0.8524405,-0.004030468,-0.3456343,0.350278,0.3084944,-0.03362033
0.8561277,-0.1205708,-0.04895066,0.5478221,-0.1451764,-0.09219157
0.9010611,-0.09800883,-0.08194384,0.5628379,-0.4368061,-0.1679516
0.9399154,-0.1041587,-0.1341867,0.4919964,-0.03035658,-0.1433431
0.9764705,-0.06346279,-0.1298497,0.5553083,0.08301598,-0.1236532
1.037844,0.02608704,-0.1852146,0.4254531,0.4454284,-0.05411597
0.9498871,0.05819647,-0.1093631,0.211766,0.6846519,0.04218722
0.8481385,0.1042027,-0.04644998,0.07067374,0.387634,0.2126744
0.8014178,0.08511167,0.01661332,0.01134995,0.3692253,0.4042789
0.7867467,0.02222968,0.07075458,0.1564367,-0.006298139,0.4607763
0.8772598,-0.03556233,0.008716982,0.2656281,-0.4114787,0.4152588
0.9631098,-0.1186814,0.007141956,0.2921503,-0.3497941,0.3243214
1.151036,-0.1298958,-0.09144409,0.354923,-0.1869445,0.1514377
1.376228,-0.1322675,-0.223043,0.351617,0.2921572,2.130131e-05
1.369334,-0.1449637,-0.1649556,0.2930618,0.623086,-0.01368058
1.279565,-0.1027789,-0.06557117,0.2666056,0.6380502,-0.06931057
1.238076,-0.09089236,0.08075279,0.4403887,0.398021,-0.1656952
1.193512,-0.09179914,0.1619566,0.7707737,-0.3365292,-0.1863514
1.156809,-0.1044401,0.1235916,0.8505038,-1.249685,-0.3905535
1.204759,-0.1447468,-0.03096583,0.4431633,-1.694219,-0.7689383
1.282698,-0.1478525,-0.4010418,-0.1848933,-1.105249,-0.8724004
1.250489,-0.1399832,-0.6078427,-0.4434037,-0.174663,-0.6407543
1.156966,-0.1236941,-0.5357089,-0.3299039,0.5426064,-0.4544967
1.046567,-0.1022094,-0.4774274,-0.4021576,1.01642,-0.3519277
0.9971809,-0.118734,-0.3677021,-0.5440142,0.4803534,-0.09330029
1.05806,-0.1725854,-0.2107079,-0.3732208,-0.1776037,0.1281042
1.075191,-0.2240263,-0.1624639,-0.2129167,-7.041951e-06,0.1734395
1.056051,-0.1990549,-0.200389,-0.2723408,0.0840273,0.3195425
1.019278,-0.1576992,-0.2444373,-0.2864949,0.2744468,0.4636852
0.8960453,-0.1642565,-0.2538157,-0.2835256,0.8249638,0.4019781
0.7885838,-0.1342069,-0.2115103,-0.3179233,1.000142,0.3792224
0.7102834,-0.09432547,-0.1106002,-0.3138179,0.9365562,0.404803
0.6276237,-0.1032292,-0.02375195,-0.3419065,0.7475433,0.3361652
0.6179271,-0.1384069,0.01118493,-0.3365361,0.2318827,0.2605725
0.6687317,-0.21444,0.03077102,-0.2772094,-0.3437141,0.1212742
0.7522327,-0.2751074,0.004319145,-0.1619721,-0.5242748,-0.01040652
0.8313306,-0.2650741,-0.02789438,0.053293,-0.1955008,0.00147481
0.8285888,-0.2307226,-0.01565432,0.1290285,0.1680227,0.002524874
0.8012643,-0.166059,-0.006090563,0.03922042,0.2878398,-0.01481315
0.8139781,-0.09691309,0.02283633,0.005942391,0.119957,-0.03662107
0.8545194,-0.09210856,0.07641901,-0.04185614,-0.2823718,-0.1194836
0.9695122,-0.08429034,0.101909,-0.201362,-0.5466991,-0.1460598
1.126289,-0.05192684,0.075445,-0.3230825,-0.6514848,-0.1051678
1.234206,-0.09555128,-0.006546966,-0.3475431,-0.5794059,-0.05524571
1.37632,-0.1655653,-0.1001727,-0.502728,-0.03252268,-0.001359209
1.505388,-0.1529309,-0.1175248,-0.7977278,1.006386,0.05237434
1.426951,-0.08293605,0.02557426,-0.9154073,1.742207,0.1458793
1.262614,-0.0242751,0.2204502,-0.8199147,0.9698451,0.2900737
1.127852,-0.09391009,0.2199759,-0.6250468,-0.7373158,0.4795065
1.046286,-0.3466638,-0.04464655,-0.3342582,-1.88952,0.6405863
1.134532,-0.6381295,-0.4395599,-0.1816136,-1.755931,0.6248185
1.202707,-0.7195047,-0.679441,-0.2191999,0.107656,0.3576353
1.160974,-0.468644,-0.6340103,-0.1786887,2.229799,-0.05896766
1.084915,-0.1676816,-0.4836898,-0.2734483,2.510816,-0.2865172
0.837195,-0.09841457,-0.2408441,-0.4371938,1.096241,-0.2525107
0.6618963,-0.1926059,0.07229005,-0.02484613,-0.7206185,-0.3087157
0.7395115,-0.3385232,0.1446393,0.5886091,-1.693325,-0.3975953
0.8148677,-0.3804521,-0.02738211,0.6847284,-1.666689,-0.3959876
0.8671378,-0.2405898,-0.2216865,0.49519,-1.32683,-0.5513777
0.8742948,-0.03544508,-0.397899,0.325403,-0.7191734,-0.5711128
0.8121717,0.08143749,-0.4211822,0.2508501,0.267383,-0.2464704
0.8020595,0.05263734,-0.2573692,0.3567589,0.6558386,0.008804258
0.8230469,0.01717625,-0.1252266,0.4816038,0.08814194,0.07816135
0.8589662,-0.02731267,-0.07019193,0.435745,-0.0557888,0.006871202
0.9138889,-0.09285014,-0.05918916,0.3957745,-0.1007138,-0.0171127
0.9725071,-0.05589167,-0.08379185,0.4343211,-0.3572763,0.07384412
1.003892,-0.0008610398,-0.08913066,0.2737002,0.1194192,0.07358403
0.9541673,0.03602309,-0.1013182,0.04530295,0.2641427,0.1956743
0.8869741,0.02921453,-0.08431306,0.03134879,-0.006536842,0.3788259
0.8723145,-0.07841202,0.009296238,0.2059344,-0.2668966,0.412743
0.953187,-0.1723691,0.07157414,0.5062991,-0.944288,0.3931195
1.158799,-0.1956314,0.002776453,0.7099415,-1.030858,0.2101757
1.342685,-0.1273928,-0.1203758,0.7136932,-0.3740912,0.05110781
1.336541,-0.04996968,-0.1291666,0.5071118,0.5744952,0.07837882
1.213766,-0.05910316,-0.09291839,0.1288947,1.115801,0.0542977
1.145276,-0.09033059,-0.07699983,-0.003950731,0.4717875,-0.1147698
1.15564,-0.1619773,0.06533747,0.2883456,-0.2592332,-0.3529376
1.209989,-0.2389009,0.1714322,0.8208178,-0.6440027,-0.5615205
1.27732,-0.2292156,-0.05836986,1.130491,-0.9368843,-0.7629707
1.295634,-0.1449701,-0.4397653,0.6404865,-0.7388968,-0.7887805
1.244966,-0.07583355,-0.5537569,-0.1851607,-0.4635963,-0.5490396
1.101644,-0.1645439,-0.4811361,-0.4542793,-0.4010414,-0.4062117
0.9702824,-0.2873504,-0.5091932,-0.3964776,-0.05403488,-0.4732485
1.067561,-0.2594584,-0.4456178,-0.4490651,0.3391776,-0.4846817
1.200501,-0.1806782,-0.2590884,-0.3968283,0.3048666,-0.2263861
1.112164,-0.1122404,-0.2269248,-0.2565497,0.3213906,0.1408287
1.014499,-0.08454775,-0.2655705,-0.2568541,0.4694746,0.3643186
0.9385391,-0.1228282,-0.2450412,-0.3834032,0.5414001,0.4538156
0.8015939,-0.1348165,-0.2223877,-0.5577442,0.7089098,0.4325652
0.7668386,-0.1488176,-0.1972803,-0.6540444,0.762659,0.3839233
0.7096784,-0.1824572,-0.1500549,-0.6312788,0.7761846,0.3569797
0.6272209,-0.1699182,-0.09126977,-0.5046641,0.7370096,0.340429
0.687334,-0.1746093,-0.03139576,-0.3481652,0.4259088,0.3250984
0.7187028,-0.2018749,0.004958315,-0.332074,0.08057985,0.2118213
0.7686462,-0.2148386,0.01653548,-0.3391296,-0.1430281,0.09456371
0.8518775,-0.2269184,0.001563584,-0.2080966,-0.03710773,0.08005681
0.8402689,-0.1997295,-0.04559365,-0.09521631,0.2509673,0.100256
0.8512914,-0.1590993,-0.0238579,-0.05797065,0.3780697,0.1085229
0.8066821,-0.1253468,0.03958658,0.00740098,0.2610414,0.08076684
0.7456214,-0.09698409,0.05922736,0.03475414,-0.2375384,-0.005638647
0.822986,-0.1064737,0.1070718,-0.04582919,-0.7433387,-0.1715949
0.9213155,-0.1084062,0.08629974,-0.1930117,-0.9630793,-0.2732482
1.060873,-0.106002,-0.004620726,-0.3078489,-0.9788261,-0.2386287
1.287246,-0.1154848,-0.05637907,-0.3052553,-0.7775245,-0.1837503
1.519648,-0.1097567,-0.1594793,-0.4446256,-0.1107228,-0.1019371
1.614028,-0.09371999,-0.173094,-0.8346787,1.423126,-0.05945204
1.472856,-0.01243172,0.0445499,-1.035507,2.4513,-0.02091932
1.223043,0.07738046,0.3250959,-0.9008706,1.459598,0.1866189
0.9705425,0.01694202,0.4091853,-0.5720247,-0.5514046,0.4778522
0.8610581,-0.1944558,0.1533181,-0.1841984,-2.452008,0.7047332
0.9448269,-0.4857617,-0.2004105,-0.07577264,-3.122424,0.7220908
1.01626,-0.6764173,-0.4813333,-0.05788175,-1.955357,0.5506849
1.159933,-0.5844728,-0.7483165,0.1489253,-0.0545485,0.2844006
1.344099,-0.3598046,-0.8904552,0.106693,2.242417,-0.06376622
1.179867,-0.1875144,-0.7435441,-0.0619806,3.068969,-0.1855188
0.8252544,-0.1389235,-0.2973824,-0.0006467039,1.224593,-0.1501419
0.6289124,-0.2255736,0.07697456,0.1539975,-0.07424336,-0.2850683
0.6244941,-0.2453974,0.05938934,0.4551538,-0.9525946,-0.4491187
0.7639679,-0.2174172,-0.1075931,0.5216499,-1.981176,-0.6531237
0.797462,-0.1734009,-0.2004475,0.2738381,-1.142658,-0.6847479
0.7563063,0.005806403,-0.3073996,0.3009653,-0.4943051,-0.3661438
0.8246906,0.02306113,-0.3677026,0.4858386,-0.2520702,-0.1338202
0.8621915,-0.07287348,-0.2620152,0.6354877,0.323151,-0.01509911
0.8978108,-0.0451476,-0.1964743,0.5845815,-0.2252245,0.002589444
0.9354098,-0.08225959,-0.2037537,0.3981724,-0.2439461,-0.04922607
0.9628312,-0.05857269,-0.1544024,0.4470599,0.09351472,0.07621401
1.025725,0.02305227,-0.1570676,0.330665,0.02235046,0.1369002
0.9688833,0.02840609,-0.1410258,0.103139,0.4519815,0.214206
0.8778212,0.05889063,-0.08129434,0.09956019,0.2594929,0.4121338
0.8333086,-0.01659804,-0.02535404,0.1612734,-0.2898277,0.4683092
0.8517476,-0.1388696,0.04872644,0.4268524,-0.8198578,0.4558329
1.038394,-0.1593453,-0.01429591,0.6440582,-1.191806,0.3601644
1.240466,-0.1207131,-0.1466894,0.6397803,-0.4589181,0.248615
1.324795,-0.07234842,-0.2546278,0.5412752,0.3914895,0.1865398
1.241343,-0.1179743,-0.275249,0.2437429,0.7895931,0.05671208
1.132707,-0.1613542,-0.08249333,0.1103063,0.6062965,-0.117982
1.151519,-0.1614943,0.1184205,0.4083869,-0.02669206,-0.3621941
1.159284,-0.1833221,0.174237,0.9369909,-0.2625511,-0.4922008
1.220298,-0.1502895,-0.01456838,1.172545,-0.6258179,-0.5322764
1.270956,-0.09638496,-0.4061416,0.6568032,-0.9522476,-0.6715122
1.174274,-0.06521242,-0.6328089,-0.2563882,-0.8281588,-0.6782114
1.098532,-0.1275193,-0.63383,-0.8762688,-0.7360026,-0.5528881
1.069408,-0.2663665,-0.5515535,-0.8050168,-0.3478665,-0.4826461
1.116781,-0.2826817,-0.4996551,-0.588562,0.2540316,-0.4539858
1.172261,-0.2435236,-0.4513072,-0.6056948,0.5874207,-0.2708283
1.120317,-0.2311382,-0.2756738,-0.2947604,0.4981341,0.09266551
1.08258,-0.1750374,-0.1723991,-0.07907905,0.2004892,0.30237
1.009805,-0.1291827,-0.2253455,-0.2567181,0.1215463,0.4343997
0.9042486,-0.1177546,-0.2632881,-0.2345278,0.1391145,0.6018538
0.8639969,-0.1365611,-0.2647204,-0.2398824,0.5913911,0.54229
0.7940525,-0.1632829,-0.2534096,-0.3453844,1.342986,0.376383
0.6747713,-0.1437354,-0.1929322,-0.3496404,1.443954,0.2802548
0.5961699,-0.1165288,-0.04932842,-0.377752,0.9985404,0.2330372
0.6136122,-0.1064382,0.05283001,-0.3447284,0.3259091,0.2612993
0.6888541,-0.1393843,0.05770007,-0.3370879,-0.3493941,0.1847977
0.7908753,-0.2184273,0.04306874,-0.3174692,-0.6039865,0.0292268
0.8868561,-0.2420779,0.001408694,-0.130808,-0.2697191,-0.01729138
0.8943146,-0.2062627,-0.01986208,0.1170238,0.284676,-0.06862761
0.8599517,-0.1711172,0.007966671,0.3009893,0.4242331,-0.09442936
0.8454563,-0.1249466,0.06062883,0.2601806,0.2782317,-0.08514097
0.8784592,-0.07484327,0.08494401,0.09049839,0.04863299,-0.1209128
0.953471,-0.03596063,0.055707,-0.1661878,-0.3013112,-0.09975121
1.044054,-0.02482716,0.03232321,-0.4155292,-0.6907512,-0.06112458
1.310766,-0.08115493,-0.06933075,-0.3791434,-0.7624532,0.0002871025
1.652254,-0.1512577,-0.2253948,-0.4914475,0.2482302,0.09884378
1.614345,-0.121962,-0.2049597,-0.8565124,1.666247,0.1331681
1.300021,0.0009538755,0.02387126,-0.8860419,1.872455,0.1741876
1.167704,0.01825753,0.1559452,-0.6376343,0.3254308,0.3627531
1.164261,-0.3350154,-0.1300218,-0.3090414,-2.115822,0.7457488
1.139311,-0.8012237,-0.5601015,-0.03076063,-3.075282,0.9364419
1.199903,-0.7672289,-0.7267569,-0.08567127,-1.060796,0.5473469
1.259079,-0.4469089,-0.7718367,-0.2247543,2.126025,-0.01577646
1.080859,-0.2627663,-0.6744147,-0.3264771,3.353037,-0.2224082
0.7213037,-0.07867822,-0.2997185,-0.5011857,2.077685,-0.11162
0.5278142,-0.09281074,0.02056015,-0.1968975,0.2775822,-0.07295582
0.5820207,-0.2529183,0.1236089,0.4075291,-1.170753,-0.2364159
0.7163189,-0.2508672,0.03565519,0.4928791,-2.259859,-0.3772572
0.8822458,-0.2919354,-0.197331,0.4085268,-2.073954,-0.5420678
0.952822,-0.170847,-0.3976141,0.3862624,-0.5562542,-0.6681927
0.9244967,0.05230398,-0.5537505,0.26216,0.9000608,-0.4412707
0.8942184,-0.01889126,-0.4236654,0.3313713,1.181598,-0.1233127
0.812683,-0.033739,-0.1295031,0.3897628,0.2963019,-0.03051578
0.7868085,-0.004933052,-0.1592178,0.302928,-0.435438,-0.04224406
0.8707846,-0.07691954,-0.1629242,0.2999536,-0.4386809,-0.0595702
0.9616929,-0.03516022,-0.110056,0.2606785,-0.2594544,-0.03053795
1.016583,0.004452087,-0.1876816,0.1532822,0.272576,0.02557999
1.001239,0.04050092,-0.1170102,0.02808351,0.538692,0.1325384
0.9519653,0.07239904,-0.07538467,-0.02950146,0.3326834,0.3377396
0.9096221,-0.002822992,-0.02749205,0.07343798,0.1791928,0.4946915
0.9039792,-0.09984996,0.0694285,0.280198,-0.3970098,0.5088302
1.007371,-0.1752484,0.01397951,0.5311299,-0.6588257,0.3450036
1.179306,-0.1671903,-0.02757518,0.6274351,-0.3315412,0.1084027
1.270368,-0.1019594,-0.1240872,0.5462774,0.07014441,0.03405499
1.220355,-0.07673096,-0.1843017,0.4150433,0.7723077,0.02588612
1.13213,-0.08363089,-0.03683086,0.2494415,0.9314475,-0.09048378
1.084196,-0.1226861,0.09170542,0.3457774,0.3554844,-0.2442697
1.090427,-0.1777122,0.1103208,0.7318116,-0.4132774,-0.4698191
1.180454,-0.2167904,-0.1144298,0.8532518,-1.2427,-0.8282562
1.232985,-0.1834648,-0.4899893,0.3329481,-1.441444,-1.038832
1.136985,-0.09160948,-0.6269092,-0.5320808,-0.9473613,-0.9482695
1.06308,-0.06776757,-0.5420445,-0.8290727,-0.4012492,-0.7561292
1.140547,-0.1188667,-0.5055809,-0.5649937,-0.01107826,-0.4692027
1.23909,-0.201492,-0.4970699,-0.5676432,0.1695234,-0.1652605
1.244274,-0.258138,-0.3153209,-0.5263875,0.1367227,-0.01842903
1.198027,-0.1981484,-0.1705614,-0.2462877,0.221581,0.1882786
1.099081,-0.1257444,-0.2188809,-0.2143012,0.3144495,0.4895206
0.917058,-0.1251421,-0.238361,-0.2471082,0.3372409,0.6661172
0.7604714,-0.1187598,-0.2385087,-0.264732,0.719914,0.6946185
0.7030116,-0.1409935,-0.2184341,-0.370745,0.9795931,0.5638217
0.6768907,-0.1872732,-0.1402438,-0.4212621,0.9186532,0.3897573
0.6398725,-0.1663173,-0.07757822,-0.3322279,0.768164,0.2835092
0.6507887,-0.1499206,0.006699968,-0.1592376,0.2547271,0.1703228
0.7183139,-0.1800458,0.04917108,-0.1669617,-0.1403825,0.06485395
0.795341,-0.1824398,0.03293708,-0.1747525,-0.170426,-0.029874
0.8641157,-0.179401,0.03480851,0.0389814,-0.01277687,-0.07090545
0.860447,-0.1809929,0.02832124,0.1912277,0.3133069,-0.04321452
0.8382468,-0.1463729,0.03830692,0.2196154,0.3959938,-0.07383373
0.8658541,-0.09549607,0.0737723,0.1391302,0.2056739,-0.08809726
0.9111955,-0.04814409,0.09570794,-0.0125605,-0.1319221,-0.06171278
1.04556,-0.04434719,0.07703248,-0.1916859,-0.476763,-0.0716725
1.233697,-0.09868988,-0.01794707,-0.3364938,-0.5743975,-0.01972396
1.437937,-0.1574138,-0.1465522,-0.3127578,-0.3681636,0.07091861
1.576948,-0.1709061,-0.1807174,-0.4653565,0.3813666,0.120727
1.420632,-0.1111148,-0.06207446,-0.7418257,1.197393,0.157741
1.208572,-0.06276141,0.08074419,-0.6869872,0.9241585,0.2608676
1.213813,-0.1524035,0.05372753,-0.4116525,-0.4331698,0.498637
1.234434,-0.4272935,-0.2816899,-0.07197435,-1.300571,0.6796638
1.215085,-0.6993509,-0.7124301,0.009324081,-0.2334788,0.5518638
1.187755,-0.6201178,-0.7299373,-0.2291352,2.053246,0.09281185
1.006098,-0.3501903,-0.4304237,-0.3370533,3.140142,-0.3779814
0.6649101,-0.1483107,-0.1492986,-0.3298612,1.751517,-0.3444387
0.4702397,0.05504397,0.1134584,-0.1612476,-0.5911962,-0.04250048
0.6478627,-0.04415245,0.05961678,0.2449869,-1.94184,-0.0595839
0.9341866,-0.3212416,-0.1824343,0.5148585,-2.182814,-0.2286194
1.109489,-0.3026236,-0.2499457,0.5069678,-1.61761,-0.4715224
1.148288,-0.2633167,-0.4231979,0.3889527,-0.3736737,-0.6769673
0.9402506,-0.1499681,-0.4544095,0.363379,0.7390897,-0.4050605
0.7803921,0.0437138,-0.3059663,0.4176551,0.591292,-0.07215489
0.8287315,-0.061557,-0.2992554,0.4453691,-0.5424257,-0.009934589
0.8089807,-0.1137346,-0.1041316,0.4794592,-1.051089,0.01726567
0.8941931,-0.051839,-0.09352768,0.4735545,-0.8972623,-0.02906344
1.122503,-0.05365566,-0.280085,0.4359069,-0.6701515,-0.01135332
1.162426,0.03746153,-0.1658793,0.3818136,-0.05151728,0.0805741
1.069708,0.05725729,-0.1917722,0.2788273,0.5121555,0.1701069
0.9822404,0.009556377,-0.1636765,0.162662,0.6654279,0.3399731
0.9069975,-8.143338e-05,-0.01058348,0.08838589,0.4080108,0.4458622
0.882764,-0.04736046,-0.06724623,0.1936682,-0.1178714,0.5173637
0.9066337,-0.1395208,0.001733958,0.4272264,-0.562579,0.5014642
0.9911964,-0.2211397,-0.03155975,0.6297762,-0.8492131,0.3161131
1.133045,-0.176326,-0.1644768,0.6857887,-0.2719358,0.1291952
1.19746,-0.1074496,-0.1412476,0.5054481,0.6331835,-0.01649891
1.207013,-0.07736543,-0.2125898,0.3048629,0.844678,-0.05057342
1.205741,-0.03685573,-0.1550667,0.192723,0.7689574,-0.09038684
1.053588,-0.07075596,0.04995295,0.2216065,0.3058134,-0.2020112
0.9794123,-0.1129867,0.1667186,0.5702736,-0.222046,-0.2457625
1.072577,-0.1496491,0.2120201,1.028112,-0.512495,-0.3609767
1.114759,-0.2244507,0.06088178,1.166233,-0.9096407,-0.6241529
1.217792,-0.2438776,-0.1957025,0.6314968,-1.12302,-0.9957357
1.256289,-0.2147912,-0.4281754,-0.1665959,-0.950408,-1.121855
1.164094,-0.1962072,-0.6197183,-0.3938832,-0.58713,-0.7720014
0.8809091,-0.3537122,-0.2220072,-0.1516067,-0.9602535,-0.1525837
0.9528357,-0.3056772,-0.2503311,-0.08564175,-0.604098,-0.4957841
0.9189173,-0.1628702,-0.3084797,-0.1460572,-0.2493678,-0.7005869
0.8509178,-0.008320925,-0.3530096,-0.2179172,0.5954923,-0.4984072
0.7243936,0.02978854,-0.2398089,-0.1147794,0.791177,-0.142166
0.624028,0.01620019,-0.1585781,-0.0113086,0.1422467,0.02743317
0.6821317,0.003208988,-0.1311866,-0.01088629,-0.2894628,0.06608577
0.7379982,-0.03013913,-0.07011016,-0.01121357,-0.5882782,0.03876808
0.8206767,-0.02472329,-0.09319126,-0.0287166,-0.5328859,0.03720189
1.055897,-0.007111809,-0.1753232,-0.03212664,-0.06100613,0.1075141
1.146763,-0.01229126,-0.2077382,-0.09574815,0.3820289,0.119399
1.009517,0.01610898,-0.175362,-0.30026,0.9022441,0.1803252
0.9101484,0.05668134,-0.1144152,-0.4240667,0.8815508,0.3348688
0.8412086,0.03688647,-0.02049227,-0.3575643,0.2910371,0.481909
0.8233979,-0.0290648,0.08719079,-0.1680893,-0.371356,0.5438361
0.9577337,-0.1193443,0.1282661,0.09664781,-0.9540015,0.3325761
1.132401,-0.1681454,0.08342289,0.244479,-0.7605684,0.05406546
1.313106,-0.1132026,-0.03581234,0.1019551,0.04127758,-0.03533466
1.420116,-0.06951097,-0.1172383,-0.0940208,0.8832312,-0.03777123
1.312695,-0.04125668,-0.05107231,-0.1047941,1.045118,-0.0209728
1.154196,0.01850937,0.09363488,-0.1130389,-0.1347196,-0.08995965
1.117569,-0.04125183,0.1368067,-0.2487241,-1.575338,-0.2720579
1.185424,-0.1991514,-0.1129868,-0.5320566,-2.178679,-0.5700341
1.302199,-0.3303518,-0.5304739,-0.7193154,-1.475211,-0.8239356
1.341724,-0.4192166,-0.7217239,-0.4863308,0.03733686,-0.7496348
1.243112,-0.3479147,-0.6466522,-0.32302,0.9793363,-0.5510685
1.106273,-0.1690776,-0.5429591,-0.5008295,1.056433,-0.2420122
1.021861,-0.09333915,-0.3804188,-0.5681497,0.2641324,0.2691062
1.006454,-0.08696404,-0.2103892,-0.5388286,-0.3805853,0.5001831
1.035169,-0.1185257,-0.2524583,-0.6011239,-0.05974443,0.4820412
1.049112,-0.1642731,-0.3302949,-0.6790649,0.2056111,0.5728476
0.9981283,-0.17236,-0.3226368,-0.6980922,0.7547483,0.5606933
0.8801428,-0.212885,-0.3207452,-0.6613096,1.602883,0.4644511
0.7123702,-0.2092294,-0.2333462,-0.6380762,1.685231,0.4447139
0.560602,-0.1604245,-0.1003061,-0.5933452,1.307794,0.3992609
0.5398857,-0.1695773,-0.003092555,-0.5339923,0.7172677,0.3851603
0.6371876,-0.1888896,0.05766858,-0.5463935,-0.03444927,0.3003379
0.7404693,-0.2358245,0.0411151,-0.5301422,-0.5988144,0.1068097
0.8302516,-0.2467829,0.007175,-0.366048,-0.5384107,0.03643858
0.9082969,-0.1954633,-0.02861661,-0.1787326,0.07642678,0.04161681
0.9111971,-0.1657835,-0.03701396,-0.09353226,0.5775018,0.06366887
0.841798,-0.106067,0.03650653,0.01672081,0.7234416,0.07925167
0.8022452,-0.06999031,0.1013142,0.09455424,0.2631558,0.0485207
0.8189157,-0.0801165,0.1123999,-0.1674381,-0.4702042,0.03556507
0.8976478,-0.08469572,0.06715276,-0.5483244,-0.9518952,-0.01386755
1.117861,-0.1176508,-0.01273981,-0.6009916,-1.12841,-0.06456793
1.41592,-0.126831,-0.08781244,-0.5212658,-0.6893001,-0.03091907
1.571581,-0.1020012,-0.141149,-0.612887,0.353988,0.07377983
1.492693,-0.04944958,-0.08155935,-0.7953301,1.773008,0.2050449
1.335577,0.002593481,0.07151791,-0.8650657,1.94539,0.3392293
1.203902,-0.1020246,0.1393093,-0.5970045,-0.1429881,0.6500259
1.105825,-0.3713474,-0.08769541,-0.2096658,-1.958195,1.02743
1.135326,-0.6238929,-0.5025122,-0.184712,-1.765,1.001476
1.160512,-0.6602462,-0.619401,-0.3619595,0.1855366,0.5271557
1.070092,-0.4693087,-0.4769969,-0.511016,2.575293,-0.08176404
0.9198741,-0.211442,-0.3773305,-0.8223742,2.956908,-0.3797845
0.6789503,-0.03933379,-0.1627349,-0.9482425,1.175883,-0.06581413
0.6386006,-0.1598793,0.05225195,-0.3384034,-0.9286897,0.1852053
0.8293527,-0.4614145,0.0239097,0.4415763,-1.850472,-0.1228016
0.8951999,-0.5461363,-0.06802471,0.5175033,-1.497339,-0.3824372
0.9311031,-0.3621106,-0.1780476,0.2623216,-1.006315,-0.5750626
0.9061743,-0.04834241,-0.3046279,0.2702115,-0.327515,-0.7331874
0.7930479,0.1280115,-0.2594655,0.242641,0.5410543,-0.370169
0.7756575,0.04336605,-0.1356554,0.2105229,0.4100221,0.01568867
0.7473927,0.0001290418,-0.08337843,0.3214587,-0.3360195,0.02723969
0.8211869,-0.01457881,-0.04884995,0.2426242,-0.6209294,-0.02821258
0.9739931,-0.07642057,-0.07666528,0.1589223,-0.7372089,-0.06303762
0.9556238,-0.03634582,-0.1052683,0.11288,-0.401777,-0.04204459
0.9355981,0.002002481,-0.06892979,-0.08940675,0.4177393,-0.02336589
0.9372023,0.03181807,-0.07378757,-0.1993083,0.6592566,0.07952941
0.8655835,0.06551638,-0.0164908,-0.2324239,0.4871646,0.2851287
0.8240769,0.02199472,0.07911622,-0.1438441,0.002225068,0.3427895
0.8589399,-0.03975841,0.09075798,0.09331843,-0.6533353,0.2937461
0.9724147,-0.1192338,0.1222368,0.2300174,-0.7309733,0.1815491
1.153272,-0.1450276,0.07519369,0.3165319,-0.3814321,0.0128062
1.373506,-0.09326712,-0.07338065,0.3186669,0.3621775,-0.07820982
1.418405,-0.05639697,-0.1042729,0.2511694,0.926574,-0.03427231
1.23692,0.003800889,-0.02561743,0.2220447,0.4491179,-0.01650816
1.149603,-0.001959199,0.03593081,0.1257803,-0.689143,-0.2172806
1.184691,-0.1187693,-0.01042468,-0.1441067,-1.609906,-0.4776829
1.219299,-0.1933751,-0.2410116,-0.6179114,-1.597426,-0.7118445
1.235935,-0.2515671,-0.5437646,-0.8076651,-0.890319,-0.8242582
1.178913,-0.295476,-0.6154618,-0.5601701,-0.1204079,-0.6049688
1.106954,-0.2397715,-0.4947088,-0.5023559,0.2885019,-0.3073539
1.076657,-0.1846051,-0.4764285,-0.5407682,0.1298963,-0.1035452
1.086432,-0.205284,-0.4073268,-0.4117176,-0.2086281,0.1374995
1.109841,-0.2222678,-0.2417843,-0.3913407,-0.3427029,0.3471488
1.108697,-0.1962544,-0.2597683,-0.4024701,-0.1495427,0.4633795
1.067596,-0.1855467,-0.3116761,-0.2850412,0.2384443,0.5860995
0.9595142,-0.1645714,-0.2843636,-0.2038677,0.7304423,0.6375362
0.8548428,-0.1186156,-0.2899498,-0.3188368,1.293085,0.5221202
0.7471381,-0.1159095,-0.2190514,-0.4905443,1.45909,0.4494409
0.6071237,-0.1068448,-0.08070633,-0.4760142,0.9983833,0.4051026
0.5678995,-0.1262116,0.02979922,-0.3958329,0.3078037,0.2977144
0.6172023,-0.1989902,0.1068907,-0.3280261,-0.2640841,0.2386214
0.6755173,-0.2192458,0.1179733,-0.1280925,-0.4497498,0.1139725
0.7617814,-0.220577,0.06999013,0.07016468,-0.2805858,-0.041323
0.8385952,-0.1969455,-0.01079745,0.09179466,-0.1226334,-0.06898166
0.8388956,-0.1569455,-0.03705126,0.09699395,0.2635508,-0.06148131
0.8133132,-0.1575285,0.01676729,0.2124382,0.4914586,-0.1234561
0.8310688,-0.1198357,0.05651133,0.1985904,0.09263379,-0.1923606
0.8226344,-0.05290954,0.06480162,0.001257849,-0.2537816,-0.1381506
0.8438552,-0.02955763,0.04802389,-0.1049858,-0.8472363,-0.0657826
1.052177,-0.06052076,-0.006911512,-0.1883823,-1.227958,0.01421383
1.418408,-0.09592772,-0.1397023,-0.4818009,-0.2230759,0.1695933
1.689258,-0.07369895,-0.250544,-0.8968557,1.590113,0.2532196
1.595293,0.007543435,-0.1096051,-1.182052,2.976463,0.3564564
1.306057,0.0856862,0.1596422,-1.293619,1.963839,0.6155568
1.065934,-0.03959674,0.2662843,-0.9974162,-0.9552861,0.9764083
0.9629582,-0.4171072,0.1431369,-0.1506787,-2.965149,1.181429
1.114237,-0.8102436,-0.216274,0.3185526,-3.08081,0.9636901
1.233868,-0.9279469,-0.6450734,0.2205992,-0.7585363,0.4746777
1.178747,-0.6355528,-0.7601105,0.2011162,2.049355,-0.1265599
1.035311,-0.2885738,-0.5547642,-0.08461242,2.449957,-0.4050701
0.7367051,-0.1663754,-0.3754426,-0.3870129,1.154304,-0.1361968
0.6462964,-0.1255454,-0.1727925,-0.1005379,-0.422601,-0.02525247
0.7438516,-0.2122014,0.06186795,0.3844428,-1.249213,-0.06426126
0.7496703,-0.3540212,0.003727645,0.6750197,-1.653716,-0.1004162
0.9085089,-0.3396697,-0.1680882,0.6333935,-1.949967,-0.4420215
0.9867906,-0.2145078,-0.2921569,0.3668451,-1.087791,-0.5626503
0.8662055,-0.03015523,-0.4172356,0.09136754,0.008829383,-0.4781476
0.836641,0.04296887,-0.306387,0.02810045,0.5241293,-0.4016959
0.7929754,-0.03071624,-0.1526643,0.1732688,0.3518849,-0.06010377
0.7820087,-0.06319993,-0.1083651,0.2112306,-0.1870138,-0.001463189
0.8314559,-0.104692,-0.03222147,0.2119955,-0.2505505,-0.1217092
0.8620294,-0.1253783,-0.0770324,0.2360367,-0.5691194,-0.01598844
0.9408392,-0.07712087,-0.1218638,0.2002897,-0.600705,-0.03461493
0.9688619,-0.0720196,-0.1397662,0.120391,-0.07476201,0.008451576
0.9659525,-0.05088478,-0.2163177,0.0338722,0.1201138,0.1447754
0.9720213,-0.02226969,-0.124915,0.1683048,0.3204663,0.2256171
0.9543903,-0.05189655,-0.009531967,0.3852638,0.0392536,0.285279
1.047346,-0.0610478,0.02471827,0.4383078,-0.2286645,0.1243071
1.217563,-0.04808271,0.0464212,0.4865646,0.04019041,-0.04195065
1.29157,-0.01457072,-0.05278525,0.4824272,0.200095,-0.03913434
1.236414,0.01577925,-0.1230764,0.3284106,0.4974399,-0.03442904
1.17648,-0.07731132,-0.06756986,0.2525374,0.1697733,-0.1207732
1.216813,-0.2360056,-0.05378649,0.3748211,-0.492563,-0.3676711
1.316685,-0.3344505,-0.2155301,0.4187518,-0.4179711,-0.6674291
1.394373,-0.3867986,-0.5095565,0.03819573,-0.3214643,-0.8836765
1.261772,-0.3699348,-0.6415998,-0.4820339,-0.1483365,-0.925234
0.9936496,-0.283713,-0.4744927,-0.5289529,0.08442846,-0.8335585
0.9669685,-0.2240671,-0.3232993,-0.3144384,-0.114451,-0.6675906
1.095948,-0.1972194,-0.4001657,-0.2854135,-0.3303302,-0.2949245
1.17489,-0.1810616,-0.4160491,-0.2470897,-0.2943338,0.08896838
1.199977,-0.1627296,-0.3387859,-0.170872,0.01524462,0.2753275
1.067842,-0.141624,-0.364785,-0.210438,0.552575,0.4400479
0.8812484,-0.1738597,-0.2946609,-0.2340414,1.061558,0.5373562
0.7556475,-0.2089075,-0.1919017,-0.2082172,1.214367,0.4507517
0.6297636,-0.2164916,-0.1774714,-0.197436,1.144386,0.3647747
0.5369051,-0.2079589,-0.09484293,-0.1691909,1.028241,0.3491851
0.5184525,-0.1538812,-0.041641,-0.08807521,0.5978048,0.3124833
0.5792886,-0.1457117,-0.006882024,-0.02641001,0.05626706,0.27056
0.6441623,-0.1695685,0.02758681,-0.06637906,-0.4037874,0.1894223
0.7318331,-0.1861061,-0.0216728,-0.08511313,-0.6362061,0.07014969
0.8950906,-0.2338477,-0.03817067,0.04713496,-0.3569157,0.00363218
0.9362017,-0.2180724,-0.03883111,0.1788145,0.04773005,-0.05651599
0.8628375,-0.1789974,-0.03482783,0.1578669,0.3301688,-0.09826016
0.8447797,-0.1601601,0.01067263,0.1259758,0.37796,-0.09848792
0.826015,-0.1172483,0.04016018,0.1111267,0.05813657,-0.1646937
0.8613558,-0.1219548,0.05925271,-0.06765332,-0.2807667,-0.2876226
1.029294,-0.1040678,0.05675692,-0.2635449,-0.5322583,-0.3364728
1.232654,-0.03472392,0.01935261,-0.2809859,-0.5207404,-0.1950771
1.467977,-0.02757449,-0.06807168,-0.4018896,0.04758105,0.05234684
1.596426,-0.03484696,-0.1086387,-0.7640099,1.085651,0.1987723
1.449028,-0.005633674,0.02168569,-0.9552048,1.869432,0.2620223
1.261254,-0.002238872,0.1934401,-0.8076599,0.9234998,0.4012041
1.1498,-0.1159289,0.2469447,-0.4982327,-1.188264,0.6479186
1.090957,-0.3523703,0.04700728,-0.1277341,-2.085281,0.8033855
1.186187,-0.5815686,-0.4205323,0.009546359,-1.160859,0.6488451
1.260603,-0.6782735,-0.8247783,-0.1113824,0.8827625,0.2729857
1.179374,-0.542293,-0.8113208,-0.2102758,2.476387,-0.02166019
0.9670646,-0.259311,-0.4737514,-0.295786,2.205888,-0.0757913
0.6880446,-0.1305375,-0.1852572,-0.04169598,0.7372906,-0.07072484
0.655562,-0.2203461,0.0167122,0.5119266,-0.8885181,-0.1818392
0.7612648,-0.3392366,0.1360436,0.666032,-1.994905,-0.3194416
0.751918,-0.361928,0.03256698,0.6421423,-2.106586,-0.4880856
0.8733282,-0.2621317,-0.1712921,0.5719908,-1.55666,-0.6264168
0.9569404,-0.07521252,-0.4163948,0.1499862,-0.5800613,-0.5255623
0.8068766,0.07885415,-0.5466567,-0.05324484,0.5621649,-0.2723166
0.7557229,0.0858888,-0.3245917,0.1945848,0.6726252,0.0006865468
0.7792997,0.03317397,-0.0776585,0.3705812,-0.1400173,0.1005477
0.8027792,-0.02189375,-0.05818399,0.284435,-0.4082306,-0.02261743
0.888995,-0.1135726,-0.06800151,0.2184685,-0.4949076,0.01428971
0.91064,-0.09517666,-0.06113927,0.2494875,-0.3761793,0.1081686
0.9059471,0.0204186,-0.09394307,0.07464863,0.3754201,0.1523429
0.9114527,0.05434912,-0.0966236,-0.06173168,0.5303982,0.3867057
0.9128736,-0.01429835,-0.02199581,0.03398523,0.2115449,0.5313852
0.9552858,-0.1415109,0.07107782,0.2397284,-0.2640983,0.5054513
1.064103,-0.1904493,0.06773108,0.626635,-0.8126009,0.3884573
1.224741,-0.1457578,-0.04313421,0.7411849,-0.6118428,0.1412144
1.258712,-0.1465835,-0.1474864,0.5227865,0.02785151,0.03379918
1.212763,-0.1556535,-0.176271,0.351472,0.8022542,-0.07570286
1.211381,-0.1425913,-0.07670558,0.1699676,0.9616505,-0.3644984
1.152665,-0.153998,0.08253872,0.331859,0.2419733,-0.5156844
1.137905,-0.1795354,0.1062475,0.8246229,-0.4365594,-0.5028841
1.203301,-0.1988186,-0.07517802,0.9423394,-1.196677,-0.6050614
1.208168,-0.171258,-0.4318257,0.3955268,-1.384763,-0.7973692
1.151478,-0.143501,-0.6846506,-0.533815,-0.8699893,-0.8232324
1.101796,-0.1944055,-0.6135237,-0.9913793,-0.7239663,-0.7539329
1.176426,-0.2425937,-0.5365937,-0.7741286,-0.4382791,-0.605839
1.297008,-0.227769,-0.5713315,-0.5700113,0.1859898,-0.2584265
1.286643,-0.2086593,-0.468955,-0.4492353,0.6496631,0.02990092
1.186155,-0.1684952,-0.3107895,-0.370667,0.7711277,0.2341093
1.016099,-0.09844567,-0.2317617,-0.3781875,0.519009,0.5259875
0.8316126,-0.1034633,-0.1936148,-0.2506389,0.4123445,0.7188035
0.7520717,-0.1495865,-0.2130491,-0.2750604,0.5693614,0.6689343
0.7217639,-0.1437184,-0.211688,-0.4443985,0.7407522,0.5402526
0.6679687,-0.1433636,-0.1568137,-0.3957688,0.8383982,0.437206
0.6064359,-0.1482933,-0.1065476,-0.3434792,0.7922956,0.2862154
0.6196708,-0.1453296,-0.04309889,-0.3199986,0.6330842,0.2105661
0.7349393,-0.1836079,-0.02332165,-0.3547815,0.3551122,0.166932
0.8306187,-0.2253672,-0.007243037,-0.4494534,0.2153157,0.004831369
0.8469247,-0.2355331,0.01854454,-0.2273064,0.3468534,-0.07814615
0.7795442,-0.2021654,-0.007862973,0.02659632,0.498819,-0.1276728
0.724053,-0.1407967,0.06010365,0.04602408,0.5532904,-0.1790292
0.808577,-0.1083009,0.1559676,0.1206234,0.3409576,-0.1563518
0.9063702,-0.09524856,0.1522787,0.1652901,-0.08881756,-0.223751
0.9465312,-0.07121135,0.1185296,0.02567819,-0.3959288,-0.2618871
0.9942322,-0.03353355,0.04256434,-0.1235563,-0.6452456,-0.1484475
1.078135,-0.03150704,-0.01174433,-0.14439,-0.7972236,-0.005488423
1.312899,-0.08142539,-0.06603536,-0.3260929,-0.2416329,0.05573148
1.60195,-0.1024134,-0.1420019,-0.6744846,0.9823717,0.03998471
1.596371,-0.05774978,-0.04868411,-0.6990465,1.661142,0.1129018
1.307521,0.02176638,0.1561677,-0.5921814,0.7384689,0.2925776
1.110969,-0.001512707,0.2141854,-0.4348044,-1.249352,0.5981991
1.119079,-0.2865622,-0.01567162,0.01040988,-2.239454,0.8244036
1.210377,-0.7126067,-0.4328936,0.178624,-0.6252537,0.5493261
1.315008,-0.852056,-0.6652399,-0.002652322,2.536123,0.01479924
1.292898,-0.5428762,-0.545229,-0.06927209,3.967029,-0.3560435
1.028588,-0.2107561,-0.3245529,-0.1122571,2.25191,-0.4277406
0.6360574,-0.09324035,-0.1043727,0.002789101,-0.5030966,-0.2493138
0.5345251,-0.1014855,0.1030268,0.3385447,-2.18661,-0.2065105
0.832095,-0.2277775,0.04890553,0.5578271,-2.228355,-0.3164583
1.061152,-0.3034762,-0.1275677,0.5770122,-1.230431,-0.3906636
1.116726,-0.2589041,-0.2355498,0.4189748,-0.451522,-0.5811621
1.087548,-0.1442201,-0.3937194,0.234423,0.1295943,-0.668294
0.8921199,0.03668392,-0.3727764,0.147659,0.6729752,-0.3966026
0.6670215,0.08524526,-0.2037619,0.1668044,0.4724857,-0.04498389
0.5770573,0.0001143412,-0.09645188,0.2526064,-0.1038151,0.1033063
0.6494856,-0.05173636,0.03035158,0.2420079,-0.661696,0.06051876
0.7355497,-0.07861864,0.003615086,0.3518552,-1.135062,0.0574509
0.8497261,-0.08667591,-0.1024682,0.5482853,-0.9042993,0.1063504
1.043067,-0.05633019,-0.1674027,0.4734581,-0.2888979,0.100948
1.063024,0.004578432,-0.2500184,0.3501777,0.4994911,0.1383959
1.013456,0.02515843,-0.1660593,0.2830609,1.241338,0.2035404
0.9907268,-0.02841173,-0.03312768,0.2894962,0.9893454,0.2722411
0.9157666,-0.08748954,0.07426302,0.4726013,0.4436723,0.3028371
0.995977,-0.09202553,0.1242322,0.6228315,0.04677157,0.222493
1.156605,-0.05624023,0.01695659,0.6400966,-0.4002346,0.155192
1.234424,-0.05245243,0.01475122,0.4802671,-0.228125,0.1101073
1.234812,-0.06815688,0.03808268,0.3354135,-0.127658,-0.01082097
1.191492,-0.07972024,0.06837733,0.4712907,-0.360134,-0.1903345
1.224589,-0.09571409,0.1903163,0.6977552,-0.5543672,-0.3409893
1.264929,-0.136739,0.04935794,0.746771,-1.278698,-0.5080159
1.331113,-0.243736,-0.2711407,0.2581345,-1.62132,-0.8627131
1.399724,-0.2899921,-0.5718769,-0.5567086,-1.07027,-1.10317
1.245561,-0.1925677,-0.7175309,-0.8455211,-0.4312258,-0.853111
1.063375,-0.06494873,-0.5532435,-0.7604276,0.3438052,-0.4411872
1.046653,-0.01131416,-0.4094596,-0.7113675,0.6885248,-0.03804849
1.047571,-0.08687681,-0.283169,-0.471958,0.02102864,0.4270846
1.040163,-0.192306,-0.1237959,-0.3584441,-0.6984292,0.4796142
1.076026,-0.2223807,-0.2005987,-0.5210275,-0.7144599,0.2458608
1.104873,-0.233968,-0.3089984,-0.4839539,-0.2923337,0.2993574
1.04311,-0.2198649,-0.3569389,-0.2247032,0.5295841,0.3021397
0.9048709,-0.1732766,-0.3505926,0.03344428,1.665279,0.2133392
0.732166,-0.160385,-0.184489,0.009104261,2.023964,0.2569069
0.5746362,-0.1406164,-0.05062773,-0.2227633,1.416436,0.1812733
0.550344,-0.09565673,0.06891557,-0.2386367,0.6716501,0.1642538
0.6254101,-0.08814632,0.1357249,-0.1732747,-0.24493,0.1977591
0.7168779,-0.1113026,0.05628645,-0.1023721,-0.8060136,0.09930295
0.8369431,-0.1330016,0.04077035,0.02000815,-0.3578384,0.06503167
0.8888507,-0.1300417,0.0189872,0.1288095,0.2486516,0.04778217
0.8472506,-0.1272861,0.01526887,0.2786007,0.7058235,0.0154913
0.826357,-0.1439962,0.1222732,0.2441782,0.916261,-0.06061023
0.8119033,-0.127392,0.1634131,0.129095,0.3583118,-0.158123
0.8226696,-0.1080018,0.1672494,0.07013928,-0.3252089,-0.1100267
0.9644559,-0.1097706,0.08211518,-0.05757632,-1.023255,-0.04902672
1.264508,-0.1032477,-0.09091106,-0.06693839,-1.499998,-0.02784511
1.627233,-0.09221997,-0.175377,-0.2219354,-0.5048475,-0.01587295
1.702352,-0.03730762,-0.1831107,-0.5483858,1.25963,0.004973251
1.398666,0.002407014,-0.06116188,-0.6510528,2.218579,0.1314815
1.137578,-0.1174374,0.03678932,-0.6701924,1.062797,0.3325938
1.1114,-0.4173468,-0.1871045,-0.4090729,-1.809881,0.6415889
1.252187,-0.7307579,-0.5660812,0.01319548,-2.892243,0.8407723
1.357597,-0.7413202,-0.7117267,0.006050075,-0.447882,0.4978601
1.167137,-0.4250753,-0.5089854,-0.05568821,3.074639,-0.1494115
0.8292663,-0.1931357,-0.2334261,-0.1335683,3.694498,-0.4404476
0.6058907,-0.2061406,-0.05921539,-0.4776644,1.136078,-0.2431597
0.6099644,-0.2067053,0.120833,-0.3114543,-1.221381,-0.04423377
0.7325339,-0.2034688,0.1962041,0.2842062,-2.314213,-0.1036289
0.7905566,-0.3052719,-0.02267247,0.5641317,-2.218408,-0.188047
0.9319379,-0.2375314,-0.3609534,0.5396932,-1.522659,-0.3539596
1.019281,-0.06269133,-0.4763045,0.170624,-0.6712871,-0.5799432
0.9003461,-0.02311988,-0.356347,-0.01697609,0.7849201,-0.4458109
0.8802734,0.04484425,-0.2755234,0.2996071,0.8455115,-0.1858019
0.8489938,0.01560713,-0.2256416,0.4134383,-0.07796296,-0.05737177
0.7557679,-0.1103912,-0.09583353,0.2311558,-0.2288513,0.06895926
0.8344685,-0.07427904,-0.09410918,0.06931895,-0.6851404,0.004964009
0.9009871,-0.07455877,-0.1690336,0.1976894,-0.6669164,-0.02305587
0.9027776,-0.07476375,-0.1181936,0.3572434,-0.1823504,0.1197526
0.962065,0.008375704,-0.131,0.235611,-0.1045011,0.1722175
0.9809049,0.02352726,-0.1577831,0.2870156,0.2008395,0.3082985
0.9268222,0.0553592,-0.0662844,0.3272769,0.07635997,0.4244353
0.9054063,0.01991156,-0.008863958,0.34529,-0.2733214,0.4076907
0.9605464,-0.07090735,0.05772466,0.5715505,-0.3949543,0.3897632
1.058945,-0.07640184,0.06427128,0.6177611,-0.4924325,0.2658221
1.191508,-0.07922936,-0.05728482,0.5705813,-0.04541149,0.1555907
1.241819,-0.07329811,-0.1282803,0.3659233,0.343571,0.05951752
1.176365,-0.09155538,-0.1229836,0.1223976,0.4085607,-0.142367
1.147777,-0.1255266,-0.01810677,0.3168952,0.4095948,-0.3174288
1.141884,-0.1413778,0.08035689,0.6653066,-0.1307161,-0.4426159
1.156189,-0.2181306,0.01428806,0.753977,-0.9783992,-0.6297603
1.233121,-0.2643897,-0.2021778,0.2652053,-1.542043,-0.9161697
1.262842,-0.2190006,-0.5221207,-0.4586931,-1.413424,-0.9997655
1.19072,-0.1779127,-0.6386377,-0.5522657,-0.810578,-0.7558972
1.128984,-0.2087452,-0.5251496,-0.3381716,-0.06086741,-0.5213726
1.201593,-0.2279001,-0.4975512,-0.4016268,0.6317108,-0.3574261
1.265593,-0.1517797,-0.4136881,-0.3822415,0.5000673,-0.05109307
1.166287,-0.07703725,-0.2351284,-0.2621376,0.08742156,0.4217826
1.033459,-0.04736723,-0.2332943,-0.2951549,0.02344937,0.737967
0.9143759,-0.09780227,-0.296215,-0.270101,-0.01143425,0.7575803
0.8111117,-0.1879909,-0.2703062,-0.2598545,0.4368596,0.6757725
0.7801075,-0.1982156,-0.2561058,-0.2910789,1.0368,0.4884081
0.7347369,-0.2056613,-0.2079713,-0.2767116,1.154077,0.2861931
0.662327,-0.196774,-0.06950165,-0.330643,0.8781905,0.200607
0.6460247,-0.1589895,0.05544692,-0.224032,0.2497525,0.1673437
0.7147172,-0.1840612,0.08375675,-0.07050571,-0.2675786,0.1139466
0.825314,-0.2010619,0.01227256,-0.08243181,-0.3964407,-0.03391683
0.8686702,-0.2121147,-0.03939867,0.01174138,-0.01477178,-0.1246084
0.8878658,-0.2266226,-0.04089633,0.1985248,0.5558249,-0.09404936
0.9043347,-0.1874478,-0.005877747,0.3507989,0.6677232,-0.1045778
0.836985,-0.1330385,0.1083453,0.4167848,0.557035,-0.1402153
0.7795244,-0.06315898,0.1669338,0.3842086,0.2482823,-0.1475585
0.7747997,-0.01090937,0.152589,0.2248329,-0.229057,-0.1192588
0.8264129,-0.0175857,0.1311074,-0.07103365,-0.6299054,-0.08806515
0.9927944,-0.04743713,0.0481884,-0.1899068,-1.100756,-0.06826243
1.255191,-0.09977446,-0.05704728,-0.1877356,-1.173442,-0.00840675
1.588544,-0.1203545,-0.1807916,-0.3964263,-0.1372211,0.05505233
1.721733,-0.05978312,-0.2201076,-0.6214812,1.497547,0.08792726
1.479235,-0.03045167,-0.06755176,-0.5813058,1.681054,0.2112195
1.234237,-0.1846142,0.005830338,-0.3575162,-0.1310872,0.5259717
1.20942,-0.5047591,-0.2479088,-0.09819221,-1.429845,0.7201469
1.269385,-0.7228587,-0.6294704,0.1411137,-0.5292124,0.4526336
1.276984,-0.6247465,-0.7239484,0.2083407,1.627342,-0.07418571
1.112431,-0.3369606,-0.5149128,0.1569076,2.982211,-0.4570051
0.81473,-0.071512,-0.2400811,0.1210034,2.162323,-0.4350704
0.5835255,-0.0005607756,0.07520761,0.09112392,0.08440756,-0.2128915
0.5661233,-0.1772457,0.2272175,0.3907857,-1.43278,-0.1933776
0.7332594,-0.2736587,0.05294935,0.8411996,-2.307256,-0.2806333
0.9229957,-0.1576861,-0.2028077,0.7860251,-2.404068,-0.4242065
0.9939237,-0.0627408,-0.439133,0.4641599,-1.0719,-0.5900352
0.9261275,0.02837307,-0.5346163,0.3221984,0.2900938,-0.3960965
0.8518705,0.05798878,-0.2869908,0.3498342,0.6563548,-0.05389525
0.8440175,-0.01324899,-0.04159712,0.3920635,0.2151392,0.04314956
0.8567934,-0.01541904,-0.0501336,0.29482,-0.3664089,0.04154375
0.8991674,-0.04449065,-0.06660511,0.2113138,-0.2375763,-0.006713254
0.9500097,-0.05773576,-0.08055187,0.1938945,-0.1890819,-0.03885339
0.9895171,0.006052981,-0.1289301,0.1311678,0.02565469,0.01735756
0.990724,0.008701184,-0.1199445,0.07344938,0.4932808,0.08525364
0.9168635,0.04326109,-0.1031229,-0.02804406,0.3082983,0.2225406
0.8735841,0.05613008,-0.0648768,-0.04753574,0.1661296,0.3746661
0.8597078,-0.02013789,0.009156972,0.1363875,-0.2553818,0.4422158
0.8832901,-0.08243829,0.04065182,0.3576387,-0.7506997,0.4029398
1.07243,-0.1459827,0.002388278,0.543423,-0.6382379,0.2288758
1.279689,-0.130313,-0.06630849,0.5349597,-0.3054452,0.07076104
1.309372,-0.08589137,-0.1484193,0.3577299,0.4876502,0.05232995
1.229923,-0.1132698,-0.2150919,0.2760859,0.7783858,0.04354982
1.180439,-0.1324937,-0.1433822,0.3360526,0.3890135,-0.07557145
1.110906,-0.1768782,0.05175255,0.6202205,0.1333508,-0.1777578
1.048619,-0.1938402,0.1928733,1.05194,-0.4297306,-0.285683
1.149631,-0.1676871,0.08009735,1.192675,-1.031342,-0.6033174
1.207785,-0.1682537,-0.2692822,0.6778505,-1.225268,-0.8656415
1.150519,-0.09948592,-0.5435308,-0.1225159,-0.9108628,-0.7713112
1.082748,-0.05705264,-0.6296234,-0.4839237,-0.4743187,-0.5959323
0.9791859,-0.115533,-0.5524861,-0.5123335,-0.2670036,-0.5439381
1.062003,-0.1401219,-0.4345118,-0.4674205,0.1299011,-0.4081448
1.224323,-0.1364306,-0.4038698,-0.3519615,0.2576187,-0.1460394
1.212245,-0.1202573,-0.2792699,-0.2871213,0.09618216,0.1727629
1.165291,-0.1019374,-0.1931091,-0.2107098,0.2567695,0.5111177
1.077908,-0.1028816,-0.2533469,-0.289027,0.3900088,0.6199553
0.9522328,-0.086448,-0.2408908,-0.4591601,0.5430587,0.6014115
0.8338356,-0.07740309,-0.2490628,-0.4511008,0.9162264,0.6418658
0.7343597,-0.1007469,-0.2309827,-0.5806707,1.060853,0.5472521
0.6904676,-0.1482325,-0.1209278,-0.6824502,0.7919113,0.4064671
0.6278456,-0.183238,-0.04667374,-0.4576,0.2453365,0.3143269
0.701918,-0.1913679,0.002307703,-0.3005667,-0.2723128,0.2182661
0.8817965,-0.2081734,-0.01676421,-0.3000955,-0.3300599,0.1286458
0.8977758,-0.2104694,-0.03442339,-0.2417588,-0.01870882,0.03370303
0.9012645,-0.1995943,-0.02284833,-0.07097431,0.2914342,0.04193562
0.8998002,-0.1935277,0.002195438,0.123963,0.5348661,0.04935117
0.8111788,-0.1536028,0.101511,0.216581,0.4614109,-0.02289015
0.8143948,-0.107772,0.1219252,0.2146016,-0.05699347,-0.04747606
0.8688136,-0.1132123,0.07891982,0.1236246,-0.5364591,-0.07059715
0.9692851,-0.1308354,0.05587861,-0.01725457,-0.6527153,-0.09638523
1.159316,-0.1176634,-0.02646965,-0.1183931,-0.5366557,-0.1166298
1.325386,-0.09302282,-0.1255789,-0.177404,-0.3823687,-0.08688074
1.423875,-0.04291369,-0.1693347,-0.3709079,0.174026,-0.0107484
1.375473,0.02142247,-0.08169181,-0.7664515,1.250932,-0.02643814
1.244234,0.02751995,0.1028657,-0.9399621,1.591962,0.01977494
1.157954,-0.07366554,0.1921889,-0.7140456,0.6003484,0.2299822
1.099666,-0.3112768,-0.008852153,-0.4091296,-0.8720681,0.4864268
1.1393,-0.575243,-0.4281347,-0.184681,-1.74914,0.6783209
1.174259,-0.6656381,-0.6334863,-0.1329602,-1.017641,0.5893718
1.126625,-0.5663347,-0.6028731,-0.2220119,1.000956,0.1802742
1.093571,-0.3664209,-0.6181606,-0.2883671,2.824521,-0.2905722
0.9115657,-0.1350936,-0.5005281,-0.3309608,2.97681,-0.4056672
0.7082148,-0.06919986,-0.2094143,-0.2088057,1.267982,-0.2136065
0.7913734,-0.245166,0.01248786,0.149391,-0.5359779,-0.279574
0.9029392,-0.3567459,0.2156402,0.4038135,-1.762444,-0.4833464
0.9074906,-0.2976905,0.2084946,0.414884,-2.085762,-0.5578658
0.9926216,-0.1872491,-0.153475,0.3565861,-0.7574653,-0.5630808
1.053055,0.003862184,-0.3552078,0.3488751,0.5056872,-0.2883664
0.9738201,0.075137,-0.3354147,0.4537242,0.6624453,0.03889738
0.8703286,-0.03045223,-0.2463782,0.5252711,0.2060875,0.1211783
0.8300416,-0.04177423,-0.03746275,0.4300874,-0.5163297,0.07588149
0.8611385,-0.006713151,-0.04777286,0.3094494,-0.6866936,0.02635695
0.9303645,-0.002808212,-0.1412366,0.2335569,-0.6636266,0.1168429
1.01136,0.01312733,-0.1429587,0.1463816,-0.4478047,0.1340897
1.045996,0.007039723,-0.197419,0.06128415,0.1356461,0.09626664
0.9843341,0.00449516,-0.1373807,0.01130117,0.3249949,0.2022649
0.9234745,-0.002210072,-0.0930796,-0.03252557,0.3446891,0.2866373
0.8973396,-0.03600154,-0.03313443,1.455594e-05,0.09851042,0.4056575
0.8998624,-0.08597867,0.06657708,0.1582036,-0.2579669,0.4312029
0.9934063,-0.1146162,0.003129998,0.3090369,-0.3408693,0.3476011
1.114088,-0.08910866,-0.02655506,0.4057087,-0.358228,0.3539566
1.180448,-0.08133768,-0.08689322,0.4038239,-0.03516086,0.2988703
1.162421,-0.1253612,-0.1264249,0.3657622,0.1674101,0.2661522
1.121288,-0.1815703,-0.01963012,0.4067432,0.05855182,0.2201472
1.134333,-0.2073684,0.004856154,0.4188783,-0.01499769,0.06838238
1.121243,-0.170203,0.03296695,0.5051317,-0.07847834,-0.02810196
1.106649,-0.1225233,0.08655185,0.7597057,0.04018233,-0.08676767
1.117595,-0.1139364,0.09681279,1.033265,0.01617412,-0.07987576
1.122589,-0.107018,0.0604963,1.106303,-0.376005,-0.1531872
1.178877,-0.08531128,-0.0810261,0.6865106,-1.00717,-0.3867891
1.205188,-0.07986983,-0.2114842,-0.05261663,-1.306082,-0.5431243
1.159251,-0.08862479,-0.3313504,-0.6627553,-0.8712914,-0.5832621
1.064283,-0.09334169,-0.4757659,-0.8961352,-0.4366762,-0.4887216
0.9540241,-0.1075357,-0.5234555,-0.7920121,-0.159886,-0.322438
0.989812,-0.1533305,-0.4313031,-0.699917,-0.08052145,-0.2106398
1.080121,-0.2174359,-0.3147193,-0.5772215,-0.2655187,-0.07864918
1.094597,-0.2422644,-0.2411572,-0.3167562,-0.1557121,0.083643
1.1452,-0.2303597,-0.2101782,-0.169805,0.1197117,0.215286
1.178863,-0.2349685,-0.2585184,-0.08203291,0.4605195,0.2687808
1.095068,-0.2014665,-0.2582416,-0.09619272,0.6953049,0.2773152
0.962592,-0.1119821,-0.2593558,-0.3326634,0.5610056,0.328498
0.8681766,-0.08297447,-0.2760196,-0.5310836,0.597858,0.3699849
0.8034798,-0.1045291,-0.138157,-0.5703051,0.6577575,0.389602
0.734468,-0.1021017,-0.08040938,-0.4693312,0.40976,0.4178338
0.748797,-0.1149154,-0.07440346,-0.3683084,0.1487884,0.3900429
0.8132004,-0.1548481,-0.009270319,-0.3958038,-0.09139465,0.3329247
0.8232743,-0.1955044,-0.05216484,-0.3794793,-0.1097659,0.2886219
0.8620998,-0.229284,-0.07530431,-0.2984805,0.006366512,0.2168824
0.8921633,-0.2413947,-0.0744487,-0.1570412,-0.01428951,0.1479198
0.8794732,-0.2353893,-0.07253083,0.02175242,0.08986828,0.07622392
0.9042315,-0.2281383,-0.04535887,0.04388327,0.1548885,-0.03930658
0.8964309,-0.216074,-0.05186878,0.02221478,0.02410945,-0.09580262
0.8840687,-0.1857067,-0.01553941,0.05815704,-0.09258426,-0.066884
0.9161774,-0.1641295,0.01281208,0.09765686,-0.241953,-0.07135486
0.9701616,-0.1584601,0.01860297,0.1277975,-0.3125301,-0.1088165
1.093569,-0.1292927,-0.0183518,0.005271465,-0.2294649,-0.1334841
1.18939,-0.08395507,-0.1136258,-0.2725523,0.01056516,-0.1492263
1.224751,-0.04315623,-0.1183657,-0.5491859,0.5250884,-0.1376092
1.249743,-0.0106357,-0.02825366,-0.683482,0.9777883,-0.07945841
1.179308,0.02131262,0.1166302,-0.6650288,0.9865833,0.0401867
1.071168,0.04362554,0.2047956,-0.6605845,0.5582107,0.1571035
1.047496,-0.00507613,0.1804056,-0.5523027,-0.5695747,0.2511477
1.126626,-0.1814597,0.05859486,-0.1432075,-2.266996,0.4557924
1.263864,-0.48316,-0.3211552,0.2369607,-2.775216,0.6305383
1.330901,-0.7006554,-0.7910746,0.2460892,-0.8957584,0.5234125
1.275704,-0.6407784,-0.9024324,0.09520867,2.121864,0.2499498
1.110213,-0.4610645,-0.5601815,0.02565669,4.047386,-0.06752323
0.8534376,-0.27199,-0.1362557,-0.002054484,3.255246,-0.2284157
0.6174821,-0.07368094,0.08250907,0.04674106,0.6992915,-0.04805286
0.5168806,-0.008689474,0.2154997,0.2375884,-1.697031,0.07998284
0.6404663,-0.1486948,0.198177,0.4893421,-3.201326,-0.03771543
0.9506252,-0.3749805,-0.08356661,0.5756373,-2.743968,-0.3266767
1.140763,-0.4022321,-0.3684033,0.3259773,-1.151567,-0.727735
1.039742,-0.207048,-0.4047236,0.14997,0.2786922,-0.6719756
0.8773185,-0.0700598,-0.2505397,0.4746487,1.294497,-0.3195818
0.8196441,-0.04176725,-0.1550468,0.8036671,0.4679981,-0.2598536
0.8082984,-0.09903213,-0.09166025,0.7368457,-0.3936189,-0.2194945
0.8523944,-0.129204,-0.01395378,0.6669021,-0.2864177,-0.2882475
0.9537105,-0.0352993,-0.08260606,0.6440059,-0.736272,-0.4108882
1.052935,0.04404695,-0.1528437,0.3944776,-0.006829665,-0.241698
1.093594,0.102372,-0.1509128,0.1243135,0.8891507,-0.143382
0.9812692,0.0987289,-0.1248288,0.02467736,0.758474,-0.02644337
0.8139215,0.05170388,0.006000141,0.01357861,0.8239947,0.233847
0.7491117,0.03691852,0.1118236,0.1398005,0.04445854,0.3754332
0.7767484,-0.06989001,0.1375892,0.4052965,-0.8552472,0.4092102
0.9688477,-0.1501949,0.08085174,0.6124921,-1.158083,0.2470345
1.29372,-0.1358379,-0.07626045,0.6010186,-0.7116691,0.02013327
1.493178,-0.1120912,-0.148474,0.4491606,0.6253032,-0.1243613
1.431454,-0.04744301,-0.0784219,0.3565336,1.13942,-0.1685706
1.251367,-0.04141441,0.07546698,0.3831804,1.011974,-0.1098241
1.137311,-0.07828208,0.1765565,0.5804087,0.1959597,-0.151083
1.127267,-0.1237597,0.0589407,0.7655038,-1.212104,-0.1844715
1.263712,-0.2098094,-0.2430213,0.4911292,-1.650331,-0.3321487
1.355977,-0.2106347,-0.5302742,-0.139271,-0.9700485,-0.6395763
1.216257,-0.1742547,-0.5254514,-0.5316544,0.1370717,-0.628075
1.080422,-0.1818332,-0.3680003,-0.4069257,0.1542051,-0.4503047
1.038414,-0.1725438,-0.3450084,-0.206374,-0.3190306,-0.2544456
1.034268,-0.177016,-0.2798557,-0.2502195,-0.3149151,0.06805499
1.067633,-0.1860941,-0.1995309,-0.1542354,-0.5103174,0.2818244
1.067977,-0.161129,-0.2521981,-0.06197532,-0.07774446,0.446381
0.9937841,-0.1530555,-0.2550802,-0.1425445,0.4036655,0.5916367
0.8397244,-0.1602634,-0.2218376,-0.08950718,0.5465579,0.5246067
0.7268838,-0.150151,-0.2134006,-0.2404703,0.9841798,0.4268313
0.6707503,-0.1314235,-0.1527207,-0.4834604,1.039369,0.3900174
0.6206088,-0.1177511,-0.09369894,-0.4278996,0.9948165,0.2989009
0.6578252,-0.1661032,-0.008337635,-0.3470833,0.5806421,0.2698749
0.711994,-0.2623762,0.1063598,-0.2322667,-0.2678483,0.190103
0.7511387,-0.2939502,0.0997212,-0.145574,-0.6229206,-0.02522073
0.8128962,-0.2629329,0.02065026,-0.04633795,-0.4965162,-0.05512611
0.8742478,-0.2260146,-0.02440246,0.1477091,-0.06370797,-0.02844059
0.9186984,-0.1912003,-0.06945135,0.1115585,0.2623347,-0.1184064
0.871602,-0.1515982,-0.01828815,0.07791325,0.396585,-0.1224474
0.8199332,-0.07437097,0.1238818,0.1104276,0.06548845,-0.09519617
0.8409727,-0.008194445,0.1314739,-0.07673735,-0.6370876,-0.08485269
0.8993197,-0.03959463,0.0613194,-0.3318142,-0.8868594,-0.09994416
1.075016,-0.08219515,0.007305444,-0.4875975,-0.9995534,-0.1385104
1.282671,-0.07483867,-0.07154711,-0.4579822,-0.6067004,-0.0813283
1.438616,-0.09377314,-0.1101488,-0.5390639,0.6327004,-0.002099428
1.552046,-0.08703004,-0.1316996,-0.8365804,1.851603,0.05819402
1.445817,-0.03545655,-0.06777725,-0.873488,2.069935,0.1417784
1.191564,-0.03708461,0.07611091,-0.6740267,0.4490289,0.3553047
1.070813,-0.1595497,0.03938676,-0.3774798,-1.697103,0.7205189
1.12219,-0.4892261,-0.2362716,-0.06110398,-2.133403,0.797145
1.262526,-0.7943487,-0.6341405,-0.06207895,0.1115179,0.3793394
1.327945,-0.7355897,-0.7819218,-0.1161896,3.156874,-0.2037274
1.181104,-0.4534299,-0.4953775,-0.004769113,3.381217,-0.5108094
0.8829908,-0.1792426,-0.1898661,-0.003344575,1.409086,-0.334057
0.6220434,-0.06398037,0.0296616,0.1890093,-0.5836377,-0.1829812
0.5790693,-0.1738558,0.2131058,0.5825213,-2.163991,-0.319574
0.7115332,-0.2521805,0.1562116,0.6007664,-2.410439,-0.3856465
0.8445465,-0.212636,-0.07175165,0.3953086,-2.013482,-0.5393142
0.8944641,-0.1448418,-0.3604007,0.1911508,-1.216905,-0.6687102
0.8736581,0.02209931,-0.5154831,0.04498122,0.5055117,-0.3971416
0.8689631,0.08566848,-0.3051931,0.319908,1.030701,-0.1473895
0.894306,-0.04136513,-0.08050945,0.6349105,0.4340708,-0.09848046
0.8936407,-0.08546037,-0.04978149,0.4845086,0.3700865,-0.1204049
0.8899065,-0.0758049,-0.013669,0.3931484,0.02581164,-0.1625579
0.9004601,-0.02861855,-0.03359893,0.4643534,-0.1033648,-0.02487982
0.8949711,0.08728031,-0.06802321,0.2452076,0.3796006,0.1413523
0.8647512,0.1125557,-0.0283622,0.07643209,0.2704624,0.2888062
0.8438236,0.06498133,0.02486595,0.2441593,-0.06337143,0.4310958
0.922169,-0.06951582,0.1426472,0.5479443,-0.563508,0.3650627
1.143171,-0.2134898,0.1551504,0.9096951,-0.9915461,0.1672181
1.389378,-0.1463422,-0.02964315,0.9715728,-0.3331067,-0.06199594
1.467059,-0.03189284,-0.1436308,0.6335208,0.5713473,-0.1193815
1.311803,-0.04185404,-0.07349459,0.4193612,1.000234,-0.09866481
1.119123,-0.0534394,0.08299662,0.5087509,0.667976,-0.2651513
1.080455,-0.07498921,0.1358591,0.7055497,-0.4135209,-0.3186068
1.155019,-0.1961124,-0.02022262,0.7341432,-1.244744,-0.4379009
1.235783,-0.2839429,-0.2887179,0.2402401,-1.570241,-0.7718841
1.226709,-0.2162026,-0.4927902,-0.5633622,-1.04733,-0.8007365
1.17015,-0.1476155,-0.5341667,-0.7611663,-0.3124894,-0.572131
1.168754,-0.2325567,-0.4904454,-0.2711337,-0.2602092,-0.3169224
1.194286,-0.3011815,-0.4286319,-0.04217347,0.1622331,-0.1056822
1.220089,-0.2213376,-0.3813345,-0.1930749,0.4113488,0.03790777
1.162911,-0.121161,-0.29609,-0.2465274,0.1037655,0.3907045
1.080995,-0.02653811,-0.2040665,-0.2173992,0.3748831,0.743405
1.070066,-0.03227349,-0.2499214,-0.1889322,0.6910774,0.6834231
0.8726159,-0.1365594,-0.232794,-0.1946758,0.9285828,0.5321161
0.6070219,-0.1237769,-0.1498454,-0.34287,1.132878,0.4802174
0.6226432,-0.1221937,-0.1561873,-0.5206348,0.9151259,0.2893804
0.6186497,-0.1484349,-0.05634745,-0.4409189,0.7076613,0.2186012
0.5032295,-0.121355,0.0633334,-0.2597456,0.1271274,0.3110861
0.6173566,-0.1766726,0.07399688,-0.2422857,-0.6521299,0.1288027
0.7722289,-0.2237639,0.06472791,-0.1890101,-0.7240261,-0.08329604
0.8257747,-0.2364605,0.01734355,-0.0801742,-0.3353614,-0.1096994
0.9153248,-0.2184967,-0.02007962,0.05172125,0.2180643,-0.1269391
0.8775696,-0.1527025,-0.01549437,0.209762,0.6003795,-0.1381549
0.8166329,-0.1421228,0.03864535,0.1843035,0.5204182,-0.2033226
0.8421374,-0.08190849,0.1100332,0.03330734,0.06873417,-0.1654315
0.8432691,-0.01854092,0.1051633,-0.1815138,-0.6985274,-0.07653145
1.034332,-0.03697992,0.04501308,-0.3749282,-1.093696,-0.1214161
1.342368,-0.02582879,-0.06048978,-0.5474972,-0.4965795,-0.05908266
1.52498,-0.02470365,-0.1359983,-0.925389,0.8605443,0.045456
1.539821,-0.01319588,-0.05641535,-1.195517,2.284362,0.1362196
1.374791,0.02276452,0.1070339,-1.162832,2.378651,0.2796846
1.234857,-0.02057158,0.1728816,-0.9465788,0.4935879,0.4183086
1.212706,-0.2767889,-0.03538061,-0.5307771,-1.624775,0.6366798
1.32009,-0.7494122,-0.4736618,-0.2774478,-1.69278,0.6070032
1.455403,-0.9676831,-0.7499576,-0.2766223,0.7664566,0.1399917
1.349675,-0.7013579,-0.6365886,-0.2591758,3.307918,-0.3363518
0.9776708,-0.3054287,-0.3393683,-0.2604012,2.931521,-0.4715392
0.5141011,-0.001506704,-0.03622499,-0.187899,0.7081066,-0.2624716
0.4401334,0.003400229,0.1543215,0.1842441,-1.233536,-0.1476553
0.7232901,-0.2687774,0.127467,0.7796906,-2.631768,-0.2201224
0.8231732,-0.3381141,0.01312069,1.064711,-2.597535,-0.3097038
0.9697889,-0.2211922,-0.2261463,0.8205679,-1.717446,-0.5735927
1.120627,-0.1320567,-0.5397387,0.4965668,-0.6265999,-0.6467675
0.9303823,0.01109397,-0.5071982,0.2837019,1.043459,-0.3311758
0.7862249,0.06482908,-0.2432504,0.4140366,1.136901,-0.05161259
0.7833408,0.01916704,-0.05467028,0.7326645,0.03307777,0.07266429
0.7701864,-0.01300359,0.07579341,0.5559413,-0.3208113,0.02808202
0.8304556,-0.03755077,0.04178398,0.4411973,-0.7670026,-0.005101348
0.916287,-0.00915131,-0.04987059,0.599427,-0.5042509,0.05066881
0.9813722,0.02188969,-0.08901876,0.3713481,0.3406602,0.03383097
0.9654866,0.08564982,-0.1382926,0.1446003,0.5106602,0.1263364
0.8948943,0.1147211,-0.04792994,0.008933594,0.7243747,0.2934608
0.8652762,0.02321507,0.08944366,-0.02802141,0.3751065,0.4391768
0.8938687,-0.05060611,0.1658989,0.304008,-0.3364917,0.5273542
1.043724,-0.09460595,0.1978975,0.5011604,-0.4885741,0.3462717
1.24861,-0.07430033,0.04265876,0.4930844,-0.4704275,0.1352571
1.359072,-0.04831128,-0.1250616,0.2715843,0.06673212,0.09258599
1.319378,-0.08796169,-0.1079528,-0.1549998,0.5467096,0.04790431
1.225097,-0.08648712,0.05095293,-0.2454209,0.4245842,-0.0475249
1.167416,-0.1272416,0.2572029,0.09754931,0.06463022,-0.1219193
1.112402,-0.1963135,0.282032,0.731986,-0.7055257,-0.1506985
1.166522,-0.2047286,0.07855273,1.034278,-1.551538,-0.3391371
1.272274,-0.1995528,-0.2757076,0.5847234,-2.239578,-0.6297125
1.269352,-0.1850646,-0.6241508,-0.1185205,-2.313711,-0.7055346
1.234739,-0.1949501,-0.6975363,-0.7561258,-1.433797,-0.6284686
1.177338,-0.1861805,-0.6273227,-0.9422336,-0.2601381,-0.5078064
1.175521,-0.129718,-0.5976325,-0.5793054,0.6533069,-0.3075433
1.197754,-0.09453324,-0.451639,-0.2976455,0.7568605,-0.0003302078
1.129362,-0.09874823,-0.2782719,-0.3263654,0.4895966,0.3200896
1.090205,-0.123453,-0.2380782,-0.3863507,0.4628846,0.454397
0.9710124,-0.1156076,-0.1920365,-0.3658396,0.3995099,0.5214863
0.8082103,-0.1199495,-0.179694,-0.3045176,0.6139402,0.6349806
0.756941,-0.1530172,-0.2213231,-0.22187,0.9460567,0.6012154
0.6309762,-0.1524422,-0.182557,-0.3056438,0.8829128,0.4693498
0.5730976,-0.1580959,-0.1594753,-0.4720481,0.6350981,0.3845917
0.675489,-0.1601375,-0.09791836,-0.4697592,0.2842869,0.3192687
0.70153,-0.1781976,0.02401398,-0.4113019,-0.08924972,0.294781
0.7452198,-0.222105,-0.002320322,-0.3048225,-0.2253427,0.2050318
0.8182322,-0.2258693,-0.05948441,-0.1748562,-0.08036727,0.03792764
0.8383068,-0.2398647,-0.05055318,-0.0767991,0.1327541,-0.03656343
0.8878797,-0.2213997,-0.05554749,0.0360664,0.3344723,-0.09843429
0.862965,-0.1513839,-0.01079583,0.1020355,0.3989202,-0.1353531
0.8240663,-0.1369667,0.05398269,0.1287756,0.1759724,-0.1206096
0.8808871,-0.1298696,0.0642066,-0.03492321,-0.04604863,-0.1741175
0.9294619,-0.09871474,0.05829913,-0.3186394,-0.2593899,-0.2130978
1.064371,-0.07603524,0.05054252,-0.3621194,-0.4983498,-0.2208999
1.231745,-0.06691615,0.009568832,-0.3168912,-0.4225365,-0.1529459
1.376207,-0.07429522,-0.07888466,-0.4396289,0.1993871,-0.002520184
1.551551,-0.04766374,-0.1326509,-0.7265283,1.351439,0.06066834
1.457674,0.0162738,-0.04115562,-0.9224594,1.792305,0.1493925
1.209206,0.05480928,0.1113218,-0.7191737,0.2285978,0.4077344
1.137939,-0.06646132,0.09863334,-0.3824347,-2.11028,0.7614636
1.143396,-0.4174772,-0.2257468,-0.25822,-2.688996,0.9224936
1.221839,-0.7609829,-0.7423455,-0.2593034,-0.391773,0.6279839
1.271283,-0.8064352,-0.9443289,-0.2893851,2.924758,0.04963871
1.178946,-0.5107824,-0.6324444,-0.3372622,3.932735,-0.3817999
0.9725736,-0.1498786,-0.301053,-0.3166263,2.175201,-0.3053143
0.630931,-0.08528486,-0.07169785,-0.03139351,-0.1039155,-0.1323917
0.494159,-0.2946223,0.2086375,0.5349711,-1.95588,-0.3018645
0.62976,-0.4385224,0.2197487,0.917623,-3.124557,-0.3677093
0.7368059,-0.350785,-0.04737058,0.8048637,-2.799687,-0.5342325
0.898494,-0.2052076,-0.3169367,0.548295,-1.57621,-0.8604937
0.9764739,-0.06183167,-0.4866139,0.4589817,-0.07352335,-0.5780672
0.880595,0.1152983,-0.3904975,0.4884955,1.211627,-0.153281
0.90669,0.1158348,-0.2147237,0.5178161,0.7838902,-0.02260917
0.9192302,0.02726786,-0.1353459,0.367141,-0.02176073,0.1006915
0.8644557,0.03571871,-0.04704994,0.1720206,0.04381916,0.04891144
0.9265572,0.02938857,-0.08736907,0.1389493,-0.2745513,0.07498482
0.9511675,0.05951986,-0.1217574,0.02662376,-0.008127282,0.2438667
0.9244657,0.08439219,-0.05708222,-0.1135697,0.5610255,0.2942563
0.9084895,0.03275505,-0.07046127,-0.08677678,0.3012452,0.4351905
0.8630889,-0.0191857,0.009674533,-0.03220551,0.3152899,0.5473246
0.8991147,-0.1222372,0.0771976,0.1455622,-0.07750724,0.5254446
1.023168,-0.1868376,0.02017695,0.4347797,-0.6954954,0.4214823
1.177672,-0.1736079,-0.007301051,0.5253959,-0.5141973,0.2206043
1.283213,-0.1792392,-0.1523098,0.3996178,-0.06486759,0.1472811
1.267931,-0.2007364,-0.2583445,0.2932244,0.6463173,0.07964107
1.229004,-0.2411674,-0.1081235,0.3599741,0.7491631,-0.1711613
1.165683,-0.2387851,0.1185986,0.665713,0.2878394,-0.3854502
1.119992,-0.2029177,0.2467444,1.23044,0.06611561,-0.4717242
1.170079,-0.1480244,0.1132462,1.459189,-0.5741327,-0.5849992
1.176767,-0.01844942,-0.2342137,0.7405902,-1.225483,-0.7269813
1.123366,0.06156153,-0.5545759,-0.3077316,-1.353482,-0.6563886
1.07193,-0.0019517,-0.6583905,-0.9472119,-1.149446,-0.5218113
1.058325,-0.1255658,-0.6088988,-1.12171,-0.685967,-0.5768283
1.162268,-0.1920437,-0.5768104,-0.8680825,-0.05379781,-0.514346
1.259465,-0.184071,-0.453583,-0.5319274,0.5327693,-0.1998005
1.21432,-0.1649678,-0.3270429,-0.4380492,0.5959147,0.1706171
1.099064,-0.1371677,-0.2813324,-0.4415854,0.5415812,0.4128037
0.9596694,-0.0984269,-0.1799417,-0.4597098,0.5965447,0.4866792
0.816355,-0.09695135,-0.1915208,-0.4733705,0.5945396,0.6340607
0.7394038,-0.130665,-0.226596,-0.4829484,0.8661535,0.6860349
0.6789057,-0.1262879,-0.157744,-0.5980841,1.060278,0.5054637
0.5979232,-0.1197851,-0.1314613,-0.7010846,0.9975851,0.414
0.5965399,-0.1375855,-0.03513366,-0.6765449,0.6333027,0.3208966
0.6378892,-0.1396498,0.002811131,-0.5994348,-0.0341679,0.2303318
0.7140477,-0.2189668,-0.04172283,-0.4799364,-0.3740591,0.1824326
0.836244,-0.3065616,0.02612749,-0.2699196,-0.380467,0.01937675
0.8369984,-0.2775351,0.01096008,0.004795331,-0.1297575,-0.03218987
0.8201896,-0.2326397,-0.01429207,0.1744556,0.2193985,-0.05693977
0.8925573,-0.1871794,0.03200187,0.1986575,0.2092102,-0.1340162
0.8783063,-0.1254974,0.0132781,0.1119305,0.03026268,-0.1001687
0.8881459,-0.1122158,0.04145895,-0.1072869,-0.1728751,-0.1247021
1.041869,-0.1153947,0.09895455,-0.2317365,-0.410587,-0.1409948
1.156782,-0.0946716,0.1203444,-0.1667984,-0.5596669,-0.1035971
1.21951,-0.09252951,0.05290023,-0.1609597,-0.4693152,-0.06598296
1.35006,-0.06661588,-0.1272454,-0.3486304,0.155306,0.06292749
1.458437,0.003653465,-0.1888206,-0.602662,1.167517,0.1525624
1.415695,0.05032975,-0.06400823,-0.6682265,1.399676,0.2813817
1.311671,0.0766894,0.04887612,-0.4620909,-0.0448075,0.6167252
1.241463,-0.08170057,-0.03885767,-0.204713,-1.824176,0.9392059
1.214772,-0.4679555,-0.3255026,-0.1517338,-1.786398,0.9597158
1.198466,-0.7631901,-0.6141842,-0.188953,0.527517,0.5969645
1.068787,-0.8011232,-0.6331668,-0.08148254,3.297204,-0.009322889
0.9119846,-0.550377,-0.3126007,0.0268103,3.610321,-0.4567202
0.7896303,-0.1873719,-0.03704967,-0.01031415,1.234224,-0.3579569
0.6164186,-0.02901318,0.02364406,0.008331403,-1.180623,-0.04840198
0.5860311,-0.07675667,0.05545628,0.2872073,-2.274343,0.04277136
0.7133601,-0.2294253,0.04905518,0.6070781,-2.423294,-0.004194913
0.8617964,-0.3689896,-0.08419209,0.5690258,-2.11061,-0.2895289
0.9840939,-0.3317374,-0.3605341,0.2048041,-1.322854,-0.6964077
0.9028642,-0.137847,-0.4785787,-0.004684272,-0.00301113,-0.7844625
0.813923,0.03830316,-0.3169699,0.2836776,0.6152606,-0.4162893
0.890331,0.0514118,-0.2024749,0.5837919,0.1900249,0.02286473
0.9105213,-0.05115396,-0.1126587,0.4192965,0.06493537,-0.05629483
0.9278878,-0.09823788,-0.0514092,0.3093123,0.1023535,-0.2273453
0.9730758,-0.04435571,-0.08939745,0.3429027,0.05793958,-0.09144444
0.9488925,0.02257516,-0.06900303,0.103942,0.3943696,-0.05365424
0.9385296,0.06515427,-0.05627311,0.007440372,0.4046298,0.1270466
0.9256096,0.04830491,-0.008607441,0.2324108,-0.05745625,0.3781104
0.9190407,-0.03952726,0.1354795,0.513352,-0.5070704,0.354107
1.001967,-0.09436659,0.1790598,0.8793409,-0.7379339,0.3046411
1.147123,-0.0962066,0.04954164,0.9608123,-0.4224216,0.09581376
1.314278,-0.07513029,-0.1321055,0.5882442,0.1216189,-0.1459921
1.350527,-0.05410718,-0.1693507,0.2282637,0.5958473,-0.21474
1.220611,-0.06526663,-0.09012012,0.1339459,0.5599015,-0.3724094
1.180543,-0.1247487,-0.07920332,0.2437133,-0.2673218,-0.6067958
1.296351,-0.2908741,-0.2072864,0.177374,-0.7996084,-0.9143547
1.381312,-0.3971871,-0.4714505,-0.2597854,-0.740798,-1.086422
1.290537,-0.2814671,-0.6316873,-0.5616109,-0.5398392,-0.9288775
1.146551,-0.1694163,-0.4952062,-0.228096,-0.223912,-0.6592051
1.142274,-0.1788858,-0.3695178,0.2006785,0.002562547,-0.2987372
1.190722,-0.1762016,-0.4319591,0.02502623,0.0972519,0.06970916
1.207501,-0.1324814,-0.3533851,-0.05695405,-0.00677471,0.3880681
1.135181,-0.1170059,-0.1866371,0.07601177,0.001497361,0.6987742
0.9823155,-0.1352289,-0.2259229,-0.2898809,0.2403205,0.7509103
0.884479,-0.1516275,-0.2416749,-0.4828907,0.5420452,0.5812186
0.7337144,-0.1574593,-0.1817726,-0.2491087,1.169419,0.4898258
0.5541612,-0.1597577,-0.1870357,-0.1842835,1.360733,0.4099345
0.5119944,-0.1707465,-0.09917025,-0.2855169,0.9572425,0.2761471
0.520464,-0.1717431,0.02760601,-0.3915472,0.572845,0.2127511
0.5888365,-0.1879448,0.07615173,-0.2519783,-0.1136249,0.1206028
0.7193835,-0.2433521,0.07802534,-0.09414494,-0.5906993,-0.07860169
0.7978006,-0.2642331,0.0327508,-0.06854652,-0.4493127,-0.2049961
0.8242791,-0.2326863,-0.003274549,0.1259087,-0.06365995,-0.2104265
0.8296901,-0.1872077,-0.01674066,0.2610466,0.4318787,-0.2102786
0.8244266,-0.1404289,0.02129266,0.2705681,0.525531,-0.1939682
0.8094252,-0.08002613,0.1005244,0.1865376,0.06694455,-0.1338422
0.8472706,-0.03439473,0.1203076,-0.02788931,-0.5151593,-0.1145463
1.005808,-0.05141656,0.1001068,-0.2477313,-0.9754209,-0.1513096
1.270522,-0.05501643,0.02233187,-0.4323194,-1.041984,-0.1536187
1.530591,-0.01500645,-0.1300916,-0.480623,-0.2425076,-0.01076581
1.591069,0.01535473,-0.2029274,-0.7488854,1.208506,0.1715586
1.444177,0.04796762,-0.1127788,-1.139434,1.798471,0.208065
1.242879,0.01756626,-0.005404178,-1.008463,0.4811834,0.3682854
1.147789,-0.2374887,-0.06566591,-0.6275889,-1.726866,0.7692185
1.235604,-0.6837605,-0.3654347,-0.243829,-2.545901,0.964115
1.312371,-0.8994316,-0.7634669,0.006968532,-0.4792111,0.7370251
1.250423,-0.6853777,-0.8163187,-0.04759465,3.08421,0.08996885
1.08228,-0.4034406,-0.4789843,0.01164715,4.46593,-0.6806985
0.7849432,-0.1795763,-0.1588687,0.1042232,2.386198,-0.7593189
0.5404412,-0.06916696,0.1445319,0.1679268,-0.3054552,-0.3553731
0.5345412,-0.2324258,0.287444,0.6534375,-1.63703,-0.3838941
0.674556,-0.2986232,0.07555421,1.090888,-2.330612,-0.5233549
0.8672582,-0.1787999,-0.1607899,0.993938,-2.433331,-0.6165898
0.9629321,-0.1039502,-0.3995272,0.7106795,-1.47503,-0.8482065
0.8931465,0.06464167,-0.5351748,0.4809359,-0.02977998,-0.5833589
0.8659858,0.1284757,-0.2964268,0.4693748,0.9752356,-0.1346202
0.8641338,0.02190587,-0.05371259,0.5488064,0.8561668,-0.02033702
0.7906636,0.01109029,-0.006971915,0.4384003,0.2174622,0.1065483
0.7821766,-0.02956292,0.002878905,0.3813447,-0.1296737,0.1069539
0.8315213,-0.05315828,-0.01174298,0.4031351,-0.4915552,0.05447958
0.866069,-0.002984035,-0.01930971,0.284769,-0.4492158,0.1263239
0.8730602,0.006641955,-0.02538153,0.1348554,-0.05698197,0.173599
0.8649251,0.05418528,-0.04132052,0.09298206,-0.03852303,0.3537124
0.8822016,0.03754634,-0.03655763,0.2753246,-0.1189959,0.5217581
0.9234137,-0.07581003,-0.0256688,0.644082,-0.485087,0.4853966
1.120645,-0.1540805,-0.02379024,0.9536393,-0.7791742,0.284501
1.369255,-0.1733315,-0.05503934,0.9542999,-0.4437462,-0.01290094
1.365542,-0.09275393,-0.1706519,0.5057813,0.2399434,-0.1433648
1.328714,-0.0190192,-0.2723532,0.01152586,1.206856,-0.2129177
1.325612,-0.02787147,-0.1128,0.04834638,1.319593,-0.3538127
1.142356,-0.07307851,0.163572,0.4163743,0.2086042,-0.388174
1.109184,-0.2018062,0.164442,0.5668642,-1.16197,-0.5738286
1.273523,-0.3154156,-0.1225798,0.3434194,-2.158042,-0.9876383
1.276963,-0.2927488,-0.5242153,-0.1589275,-1.65144,-1.106685
1.191688,-0.2272432,-0.7354666,-0.5146361,-0.4441938,-0.8977486
1.113978,-0.193123,-0.5921193,-0.3380143,0.1655045,-0.6757226
1.12418,-0.1522152,-0.4761264,-0.1306268,0.6012616,-0.3554052
1.188613,-0.09799414,-0.4271895,-0.2511471,0.2603141,0.08516949
1.129928,-0.08167117,-0.2483234,-0.2638245,-0.2109186,0.3665922
1.121751,-0.09095241,-0.2193427,-0.2718413,0.0729823,0.4617557
1.082835,-0.09861387,-0.2727348,-0.4122347,0.1286898,0.6130258
0.8853209,-0.1162268,-0.2274904,-0.2936135,0.542914,0.6955076
0.7407908,-0.1490636,-0.2534756,-0.2025198,1.099575,0.5431915
0.6428813,-0.1860157,-0.2345041,-0.3700159,1.019244,0.3893694
0.5969102,-0.1843943,-0.1365687,-0.4000896,0.8959947,0.277665
0.562374,-0.1674691,-0.04622222,-0.2423029,0.277366,0.2154855
0.5623961,-0.1719861,0.06593848,-0.06568433,-0.346706,0.2198225
0.699145,-0.1815101,0.06613617,-0.02912065,-0.5185632,0.08848523
0.8070557,-0.2070051,0.007430386,-0.0261747,-0.5837736,-0.04135147
0.8901361,-0.2162771,-0.02606093,0.1279957,-0.03821045,-0.03151441
0.9056536,-0.1731994,-0.0605523,0.2038268,0.4367911,-0.008263848
0.8436334,-0.1117978,0.005895416,0.2762474,0.4711551,0.00665086
0.860947,-0.07132915,0.09185664,0.350072,0.2067152,-0.02670271
0.8688944,-0.05276612,0.09779142,0.00638248,-0.4250268,-0.06765239
0.9475575,-0.0481629,0.05860712,-0.4703665,-0.8188637,-0.08190696
1.154931,-0.08659541,-0.01681053,-0.5376599,-0.9659774,-0.09486009
1.417401,-0.1380309,-0.09492295,-0.4236047,-0.5184123,0.02404851
1.660543,-0.1326082,-0.1602467,-0.4967834,0.5485379,0.2198753
1.639308,-0.07877898,-0.144253,-0.5533793,1.325663,0.2975694
1.432642,-0.06030748,-0.06030882,-0.446178,1.061737,0.4140003
1.216778,-0.218454,-0.07526669,-0.3492014,-0.4788239,0.7183049
1.085238,-0.5437428,-0.292815,-0.2168123,-1.408619,0.864717
1.119131,-0.7627555,-0.6105273,-0.07598801,-0.1590577,0.6161052
1.094942,-0.6830104,-0.6519654,-0.04047576,2.049833,0.1324695
0.966627,-0.3755681,-0.3885352,-0.03607515,2.888776,-0.357989
0.8019437,-0.03565205,-0.1914417,-0.05321488,1.545155,-0.4302989
0.6438892,0.03180203,-0.05788703,0.008232201,-0.4070648,-0.1845451
0.6759366,-0.2276805,0.07055154,0.3236115,-1.796051,-0.2235217
0.7791697,-0.3777399,0.05617649,0.7565529,-2.127014,-0.3871417
0.8719366,-0.2768637,-0.1832774,0.8219507,-1.553746,-0.5567584
0.973693,-0.1481623,-0.5037204,0.4464601,-0.6524685,-0.7692804
0.8890634,0.02201999,-0.4879292,0.2521741,0.7049754,-0.5621987
0.7756283,0.1259278,-0.2530347,0.3503672,0.9895675,-0.1669054
0.8097767,0.06873637,-0.1541512,0.3460626,0.07086028,0.04954392
0.8068671,0.04855935,-0.08362914,0.2431722,-0.1325534,0.160056
0.8207727,0.007791918,-0.09290135,0.186403,-0.3671857,0.09060168
0.9084197,-0.09099448,-0.1397305,0.1889782,-0.5517392,0.1240417
0.9481419,-0.04728953,-0.1156689,0.1690695,-0.01952659,0.2255106
0.9789102,0.02074164,-0.156732,0.1286564,0.1251743,0.2288588
0.9725483,-0.01681444,-0.1171955,0.1453692,0.2432884,0.4395088
0.914832,-0.03777029,-0.01212115,0.2178181,0.2827104,0.6311749
0.922052,-0.09071185,0.033227,0.3726757,-0.1333493,0.6090847
1.01184,-0.155029,0.07935488,0.4794822,-0.3240091,0.4380593
1.182282,-0.1027554,-0.003712781,0.3952386,-0.4631739,0.1693096
1.284191,-0.08590402,-0.1516263,0.2349261,-0.1155345,0.09828596
1.20782,-0.1651772,-0.1927655,0.06049288,0.4464574,0.08814044
1.164529,-0.2343064,-0.08055848,-0.01575468,0.3093779,-0.07942536
1.191996,-0.2839543,0.10485,0.3340323,0.140445,-0.3470546
1.208155,-0.2889177,0.05631175,0.9367137,-0.2283002,-0.6679868
1.241861,-0.2508463,-0.2269731,1.01167,-0.8244298,-0.9158268
1.181958,-0.1667944,-0.5448267,0.2870326,-0.9570278,-1.025942
1.052984,-0.07499138,-0.6795177,-0.5772163,-0.880974,-0.8922968
1.039251,-0.07823793,-0.5438233,-0.80922,-0.6851237,-0.6726464
1.129654,-0.1031887,-0.4949133,-0.6500181,-0.20723,-0.4642684
1.248857,-0.09358413,-0.4822683,-0.7087456,0.4264254,-0.05863147
1.288799,-0.1043513,-0.3438203,-0.6883768,0.5988055,0.1691462
1.161636,-0.08861058,-0.2977103,-0.5644766,0.4986602,0.2522227
1.001025,-0.05305808,-0.2121754,-0.6218587,0.7526777,0.6168866
0.9365584,-0.07336628,-0.1704825,-0.5950139,0.7714711,0.7495247
0.8893613,-0.108442,-0.2553367,-0.6389008,0.811738,0.5738389
0.7579746,-0.1395826,-0.1817517,-0.7607384,1.090505,0.5350226
0.6398346,-0.1846662,-0.1343247,-0.6343386,0.9246752,0.4518871
0.6248886,-0.2002342,-0.09883555,-0.4480854,0.6171402,0.3290671
0.6247807,-0.2086679,0.02911933,-0.303399,0.1372155,0.2614685
0.6765416,-0.2267337,-0.007291693,-0.2683552,-0.3837317,0.119765
0.7954067,-0.2265405,-0.03434871,-0.2805637,-0.3535907,0.02627215
0.8499738,-0.2212771,-0.01519868,-0.1120198,-0.09577992,0.01517766
0.8604036,-0.1984591,-0.0775565,0.03744715,0.2693668,0.00951904
0.8510516,-0.1699371,-0.04449454,0.1112581,0.4182408,0.003850839
0.8367688,-0.1345939,0.03705497,0.1432341,0.02305281,-0.0189519
0.8698711,-0.0998024,0.09353971,-0.02281131,-0.3696426,-0.03320109
0.9382331,-0.1300666,0.0874187,-0.2854686,-0.5942337,-0.1029718
1.065707,-0.1556347,0.01893286,-0.4102252,-0.7017408,-0.1929471
1.202601,-0.1370653,-0.02104113,-0.2401905,-0.6759617,-0.1417101
1.31734,-0.129358,-0.1235069,-0.1215078,-0.2141552,-0.01965948
1.416943,-0.0652017,-0.1563261,-0.4948759,1.016085,0.05882304
1.404938,0.08739955,-0.04253889,-0.8731992,1.748089,0.1402945
1.313872,0.1786218,0.008357998,-0.7926043,0.7139744,0.3874978
1.2206,-0.01867738,-0.02907874,-0.5390617,-1.308294,0.8334551
1.18721,-0.4737112,-0.34341,-0.3521789,-2.216249,1.042059
1.219875,-0.7860644,-0.798966,-0.3066926,-0.166455,0.7143684
1.16878,-0.7139865,-0.7803873,-0.3761433,3.134349,0.1231013
1.039408,-0.4476355,-0.4638847,-0.410008,3.721357,-0.3849718
0.8182227,-0.2088925,-0.2295054,-0.40526,1.767222,-0.4583706
0.5640007,-0.07959795,0.04883433,-0.2543549,-0.2746274,-0.2714391
0.5794257,-0.1640486,0.2037567,0.1853141,-1.917177,-0.3445507
0.7844225,-0.2970587,0.1087733,0.5856081,-2.518792,-0.4147579
0.9900702,-0.253666,-0.1082549,0.5831782,-2.04142,-0.5043622
1.117581,-0.1583088,-0.4683577,0.1959314,-0.8974459,-0.7397872
0.9895277,0.005834817,-0.6344555,-0.1470902,0.9875135,-0.4709045
0.8148904,0.1014228,-0.3533031,0.01292221,1.534494,-0.03224415
0.7735479,-0.04512615,-0.07090607,0.2007808,0.3139517,0.054725
0.748323,-0.1056174,-0.01812283,0.07875499,-0.441088,0.1121704
0.8486426,-0.1005053,-0.04611956,0.1810336,-0.7617955,0.0645627
1.014426,-0.1119651,-0.1167508,0.323091,-0.8328492,0.0104424
1.043185,-0.01797871,-0.1839194,0.2285928,-0.219832,0.09593384
1.010367,0.02804248,-0.2102907,0.1553079,0.3785673,0.1733705
0.9806289,0.02235291,-0.1649057,0.04534157,0.6151415,0.3544429
0.9402461,-0.08997781,-0.01295234,0.109936,0.2657763,0.4715176
0.8858949,-0.2480518,0.1370981,0.4553724,-0.3755311,0.4127096
0.9288124,-0.2080263,0.1133385,0.7242922,-0.6034304,0.3084723
1.157683,-0.1121623,-0.08141369,0.7668419,-0.5932602,0.1163132
1.337235,-0.05909367,-0.2226204,0.5371037,-0.1263572,0.00105837
1.288961,-0.0659505,-0.212437,0.2165078,0.6558271,0.00418624
1.159249,-0.1260953,-0.107519,0.02777889,0.8350227,-0.143964
1.106229,-0.1445147,0.102228,0.2949739,0.4568848,-0.3567657
1.087496,-0.1803055,0.272316,1.028223,-0.2231491,-0.4044109
1.090487,-0.2256153,0.2031144,1.322742,-1.053673,-0.5247364
1.161482,-0.2712498,0.004197626,1.004081,-1.533357,-0.8366036
1.206642,-0.2813745,-0.2432124,0.5113543,-1.382439,-0.9557375
1.213344,-0.1859366,-0.6112219,-0.1065919,-1.120465,-0.8444381
1.113256,-0.1490888,-0.762693,-0.513875,-1.060918,-0.7926898
0.9721758,-0.2313542,-0.5846391,-0.476787,-0.5634691,-0.744237
1.070966,-0.2736217,-0.4935208,-0.09337742,0.07788683,-0.4532322
1.176712,-0.1497702,-0.3621249,0.2404421,0.3409615,0.07219597
1.139146,0.01823222,-0.2254954,0.1765487,0.339041,0.4293498
1.122526,0.004020334,-0.3315402,0.05421556,0.1838534,0.4126263
