accx,accy,accz,gyrox,gyroy,gyroz
0.8353731,-0.3265369,0.0564961,0.2620335,0.4383978,-0.2549542
0.8276316,-0.1622314,0.1306352,0.4201476,0.1008414,-0.2575691
0.933931,-0.07374619,0.07746477,0.440655,-0.0979879,-0.1293863
1.084434,-0.09737089,0.04109758,0.4137479,-0.1222489,0.01136999
1.173206,-0.04904923,0.01473728,0.2932973,0.06247514,0.0398569
1.137301,-0.03689158,-0.03237388,0.03604009,0.2882617,0.02147021
1.03602,-0.04376512,0.01770625,-0.2843768,0.4863458,0.007774512
0.9084083,-0.03790014,0.09450231,-0.4309219,0.5977266,-0.05592759
0.8005387,-0.07490051,0.1372717,-0.3855689,0.3880473,-0.02213766
0.7929956,-0.09101255,0.1882408,-0.4290828,0.2338405,0.1183399
0.8019836,-0.1234894,0.1981064,-0.4075325,0.1780381,0.1733777
0.8159521,-0.1203849,0.1788277,-0.3068076,0.05467037,0.2043805
0.8900396,-0.08057494,0.1459594,-0.3969728,0.1281322,0.1780471
0.896507,-0.09658137,0.1290226,-0.4661365,0.1236255,0.118229
0.862583,-0.09947725,0.1623919,-0.5084434,0.08508141,0.1512288
0.8601201,-0.1162771,0.18223,-0.5356063,0.1438078,0.1477875
0.817092,-0.1182987,0.2185359,-0.3350346,0.02819585,0.1523163
0.7965392,-0.06857111,0.2457885,-0.1329312,-0.106413,0.1700603
0.8395772,-0.06262293,0.2039715,-0.09142515,-0.2260279,0.1407029
0.9300061,-0.08543806,0.1737002,-0.1354528,-0.2102285,0.1606451
1.049431,-0.1247905,0.1616331,-0.1398074,-0.09458785,0.1278418
1.090917,-0.1328992,0.167938,-0.09569546,-0.1099425,0.03664794
1.099324,-0.09559449,0.2248712,-0.1412681,0.002857391,-0.05237639
1.147743,-0.02231453,0.3438471,-0.2219429,-0.03138369,-0.105606
1.145491,0.1581707,0.4681914,-0.4455455,-0.5047256,-0.03966498
1.166457,0.2235004,0.411325,-0.674924,-0.843957,0.07453221
1.363746,-0.009516461,0.1621942,-0.5442953,-0.4796912,0.3945391
1.515224,-0.3242019,-0.01885243,-0.3751411,0.3433751,0.7636771
1.293071,-0.5243271,0.0889554,-0.1665256,0.8500746,0.518192
0.9124558,-0.551936,0.2425225,0.4187753,0.8912184,-0.07300944
0.7783607,-0.4248632,0.124341,0.734265,0.412885,-0.3723751
0.8191554,-0.2498224,-0.01354797,0.4228977,-0.3003441,-0.4724147
0.9451208,-0.1608372,-0.1032016,0.159736,-0.3382984,-0.4277102
1.185986,-0.1720776,-0.1949331,0.03872373,-0.04770066,-0.3286468
1.263306,-0.2020939,-0.05953459,-0.1180735,0.1529711,-0.3491408
1.121448,-0.231818,0.04988013,-0.04057606,0.4056888,-0.3760944
0.972025,-0.2298035,0.06156246,0.1223432,0.2408143,-0.4782464
0.8174117,-0.2176383,0.1506827,0.2986534,-0.1036112,-0.5206697
0.7473066,-0.2278788,0.1083872,0.5314885,-0.2486288,-0.4104779
0.8026448,-0.1848172,0.06872059,0.5632735,-0.404107,-0.3497553
0.822819,-0.102199,0.05678905,0.5872087,-0.3968001,-0.1550476
0.8303038,-0.04030243,-0.03460503,0.5823633,-0.2600169,0.01043296
0.894278,-0.02616973,-0.002241694,0.3971252,-0.1674018,0.01764582
0.9535004,-0.04038864,0.02620515,0.35597,-0.08735714,0.108307
0.9791145,-0.02450212,0.03701599,0.3867513,-0.1113042,0.102947
0.9738508,-0.008793097,0.1134117,0.3921904,-0.1786814,0.06951913
0.9635255,0.03348714,0.1065107,0.3931549,-0.2177209,0.09216304
0.9888402,0.1087486,0.09423414,0.2428511,-0.2119618,0.08534436
1.002004,0.1163091,0.1099893,0.03581137,-0.0825907,0.1637847
0.9876422,0.08552247,0.1217008,-0.1202823,0.06429529,0.2364808
0.9708402,0.05373334,0.1623013,-0.1193589,0.1067445,0.309929
0.9396921,0.01842484,0.1856745,-0.008097489,0.01137683,0.365325
0.9506868,-0.0005929159,0.185875,0.0519511,-0.08890255,0.3316474
0.9885258,-0.03784824,0.1652615,0.08576595,-0.01764355,0.2883247
1.009076,-0.07398018,0.1419138,0.06626801,0.05391683,0.1306249
1.04634,-0.05698394,0.1463972,0.04220606,0.1206474,-0.06122842
1.079676,-0.01765851,0.1856934,0.04343573,0.27392,-0.1334916
1.1225,-0.01449151,0.2558405,0.1439865,0.262349,-0.170436
1.16867,-0.0199904,0.3032114,0.2895692,0.01848002,-0.255751
1.192976,0.01630427,0.286763,0.06970545,-0.3566047,-0.4505612
1.236047,0.06618984,0.1781402,-0.3705796,-0.6299019,-0.5794073
1.272816,0.08033819,-0.01979574,-0.6780316,-0.6001594,-0.4423039
1.275098,-0.04290991,-0.1868582,-0.7556755,-0.4384578,-0.2598688
1.229081,-0.2898916,-0.1911855,-0.490898,-0.02915124,-0.2455377
1.147586,-0.4385549,-0.06021123,-0.1146891,0.573073,-0.2637438
1.080656,-0.3951744,0.09930632,0.2711788,0.6161984,-0.2601011
1.020977,-0.2473354,0.187275,0.5559289,0.1054423,-0.2681868
1.025454,-0.08849779,0.1359629,0.4388433,-0.1935228,-0.1517064
1.115075,0.009469674,0.06641069,0.2362399,-0.1416411,0.03071226
1.161722,0.01585477,0.04877831,0.09910615,0.007548439,0.1497248
1.093644,0.007754394,0.01919135,-0.2119268,0.1741944,0.2402317
0.9605765,0.02052647,0.04369452,-0.5214061,0.3466246,0.2373619
0.851628,-0.008471006,0.0970543,-0.6675198,0.4125155,0.1841694
0.7748608,-0.03000479,0.1399448,-0.6622619,0.2599028,0.1992244
0.7361614,-0.05835812,0.1902105,-0.6009464,0.1113273,0.2228595
0.7609194,-0.1154221,0.1662895,-0.5909552,0.08086473,0.2554331
0.7946304,-0.1063114,0.1583135,-0.5409378,0.03787743,0.3097435
0.8550269,-0.09650135,0.1846058,-0.5058356,0.03867401,0.2943127
0.909257,-0.102179,0.1648823,-0.5082512,0.06032005,0.2348466
0.8808027,-0.08095184,0.2017736,-0.4208725,0.08164597,0.1707946
0.8577787,-0.07550383,0.2513341,-0.2917106,0.1110083,0.07696477
0.8396921,-0.0497823,0.2651903,-0.1631895,0.07215468,0.0279051
0.81858,-0.03676106,0.2692298,-0.1078201,0.01882701,0.03750158
0.8732908,-0.07015233,0.2220743,-0.1294268,-0.1042479,0.07835039
0.931329,-0.1030311,0.1959011,-0.1031607,-0.2822415,0.1513129
0.9911962,-0.1538263,0.2093875,0.004539632,-0.2666535,0.1690683
1.143667,-0.205641,0.234897,0.2790735,0.001670935,0.1104011
1.262945,-0.1713555,0.288923,0.5321093,0.1932589,-0.01597789
1.253088,-0.0401548,0.3343939,0.4261807,-0.03534676,-0.06763532
1.294769,0.07152022,0.3179165,0.208995,-0.2075584,0.2412864
1.418331,0.0773362,0.2088364,0.05936039,0.2709803,0.5841103
1.408468,-0.04982942,0.1291172,-0.1488382,0.842421,0.4361126
1.214243,-0.2722037,0.1870755,-0.0210536,0.8189358,0.155601
0.9464089,-0.4194481,0.2767843,0.4191995,0.3409954,0.02455821
0.813685,-0.3986407,0.266971,0.5550229,-0.1916006,-0.1544312
0.8637253,-0.2770565,0.1188834,0.4691494,-0.4333094,-0.1237092
0.926129,-0.1619191,-0.07343762,0.1744515,-0.3373875,0.01197621
1.067116,-0.1206388,-0.1292055,-0.31854,-0.0259516,-0.06449932
1.189987,-0.156859,-0.03133604,-0.4567668,0.3914877,-0.1503695
1.085859,-0.2075499,0.07577876,-0.2675929,0.3768196,-0.3795561
0.9560331,-0.2175208,0.1889133,0.001607687,-0.114152,-0.5858969
0.8546657,-0.2287192,0.2358169,0.2795953,-0.4541212,-0.5220076
0.7868279,-0.2053671,0.1183758,0.4159992,-0.5869517,-0.4731901
0.8484202,-0.1390172,0.05288746,0.4646941,-0.5341672,-0.2913699
0.8617495,-0.1001006,0.043089,0.5001929,-0.3657181,-0.07401762
0.8397101,-0.04776527,0.009324458,0.4831673,-0.2564776,0.007878969
0.8749784,-0.02232684,0.04506483,0.4009,-0.1118949,0.1218304
0.8822447,-0.02399073,0.05915226,0.3982677,-0.1592858,0.150334
0.9104217,0.01200581,0.09582213,0.4393824,-0.2795093,0.2088042
0.9285358,0.05919006,0.1458474,0.4086752,-0.2924593,0.2439867
0.9015617,0.1321986,0.1111508,0.3367677,-0.3763953,0.1929823
0.9215212,0.1674109,0.1223693,0.1263934,-0.2724336,0.2682216
0.9523869,0.1512898,0.1300846,-0.05399228,-0.09756395,0.2928372
0.9839666,0.1221192,0.1140399,-0.1368417,0.00959161,0.3117405
1.009862,0.04577031,0.1460753,-0.2079334,0.09351248,0.350758
0.9973421,-0.004051272,0.1614769,-0.1266697,-0.03035919,0.2629164
1.030433,-0.02270491,0.1735942,-0.08893342,-0.04157212,0.1634961
1.094942,-0.01422246,0.1771399,-0.1480309,0.04914572,-0.006801594
1.154167,0.01878362,0.1930579,-0.154273,0.1066185,-0.1743071
1.239628,-0.04203269,0.24225,-0.1440908,0.2413498,-0.2338885
1.312523,-0.0948659,0.2497619,-0.04816739,0.1016465,-0.3198191
1.362844,-0.05802008,0.2117866,0.008302439,-0.275205,-0.443259
1.390369,-0.05694118,0.1107564,-0.1535246,-0.545845,-0.5300189
1.382097,-0.1146778,-0.05397551,-0.3131743,-0.4099079,-0.4242996
1.303934,-0.2562585,-0.1552227,-0.1707219,0.1429672,-0.2290034
1.158538,-0.4119289,-0.09147046,0.09056403,0.6203057,-0.2222143
1.062558,-0.3548381,0.05425202,0.2433248,0.7830054,-0.3240162
1.003978,-0.1341709,0.14804,0.4117071,0.3720875,-0.3679202
0.9865876,0.01717709,0.1408137,0.3923394,-0.2025168,-0.2312752
1.070985,0.02614836,0.02846628,0.07852888,-0.151161,0.06211065
1.113798,-0.04990647,-0.02919816,-0.224388,0.1164916,0.2170973
1.077587,-0.07565107,0.04563785,-0.3493573,0.3158954,0.1609463
0.9889063,-0.05530543,0.1014633,-0.3288878,0.3845067,0.120213
0.824408,-0.06637318,0.1091728,-0.4408623,0.2033762,0.1386597
0.7402766,-0.03946422,0.1084216,-0.5760865,0.1877536,0.1105733
0.7629777,-0.03320021,0.1293486,-0.5336321,0.195657,0.1532272
0.7826062,-0.0739847,0.1638575,-0.5572347,0.1053991,0.2887578
0.8227778,-0.09302428,0.1647265,-0.5098682,0.09104453,0.3026254
0.8729718,-0.139659,0.1687692,-0.4138206,0.04801445,0.2664488
0.881451,-0.1398178,0.1668428,-0.4507955,0.07765992,0.2514806
0.8552658,-0.09804418,0.1702322,-0.3996806,0.0844976,0.1907345
0.8228252,-0.08022116,0.1954903,-0.3234496,0.06293749,0.174685
0.8037229,-0.04814839,0.2042701,-0.2730258,0.07325731,0.1256309
0.812181,-0.0631399,0.2198133,-0.2479329,-0.01220463,0.03606687
0.8454651,-0.07544855,0.2288384,-0.2843531,-0.0391387,0.05730561
0.8884143,-0.06792202,0.2222741,-0.2067187,-0.1377458,0.1046735
0.9575713,-0.112187,0.1891063,-0.1137582,-0.3227421,0.1631596
1.056177,-0.151302,0.1603047,-0.001609255,-0.3075145,0.2275135
1.158921,-0.1580806,0.2475062,0.274781,-0.09177129,0.1269043
1.189925,-0.02278622,0.3751388,0.4234597,0.1773462,-0.1124295
1.114145,0.2469,0.4087743,0.157198,0.07920097,-0.2145163
1.139244,0.3323591,0.3399143,-0.3456427,-0.3229966,0.1016417
1.431975,0.1125754,0.1884297,-0.6191799,-0.4144921,0.6622056
1.67774,-0.1826025,0.05631975,-0.4700263,0.1115802,0.8317751
1.420058,-0.3956134,0.1132201,-0.05029645,0.8902318,0.4511977
0.9375572,-0.5377842,0.2774517,0.4389342,0.8881551,-0.004447644
0.7907181,-0.4703089,0.2821954,0.682224,0.2686771,-0.2650535
0.8120991,-0.2438833,0.1249947,0.4424391,-0.1009031,-0.3264813
0.8693906,-0.1377061,-0.0694405,0.03302814,-0.3096428,-0.1893042
1.067863,-0.0992379,-0.1393784,-0.09773789,-0.1449884,-0.03367274
1.178103,-0.147912,-0.04138961,-0.06569164,0.1922437,-0.05348192
1.140639,-0.254318,0.01896193,0.04563974,0.2024806,-0.1968274
0.9922493,-0.2068929,0.111782,0.259364,0.0902592,-0.3484493
0.8118009,-0.1889209,0.1795483,0.3614113,-0.2845859,-0.4030316
0.7833589,-0.2003018,0.07575138,0.4179458,-0.5002942,-0.3162826
0.8181424,-0.1439191,0.06924369,0.4865611,-0.3652971,-0.1871391
0.8428623,-0.1401256,0.08296453,0.555458,-0.3883818,-0.02341284
0.8604054,-0.08323208,0.0282686,0.5937371,-0.2540558,0.07627454
0.8876459,-0.04533099,0.04847289,0.4842736,-0.09574024,0.01668414
0.9295215,-0.05405927,0.04831314,0.436214,-0.07253219,0.03805993
0.9232363,0.0147781,0.09864631,0.4266724,-0.03309766,0.09380209
0.8982106,0.06298831,0.1726807,0.3676465,-0.2162578,0.09505183
0.8618706,0.1152043,0.1637953,0.325928,-0.321564,0.2152421
0.9013776,0.1395006,0.152086,0.1578473,-0.2567383,0.3010051
0.9714777,0.1234094,0.1304801,0.003145508,-0.1276448,0.3189529
0.9542436,0.1188967,0.1574877,-0.06252071,0.02561734,0.3539959
0.9912871,0.04076557,0.1924475,-0.08159695,-0.04530872,0.3168397
1.02057,0.01194045,0.1764263,0.007432542,-0.1122431,0.2650541
1.026124,0.001755094,0.1850349,0.07027986,-0.1053048,0.1458963
1.098681,-0.07160125,0.1801255,0.06823328,-0.06982061,-0.05377139
1.11278,-0.01893015,0.1881017,-0.08180098,0.09480511,-0.2165324
1.140345,0.04962875,0.2387931,-0.2456131,0.1817031,-0.3313516
1.210986,0.01816327,0.3001682,-0.0822597,0.08664442,-0.3398532
1.221965,0.0005653439,0.3420786,0.124905,-0.2203753,-0.3310833
1.264174,-0.02117848,0.301496,0.07064567,-0.6583735,-0.3827768
1.321686,-0.04525578,0.1476787,-0.1466779,-0.823868,-0.3824674
1.318168,-0.07975581,-0.1199482,-0.3732973,-0.4103794,-0.3364195
1.302704,-0.1979135,-0.2477838,-0.3408213,0.2934569,-0.2975818
1.227191,-0.3368899,-0.09823629,-0.07937494,0.7366721,-0.3204237
1.075066,-0.3516186,0.0650074,0.1115498,0.6779941,-0.3644589
0.9993152,-0.2077065,0.2009404,0.217086,0.1344794,-0.3136201
1.040012,-0.04340048,0.2481326,0.2218954,-0.3634004,-0.1635254
1.112327,0.02544474,0.08223071,0.09763935,-0.3198648,0.1382763
1.163693,0.0187644,-0.03443842,-0.06577608,0.04317876,0.4020789
1.13475,-0.001237605,-0.02880458,-0.2846091,0.3575339,0.3552107
0.9967217,0.001124526,-0.00808814,-0.531996,0.444528,0.2559332
0.8165168,-0.0111922,0.04229597,-0.8062861,0.4319955,0.2334735
0.7046701,-0.04514781,0.07125926,-0.9129136,0.4214582,0.1640893
0.7017445,-0.06927757,0.1423715,-0.7156498,0.296985,0.1935186
0.7384644,-0.1015885,0.2254781,-0.5738763,0.09510112,0.2573674
0.7627752,-0.1206452,0.2119193,-0.465987,-0.05256308,0.2316321
0.7997787,-0.1050416,0.1906995,-0.4019468,-0.03846638,0.2215678
0.8394958,-0.07810329,0.1717751,-0.5040449,0.06163681,0.1579779
0.8421268,-0.05455211,0.1731632,-0.4167827,0.1788007,0.06242471
0.8095076,-0.05177065,0.2075145,-0.3386605,0.2486292,0.04304058
0.7894842,-0.08583112,0.2142562,-0.3554308,0.100057,0.0305466
0.8415092,-0.1414272,0.2264221,-0.1851835,-0.06631835,0.03055932
0.9161181,-0.1525963,0.2190741,-0.02466515,-0.1357471,0.06726114
0.9840235,-0.1318091,0.2057434,0.1553949,-0.2507431,0.1275529
1.125167,-0.1175824,0.2300786,0.2996153,-0.225767,0.1357676
1.253415,-0.04310039,0.2802146,0.3227546,-0.04487415,0.00727958
1.265895,0.05270882,0.3410792,0.3360016,0.01481219,-0.02760606
1.301025,0.04540918,0.2779697,0.2153692,-0.01410178,0.3026347
1.385584,-0.09539394,0.148802,0.1390507,0.06459189,0.7334747
1.367088,-0.3045095,0.1504418,0.1916406,0.3510456,0.7033266
1.233021,-0.4225264,0.2339951,0.3549128,0.6288668,0.2730926
1.012855,-0.3892953,0.2924135,0.5832383,0.4517152,-0.1011088
0.834976,-0.3246075,0.2150129,0.4748074,0.0322945,-0.3012672
0.8788778,-0.2412756,0.02516158,0.2545495,-0.2122145,-0.2638723
0.9786691,-0.09972941,-0.1107055,0.1225,-0.309011,-0.1307361
1.044095,-0.05949413,-0.1559761,-0.1327706,-0.07974726,-0.06655724
1.147545,-0.1467176,-0.07362183,-0.2509931,0.3101045,-0.01319658
1.122395,-0.1842245,0.04333399,-0.2369533,0.4042788,-0.1518698
0.9693249,-0.1856341,0.07507621,-0.2161843,0.2357567,-0.3551578
0.8009586,-0.2067596,0.1325786,-0.08700029,-0.06894313,-0.3998495
0.6975434,-0.2120025,0.156116,0.0846647,-0.2533464,-0.3670245
0.7729889,-0.1975552,0.1116596,0.3680662,-0.3090589,-0.2122782
0.8255426,-0.1621833,0.1118206,0.6000567,-0.338575,-0.06211975
0.8315494,-0.08811179,0.07242524,0.5498459,-0.1456134,0.03130901
0.9350901,0.005285526,0.0225332,0.4286715,0.02025753,0.07684151
0.9253396,0.01966831,0.05573253,0.294358,0.007863427,0.05502392
0.8793864,0.01557163,0.1087612,0.19354,-0.1094267,0.1346443
0.9201433,0.07562892,0.1555267,0.212569,-0.3268903,0.1902844
0.876554,0.07822541,0.1683762,0.1380108,-0.3991383,0.2145123
0.8687523,0.08610655,0.1320333,-0.001811298,-0.3779469,0.2863809
0.9232295,0.1202877,0.1034603,-0.05218235,-0.2782376,0.2952014
0.9461339,0.07331926,0.1132677,-0.08473358,-0.06945039,0.3294799
1.012186,0.05748416,0.1222057,-0.1136372,0.0270359,0.319842
1.035435,0.03564091,0.1260252,-0.1516927,0.04995346,0.2273464
1.033565,-0.02977596,0.1596863,-0.1944436,0.01919518,0.0984856
1.071296,-0.02399457,0.175869,-0.2146446,0.009364775,-0.08684263
1.082584,-0.01771921,0.1796366,-0.2239537,0.1226169,-0.1868884
1.143431,-0.03737376,0.2373733,-0.08991622,0.1829262,-0.2396526
1.227685,-0.07821709,0.318351,0.1943698,0.02072063,-0.3067918
1.266559,-0.1194048,0.3284793,0.2944634,-0.3820887,-0.4546404
1.306742,-0.0526708,0.1765651,-0.08181816,-0.6652952,-0.6336605
1.356954,-0.003640037,-0.08423603,-0.5760469,-0.5226431,-0.4607879
1.414178,-0.1388215,-0.2386987,-0.5413067,-0.09052055,-0.2125242
1.352483,-0.3507962,-0.1710748,-0.193937,0.4543184,-0.2975831
1.181341,-0.4266529,0.01422172,0.1176316,0.6945497,-0.3340938
1.070687,-0.3156993,0.178721,0.4428693,0.2530443,-0.2668722
0.9984169,-0.1428143,0.2094834,0.4403804,-0.2680182,-0.2475676
1.004574,0.00432184,0.07074612,0.1867216,-0.2405459,-0.02130686
1.078609,0.05570016,-0.03460894,-0.03628662,-0.01170341,0.2464714
1.079061,-0.02030776,-0.02457463,-0.3225798,0.2062397,0.2926467
1.00107,-0.07616953,-0.009124585,-0.4270184,0.387548,0.3054241
0.8305633,-0.05128108,0.03627835,-0.5409236,0.3651314,0.2777927
0.673881,-0.07122621,0.09910311,-0.740391,0.2729856,0.1514484
0.6556657,-0.1091135,0.1629864,-0.6060017,0.1175503,0.1164019
0.7136827,-0.1082748,0.1963867,-0.523265,-0.002391055,0.1799022
0.8235725,-0.1262073,0.1604128,-0.505792,-0.03862885,0.2226937
0.9152163,-0.1176373,0.1707447,-0.3699436,-0.1051891,0.237839
0.9408083,-0.08190715,0.1837302,-0.4082638,0.03173082,0.1891052
0.910867,-0.06165732,0.1778146,-0.3137315,0.1847074,0.08533149
0.8344016,-0.03005675,0.2204278,-0.1891254,0.1886225,0.03302243
0.8070629,-0.02624004,0.2158726,-0.2315019,0.1952634,0.0190348
0.8199738,-0.0458328,0.2055591,-0.1614391,0.1039434,0.01938943
0.8785393,-0.07738465,0.2130051,-0.1668748,0.01555071,0.06665378
0.9806091,-0.1389872,0.1764961,-0.1362232,-0.1368726,0.1484704
1.021782,-0.1545011,0.1684618,0.0434113,-0.2417562,0.205186
1.097297,-0.1126481,0.2394063,0.2356251,0.04953133,0.1032557
1.206708,-0.04283674,0.3709205,0.3910623,0.2683194,-0.05515624
1.244657,0.03654757,0.4031527,0.2200881,0.05408895,0.003007924
1.431198,0.02015405,0.23987,0.05648261,-0.08949089,0.2677433
1.684567,-0.0682915,0.08735707,0.1641713,0.2488067,0.4865462
1.471082,-0.1753047,0.1156264,0.2600122,0.6527961,0.3511346
1.057611,-0.3762454,0.2259143,0.4390201,0.6512286,-0.002419358
0.9746583,-0.4759741,0.2524535,0.5810201,0.2950858,-0.193613
0.9024215,-0.3333981,0.1674632,0.5058384,-0.2072795,-0.2599717
0.8817033,-0.2012706,-0.01106243,0.2598903,-0.3534763,-0.1789309
1.09079,-0.1280855,-0.1749308,-0.09122852,-0.1199807,-0.06939168
1.205782,-0.0895132,-0.1749334,-0.3189724,0.1302904,-0.1975059
1.268131,-0.1646148,-0.06645412,-0.3484593,0.4122521,-0.3364647
1.126419,-0.218895,0.08457083,-0.1458203,0.3154887,-0.4664325
0.8179967,-0.2125243,0.1919615,0.1737557,-0.1179193,-0.5406384
0.7566989,-0.2123467,0.1557666,0.378593,-0.3178213,-0.4069696
0.7432716,-0.1887403,0.09389054,0.5434664,-0.4451814,-0.3150727
0.7843327,-0.1365837,0.05658807,0.7101496,-0.4423298,-0.1299595
0.8897485,-0.0570601,0.001661448,0.732438,-0.2477851,0.07232408
0.8714604,0.003832033,-0.007164215,0.5346451,-0.09823232,0.02918722
0.8955119,0.02585168,0.0409977,0.3178293,0.0568617,0.08089842
0.8904249,0.04733855,0.1083795,0.266988,-0.005102244,0.1874685
0.8673515,0.066214,0.1681958,0.3002653,-0.2142132,0.2206966
0.8941501,0.1024592,0.1758256,0.2912213,-0.3384464,0.286568
0.8939333,0.1414728,0.147433,0.1742443,-0.4335487,0.300616
0.9586259,0.1363364,0.1297087,0.05036685,-0.2557141,0.3295788
0.995583,0.09997052,0.1224805,-0.03960933,-0.03437255,0.360122
1.003501,0.0554892,0.1368801,-0.08884275,0.01037305,0.3684301
1.039778,0.03232174,0.1603297,-0.060513,0.05031919,0.3741214
1.041083,0.03812503,0.1708592,-0.1029176,-0.0847893,0.2195043
1.081813,0.03409986,0.1998268,-0.1885749,-0.1590286,-0.05095245
1.105941,0.02461355,0.2242826,-0.2232353,-0.02059065,-0.2505733
1.12113,0.01656415,0.2455838,-0.1730393,0.03811867,-0.2929769
1.211652,-0.03575918,0.3076873,0.02768768,-0.1026578,-0.3187628
1.264719,-0.08471992,0.3160977,0.1522435,-0.5000404,-0.4839054
1.276975,-0.07155182,0.1659899,-0.02440954,-0.7984856,-0.5873108
1.347585,-0.08690596,-0.1139498,-0.3346571,-0.6588505,-0.4882128
1.393074,-0.1673339,-0.3126102,-0.4064566,-0.1922968,-0.3379376
1.255613,-0.2929029,-0.2063481,-0.1761522,0.3625713,-0.2606792
1.074027,-0.4325296,0.004098753,0.1374615,0.596561,-0.2508086
1.043532,-0.3915212,0.09637639,0.3664045,0.3308342,-0.2801587
1.060406,-0.1734026,0.166298,0.3260819,-0.06373548,-0.2668429
1.088062,-0.03716533,0.1615248,0.1798569,-0.2310302,-0.0757412
1.164538,-0.01116729,0.1094445,0.03515869,-0.1561967,0.1998228
1.185235,-0.027074,0.05656066,-0.2681237,0.1528898,0.3421693
1.093289,-0.0356106,-0.06134229,-0.4526044,0.4381706,0.3420861
0.9239065,-0.02070958,-9.378646e-05,-0.5486286,0.4608403,0.3236733
0.744814,-0.06132319,0.1292195,-0.6885292,0.3958205,0.3041797
0.6441601,-0.07965266,0.1001635,-0.602649,0.2751188,0.2522604
0.6463882,-0.07987246,0.1412974,-0.530431,0.1582696,0.246716
0.6950342,-0.1214508,0.1716512,-0.5044116,0.05306954,0.2829826
0.7649653,-0.1141525,0.1522887,-0.3699407,-0.02748197,0.3056536
0.8421613,-0.09984896,0.1839715,-0.4084297,0.01550035,0.3107607
0.8761103,-0.07132888,0.1601373,-0.4190133,0.01843722,0.2662685
0.8797541,-0.0385551,0.1735855,-0.3119423,0.1027052,0.1924202
0.8721445,-0.05765996,0.2074603,-0.3054393,0.2075514,0.08692916
0.8607541,-0.05145042,0.2140137,-0.2715272,0.1950947,-0.009052146
0.8848168,-0.06876326,0.2564981,-0.2468136,0.2240648,-0.02959757
0.9219608,-0.09553697,0.2456482,-0.2014935,0.0482648,-0.005164091
0.987042,-0.08109335,0.219986,-0.09881403,-0.1510305,0.08908398
1.13213,-0.08205396,0.2252218,-0.03318211,-0.01869113,0.143927
1.240451,-0.05782363,0.2846381,0.05991988,0.0661379,-0.02388807
1.25552,-0.004806838,0.3638704,0.05270408,-0.101472,-0.1490128
1.372414,0.006834438,0.251859,0.005914228,-0.1852395,0.1716749
1.529401,-0.1435728,0.06443872,0.07609594,0.06223136,0.5859135
1.440297,-0.4211987,0.03975924,0.2214954,0.5241041,0.5111603
1.202215,-0.5292714,0.1538837,0.5435633,0.8503461,0.1660134
0.9526177,-0.3974364,0.2374452,0.7474497,0.5686066,-0.117332
0.7996045,-0.2284295,0.07672451,0.5065939,0.03103112,-0.2466257
0.9517608,-0.1116846,-0.1489599,0.07952406,-0.04992337,-0.1866455
1.112841,-0.05444203,-0.1529127,-0.2987963,0.02343617,-0.2256973
1.103174,-0.1187796,-0.06649297,-0.42793,0.1354573,-0.3279685
1.111707,-0.2025472,0.02545037,-0.2862383,0.3061899,-0.3552127
1.01905,-0.2002876,0.1109096,-0.1560436,0.1706415,-0.4559879
0.8545139,-0.2333281,0.09842245,0.09625867,-0.07152087,-0.4389507
0.7010963,-0.2628123,0.08687893,0.4751453,-0.2910969,-0.3148491
0.660678,-0.2164534,0.09318619,0.6047169,-0.4257,-0.1803502
0.8130308,-0.1546158,0.02089974,0.7310063,-0.3737466,0.07540603
0.8443749,-0.08142502,-0.02822648,0.8595015,-0.3340043,0.1746745
0.8881995,-0.04468832,-0.007635958,0.6291945,-0.1594895,0.1213902
0.990876,-0.01871873,0.04688215,0.4500726,0.01559546,0.1458451
0.9240215,0.03482063,0.1423692,0.458003,-0.09624964,0.1604625
0.9432557,0.0799712,0.1733456,0.3833925,-0.2352261,0.1921135
0.9439275,0.1233289,0.1406535,0.2710358,-0.3465665,0.2315701
0.9216596,0.1295657,0.1471943,0.1256309,-0.3719492,0.2482774
1.014978,0.1119699,0.1446715,0.0758516,-0.1964191,0.2931442
0.9933526,0.08128818,0.1481024,0.0916069,-0.05863034,0.3114192
1.016016,0.02297891,0.1809457,0.04367753,-0.04083208,0.3003941
1.0577,0.002745299,0.1778698,0.03182436,-0.05048179,0.2343963
1.021128,0.02811293,0.1806817,-0.03997524,-0.04282653,0.05281488
1.058799,0.05011978,0.205173,-0.169142,-0.003381471,-0.1741711
1.071207,0.02893033,0.2193215,-0.1939243,0.05130821,-0.288525
1.134011,-0.02387116,0.2489103,0.02379368,0.09544532,-0.2621564
1.247649,-0.08936124,0.2789015,0.3612594,-0.06238869,-0.295094
1.276398,-0.1340233,0.2364372,0.2950425,-0.4316231,-0.4651012
1.266911,-0.1217177,0.03135667,-0.1356064,-0.6044794,-0.5846002
1.258598,-0.1799393,-0.2702283,-0.5094997,-0.3785915,-0.5131961
1.276255,-0.2893038,-0.3653311,-0.5611976,0.07452732,-0.4141297
1.238786,-0.3248516,-0.1462235,-0.08736725,0.3766948,-0.4098456
1.191207,-0.3700371,0.09614511,0.438879,0.164116,-0.2948323
1.193868,-0.3282629,0.1756559,0.5882469,-0.2293694,-0.1612998
1.184114,-0.1112856,0.1307785,0.5231295,-0.2517818,-0.1327966
1.200387,0.07800147,-0.02043014,0.1501412,-0.03662841,0.0955472
1.181386,0.1431128,-0.1213544,-0.4498872,0.2717117,0.3196871
1.106118,0.06905152,-0.04093248,-0.7438174,0.5420501,0.2548757
0.9546009,-0.02071028,0.08016215,-0.6864614,0.446481,0.264712
0.729587,0.0205603,0.1158965,-0.7925635,0.2904495,0.3332043
0.630763,0.007367545,0.1190664,-0.9594025,0.2354726,0.2207786
0.6377001,-0.07547311,0.1496251,-0.8338012,0.03475378,0.1478346
0.6744362,-0.1071549,0.1540163,-0.7868644,-0.06780421,0.1794277
0.754968,-0.1541618,0.1390895,-0.7725105,-0.0288756,0.201514
0.8229003,-0.1471868,0.146825,-0.6181468,0.03579014,0.2264282
0.8639657,-0.1122294,0.158997,-0.568617,0.144332,0.1856031
0.8540841,-0.1158838,0.1866373,-0.4131401,0.1563438,0.09867468
0.8455009,-0.09511595,0.1874118,-0.2853666,0.1730859,0.06298942
0.8765644,-0.122417,0.187045,-0.2926352,0.2069716,0.03820475
0.929917,-0.1476326,0.2290839,-0.04975537,0.1341189,0.03709507
1.019933,-0.1174424,0.2429942,0.1872201,-0.008764492,0.05637334
1.063517,-0.1096464,0.2347558,0.2065364,-0.1187748,0.04949412
1.108989,-0.06789198,0.2394277,0.238517,0.06674258,0.03789345
1.177149,0.02685206,0.3090518,0.2880363,0.2334744,-0.02958079
1.205684,0.09315187,0.3603001,0.1920421,-0.1430112,-0.02553019
1.44989,0.03358775,0.1977535,-0.00270903,-0.426439,0.3352255
1.734999,-0.1347191,0.004110998,-0.02535703,0.06930231,0.7186231
1.491781,-0.3494384,0.05720167,0.1146861,0.7998972,0.5182113
1.031953,-0.5289047,0.2545386,0.3741389,0.9962464,0.02396107
0.8494557,-0.4137982,0.3336499,0.5909037,0.5106878,-0.2578235
0.7999503,-0.1670216,0.1450306,0.2551881,-0.1767188,-0.34543
0.8573955,-0.11402,-0.1019909,-0.2783428,-0.363949,-0.2079321
1.013144,-0.1008299,-0.08014839,-0.3095032,-0.1439013,-0.09254758
1.128763,-0.152522,0.004544875,-0.2604801,0.01688633,-0.1577846
1.150058,-0.2587637,0.01445043,-0.3618848,0.2093135,-0.2178236
0.9528307,-0.2500059,0.1656339,-0.1430517,0.3133219,-0.4328852
0.7326596,-0.2626256,0.1927017,0.1306772,0.04657275,-0.5233479
0.6707146,-0.2514158,0.08794127,0.1866754,-0.3066522,-0.376049
0.6589881,-0.1887356,0.1319463,0.4108626,-0.483083,-0.2785085
0.7540688,-0.1576863,0.07032721,0.7988265,-0.5090546,0.04305913
0.8529828,-0.0856758,-0.000556396,0.965991,-0.332955,0.2276209
0.8802538,-0.04436771,0.05235104,0.7592109,-0.07928995,0.071349
0.9021235,0.0122845,0.06807036,0.5445513,-0.07303583,0.1041207
0.890056,0.1024643,0.1577154,0.559723,-0.2444829,0.1668627
0.9045897,0.1230123,0.1861884,0.4870386,-0.3864821,0.2051934
0.902554,0.17799,0.1303388,0.2796417,-0.4767934,0.3309094
0.9063906,0.2336715,0.150262,0.05019897,-0.4030309,0.3706226
0.9627512,0.1838441,0.1392407,-0.1040461,-0.2343558,0.3777321
1.020534,0.04117136,0.1425902,-0.0899816,-0.08876828,0.384848
1.098367,-0.09660004,0.1696884,-0.08091441,0.03947991,0.3350281
1.090551,-0.09543538,0.1839148,-0.005058593,0.03976864,0.1615546
1.074932,-0.02408551,0.2195784,0.08610808,0.01765341,-0.1258918
1.144097,0.02155481,0.2412987,-0.117283,0.05375813,-0.3782111
1.183384,0.0273726,0.2648564,-0.3030714,0.02154645,-0.5203216
1.252769,-0.02248927,0.2412723,-0.1588977,-0.1780794,-0.6096912
1.321269,-0.07047856,0.1842212,-0.07223991,-0.7309585,-0.6732158
1.319215,-0.05823938,0.1105444,-0.2642079,-1.120281,-0.6025321
1.344702,-0.06863324,-0.07139988,-0.3701336,-0.5211862,-0.4366875
1.396903,-0.2088589,-0.2303424,-0.2704646,0.3930386,-0.3201735
1.324648,-0.3768557,-0.1652205,-0.1162771,0.5692006,-0.3060951
1.144034,-0.4171046,0.05217187,0.1442173,0.3143424,-0.3732383
1.064166,-0.2884025,0.1816047,0.3507758,0.05367529,-0.3585885
1.053341,-0.08108273,0.1662079,0.3117239,-0.2519203,-0.1694341
1.073915,0.03058314,0.04373821,0.1307728,-0.2712477,0.1503846
1.127212,0.01535465,-0.08868521,-0.08067818,0.04546525,0.3836866
1.080494,-0.02402054,-0.0434773,-0.2382546,0.3125365,0.3458564
0.9823358,-0.01282471,0.006988747,-0.4359601,0.4760878,0.3009098
0.8154366,-0.0190663,0.009945497,-0.6319367,0.4952408,0.2902829
0.6411183,-0.06307582,0.1316742,-0.5696065,0.3364475,0.137329
0.6250621,-0.06818968,0.1716068,-0.4733481,0.1337767,0.08725948
0.6252571,-0.102985,0.1431319,-0.4564644,-0.05163122,0.1237357
0.6584102,-0.1278694,0.1814586,-0.3312812,-0.1055031,0.08241169
0.7639904,-0.09241834,0.1890568,-0.3039045,-0.05358669,0.1142845
0.8043027,-0.07323914,0.1983233,-0.3431906,-0.002854058,0.1530241
0.824042,-0.04421804,0.2166065,-0.3073583,0.08662046,0.1608704
0.8329897,-0.04906873,0.2210724,-0.3400691,0.1079609,0.2014296
0.8447609,-0.07647481,0.2301771,-0.3335761,0.04825245,0.1646194
0.9226529,-0.09414842,0.2267218,-0.265917,0.001374069,0.1271776
1.033401,-0.1550249,0.230119,-0.1796792,-0.1187048,0.1543271
1.178249,-0.1621134,0.2399568,-0.02137641,-0.1972457,0.1526121
1.307171,-0.1361399,0.2568175,0.1697773,-0.156815,0.1689192
1.35961,-0.1589876,0.2565365,0.372153,-0.2074322,0.3083166
1.452857,-0.1931807,0.1756024,0.4136852,-0.2133908,0.5631052
1.554857,-0.2777409,0.09625874,0.5286936,0.1880821,0.6451906
1.337896,-0.3742479,0.1617832,0.8639466,0.8018876,0.2835455
0.9473639,-0.3846205,0.2395093,0.7991592,0.9026454,-0.1883995
0.8758301,-0.3076637,0.1529496,0.5489375,0.2642924,-0.2911378
0.9920433,-0.1807265,0.005638664,0.4788874,-0.3619684,-0.1828048
1.076102,-0.09731122,-0.1441448,0.1506922,-0.3510425,-0.1701118
1.187999,-0.1109754,-0.2018578,-0.1547075,0.01661868,-0.1776709
1.210694,-0.1466263,-0.08366216,-0.2534648,0.268259,-0.2604875
1.146562,-0.1550404,-0.02168325,-0.3357341,0.2780933,-0.4520366
1.039382,-0.1719753,0.02494254,-0.1023125,0.03903354,-0.4733515
0.8226736,-0.2039039,0.1578854,0.1543775,-0.2530468,-0.4003921
0.6536571,-0.22921,0.145317,0.2838034,-0.3400976,-0.3745643
0.6526232,-0.2348316,0.08670168,0.6060894,-0.3968843,-0.1889292
0.7062646,-0.1986993,0.09265021,0.8386203,-0.4827638,0.04041293
0.7800966,-0.1287993,0.01639869,0.8460249,-0.3438791,0.08686981
0.8796999,-0.06023449,-0.04893242,0.6787752,-0.1019619,0.07507584
0.9170386,-0.01312204,-0.03064783,0.4598064,0.01769428,0.09958445
0.9088203,0.02017219,0.02718002,0.4053957,-0.02426552,0.1468488
0.892761,0.06142288,0.127986,0.3938854,-0.2203362,0.231173
0.8677568,0.109362,0.1703494,0.3526757,-0.4004706,0.3301557
0.9002088,0.1483831,0.1319499,0.2158383,-0.3894242,0.3667272
0.9688482,0.1594054,0.1307903,0.07691681,-0.183474,0.3357958
1.026077,0.128119,0.1541251,0.05204338,0.01757169,0.3123024
1.047101,0.07630504,0.1659989,0.01513245,0.03010152,0.2818013
1.029268,0.04804814,0.1937153,0.01311882,-0.03138032,0.206068
1.046435,0.05537341,0.194121,-0.08393982,-0.0204366,0.05570421
1.07624,0.05615952,0.1868558,-0.338548,0.04783768,-0.1902851
1.120472,0.008421486,0.2277948,-0.4962107,0.08029815,-0.3924671
1.229091,-0.08879468,0.2706806,-0.3499732,-0.07632499,-0.4480951
1.299031,-0.1680536,0.2912008,-0.1132209,-0.4702926,-0.5119477
1.308652,-0.1618767,0.2118628,-0.272602,-0.7534584,-0.615437
1.349128,-0.1777856,-0.09347673,-0.3969898,-0.4925329,-0.4993269
1.354784,-0.310672,-0.365721,-0.2097698,0.1014863,-0.2755233
1.259875,-0.4240981,-0.1539484,-0.05730511,0.4685668,-0.284935
1.155403,-0.4134566,0.2247508,0.3105932,0.3565142,-0.3605807
1.105577,-0.343205,0.2316781,0.574117,-0.04643849,-0.3290095
1.116676,-0.2624177,0.1614675,0.4537394,-0.276581,-0.1847775
1.150125,-0.07703056,0.08279294,0.2800068,-0.2020272,0.105037
1.140485,0.1375143,-0.1236552,-0.162749,0.09317426,0.2376001
1.072385,0.07280967,-0.05303128,-0.5572351,0.4694409,0.1943129
0.9034285,-0.06177212,0.07104459,-0.6758949,0.5366024,0.2821227
0.7028009,-0.003153283,0.05406871,-0.8666538,0.387929,0.3215598
0.6177396,-0.06804653,0.1780198,-0.8363131,0.3146268,0.2007531
0.6180967,-0.1591358,0.1775147,-0.6852948,0.1827014,0.1185634
0.6615892,-0.1037906,0.1157521,-0.652431,0.01731508,0.1006313
0.7321201,-0.1373117,0.1708092,-0.5294783,-0.03647152,0.1391422
0.7926342,-0.1282975,0.1336668,-0.5151987,0.005233673,0.1927913
0.8296312,-0.07387484,0.1647809,-0.5226994,0.04214108,0.1742312
0.8285203,-0.08704854,0.2421209,-0.3548529,0.06734793,0.1451573
0.8385627,-0.04484285,0.2307052,-0.2703239,0.1257141,0.1288977
0.8712421,-0.07060926,0.2383652,-0.2589029,0.1154052,0.1063773
0.9287606,-0.1267863,0.2220436,-0.2337625,0.04419619,0.1326865
1.029953,-0.121786,0.1912482,-0.1524436,-0.1095646,0.1629348
1.116195,-0.1358808,0.1863437,0.0431501,-0.264509,0.1641792
1.242611,-0.09716331,0.2656664,0.2149444,-0.08902795,0.1606236
1.382878,-0.05229376,0.3721724,0.3458942,0.1467855,0.1539144
1.404153,-0.04338591,0.2493433,0.3397539,0.139842,0.2604597
1.473287,-0.1112862,0.02977748,0.1931163,0.2729858,0.5124271
1.543365,-0.2862242,-0.01398281,0.1763084,0.5420541,0.6261176
1.27444,-0.3946745,0.1287114,0.1837215,0.7112518,0.287826
0.9141044,-0.426168,0.2661415,0.1557195,0.7192986,-0.1935664
0.8502374,-0.3596332,0.1154087,0.1262165,0.281393,-0.2559557
0.913801,-0.2143008,-0.1011751,-0.08354979,-0.2355462,-0.1614239
0.933584,-0.1902846,-0.1033781,-0.3210985,-0.2220734,-0.1887464
1.011613,-0.2191616,-0.1188597,-0.4270838,0.07841756,-0.133606
1.126431,-0.2270863,-0.1319949,-0.3799881,0.3247594,-0.1919732
1.043799,-0.2624519,0.01131961,-0.1266797,0.3274631,-0.3750937
0.8374325,-0.2827572,0.1690274,0.222767,0.09513084,-0.4225593
0.7506887,-0.2766449,0.1841646,0.5503,-0.1202845,-0.4233269
0.6872554,-0.2486574,0.1031982,0.7761205,-0.2632316,-0.3288058
0.6754173,-0.1980692,0.09290471,0.9885178,-0.3711373,-0.1216033
0.765889,-0.09019399,0.05330498,1.109942,-0.4817208,0.04567314
0.8406901,0.03581847,-0.04087436,0.9364657,-0.4445128,0.1378689
0.9474236,0.08477272,-0.02675924,0.6818877,-0.2062289,0.1234054
0.9968941,0.0999651,0.01343589,0.4164481,-0.02157946,0.1120645
0.9772083,0.09883229,0.1004987,0.232899,-0.0098897,0.1505359
0.982735,0.09964172,0.194556,0.2784857,-0.2258204,0.1688988
0.9299019,0.1420662,0.1727137,0.2334354,-0.4400706,0.212392
0.8996436,0.1687096,0.1673015,0.08763819,-0.4116024,0.2575312
0.9284134,0.1570343,0.1653078,0.02089247,-0.277381,0.3081155
0.96138,0.1007613,0.1344701,-0.0257513,-0.1083992,0.3557075
0.994496,0.03279131,0.1311323,-0.004114286,-0.02848875,0.3225957
0.9822743,0.006292213,0.1451163,0.02064188,-0.01713407,0.2095577
0.9802783,-0.009483189,0.173928,-0.03673842,0.07029193,-0.02057389
1.002418,-0.01392593,0.1708199,-0.1592209,0.1403758,-0.3038192
1.08452,-0.03150624,0.1726229,-0.2785478,0.1622322,-0.5322951
1.276805,-0.1170959,0.1802195,-0.1933694,0.02897684,-0.7300095
1.413706,-0.1989378,0.1156706,-0.08779633,-0.3292845,-0.8690577
1.413252,-0.2199147,-0.0284054,-0.2602998,-0.5774471,-0.9144257
1.391513,-0.2795681,-0.167784,-0.3303563,-0.2992168,-0.7735628
1.371341,-0.3914365,-0.09224714,0.0155024,0.2107266,-0.4858194
1.278078,-0.3964718,0.1109098,0.4670457,0.2244391,-0.3775808
1.218022,-0.2583521,0.1785025,0.6931648,-0.09258621,-0.3729791
1.251494,-0.0644066,0.1356105,0.6302094,-0.2651845,-0.2131968
1.234594,0.06395213,0.05466248,0.3363774,-0.1726881,0.0308142
1.196147,0.06777224,-0.01544448,-0.2358641,0.1891824,0.2850945
1.150431,0.09275487,-0.07010045,-0.7613096,0.4603213,0.379429
0.9968941,0.09315006,-0.02615684,-0.7614643,0.5092809,0.3952794
0.771662,-0.01818198,0.1398501,-0.7202565,0.3987807,0.5034335
0.5926159,-0.03899037,0.1509029,-0.8725564,0.237092,0.3910143
0.5707848,-0.05317001,0.129542,-0.7858568,0.1291815,0.1966651
0.6260744,-0.1410307,0.1892838,-0.7260604,-0.1012695,0.1982465
0.6870499,-0.1282631,0.1210206,-0.7456605,-0.1047406,0.2000917
0.8183783,-0.1229136,0.120971,-0.6373419,0.06916537,0.2136524
0.8952605,-0.1290127,0.1791757,-0.6316898,0.01520686,0.2217112
0.8741071,-0.07709024,0.1905647,-0.5520658,0.0697492,0.2218172
0.8713489,-0.06549824,0.2483301,-0.3785242,0.08980928,0.2610829
0.8638096,-0.04427065,0.2084288,-0.3815416,0.04502248,0.2214325
0.8648929,-0.06024724,0.1699281,-0.4675261,0.1396829,0.2062279
0.9132714,-0.1487555,0.1755539,-0.5297093,0.068587,0.2226116
0.9808474,-0.2300151,0.1494012,-0.3482549,-0.05573588,0.1920503
1.069023,-0.2816588,0.1899548,0.001251976,-0.1120471,0.1545959
1.15461,-0.2328707,0.2290451,0.2439352,-0.0203671,0.03181645
1.227736,-0.1083454,0.3523561,0.4133658,0.1125278,-0.1221709
1.295593,0.05271509,0.4583491,0.2596013,-0.1257209,-0.0944205
1.362137,0.09918504,0.2528875,-0.08014044,-0.2346316,0.2437251
1.421544,-0.09797304,-0.01401357,-0.1471824,0.2405712,0.5598873
1.360744,-0.2873793,-0.0469762,-0.100037,0.7986417,0.3738841
1.155327,-0.3841399,0.1043734,0.1208366,0.8559948,-0.04248451
0.9035144,-0.4003814,0.1933051,0.3750594,0.4119636,-0.2770822
0.7466003,-0.283709,0.06831413,0.07689016,-0.01413402,-0.3025412
0.8709887,-0.1945566,-0.07703213,-0.3384831,-0.1904724,-0.144111
1.086431,-0.1841654,-0.08323976,-0.3089472,-0.1051119,-0.07551841
1.143663,-0.2424977,-0.00286566,-0.1636947,0.1204752,-0.1808813
1.154344,-0.2966627,0.09784739,0.00136671,0.2276341,-0.2917929
1.083501,-0.2552445,0.1522852,0.3050824,0.2228426,-0.4792824
0.8747307,-0.2289506,0.1198695,0.560486,0.06815784,-0.5430513
0.6482058,-0.2038296,0.08831924,0.6988518,-0.1307659,-0.4062375
0.5993615,-0.1739788,0.09325374,0.850322,-0.3204087,-0.265572
0.7427498,-0.1398483,0.06584306,1.007736,-0.5378495,0.01715063
0.784616,-0.008671091,0.01448078,0.9537145,-0.4622217,0.1997519
0.8358109,0.06798409,-0.03967641,0.7058976,-0.2411898,0.1231703
0.9189613,0.03565217,-0.02003353,0.4529258,-0.09212037,0.144361
0.8616074,0.04924902,0.07334223,0.2723713,-0.01526212,0.1870415
0.9131924,0.0947486,0.1280858,0.2990174,-0.2462049,0.2269467
0.9203544,0.1205941,0.1827661,0.3018396,-0.4950169,0.3591285
0.8832953,0.1515901,0.1905804,0.1633201,-0.488183,0.4103783
0.9950788,0.159027,0.1491354,0.195287,-0.3335373,0.4134606
0.9862114,0.1197028,0.1711043,0.1998552,-0.08161372,0.4017021
1.000921,0.0794318,0.1641054,0.1204707,0.07144243,0.3523452
1.033631,0.04569688,0.1588307,0.1037186,0.1356008,0.2517144
0.9809049,0.03573705,0.1882602,-0.0696632,0.1277061,-0.03470095
1.045006,0.04432493,0.1727981,-0.3832174,0.05807278,-0.4163235
1.1407,-0.01723879,0.2127068,-0.6151811,0.07934022,-0.6759948
1.322597,-0.1555512,0.2854163,-0.3653443,-0.1239983,-0.7632206
1.423308,-0.2633776,0.3082872,0.102424,-0.6785896,-0.7395413
1.327411,-0.2477339,0.2269915,0.07509341,-0.9447755,-0.6327345
1.353659,-0.2688469,-0.08846207,0.002420204,-0.3466271,-0.4393794
1.343987,-0.413075,-0.3575023,0.1458477,0.5212234,-0.3480149
1.213518,-0.409929,-0.1121341,0.2892685,0.5204561,-0.3873385
1.121998,-0.2857446,0.2972234,0.5828067,-0.05662231,-0.325919
1.08556,-0.1516744,0.2503886,0.6495374,-0.421373,-0.1721026
1.144349,0.08448472,0.03301699,0.3678356,-0.4478592,0.06529723
1.177317,0.1893186,-0.06250749,-0.004652031,-0.05973103,0.3141323
1.154889,0.09195978,-0.1144601,-0.4574391,0.3466936,0.3334816
1.060976,0.05087284,-0.004363295,-0.7222691,0.5056976,0.337675
0.8289422,0.06154154,0.07258116,-0.8531474,0.5136371,0.4333562
0.6530911,0.03247309,0.1102228,-0.9644323,0.2999442,0.3350495
0.5991091,-0.04332546,0.2112,-0.8761569,0.1080847,0.2169632
0.6046841,-0.1406192,0.154392,-0.7605502,-0.02914973,0.2205313
0.6808622,-0.1770807,0.1446774,-0.6324095,-0.09310754,0.1987734
0.7650261,-0.1382835,0.165248,-0.5175149,-0.004985229,0.2183722
0.8194989,-0.1057499,0.1167649,-0.6035816,-0.01221765,0.217497
0.8359288,-0.08124855,0.170304,-0.6173388,0.008484366,0.1870993
0.8335986,-0.04468431,0.1705003,-0.5390941,0.044432,0.2097758
0.8460648,-0.05730844,0.1871876,-0.5482922,0.01948732,0.1746952
0.862552,-0.08367455,0.2183116,-0.4800481,0.0548974,0.1446794
0.9390058,-0.1471544,0.181932,-0.3334512,-0.005335168,0.1243212
1.056562,-0.250084,0.2221623,-0.08770855,-0.1618862,0.07599513
1.122248,-0.2298264,0.2122313,0.2115666,-0.2599057,0.07172864
1.223674,-0.1636708,0.2154239,0.4176365,-0.01716422,-0.008732975
1.365879,-0.09815665,0.2631686,0.5742316,0.31099,-0.05022937
1.402313,0.003133993,0.2058823,0.3752224,0.2078988,0.2115953
1.420805,-0.04042781,0.120168,0.02506566,0.3105954,0.5645268
1.434928,-0.1999849,0.04208034,0.1618041,0.7478033,0.551718
1.21263,-0.3774405,0.1170853,0.3137017,0.7779069,0.1338079
0.8710424,-0.5013705,0.2359526,0.2366655,0.5141082,-0.2404306
0.749849,-0.3704471,0.1072131,0.1822987,0.09685467,-0.2692749
0.8955979,-0.1859392,-0.06889475,-0.1012379,-0.3440081,-0.1099596
1.119938,-0.1855577,-0.177042,-0.3119528,-0.272369,-0.08128708
1.230038,-0.222026,-0.1897533,-0.3015931,0.04043265,-0.1663909
1.140001,-0.3045622,0.01185283,-0.3476805,0.1838519,-0.3053811
0.9113847,-0.388335,0.198164,-0.04133839,0.2956359,-0.5576414
0.7596055,-0.3507066,0.2058986,0.5362482,0.1418791,-0.6049181
0.7298577,-0.2961319,0.1420668,0.903853,-0.1706193,-0.4951725
0.7393639,-0.1955588,0.09001539,1.151588,-0.2868992,-0.4239531
0.8044351,-0.04694276,0.05261779,1.290084,-0.4465995,-0.1311862
0.8535648,0.03583968,-0.02231702,1.243068,-0.4556796,0.08884546
0.9205404,0.07926087,-0.05798252,1.042291,-0.2700606,0.0876225
0.9567718,0.09932904,-0.01900315,0.712346,-0.2191557,0.189093
0.8956999,0.09612377,0.02447756,0.4029106,-0.08019011,0.2519103
0.9105925,0.08204399,0.1011951,0.3487827,-0.1068385,0.3138235
0.8941818,0.08879555,0.1538804,0.4755212,-0.363964,0.4504202
0.8733679,0.1282279,0.1446291,0.4852387,-0.380298,0.464599
0.9456609,0.1611435,0.1543468,0.4086459,-0.3562589,0.4456283
0.9491879,0.1736982,0.1654119,0.2939626,-0.2015037,0.4212358
1.005641,0.1248732,0.1600009,0.1188076,0.1330528,0.3243205
1.078802,0.04965442,0.1902471,0.02032315,0.1610916,0.1965388
1.06046,0.02708859,0.2299844,-0.02956343,-0.01350463,-0.01241628
1.066627,0.09070271,0.219535,-0.2247968,-0.09982398,-0.2922013
1.110595,0.1479003,0.2171168,-0.5420522,0.006118681,-0.5194197
1.255667,-0.01519365,0.2359997,-0.5864443,0.01336478,-0.6211362
1.401588,-0.2279562,0.2051626,-0.365841,-0.5185831,-0.6441787
1.405846,-0.2422109,0.09023257,-0.2425917,-0.9656991,-0.636731
1.366964,-0.2481403,-0.1344484,-0.1396403,-0.5347675,-0.5236045
1.338271,-0.3567248,-0.2585975,-0.03798892,0.2446166,-0.3352508
1.272847,-0.4660163,-0.09501386,0.2179198,0.484837,-0.2768118
1.172953,-0.4694304,0.1136403,0.6995758,0.2683783,-0.3429369
1.12756,-0.3004669,0.1746079,0.8560815,-0.02092005,-0.3042582
1.100788,-0.03752171,0.1007345,0.7241212,-0.2288289,-0.1112908
1.082547,0.1374606,-0.03845224,0.4486278,-0.1477887,0.1127994
1.095251,0.1025193,-0.0699324,-0.04500151,0.1058924,0.2318535
1.002193,0.04445162,-0.009861834,-0.3026584,0.3306159,0.2706879
0.8404042,0.0936136,0.02367392,-0.5402453,0.41071,0.3731034
0.7027329,0.05511904,0.05898862,-0.91464,0.3043838,0.3728668
0.633685,-0.01908742,0.09825189,-0.9004209,0.2385492,0.2287416
0.6638396,-0.06015235,0.1311387,-0.8735147,0.1007731,0.1740802
0.7097077,-0.1529092,0.1415963,-0.9090167,-0.09339034,0.1577107
0.7878564,-0.1539507,0.1329373,-0.6938417,-0.03701273,0.1803528
0.8526563,-0.1160957,0.1507282,-0.6769542,0.01389224,0.2166651
0.8546393,-0.1365784,0.1663569,-0.6469218,-0.02301474,0.1749131
0.8796945,-0.1133139,0.1851648,-0.447685,0.09707223,0.1781555
0.8870428,-0.11273,0.196193,-0.4528844,0.2029677,0.1438253
0.8819354,-0.1195749,0.181632,-0.399295,0.1826356,0.07826473
0.9186485,-0.1083513,0.192983,-0.304339,0.1248219,0.08504672
0.9718551,-0.1333797,0.196202,-0.2213184,-0.06685143,0.07813454
1.06632,-0.135075,0.1914304,-0.02262513,-0.2584066,0.1092225
1.212777,-0.1139825,0.2255953,0.05016024,-0.08515644,0.1037867
1.305842,-0.02985908,0.3075981,0.1194194,0.2606202,-0.03298069
1.313889,0.07184405,0.3580612,0.1348159,0.328532,-0.08154431
1.473822,0.01493635,0.194384,-0.07410438,0.202098,0.2451591
1.658853,-0.1934477,-0.0007673763,-0.1801828,0.1823911,0.72231
1.37218,-0.4779189,0.07152897,-0.06449736,0.3917596,0.6543256
0.919655,-0.6209133,0.1838465,0.2850928,0.6246514,0.1174286
0.8317194,-0.4432337,0.1534532,0.5806826,0.5013218,-0.2807264
0.8709046,-0.2499524,0.06415882,0.3521855,0.1745567,-0.3206464
0.8844332,-0.2371768,-0.07072124,0.03493267,-0.04249719,-0.1509383
1.029196,-0.2065269,-0.09844799,0.03479284,-0.04119658,-0.1826095
1.240942,-0.1741545,-0.06331027,-0.03876967,0.2487807,-0.2924516
1.302987,-0.2226353,-0.07801089,-0.1040128,0.415971,-0.3472307
1.104199,-0.2590334,0.06886004,0.1941165,0.2844405,-0.5511621
0.8521637,-0.2521486,0.1792904,0.5150598,0.1296107,-0.5508996
0.7073705,-0.2287928,0.112656,0.6097747,-0.06961299,-0.4349943
0.6372103,-0.2174835,0.1179712,0.7182415,-0.2260012,-0.3604895
0.6751251,-0.1529385,0.09188589,0.9510552,-0.2869537,-0.0237237
0.7429649,-0.05027664,0.04250816,1.049005,-0.2833777,0.1593245
0.8124215,-0.02086688,0.02397915,0.8231453,-0.1628843,0.09275648
0.8803349,-0.007042195,-0.007639434,0.6222368,-0.09529965,0.1280598
0.8677611,-0.001365698,0.08443484,0.6356121,-0.1311344,0.1688035
0.8781448,0.02450078,0.1794125,0.6426753,-0.2796839,0.2239869
0.8995859,0.1126724,0.2020251,0.5635229,-0.4893574,0.2869239
0.9019775,0.1666231,0.2053827,0.3912283,-0.5171159,0.3118315
0.9585956,0.1997261,0.1689625,0.2506267,-0.4026519,0.3290589
0.9874569,0.2003379,0.1560616,0.1849126,-0.270453,0.3393205
1.023739,0.1446529,0.1358577,-0.001189812,-0.102937,0.3702065
1.090552,0.07096478,0.15644,-0.2262951,0.01942604,0.3257085
1.106377,0.007344634,0.2083695,-0.3039277,0.002193616,0.1313768
1.132346,0.01554273,0.2087969,-0.4210816,0.0405078,-0.2023949
1.20247,-0.0422481,0.2698052,-0.5379171,0.1796627,-0.485358
1.303898,-0.2028248,0.3201546,-0.2474674,0.007939248,-0.5495222
1.36307,-0.2357026,0.2397598,0.03669883,-0.4699737,-0.6172839
1.32426,-0.1816794,0.02509223,-0.121651,-0.7526064,-0.7060802
1.300352,-0.198464,-0.2390702,-0.2212682,-0.3954938,-0.6010405
1.275424,-0.2662704,-0.2412899,-0.1910212,0.4176807,-0.4540983
1.187659,-0.3160061,0.01652053,-0.1179965,0.7243204,-0.4225437
1.163232,-0.2593987,0.1855437,0.1410631,0.2912845,-0.3437027
1.209432,-0.1058782,0.1778086,0.2730998,-0.1735991,-0.2058069
1.21998,0.02647165,0.1014258,0.2241021,-0.2631491,-0.09779755
1.204113,0.06757259,0.06257805,0.06962929,-0.06115029,0.1254583
1.143033,0.02977909,0.07422144,-0.2715416,0.276756,0.3023173
0.9510764,0.004258193,0.05920179,-0.4730437,0.6478719,0.2605343
0.7027264,0.003731524,0.06422704,-0.4902852,0.6072241,0.3321542
0.6187008,-0.02604478,0.09493075,-0.6545614,0.3525473,0.4149173
0.6400067,-0.03437187,0.08552367,-0.783313,0.416463,0.2384949
0.5664968,-0.05465594,0.1097403,-0.6934396,0.2261033,0.08625359
0.5735705,-0.1010888,0.1592576,-0.654573,-0.09025489,0.07813096
0.7079119,-0.08325845,0.1669951,-0.6571263,-0.06341138,0.110728
0.7666174,-0.06607491,0.1631604,-0.5828217,-0.0683823,0.134976
0.8174728,-0.05235256,0.167539,-0.5682802,0.01497774,0.09906443
0.84489,-0.01027382,0.1976241,-0.5455617,0.1176621,0.08746386
0.8191365,-0.01753339,0.2280304,-0.5217936,0.10014,0.1156703
0.8646166,-0.07014271,0.2255399,-0.5357996,0.09281649,0.120482
0.9176171,-0.1594661,0.2210153,-0.3497935,-0.1228649,0.1311304
0.9951813,-0.2179184,0.2330212,-0.07396532,-0.2909247,0.1684354
1.17779,-0.2058528,0.255585,0.1990237,-0.2346524,0.2151089
1.396417,-0.1990343,0.2943651,0.6146035,-0.1507675,0.2003551
1.503808,-0.1602797,0.3145302,0.7917864,0.09108929,0.1893707
1.469396,-0.1197505,0.2008945,0.5546894,0.4085731,0.3078171
1.467325,-0.1723798,0.07716509,0.4002437,0.4752017,0.3736218
1.317282,-0.274538,0.1905319,0.3950429,0.4247144,0.1992436
0.9820377,-0.3341589,0.2869809,0.3124693,0.3643215,-0.05073037
0.9095474,-0.2767947,0.110428,0.2510288,-0.02936081,-0.09304869
0.9885773,-0.1711748,-0.08842621,0.05593232,-0.2649396,0.04876123
1.00532,-0.143436,-0.1719379,-0.3231804,0.03284092,0.08600057
1.054613,-0.1950362,-0.1504748,-0.4472646,0.2952291,-0.07118977
1.014224,-0.260268,0.01949505,-0.290544,0.4776768,-0.2769072
0.9012062,-0.2640138,0.1721473,-0.03002985,0.2899657,-0.393242
0.8000353,-0.2298292,0.1641168,0.3210662,-0.2459219,-0.4677959
0.6903755,-0.2188249,0.09554661,0.5519431,-0.3706313,-0.5208791
0.6784338,-0.2013438,0.06843475,0.6415686,-0.3484239,-0.36327
0.7602097,-0.1590824,0.03471939,0.8462821,-0.3233437,-0.0705144
0.8305902,-0.08288854,-0.02203257,1.024081,-0.1756488,0.1078414
0.8856105,0.003373861,-0.02044331,0.8685164,-0.09853257,0.1105929
0.9112096,0.04794916,0.01172254,0.6390515,0.002774253,0.03362974
0.9164752,0.1016112,0.08501673,0.4871255,-0.08717069,0.05167777
0.9441825,0.1642583,0.1818293,0.2970651,-0.3075824,0.1024177
0.923952,0.1715826,0.16674,0.2293739,-0.4136713,0.1471649
0.8853784,0.1670451,0.1285947,0.1141286,-0.4791133,0.2593504
0.9198234,0.165901,0.1369681,-0.05805363,-0.3111943,0.3381735
0.9507371,0.1164762,0.1349226,-0.03113625,-0.09155706,0.4079346
0.9870031,0.04143777,0.1528498,-0.04404157,-0.03646433,0.4265316
1.037436,0.01223012,0.1681773,-0.08297871,0.005924397,0.3270381
1.047358,0.03929643,0.1709159,-0.1133663,0.0171258,0.1703128
1.085353,0.05351002,0.1867555,-0.2997432,0.08397023,-0.1072082
1.1624,0.007575861,0.2192017,-0.3862262,0.1833749,-0.3222157
1.259705,-0.07985987,0.2463529,-0.2184883,0.1814011,-0.3996324
1.331066,-0.1646195,0.1917539,-0.02529718,-0.03932468,-0.5658418
1.302945,-0.1950332,0.05219773,-0.1101497,-0.5342919,-0.7430647
1.272881,-0.2116068,-0.1375229,-0.3221852,-0.7063569,-0.8177313
1.268892,-0.2849397,-0.2801621,-0.3135797,-0.1559546,-0.7271853
1.246286,-0.3278383,-0.1973266,-0.08738889,0.4214233,-0.5296485
1.288502,-0.2858003,0.04704078,0.317255,0.3607689,-0.3909325
1.353653,-0.1817842,0.1934611,0.523048,0.002133047,-0.203983
1.351895,-0.01489874,0.1283902,0.3790031,-0.1689038,-0.06591806
1.331194,0.06936493,0.01649526,0.2152036,-0.1196751,0.0256314
1.266733,0.03418172,0.03295602,-0.2055075,0.2955163,0.2865649
1.104115,0.04555161,0.02140691,-0.6428441,0.7000963,0.3597933
0.8877185,0.0574961,0.009922413,-0.5685058,0.5196475,0.2966058
0.675729,0.005311591,0.118281,-0.6511192,0.3623078,0.4158601
0.5405324,-0.01506353,0.08325679,-1.048048,0.4942086,0.3561681
0.5301261,-0.05110236,0.04327592,-1.029762,0.314149,0.2167295
0.5945408,-0.1241714,0.1333236,-0.862349,0.0219821,0.2245757
0.6782569,-0.1287907,0.1174869,-0.8663434,-0.02498327,0.1956893
0.7641426,-0.1182582,0.1483245,-0.749162,-0.02219779,0.2294536
0.8072402,-0.1135927,0.195955,-0.6896066,-0.01115796,0.2475102
0.8087769,-0.06866693,0.1884389,-0.6311532,0.01481178,0.1814822
0.8351403,-0.06332948,0.2371717,-0.4352398,0.05293134,0.128479
0.8911332,-0.1098761,0.2071878,-0.4144699,0.1462219,0.042614
0.9610866,-0.1683069,0.1981494,-0.348246,0.1022989,0.06718287
1.038772,-0.1966008,0.2100137,-0.09074108,-0.1819215,0.1286185
1.138561,-0.1810502,0.1939771,0.1705121,-0.4157167,0.106474
1.297028,-0.1677105,0.3131384,0.4558579,-0.2251676,0.1187939
1.421433,-0.08134294,0.3799254,0.6457557,0.06237034,0.1255701
1.493939,0.02572993,0.2616738,0.6419371,-0.008147262,0.2511917
1.564829,-0.0491109,0.06627925,0.4996226,0.06632535,0.5009269
1.418018,-0.2433302,-0.004621332,0.3362392,0.3420712,0.5349993
1.079725,-0.3790425,0.1658432,0.1998251,0.491652,0.2682609
0.8539077,-0.3732753,0.2626413,0.2830282,0.5952797,-0.07823608
0.7649523,-0.2571195,0.0911632,0.4842427,0.1550815,-0.2233308
0.8593381,-0.1816063,-0.1069461,0.1696124,-0.4537602,-0.1918921
1.090216,-0.1758068,-0.1344205,-0.2221302,-0.3444629,-0.1725899
1.227749,-0.1835582,-0.125353,-0.2252014,-0.02642851,-0.1683606
1.248907,-0.2130508,-0.1041326,-0.2397769,0.2141574,-0.2603458
1.161824,-0.2256539,0.02217028,-0.08274343,0.3361176,-0.4146872
0.9999269,-0.2276067,0.08445578,0.1609687,0.1159433,-0.4287285
0.7697058,-0.2374562,0.1353626,0.2934071,-0.09642377,-0.3566959
0.6368447,-0.218862,0.1647955,0.5330422,-0.2583981,-0.2512338
0.7665993,-0.1755914,0.05924296,0.7675847,-0.4488392,-0.0524913
0.8078237,-0.09444802,0.04305882,0.8938638,-0.4805441,0.09887749
0.8096312,-0.0328033,0.01092482,0.7407625,-0.3985213,0.103331
0.9160737,-0.007886802,-0.03117965,0.4327237,-0.2492869,0.09315362
0.8846043,0.04420071,0.07976436,0.2872562,-0.1191054,0.1330271
0.9106432,0.06292308,0.1113645,0.2562503,-0.1635615,0.2027222
0.9383179,0.07897874,0.1484193,0.2971567,-0.317705,0.2900339
0.8875828,0.1416141,0.1990964,0.2155682,-0.4103007,0.3312605
0.9603463,0.1552249,0.1437991,0.09911554,-0.3852007,0.3328454
0.9720061,0.1043843,0.1486693,0.07539353,-0.2525601,0.3342137
0.9987301,0.05190142,0.1420738,-0.03881166,-0.05799768,0.323764
1.06541,0.04769155,0.1506166,-0.09382927,0.04834178,0.2905789
1.047531,0.06984477,0.2032174,-0.2022442,0.02555642,0.1283443
1.107754,0.06057932,0.1883623,-0.513908,0.03956624,-0.1978116
1.188498,-0.01067712,0.2158003,-0.6811469,0.08624044,-0.450669
1.287034,-0.1661416,0.2318521,-0.3933032,-0.08880828,-0.5036291
1.353032,-0.2929642,0.14661,0.03390972,-0.4371818,-0.552324
1.292063,-0.2852248,-0.03834101,-0.06233372,-0.5816466,-0.6294652
1.268009,-0.2819704,-0.2293644,-0.2303248,-0.3155178,-0.5666198
1.22929,-0.3564178,-0.173306,-0.05965424,0.2013003,-0.4719533
1.190464,-0.3769542,0.03034166,0.0985533,0.4439895,-0.4195085
1.243727,-0.3016903,0.1591134,0.4679572,0.1834197,-0.2751196
1.284716,-0.1510956,0.1733988,0.7002955,-0.1591307,-0.146632
1.302657,0.0217394,0.06007271,0.5475735,-0.2406821,-0.074484
1.294211,0.07458394,-0.01667928,0.3786505,-0.08342233,0.1233381
1.264064,0.03008398,-0.02294711,-0.1588373,0.2448734,0.2942559
1.184581,0.01782701,-0.06403776,-0.6082758,0.5379424,0.2651258
0.9726223,0.01838824,-0.006584923,-0.6132853,0.4481085,0.2866294
0.7289574,-0.009880716,0.1012873,-0.8144818,0.2927649,0.3692545
0.6016012,-0.04798636,0.08804638,-0.8747728,0.4010913,0.2770362
0.5946935,-0.1010042,0.092209,-0.6814511,0.2568617,0.1890854
0.6285544,-0.1507451,0.1362919,-0.621168,-0.001543808,0.1977027
0.6789266,-0.1608903,0.1178106,-0.5420363,0.04822458,0.1627686
0.7474143,-0.1429588,0.1190032,-0.5886343,0.1084025,0.1612924
0.7888858,-0.09213528,0.1402525,-0.6957978,0.1503864,0.1592996
0.8100726,-0.04653605,0.1625624,-0.5656482,0.1653089,0.1191032
0.842072,-0.04651539,0.2160835,-0.4588502,0.1546671,0.1028668
0.8701899,-0.05414498,0.2225148,-0.4536474,0.2510535,0.04571208
0.9040946,-0.1064923,0.213795,-0.3606048,0.1669954,-0.004671482
0.9798366,-0.1774071,0.2365841,-0.1849129,-0.1294388,0.0002146074
1.066301,-0.1923581,0.2366039,0.06564267,-0.3160561,0.07023468
1.194993,-0.1840294,0.263636,0.3468743,-0.1525048,0.1664639
1.378788,-0.1121404,0.2847372,0.5742377,0.1086451,0.1452723
1.424818,0.006920985,0.2118572,0.5402211,0.06495086,0.1781051
1.424011,0.007825725,0.0759274,0.2260768,0.1633652,0.371544
1.483571,-0.1693243,-0.01357858,0.1127012,0.4728804,0.4190233
1.263282,-0.3816992,0.1239231,0.2243041,0.5733672,0.1929607
0.8880368,-0.4323595,0.2783662,0.260712,0.5264753,-0.07923611
0.8050857,-0.3166352,0.1155898,0.1930233,0.1908804,-0.1458714
0.9373161,-0.1956477,-0.08020661,-0.05788079,-0.111169,-0.1331977
1.070045,-0.1460252,-0.111189,-0.3282325,0.02121707,-0.2397262
1.134734,-0.145843,-0.1097061,-0.4525378,0.1823434,-0.3218309
1.121172,-0.193013,-0.01345979,-0.4458028,0.2466512,-0.398484
0.9835474,-0.24169,0.1051914,-0.2688879,0.1413692,-0.4969575
0.755888,-0.2565843,0.1231482,0.0006723719,-0.1287835,-0.4595398
0.6601454,-0.2645455,0.09671967,0.2576889,-0.2632343,-0.3943497
0.6994385,-0.2459059,0.07106581,0.4637666,-0.3171237,-0.2740334
0.7396642,-0.1953172,0.08061568,0.7856464,-0.3989301,-0.01687714
0.7977935,-0.1154529,0.04336661,0.9799576,-0.4718209,0.09425927
0.8695291,-0.06198516,-0.0205619,0.7498375,-0.371868,0.04800731
0.9088069,-0.05115977,-0.009840223,0.570643,-0.1682277,0.06113867
0.9390297,0.02191443,-0.01041666,0.4649189,-0.142117,0.0954678
0.955697,0.07301599,0.03831484,0.3424967,-0.2263993,0.1503793
0.910268,0.08798262,0.1611317,0.381781,-0.3657486,0.2733203
0.902111,0.1563797,0.1868946,0.3068326,-0.4327667,0.3621895
0.9403234,0.1555184,0.154246,0.2117847,-0.2818898,0.3726604
0.9506422,0.1297446,0.1583403,0.1882535,-0.08535132,0.3628015
1.005936,0.1231812,0.1630936,0.07313278,0.05746577,0.3494489
1.047381,0.03930326,0.1631449,0.01753597,0.09990007,0.2586213
1.062417,0.01219055,0.1782364,-0.08733757,0.07112321,-0.002879122
1.089518,0.0807168,0.1827073,-0.3485252,0.07555205,-0.3400436
1.110368,0.09596519,0.1964303,-0.4893144,0.09011508,-0.5380153
1.230177,-0.004353751,0.2326476,-0.3014778,0.0329277,-0.5719909
1.332495,-0.1527992,0.2048098,-0.1179076,-0.2095885,-0.6247409
1.318214,-0.1938659,0.07682089,-0.3254304,-0.4563885,-0.7068471
1.301685,-0.1956957,-0.1345948,-0.4661004,-0.3321795,-0.6174694
1.255242,-0.3041458,-0.2505399,-0.2669162,0.04610241,-0.4690486
1.188165,-0.4010774,-0.05345074,0.05749406,0.2488742,-0.4292586
1.168605,-0.3853956,0.189897,0.518313,0.1471272,-0.3388546
1.200106,-0.272037,0.1974106,0.7181451,-0.07494662,-0.2410882
1.212461,-0.08628211,0.1218497,0.53956,-0.1622529,-0.1859433
1.175426,0.04936921,0.02900723,0.299642,-0.05933034,0.04952972
1.151694,0.04517659,-0.05040955,-0.1266551,0.1603078,0.302927
1.0725,0.00956951,0.005145409,-0.3545069,0.3918509,0.317768
0.8985181,0.01884964,0.0817674,-0.3145968,0.3563069,0.3422762
0.7221649,-0.005049302,0.08700247,-0.5567662,0.2446332,0.4232412
0.6410909,-0.05115059,0.107043,-0.6181421,0.3035872,0.3138684
0.6583003,-0.07613437,0.1297521,-0.4818226,0.1450198,0.1956738
0.6833697,-0.1086937,0.1389211,-0.5346939,-0.0408989,0.1961075
0.7394836,-0.1190388,0.1637071,-0.4295701,0.02723299,0.1675256
0.7850447,-0.09770936,0.1704504,-0.4544222,0.0451231,0.1738863
0.7798415,-0.07312388,0.1881572,-0.581419,0.06611953,0.1992019
0.8211331,-0.04720898,0.2294777,-0.4198664,0.1041532,0.199016
0.8530876,-0.03955056,0.230786,-0.3768357,0.1024001,0.1890845
0.8693151,-0.07249117,0.2223817,-0.3851505,0.118848,0.1025339
0.9322779,-0.1318682,0.2233743,-0.3125497,-0.01571344,0.06983731
1.017745,-0.1732538,0.2092195,-0.2957388,-0.2610641,0.1341932
1.16162,-0.1901109,0.2233478,-0.1140397,-0.337721,0.1679174
1.293887,-0.1479604,0.3124608,0.2767915,-0.01843148,0.1233291
1.316516,-0.005557127,0.3897782,0.5734324,0.2840515,0.01830485
1.338599,0.08659787,0.2570449,0.2968634,-0.0322695,0.02975682
1.404953,-0.03187757,0.0197255,-0.05884986,-0.2805558,0.2628348
1.383489,-0.2819422,-0.01058397,0.1719562,0.1731779,0.5322347
1.230175,-0.4793882,0.1253131,0.3238596,0.7413812,0.4897948
1.013441,-0.508867,0.1985022,0.4198305,0.921136,0.1737031
0.8860968,-0.3604578,0.09899282,0.6390467,0.5041678,-0.05993525
0.9207665,-0.1784713,-0.06073707,0.2964882,-0.06049474,-0.1944674
0.9508845,-0.1218209,-0.09873809,-0.1368999,0.01785473,-0.2236824
0.9970599,-0.1345237,-0.08749462,-0.2109953,0.2114903,-0.2452034
1.120193,-0.1403479,-0.07094176,-0.3129763,0.1492385,-0.3659578
1.15965,-0.163133,0.01336807,-0.299736,0.2349368,-0.3794459
1.034681,-0.2031127,0.1108724,-0.1056156,0.08883522,-0.4184007
0.8153787,-0.2337481,0.1545791,0.0884763,-0.1900176,-0.4641709
0.7630255,-0.2161495,0.1117083,0.2070012,-0.190417,-0.3491681
0.7869988,-0.1891036,0.08556967,0.3633323,-0.2939719,-0.2193571
0.7186207,-0.1575674,0.1020953,0.663219,-0.4549426,-0.03557004
0.8031496,-0.08867121,0.04477609,0.7060861,-0.4893375,0.04293509
0.8658443,-0.05930657,-0.00442059,0.5621224,-0.443076,-0.02271881
0.859117,-0.04604627,-0.002025747,0.5800245,-0.3137751,0.03363802
0.9285786,-0.007483347,0.02703275,0.5500389,-0.2749992,0.1353134
0.8892663,0.0247996,0.1002898,0.5306419,-0.2810312,0.2531473
0.8997614,0.09005908,0.1401866,0.5370543,-0.26893,0.3262774
0.9438624,0.1616433,0.1499923,0.4132242,-0.2288919,0.2844876
0.936119,0.176851,0.1597202,0.2858545,-0.1123672,0.2668896
1.002464,0.1370556,0.1574633,0.1057081,-0.0348426,0.2372619
1.000261,0.08793813,0.1625091,-0.03861647,0.009186785,0.1793422
1.009652,0.07796553,0.1814458,-0.04518025,0.01021177,0.07929816
1.042718,0.07927402,0.2113596,-0.103445,-0.007089413,-0.1191542
1.036589,0.07196715,0.2156244,-0.1482023,0.02344066,-0.2558418
1.123575,0.04069346,0.2313653,-0.1024604,0.01036895,-0.2807024
1.203446,-0.04574146,0.262564,0.02036125,-0.04397535,-0.3403053
1.27158,-0.1492248,0.1861889,0.1359037,-0.2066824,-0.5128411
1.345327,-0.2056689,0.007424711,-0.04356287,-0.5016613,-0.6811537
1.35947,-0.2035483,-0.1562082,-0.2918442,-0.6403237,-0.6005079
1.342936,-0.2604129,-0.1869454,-0.1801952,-0.3343523,-0.413721
1.297055,-0.4185306,-0.09577741,0.1327538,0.2135877,-0.402511
1.275735,-0.4653733,0.009836957,0.4981919,0.3801405,-0.3869008
1.225713,-0.3027552,0.1056088,0.7611258,0.1123006,-0.3186324
1.138162,-0.05371275,0.088072,0.6853086,-0.1135441,-0.2251611
1.098119,0.1058027,-0.01768035,0.4604362,-0.09072553,0.05356085
1.083698,0.05264989,-0.03108104,0.03592831,0.1235664,0.2769783
1.085121,-0.008668188,-0.02611313,-0.474949,0.311777,0.3125636
0.991369,0.03543401,-0.007889459,-0.5336492,0.3429342,0.3217658
0.8256388,-0.02527238,0.06087214,-0.5636687,0.3338301,0.2732176
0.7370262,-0.07778222,0.08173228,-0.7365624,0.3390566,0.1891934
0.7004396,-0.05593937,0.1344199,-0.5999699,0.220628,0.1116837
0.7173335,-0.1119938,0.1783973,-0.5393616,0.02736108,0.07329523
0.7683906,-0.110706,0.144469,-0.525884,-0.02130925,0.07708501
0.8283094,-0.09391829,0.1508671,-0.3870294,0.01866021,0.05699526
0.875481,-0.1147509,0.1669139,-0.4681196,0.06441887,0.05592222
0.8755027,-0.05589646,0.1837329,-0.4470197,0.1182158,0.05765222
0.8842816,-0.04964271,0.2171612,-0.3136615,0.1832797,0.04634902
0.8556169,-0.05851777,0.2266094,-0.3128715,0.2410852,0.05807572
1.12522,-0.1885304,0.1906237,0.4688006,-0.3904438,0.1313051
1.204429,-0.1535915,0.2099292,0.7045955,-0.2294989,0.03976824
1.264666,-0.004743744,0.2383625,0.8137176,0.002759018,-0.01327109
1.34179,0.1246992,0.1634722,0.5343997,-0.1231735,0.1351729
1.429577,-0.03120023,0.05101049,0.1852962,-0.1573217,0.5187255
1.405902,-0.3603065,0.005515955,0.245485,0.2034727,0.6566449
1.202267,-0.5097399,0.08140415,0.517618,0.7848365,0.2923493
0.9280667,-0.5354526,0.2348719,0.6207614,1.12401,-0.2203082
0.684601,-0.5116997,0.3295584,0.7312162,0.4070711,-0.4536028
0.7460302,-0.3880507,0.1937348,0.7258393,-0.5804721,-0.4476399
0.9754402,-0.2581755,-0.06137881,0.4760675,-0.4938212,-0.3690743
1.060078,-0.1716632,-0.1334847,0.3642222,-0.1100524,-0.2000228
1.238005,-0.2199942,-0.1210371,0.2399146,0.07645779,-0.2161991
1.243126,-0.2831106,-0.08331875,0.1732962,0.4102287,-0.3805169
0.9776835,-0.2377466,0.07543799,0.4299028,0.2570206,-0.4299681
0.8629684,-0.2584314,0.1641083,0.6207953,-0.1250083,-0.4709689
0.7552096,-0.246929,0.1543595,0.792857,-0.2127436,-0.4086712
0.7740411,-0.1888685,0.1169341,0.9983322,-0.4259637,-0.2561936
0.871221,-0.1579086,0.03512506,1.039606,-0.4402979,-0.08821087
0.8248428,-0.04650697,0.0006133185,0.9389861,-0.2122425,0.03765898
0.895032,-0.006693691,-0.007925804,0.6474631,-0.08462737,-0.01794505
0.8677506,-0.02299187,0.01022679,0.5653561,0.02345535,0.05826702
0.8022599,-0.0005806721,0.07582383,0.6841857,-0.1849066,0.2223252
0.8578823,-0.0176118,0.1137521,0.6582863,-0.4801838,0.2970867
0.8191516,0.007895196,0.1375441,0.721914,-0.514895,0.4361036
0.8971386,0.0477459,0.1348463,0.6782577,-0.4491471,0.4342612
0.988992,0.0744054,0.1340495,0.5363245,-0.2292642,0.3790245
0.9940755,0.1079448,0.1604724,0.4985385,-0.08035258,0.37131
1.029421,0.08702542,0.1640446,0.289916,-0.09314239,0.2599351
1.00841,0.04877237,0.1941698,0.08451042,-0.1208879,0.1982998
1.051101,-0.004210314,0.2246625,0.004839904,-0.1508354,0.1116718
1.082472,-0.02867764,0.2183458,-0.06326128,-0.07357305,-0.04689475
1.107968,-0.02276063,0.2286327,-0.07201245,0.01041408,-0.1594148
1.209423,-0.09725436,0.2521552,0.09562126,0.06307913,-0.2435528
1.248274,-0.1911517,0.2763867,0.5020838,-0.05918337,-0.3106854
1.305287,-0.2174979,0.2235908,0.6385952,-0.5220768,-0.4900439
1.326684,-0.1741376,-0.003021153,0.2895981,-0.9589225,-0.6498026
1.315893,-0.1613403,-0.2697405,0.03214309,-0.9805022,-0.5189619
1.306831,-0.2927679,-0.2739779,0.1482465,-0.4286204,-0.305621
1.161603,-0.4023371,-0.05332909,0.4135524,0.3078791,-0.2584503
1.063202,-0.3177135,0.08608099,0.663735,0.5527761,-0.2494692
1.060951,-0.1405253,0.1363434,0.8447065,0.1567034,-0.2133391
1.074015,0.01319419,0.08934669,0.7488395,-0.3184093,-0.1712722
1.130072,0.08824992,-0.04148178,0.4409733,-0.2913981,0.06259278
1.131981,0.04108872,-0.05984195,0.104752,-0.1123401,0.3180735
1.066228,0.003042271,-0.05087165,-0.2191065,0.08368087,0.3446081
0.9280203,0.03282513,-0.0550011,-0.3910715,0.4388825,0.358516
0.8058497,-0.01198253,-0.01792664,-0.630516,0.4837721,0.3381045
0.7461619,-0.0685447,0.05114814,-0.7812311,0.314095,0.2087596
0.6420316,-0.1060729,0.1757717,-0.5897656,0.1553179,0.1551804
0.6841756,-0.1705176,0.1645486,-0.5251653,-0.02161916,0.172833
0.8249818,-0.1600733,0.1140316,-0.4271238,-0.01299828,0.1745112
0.8010837,-0.147462,0.1720051,-0.2643834,0.02858262,0.1568611
0.7976113,-0.1368572,0.1433782,-0.3391284,0.01762408,0.1460935
0.8449181,-0.06879962,0.1454127,-0.3147477,0.04505854,0.1351176
0.8221511,-0.0315771,0.1936755,-0.2999682,0.08302969,0.1295286
0.839926,-0.02692557,0.1748084,-0.3376315,0.1318589,0.1401886
0.8800232,-0.1050868,0.198747,-0.2756003,0.1376788,0.124623
0.9580708,-0.1827176,0.2287892,-0.238737,0.1087113,0.08520866
1.062142,-0.1571402,0.2617549,-0.007500146,-0.00851635,0.01999376
1.076732,-0.1368292,0.2746266,0.2490565,-0.126876,-0.026891
1.165249,-0.08574754,0.2643278,0.274546,-0.07716079,-0.001443885
1.28057,-0.03332405,0.3117358,0.3198795,-0.0538728,0.08793955
1.284611,-0.06462702,0.2608217,0.3826991,-0.06116817,0.363888
1.464374,-0.1376006,0.1191666,0.3695556,0.1639159,0.7068657
1.626192,-0.2539437,0.07202209,0.413036,0.5325327,0.6070955
1.257494,-0.3707802,0.1727214,0.4852684,0.6897501,0.03321131
0.7625603,-0.4103494,0.300226,0.3627697,0.4551671,-0.4396175
0.7422408,-0.336062,0.1892303,0.1562585,-0.06507678,-0.4368402
0.9344742,-0.2002707,-0.04092955,-0.008187934,-0.5647548,-0.1736044
1.024773,-0.1184509,-0.1687882,-0.1769005,-0.5698628,-0.07910307
1.143574,-0.1749738,-0.2074827,-0.2496226,-0.06634105,-0.1173588
1.218771,-0.2961577,-0.1126715,-0.2967064,0.2853813,-0.187173
1.089821,-0.3286834,-0.00350828,-0.07513166,0.244097,-0.4219945
0.8792488,-0.3503917,0.1034566,0.4296847,0.03018663,-0.5700726
0.7538748,-0.3693398,0.1854169,0.6605163,-0.2034661,-0.5409842
0.739935,-0.3174089,0.1039084,0.9272361,-0.3055011,-0.4699272
0.7668484,-0.2604151,0.08129773,1.315034,-0.4562119,-0.2492765
0.8049098,-0.1244435,0.04148575,1.309608,-0.6014487,-0.03942236
0.8557844,0.01076039,-0.08617566,1.082711,-0.386476,0.04450684
0.8972803,0.03949289,-0.04889124,0.7481125,-0.1120691,0.09308635
0.9045115,0.07502144,0.008714611,0.4474308,-0.0736922,0.157801
0.8789456,0.07231003,0.0887216,0.4583161,-0.1834997,0.2674529
0.856263,0.06045106,0.17446,0.5094763,-0.3956191,0.3316585
0.8439234,0.1038113,0.1226934,0.4236966,-0.5769132,0.4160674
0.8834837,0.1336272,0.1199688,0.3191064,-0.561335,0.5003364
0.9751689,0.1493108,0.1158865,0.2027367,-0.3186949,0.503482
1.036694,0.09703035,0.1007239,0.1232798,-0.03272656,0.5091816
1.059409,0.01286873,0.1475786,0.1454015,0.1152309,0.4607554
1.052093,0.005876795,0.1434812,0.09862601,0.1171706,0.3268406
1.060433,0.03878123,0.1548341,-0.1329146,0.07534365,0.0497035
1.116526,0.05014716,0.1744285,-0.4807126,0.08313236,-0.3059824
1.206428,-0.03653496,0.2085302,-0.7052694,0.07285127,-0.5097016
1.357618,-0.202368,0.3030855,-0.3670927,-0.007340837,-0.601451
1.437849,-0.2782106,0.2803365,0.1077882,-0.2422614,-0.6485513
1.368074,-0.1958275,0.03977231,0.03674814,-0.6144696,-0.6472671
1.332563,-0.1443557,-0.2210536,-0.06425941,-0.6670429,-0.5235978
1.329955,-0.2898007,-0.2386247,0.04714245,-0.09133165,-0.2865
1.237615,-0.4333733,-0.1928586,0.1512238,0.5786868,-0.2248109
1.13677,-0.41843,-0.1200891,0.4307289,0.551774,-0.3298163
1.083353,-0.3450018,0.1830949,0.5950454,0.07251648,-0.3489382
1.074918,-0.1967699,0.2438231,0.5123708,-0.2385318,-0.228172
1.131516,0.01065333,0.03814053,0.4114436,-0.3769377,0.04532214
1.176714,0.08796488,-0.0149077,0.07982086,-0.1854798,0.355847
1.167784,0.03295227,-0.1150052,-0.286703,0.2087392,0.4549087
1.064071,0.02671655,-0.09356077,-0.4595966,0.4218298,0.4213509
0.8327592,0.02512727,0.06810745,-0.7383114,0.5395368,0.427409
0.6467384,-0.06774431,0.06984705,-0.8455666,0.4141805,0.3171989
0.5750834,-0.125632,0.1634702,-0.5817137,0.111395,0.1592338
0.559472,-0.1444514,0.2022005,-0.4583241,-0.1369359,0.1527484
0.6351526,-0.1596869,0.1124056,-0.4325822,-0.2669173,0.1719708
0.7444477,-0.1081899,0.1454322,-0.3545414,-0.09900088,0.2015855
0.8185857,-0.05304724,0.1346902,-0.4647969,-0.02666205,0.24546
0.8660024,-0.02686091,0.1507965,-0.5185825,-0.01942743,0.2288897
0.8823582,-0.02621817,0.1976838,-0.4628989,0.1863293,0.1919225
0.8896818,-0.06485804,0.1713404,-0.4897671,0.1839367,0.1203527
0.9250502,-0.1298803,0.2084562,-0.4218764,0.1370249,0.05825184
1.008536,-0.1982657,0.2278748,-0.2314425,0.05581589,0.04596763
1.122669,-0.1757866,0.2271333,0.03840757,-0.09757672,0.03673294
1.239467,-0.1199461,0.2317895,0.1766318,0.04294275,0.02346705
1.30766,-0.08595618,0.2091626,0.1307881,0.1346271,0.05806338
1.312102,-0.0268194,0.1956192,0.2262724,0.08507027,0.2902733
1.343124,-0.1610177,0.1034695,0.304835,0.09701897,0.6747728
1.365992,-0.4729235,0.02428708,0.3383993,0.1600394,0.7829795
1.233828,-0.5857031,0.08313005,0.5547446,0.466497,0.3188977
0.9893563,-0.4760737,0.1324006,0.6661021,0.6981403,-0.215997
0.8702306,-0.3363791,0.03474213,0.4354155,0.3148995,-0.2213658
0.9930787,-0.2220081,-0.120732,0.08192381,-0.2587974,-0.05485235
1.140626,-0.1610814,-0.2010297,-0.1124993,-0.2421878,-0.09200645
1.134563,-0.2126338,-0.2001943,-0.1949228,0.1328436,-0.1635089
1.064436,-0.2979385,-0.06626239,-0.1849998,0.3085428,-0.2721078
0.9571632,-0.2921953,0.08966913,0.05004346,0.1877145,-0.3862241
0.8152862,-0.2811679,0.09362479,0.3698504,-0.09959693,-0.3982301
0.7017662,-0.2734136,0.07221775,0.5785081,-0.1942441,-0.4029608
0.647557,-0.230086,0.07830937,0.6595956,-0.2553718,-0.3557534
0.7099847,-0.193831,0.04936757,0.776399,-0.4192351,-0.1474632
0.8027771,-0.09546048,0.00776912,0.8886196,-0.4024513,0.1049409
0.8574131,-0.009256028,-0.01223058,0.7896579,-0.2529178,0.191674
0.9174834,0.01091832,0.001250808,0.6188506,0.0500241,0.118475
0.8989642,0.04116107,0.02372259,0.4502505,0.1440106,0.13278
0.874098,0.038437,0.06087612,0.3363331,-0.1588823,0.2431853
0.8838915,0.06133424,0.1273322,0.3771114,-0.4103867,0.33462
0.8469547,0.1249669,0.1919149,0.3453655,-0.5480564,0.4357462
0.9050599,0.1402513,0.174972,0.1907812,-0.3573841,0.4221045
1.000807,0.1214961,0.1275036,0.07693499,-0.02949933,0.3433036
1.003083,0.07738077,0.1683094,0.0472797,-0.001807676,0.325955
1.011112,0.02033707,0.1986016,0.07271381,0.004386883,0.2122138
1.029112,-0.01343202,0.1979731,0.00603058,-0.04872143,0.01395618
1.054352,0.006060431,0.1996846,-0.2258999,-0.1236413,-0.2644396
1.11209,0.02221676,0.157588,-0.4504274,-0.05763571,-0.5447686
1.200076,-0.0482937,0.1626879,-0.4226132,-0.1061132,-0.6044977
1.351346,-0.2324274,0.1545327,-0.2272868,-0.3114398,-0.6726982
1.494889,-0.4392765,0.04862084,-0.1365338,-0.5250322,-0.8323519
1.460427,-0.4083289,-0.1188902,-0.1190883,-0.3831035,-0.8465356
1.322937,-0.3191458,-0.3099818,-0.08568579,0.1802795,-0.7285263
1.30959,-0.4207339,-0.2362888,0.01884181,0.5469362,-0.5707571
1.302463,-0.3753827,0.01602851,0.1862085,0.2656786,-0.4548897
1.264802,-0.2307899,0.08541818,0.2912005,-0.2571838,-0.2962945
1.298374,-0.1316007,0.1026654,0.3132241,-0.2629775,-0.006365005
1.243288,0.08075853,0.02491342,-0.032792,0.06338705,0.2339514
1.175436,0.127167,-0.1125278,-0.625378,0.4393962,0.3229131
1.100043,0.0185788,-0.03361411,-0.7900369,0.8096025,0.3308264
0.852241,0.003835098,0.02311456,-0.8778509,0.6731654,0.3551429
0.6331881,-0.02355876,0.03757236,-1.185979,0.5143391,0.3494567
0.5540328,-0.05527929,0.1281682,-1.164961,0.5204018,0.2362166
0.5676996,-0.1110574,0.13114,-0.9865124,0.09627639,0.128156
0.6284381,-0.1547681,0.1425897,-0.8979024,-0.08343541,0.111939
0.6983648,-0.1423063,0.1390684,-0.758534,0.06382693,0.1644029
0.7821796,-0.1396208,0.1030183,-0.7437199,0.00295193,0.1899646
0.7953956,-0.07968198,0.1578331,-0.7346902,0.03316834,0.1682362
0.7986728,-0.06076166,0.1872882,-0.5904121,0.06239417,0.1535385
0.8280794,-0.09217829,0.1969496,-0.5335352,0.07762926,0.09858093
0.8370155,-0.117418,0.2105915,-0.4994444,0.1909268,0.05477928
0.9008549,-0.1894789,0.2193299,-0.2877127,0.1035905,0.05876737
0.9839071,-0.1818434,0.2593028,0.07128334,-0.2002796,0.04615701
1.09837,-0.156168,0.2461351,0.3028989,-0.424859,0.05042128
1.305573,-0.1520151,0.244704,0.4021923,-0.1536048,0.05702758
1.466408,-0.04582802,0.254737,0.5655801,0.2479449,0.09160361
1.526381,0.02146268,0.1428997,0.4195179,0.2049333,0.298191
1.60625,-0.06886589,0.005710558,0.07341189,0.2460065,0.6108597
1.530155,-0.235511,0.001462554,0.1257062,0.3700784,0.6458258
1.152907,-0.3731602,0.1450667,0.3577652,0.2769619,0.2243507
0.8843982,-0.434194,0.2254378,0.4802122,0.310289,-0.1968308
0.8750795,-0.338771,0.06248614,0.3079897,0.08030078,-0.2238542
0.9722588,-0.1659074,-0.1460433,-0.07694145,-0.2464323,-0.1240903
1.127702,-0.1621706,-0.1625636,-0.1633461,0.0003676211,-0.1851075
1.147389,-0.2093167,-0.07239833,-0.1685666,0.1972819,-0.2664447
1.056356,-0.2060117,0.004203637,-0.1791514,0.1500716,-0.3327425
0.9099641,-0.2499301,0.09697469,0.04585709,0.08164983,-0.4708373
0.7322081,-0.2596225,0.1291361,0.2393867,-0.1471869,-0.5151997
0.7062848,-0.2532343,0.095,0.4705792,-0.2669909,-0.4654422
0.7331976,-0.21395,0.08616546,0.760214,-0.3410452,-0.3165875
0.7388856,-0.1027246,0.02572144,0.946222,-0.4101075,0.02159891
0.7565145,-0.06152844,-0.01530449,1.02411,-0.2401348,0.1887553
0.811228,-0.03267422,0.02637595,0.8206766,-0.07438748,0.1116047
0.9087385,0.08030764,0.03323651,0.5368515,-0.06732784,0.1181048
0.8986304,0.1600654,0.05705765,0.3343346,-0.156735,0.1930033
0.8766976,0.1442319,0.1156344,0.1558349,-0.2849312,0.2767123
0.9164229,0.1495412,0.1691893,0.08913577,-0.3545851,0.3775729
0.9243238,0.1855002,0.2038831,0.0229013,-0.3012061,0.4147556
0.9578976,0.1398853,0.1709276,0.002341799,-0.142382,0.3748066
0.9985537,0.09186383,0.1657632,0.01891547,-0.01587301,0.3382233
1.019891,0.0496027,0.1967113,-0.0333395,0.02500905,0.2843136
1.046091,-0.001916989,0.1982854,-0.06626038,0.0003400253,0.09925544
1.073383,0.04062483,0.219742,-0.1917878,-0.003870229,-0.1557168
1.101081,0.03782693,0.220775,-0.2703821,0.05140771,-0.3473909
1.183065,-0.08402205,0.2059645,-0.07079123,0.001729276,-0.4562747
1.343453,-0.2187867,0.1816704,0.07318631,-0.242823,-0.5686432
1.398312,-0.2992051,0.02395076,-0.1226943,-0.5561444,-0.7382127
1.344872,-0.3007327,-0.2286693,-0.3098542,-0.5009947,-0.8447898
1.32926,-0.3542678,-0.3314189,-0.134224,0.0306331,-0.7737752
1.289056,-0.4078406,-0.1306048,0.1339539,0.361052,-0.6202988
1.251213,-0.348086,0.1176423,0.3756883,0.1254142,-0.5317306
1.296927,-0.2456911,0.1228351,0.6126833,-0.2398044,-0.4214709
1.337166,-0.04705491,0.0284552,0.5614599,-0.2379024,-0.2217402
1.2903,0.1058393,-0.03521343,0.2157677,0.06239373,0.01765924
1.189881,0.06574684,-0.05561078,-0.3270481,0.4560831,0.231847
1.033161,0.03163458,0.0109341,-0.6525871,0.7247324,0.2464637
0.8158107,0.02430254,0.06975087,-0.5336058,0.5175147,0.2663883
0.6670207,0.00336157,0.08130116,-0.6731578,0.3462775,0.3867858
0.5792478,-0.01109009,0.08901865,-0.897529,0.4489983,0.2763104
0.5339362,-0.07955562,0.1063352,-0.7074594,0.252634,0.155474
0.6182428,-0.1178669,0.1423439,-0.6262411,0.06325506,0.1604472
0.6935915,-0.1082954,0.1508736,-0.6471132,0.07307343,0.1430142
0.7318404,-0.0970938,0.1482464,-0.5770502,0.05202288,0.2019553
0.7995262,-0.04319378,0.1733931,-0.5915863,0.07335925,0.2126464
0.8021754,-0.02782296,0.1974522,-0.5258725,0.03613103,0.1999648
0.8121384,-0.05523036,0.2048665,-0.4275171,0.03386375,0.2286222
0.8560296,-0.07206568,0.2019676,-0.3796792,0.07336707,0.1816037
0.910316,-0.116267,0.2284336,-0.2346548,0.03234322,0.1552407
1.027066,-0.1171682,0.2603548,-0.04304427,-0.03798628,0.1227244
1.113727,-0.07396479,0.2490067,0.06952009,-0.1498577,0.1089364
1.198023,-0.05691298,0.2475326,0.0321101,-0.1058417,0.1460793
1.325753,-0.04744205,0.2519079,0.07889171,-0.02278787,0.2262449
1.510892,-0.09721042,0.1800014,0.361177,-0.06977095,0.6230587
1.711189,-0.2375338,0.04436496,0.5243776,0.1808406,0.9893062
1.564309,-0.4092761,-0.02881637,0.4511401,0.8444563,0.6193016
1.24628,-0.4795824,0.01436075,0.3666372,1.273929,-0.08005643
1.066891,-0.3433815,0.06108061,0.2945667,0.7079177,-0.3437758
0.7902179,-0.1661369,0.04644097,0.07620614,-0.1800146,-0.3045656
0.8976796,-0.08695487,-0.01757954,-0.1823252,-0.2282843,-0.2062803
1.362143,-0.06740659,-0.1005745,-0.2923079,-0.03356437,-0.1045467
1.283473,-0.1321866,-0.07050949,-0.4736326,0.09221952,-0.2200679
1.088277,-0.2080134,0.05270871,-0.6348897,0.4191724,-0.343062
0.9695154,-0.2160969,0.1373047,-0.4648658,0.2716396,-0.3266115
0.6422813,-0.2420808,0.1967424,-0.2216286,-0.07522885,-0.33698
0.61064,-0.2647453,0.1838341,0.01359768,-0.1748,-0.2779445
0.6486554,-0.2312764,0.1355522,0.408218,-0.441814,-0.1635604
0.6653703,-0.1717282,0.1061978,0.7419501,-0.5834245,-0.008538016
0.862624,-0.06848231,-0.004226797,0.7860888,-0.5055183,0.09939187
0.8539649,0.02540141,-0.060148,0.5675142,-0.3857531,0.06408584
0.8444015,0.05171656,-0.01719626,0.2770301,-0.1379046,0.1193987
0.8733412,0.08255733,0.01288532,0.1067848,-0.07800402,0.2256918
0.8212343,0.1121832,0.07330292,0.05622714,-0.2368186,0.3247572
0.8870636,0.1010449,0.09186424,0.07647204,-0.460522,0.4791349
0.9144354,0.1011222,0.08861728,0.09582814,-0.6205483,0.5538121
0.9700156,0.1028963,0.09400174,0.05455453,-0.3678198,0.5200005
1.050069,0.0656417,0.05206757,0.05588002,0.005168197,0.4120566
1.039661,0.001001244,0.09825446,0.1275535,0.0283484,0.2968814
1.058305,-0.05435583,0.1792853,0.2455262,-0.05512355,0.1298666
1.043188,-0.04456449,0.1867532,0.3100395,-0.09858616,-0.1321542
1.041081,0.02923544,0.197195,0.08133029,-0.2116199,-0.3333209
1.12609,0.06145265,0.210033,-0.1554284,-0.1840483,-0.4768308
1.288997,-0.06087373,0.2378218,-0.04548712,-0.1801011,-0.5537149
1.448596,-0.21702,0.217752,0.007241089,-0.5899871,-0.6009302
1.453851,-0.2282101,0.02235588,-0.1689126,-0.8530753,-0.6671725
1.415203,-0.2764927,-0.2400164,-0.2184874,-0.3124746,-0.5191621
1.354313,-0.4233875,-0.2787872,-0.1189193,0.4811754,-0.3154064
1.184497,-0.4354533,-0.02738345,0.07543145,0.5705678,-0.3609511
1.06462,-0.3762855,0.2000807,0.3695834,0.1243134,-0.4102826
1.114179,-0.2553053,0.2225309,0.5224392,-0.1712569,-0.3125646
1.194154,0.003918941,0.1163717,0.4455427,-0.2764965,-0.09869055
1.220632,0.09716521,-0.02715648,0.1343274,-0.1766308,0.2871913
1.240056,0.006661287,-0.07800389,-0.2924223,0.105719,0.5011634
1.099983,0.01173123,-0.03076033,-0.4370453,0.3817022,0.3954292
0.8138971,0.02871547,0.03155046,-0.5594452,0.499955,0.4016133
0.6222069,-0.02583388,0.07632606,-0.9096805,0.395477,0.4004474
0.5295062,-0.06251859,0.1255218,-0.9515017,0.4075766,0.206485
0.5193224,-0.09438915,0.1910294,-0.8284332,0.3100173,0.1533904
0.5744683,-0.1303851,0.1888603,-0.8252076,-0.06106392,0.1825954
0.6638322,-0.136281,0.1616906,-0.645611,-0.09681706,0.1767389
0.7861656,-0.1240748,0.1668433,-0.5493563,0.001693578,0.187382
0.8377323,-0.09770653,0.1796513,-0.6101387,0.009641995,0.1410113
0.8345927,-0.06869263,0.2165018,-0.5461257,0.09608877,0.0998216
0.8431321,-0.07156428,0.2145742,-0.5255375,0.1009282,0.08092964
0.8702626,-0.1114699,0.2004749,-0.5292549,0.1195547,0.08108429
0.937086,-0.1710687,0.2137872,-0.4227282,0.07973546,0.09850613
1.040989,-0.2034722,0.2160439,-0.1873219,-0.1726027,0.09640509
1.226507,-0.2145205,0.2717803,0.1387902,-0.30496,0.1005778
1.400801,-0.2298513,0.3609212,0.379163,0.0410611,0.0004649315
1.430569,-0.1915728,0.3669576,0.5017559,0.4188952,-0.0567181
1.54996,-0.1534439,0.1825917,0.4488937,0.1181934,0.2807112
1.751217,-0.2476376,-0.0603706,0.326384,-0.1168666,0.7657065
1.55901,-0.4394347,-0.06481239,0.395601,0.2732715,0.7723115
1.234501,-0.5588555,0.01756651,0.5192814,0.5024692,0.2020492
1.129374,-0.4922368,0.03817204,0.5052058,0.4395398,-0.2992005
0.8968639,-0.3478327,0.1138035,0.2903989,0.182497,-0.2918233
0.951188,-0.2369337,0.02108822,-0.01619577,-0.1458249,-0.2142447
1.313152,-0.1424101,-0.1683024,-0.1570994,-0.01321153,-0.4097567
1.197563,-0.1356926,-0.09821418,-0.2710944,0.1687748,-0.5048571
1.048833,-0.1742936,0.006852942,-0.3929278,0.0522494,-0.4579786
0.9660988,-0.1771496,0.06011395,-0.1656125,-0.01239357,-0.4869692
0.6662659,-0.2434806,0.1483917,0.1883536,-0.1541691,-0.4268523
0.6198122,-0.279131,0.1097824,0.3039236,-0.3180644,-0.3740658
0.5947261,-0.2270798,0.0900221,0.5336906,-0.4294658,-0.2645688
0.571192,-0.181221,0.09232509,0.9357289,-0.6415668,0.06733813
0.7534998,-0.07169346,-0.02256879,1.02527,-0.5992906,0.2470515
0.8432871,0.02011288,-0.06989203,0.7982126,-0.387534,0.2567005
0.9563348,0.03503452,-0.05601941,0.5309065,-0.2621444,0.256354
0.9643642,0.08268703,-0.004497937,0.354498,-0.1229072,0.259969
0.881808,0.1122945,0.1008996,0.2970063,-0.2049121,0.3254253
0.929979,0.116615,0.130202,0.2794265,-0.3357084,0.3558995
0.9099642,0.129956,0.1280222,0.2866997,-0.3149588,0.3948895
0.9636459,0.1079747,0.1342453,0.2758085,-0.238075,0.3959436
1.046235,0.03401154,0.1481856,0.26522,0.02536002,0.3225797
1.056269,-0.05148825,0.1842902,0.3243361,0.09231246,0.1965723
1.105414,-0.02388545,0.1910562,0.2994948,-0.07106653,-0.1305685
1.079802,0.1207779,0.193656,0.02400604,-0.0688553,-0.4442666
1.139924,0.1852615,0.1951673,-0.4242325,-0.08631039,-0.5914997
1.2944,0.01635881,0.1858133,-0.620969,-0.211879,-0.6693765
1.403521,-0.2223919,0.1544221,-0.528833,-0.569753,-0.7058722
1.463748,-0.2483843,-0.01426567,-0.5612754,-0.8939056,-0.7535288
1.414288,-0.2514124,-0.2678662,-0.5239298,-0.5452771,-0.6385574
1.391982,-0.4338282,-0.2943696,-0.3172569,0.03381552,-0.4328387
1.336748,-0.4975868,-0.02234512,-0.07306816,0.2466261,-0.4181184
1.250169,-0.3477782,0.1742669,0.3476202,0.1669223,-0.4002719
1.240245,-0.1507278,0.09852413,0.5333532,-0.122311,-0.1969902
1.130984,0.00748468,-0.02706715,0.3865337,-0.3268331,0.1215317
1.055062,0.0276338,-0.05818022,0.2158279,-0.1183997,0.3900112
1.025888,-0.01323871,-0.03803704,-0.1136351,0.1495872,0.4213766
0.8988134,-0.0122073,-0.009541483,-0.2467856,0.1441393,0.3748406
0.802174,-0.02570984,6.056666e-05,-0.2559886,0.2762194,0.4075525
0.6333441,-0.05736212,0.03982968,-0.5004411,0.5502657,0.3381445
0.4918223,-0.0664155,0.1134339,-0.4435632,0.4944261,0.1736621
0.5783727,-0.04913425,0.09850354,-0.3718985,0.279049,0.07693137
0.6144116,-0.0416979,0.07441464,-0.5886783,0.0999246,0.07868184
0.5928285,-0.0356668,0.1141256,-0.6738704,-0.03998495,0.165427
0.7108345,-0.02559022,0.108359,-0.8099675,0.01621906,0.2474812
0.8132015,-0.0347638,0.1442507,-0.8205516,0.08657156,0.2921004
0.8483185,-0.04167915,0.2125596,-0.6626477,0.1236877,0.2892422
0.8998791,-0.08539357,0.2152858,-0.6198369,0.2829495,0.1936884
0.9391985,-0.1451265,0.23539,-0.4540129,0.3115859,0.06201689
0.9538886,-0.1544994,0.2384914,-0.3435269,0.1123932,-0.01490971
0.9717138,-0.1655227,0.2331165,-0.2265434,-0.1497987,0.06684715
1.108735,-0.1828563,0.2655417,0.1561202,-0.2800639,0.1751133
1.342532,-0.1794431,0.308863,0.514993,-0.1507402,0.2035281
1.474824,-0.1818833,0.3418785,0.6748109,0.03210315,0.3950563
1.528149,-0.205045,0.1956839,0.5730081,0.152783,0.648857
1.571934,-0.2732048,-0.02457039,0.5558921,0.243305,0.665299
1.442945,-0.4191689,-0.01397947,0.718932,0.520258,0.3688365
1.110089,-0.5120837,0.08884933,0.6571308,0.8756853,-0.05040709
0.9715241,-0.3629868,0.07521603,0.41873,0.45917,-0.1018932
1.113958,-0.1563074,-0.03940907,-0.0682064,-0.09918417,-0.0007885994
1.164281,-0.1315473,-0.1705377,-0.5720176,0.2227228,-0.2241685
1.139547,-0.1736634,-0.1447451,-0.6307274,0.3616277,-0.4202101
1.051837,-0.1966891,0.005828717,-0.5107209,0.1204864,-0.4530839
0.8151956,-0.2251111,0.1109709,-0.2878825,0.04018107,-0.4638786
0.664906,-0.2547932,0.1645171,0.07154464,-0.3304944,-0.4123826
0.6251045,-0.2843379,0.1041713,0.2873116,-0.4396656,-0.3908677
0.6068251,-0.278987,0.01784515,0.4079874,-0.2240725,-0.2813267
0.6416332,-0.2363678,0.03693171,0.6619968,-0.3728102,-0.07882416
0.7074118,-0.1560908,-0.008227287,0.8708828,-0.3575398,0.02763314
0.8023779,-0.04937157,-0.06421496,0.7992343,-0.2215568,0.08789587
0.8887829,0.03136898,-0.04468206,0.6431132,-0.2036836,0.1219421
0.9293891,0.09326161,-0.0131053,0.4330407,-0.09566357,0.1965697
0.9373661,0.1380817,0.09691257,0.2266535,-0.2460511,0.3166683
0.926483,0.1632989,0.1528394,0.2012726,-0.4474459,0.4000747
0.9262472,0.1666748,0.1188867,0.1145211,-0.4228792,0.4689676
0.970524,0.1094251,0.1311177,0.03314648,-0.2774665,0.4655985
1.045116,0.01933211,0.1522047,0.08871569,-0.003115278,0.4475002
1.093944,-0.05188762,0.1981474,0.1383156,0.06538206,0.3959205
1.113561,-0.05859054,0.2351218,0.2058086,-0.0008915692,0.137982
1.116926,0.04044173,0.2040856,0.05917125,-0.001763347,-0.249729
1.148981,0.1173396,0.1501095,-0.3572134,-0.07783145,-0.5954757
1.268724,-0.02908834,0.09988585,-0.5959075,-0.1591794,-0.7605375
1.414306,-0.3047193,0.0693327,-0.4137897,-0.5018679,-0.8067482
1.481949,-0.4186902,-0.01304508,-0.1487226,-0.8824112,-0.8599229
1.406579,-0.3610121,-0.1452701,-0.162373,-0.4036868,-0.7386168
1.265427,-0.3449041,-0.1661678,-0.1193502,0.4264907,-0.4693149
1.218899,-0.3964679,-0.08254869,0.03114972,0.5244003,-0.3883908
1.243859,-0.3768016,-0.04036609,0.04727763,0.1435599,-0.4191081
1.265037,-0.2480028,-0.01001169,0.2057959,-0.1710507,-0.2694418
1.269643,-0.05461588,0.03550354,0.2769878,-0.2382793,0.04319757
1.242798,0.07606538,-0.0350075,-0.06206504,0.001215731,0.3460627
1.190235,0.0176557,-0.1200964,-0.3793212,0.2576694,0.387644
1.040699,-0.02269578,-0.04842091,-0.4477764,0.3883388,0.2913156
0.7630763,0.01696238,0.02284213,-0.6284186,0.3951249,0.3793569
0.5333363,-0.07333814,0.01372496,-0.9342975,0.4339485,0.353574
0.4774562,-0.1388133,0.06078787,-0.8259682,0.5985419,0.1982022
0.4909365,-0.1417363,0.1355331,-0.6261134,0.3584784,0.1729434
0.522676,-0.1836733,0.1562022,-0.6490325,-0.01028377,0.1334325
0.6335997,-0.1333965,0.1606648,-0.4692984,0.0488909,0.1721416
0.7258433,-0.07364665,0.1593267,-0.4350462,0.04342112,0.2198665
0.7678515,-0.04961283,0.158918,-0.513458,-0.04467773,0.1888909
0.8466577,-0.03333576,0.1642451,-0.437844,0.02829393,0.1905129
0.9197971,-0.09307666,0.1696371,-0.5158412,0.1160986,0.06775718
0.964276,-0.1533707,0.1869299,-0.4089898,0.1465326,0.009471131
0.9961859,-0.2202254,0.2041322,-0.1618288,-0.1253588,0.07702781
1.143588,-0.2595903,0.2689033,0.1840038,-0.4437387,0.0803738
1.453686,-0.2127301,0.3154055,0.9125779,-0.2649232,0.1793415
1.621016,-0.2008587,0.1752186,1.237279,0.1497306,0.3862335
1.622214,-0.2255142,-0.04140727,0.9093208,0.4512918,0.6226419
1.615347,-0.2470017,-0.08798681,0.5988987,0.6560438,0.6346565
1.352253,-0.2757992,0.08728622,0.3869258,0.7149295,0.1834632
0.9146107,-0.2912516,0.229112,0.1425873,0.5933457,-0.2627913
0.860078,-0.2729259,0.1029718,-0.02702618,0.2130151,-0.21378
1.143557,-0.2167609,-0.09880729,-0.2275903,-0.1085452,-0.06084697
1.286109,-0.191625,-0.1719728,-0.4205324,0.1754015,-0.236919
1.228802,-0.2091746,-0.1298205,-0.3673878,0.4563578,-0.3840159
1.07336,-0.2252411,-0.002384422,-0.417444,0.2433377,-0.5314439
0.8728163,-0.2413462,0.07916594,-0.4388886,0.09957239,-0.7508484
0.7171127,-0.2652459,0.08741164,-0.1184837,-0.08840719,-0.6505892
0.5679281,-0.2848875,0.1083879,0.1690992,-0.4197436,-0.5245001
0.4922486,-0.2561184,0.1008408,0.6156301,-0.4232687,-0.2957245
0.5679485,-0.2094577,0.06724193,1.02932,-0.3173974,0.1247987
0.6756864,-0.1423984,-0.0007786249,1.020057,-0.3071236,0.1806872
0.810648,-0.01543122,-0.09447926,0.936926,-0.2425177,0.1604545
0.8850618,0.03531205,-0.08763501,0.7182264,-0.2268462,0.2001437
0.8414189,0.01945805,-0.02597138,0.471686,-0.2320122,0.158855
0.8980535,0.0889493,0.0220971,0.3922054,-0.253256,0.2603486
0.9555084,0.1494452,0.1057601,0.3321028,-0.3354046,0.3406168
0.9185951,0.157978,0.1363924,0.2252851,-0.2756973,0.3571606
0.9747643,0.1842576,0.0966181,0.01641444,-0.1430486,0.3353405
1.018991,0.1348476,0.1158433,-0.08573177,-0.06471303,0.2793902
1.02696,0.03848183,0.1467835,-0.1274567,0.0142359,0.2711852
1.072969,0.0295552,0.1558688,-0.2174328,0.01556179,0.1246264
1.069061,0.08418247,0.1896206,-0.3260546,-0.03429032,-0.1272959
1.114971,0.1000987,0.1908834,-0.483449,-0.08956712,-0.335829
1.261562,-0.07718071,0.1944738,-0.3504344,-0.1574994,-0.4731219
1.425691,-0.3189493,0.165203,-0.1014007,-0.2845082,-0.5876425
1.476181,-0.3233566,-0.01430527,-0.07183599,-0.4045653,-0.6841129
1.37398,-0.2662594,-0.1828242,-0.1520164,-0.1500054,-0.6129514
1.307721,-0.3383636,-0.1424624,-0.2544493,0.1053689,-0.5397398
1.264316,-0.3905694,0.03397952,0.004313306,-0.2116829,-0.5072732
1.273404,-0.3866047,0.1219655,0.4354145,-0.4429629,-0.3598918
1.358613,-0.2774645,0.07180619,0.6212464,-0.1953577,-0.2269995
1.294782,-0.04362372,-0.01269592,0.6714046,-0.007248235,-0.0483305
1.191238,0.07726988,-0.08360297,0.2094653,0.0547771,0.1178947
1.099445,0.04150841,-0.08063394,-0.4866586,0.2118703,0.06982793
0.9154481,0.0006233187,-0.01983815,-0.5477817,0.3637,0.06060147
0.729928,-0.03493199,0.03566363,-0.5134005,0.4727457,0.2072614
0.5325267,-0.04196625,0.07399206,-0.7974693,0.5388995,0.3166119
0.4715674,-0.03851594,0.1007259,-0.7634344,0.4183496,0.3257307
0.5564529,-0.08054578,0.1255119,-0.6107983,0.1716943,0.2575339
0.6001616,-0.1036319,0.118987,-0.6992994,0.0311835,0.2140023
0.7059929,-0.1085116,0.123146,-0.6726297,0.03421726,0.2434647
0.7869896,-0.1158417,0.1542668,-0.6454393,0.1071287,0.237105
0.7846662,-0.1007532,0.1853228,-0.6180728,0.1718959,0.1712201
0.8314807,-0.09709451,0.2177652,-0.4446141,0.1555872,0.08858141
0.8852474,-0.1046374,0.1955023,-0.4543166,0.1544484,0.0335329
0.9465153,-0.1083925,0.1822501,-0.4530039,0.1736159,0.06100012
1.031575,-0.1154214,0.2091972,-0.3028695,0.01172607,0.1112873
1.198549,-0.1354063,0.221474,-0.1670225,-0.1069957,0.1283715
1.340498,-0.1626998,0.2541729,0.05906731,0.1658605,0.09358779
1.33481,-0.1471292,0.2306726,0.1707212,0.3832763,0.09401356
1.496664,-0.1256307,0.1247636,0.1906602,0.06198425,0.4098858
1.706396,-0.1792758,0.05280379,0.339372,-0.1921376,0.9016727
1.541969,-0.3333017,0.07676943,0.5126793,0.2519289,0.9333854
1.190765,-0.5110899,0.1599377,0.7539863,0.9222826,0.322101
0.9458259,-0.489873,0.174996,0.8629769,1.142638,-0.2860259
0.9769958,-0.3118399,0.09585211,0.4269673,0.6490307,-0.3007165
1.14545,-0.1986845,-0.04003209,-0.1916994,-0.02826554,-0.1419721
1.138924,-0.115686,-0.1318571,-0.30889,-0.01427422,-0.2746481
1.186722,-0.1096306,-0.07371137,-0.2143108,0.1580305,-0.3340216
1.207988,-0.1694664,-0.01538805,-0.3276182,0.006724161,-0.3304396
0.9809431,-0.1654359,0.0144323,-0.2851757,0.06406922,-0.4444349
0.8520243,-0.220572,0.08226337,-0.1027938,0.05038149,-0.3866353
0.7086827,-0.2628244,0.08999336,0.08767354,-0.1555098,-0.3101478
0.5720646,-0.2185055,0.09926884,0.4804721,-0.2708214,-0.2193592
0.6466392,-0.2082706,0.1097893,0.8299943,-0.4072071,0.09269355
0.6689708,-0.1294916,0.03592547,0.9507853,-0.3558096,0.2627526
0.7725716,-0.02735484,-0.0258235,0.8945547,-0.2475043,0.2583165
0.8706429,0.01966063,-0.04164834,0.674381,-0.2322168,0.2556618
0.8267614,0.06910558,-0.01158129,0.4068467,-0.1662766,0.2552165
0.8791283,0.07006038,0.05515896,0.239356,-0.2586845,0.3399472
0.899637,0.07553337,0.1152586,0.3301681,-0.3158703,0.4122282
0.9715594,0.09018672,0.1623756,0.4155928,-0.1968224,0.4364425
1.066386,0.06143455,0.1603874,0.2910467,-0.05113508,0.3779468
1.034185,0.02732703,0.170975,0.2403824,0.1286105,0.2271854
1.058169,0.004854465,0.2141076,0.1348928,0.1106125,0.06902103
1.04682,0.03726133,0.2226825,-0.04589531,-0.01499912,-0.195084
1.034331,0.08726698,0.2465252,-0.1418413,-0.04687801,-0.4154817
1.110912,0.07001082,0.2596251,-0.2527018,-0.09573376,-0.4419223
1.228345,-0.05654885,0.2408343,-0.05320201,-0.1174837,-0.458767
1.38068,-0.2311268,0.1937798,0.1762948,-0.2415291,-0.590683
1.379101,-0.2731556,0.01954002,-0.1643817,-0.424657,-0.7959177
1.318516,-0.2517151,-0.1794552,-0.415585,-0.2621498,-0.85957
1.320515,-0.3024891,-0.2069545,-0.1998454,0.1557818,-0.7175195
1.286227,-0.3275587,-0.05889231,0.002378985,0.3906591,-0.5263898
1.335571,-0.3196839,0.1097004,0.171554,0.1669219,-0.349576
1.4054,-0.2386583,0.131341,0.4312423,-0.200184,-0.1605184
1.328608,-0.03549072,0.05057826,0.465207,-0.1314623,0.05179814
1.209477,0.05711565,-0.02541975,0.00992684,0.1489008,0.2080536
1.088649,0.01182122,-0.05810551,-0.5382563,0.3748977,0.2403741
0.9001291,-0.00685623,0.01402962,-0.6210824,0.5457396,0.1994719
0.6700508,-0.02965129,0.09695296,-0.59004,0.4059357,0.2217871
0.5023889,-0.03783667,0.07274835,-0.8892555,0.3268965,0.277935
0.4645091,-0.04128733,0.06941639,-1.011178,0.4067991,0.2514078
0.4986153,-0.08635141,0.1237941,-0.908435,0.1777512,0.2276589
0.6140095,-0.108911,0.1342227,-0.9330139,-0.02559676,0.2113084
0.8018593,-0.1303822,0.1598291,-0.8167627,-0.02439869,0.2204925
0.8251138,-0.1366771,0.1866443,-0.6882486,-4.328599e-05,0.2639894
0.768593,-0.09953246,0.1750094,-0.5743896,0.01780259,0.190419
0.8492039,-0.09078304,0.2097108,-0.3415048,-0.01977949,0.112857
0.8682923,-0.09311189,0.212637,-0.3617758,0.01720893,0.1137991
0.8734775,-0.1140376,0.1860118,-0.3280655,0.01266498,0.1193961
1.019413,-0.1766544,0.21982,-0.03126726,-0.06115478,0.1439943
1.130086,-0.1979325,0.2266132,0.1649401,-0.0447518,0.1289772
1.213541,-0.1604602,0.2598436,0.2889521,0.05905267,0.08347977
1.319859,-0.06738422,0.3872728,0.3246088,0.1624089,0.05665235
1.372403,0.02640848,0.4416993,0.1918941,-0.1265262,0.1612265
1.445217,-0.02323643,0.2215269,-0.0428466,-0.4842132,0.4892204
1.523968,-0.2008841,-0.07851776,0.03980562,-0.1910339,0.692959
1.380493,-0.4758181,-0.01255257,0.5724715,0.5745733,0.4286722
1.068492,-0.705014,0.1608127,0.8032056,1.151746,-0.03819536
0.9346317,-0.5596491,0.1144682,0.5674655,0.7443985,-0.3154201
1.03477,-0.2892836,0.06006775,0.2723837,-0.02238691,-0.5137525
1.164039,-0.2233694,-0.04030068,0.04681728,0.0210263,-0.6954241
1.174316,-0.1189155,-0.06751135,-0.03583473,0.01915491,-0.6843791
1.115576,-0.06354037,0.02962054,-0.07510842,-0.1783584,-0.597212
1.01733,-0.133192,0.009637532,-0.1095414,0.01392488,-0.470301
0.7950034,-0.1387507,0.07428651,-0.02436837,-0.1288456,-0.3258927
0.6368043,-0.2293251,0.1249878,0.1598852,-0.2734295,-0.2738777
0.5978708,-0.2756981,0.0578389,0.4121455,-0.2087661,-0.1412001
0.5840017,-0.196056,0.1002272,0.7862081,-0.4058572,0.05255878
0.7016078,-0.1622973,0.04644963,1.064298,-0.3484631,0.1511008
0.8151613,-0.04760303,-0.03665507,1.000814,-0.2916267,0.1771198
0.8367974,0.03370258,-0.005101939,0.7865237,-0.3213602,0.1603544
0.870895,0.06189205,0.0130645,0.500147,-0.1617181,0.1817957
0.8977024,0.1714877,0.0973173,0.292789,-0.2421716,0.2887858
0.9048829,0.2110975,0.1632374,0.2645995,-0.3031604,0.4341474
0.906196,0.2257975,0.1629331,0.1087236,-0.2916616,0.4920482
0.9450088,0.1874397,0.1555949,-0.03336431,-0.2594848,0.441412
1.000119,0.05051472,0.1388442,-0.06242983,-0.03163491,0.3919403
1.056902,-0.03260919,0.1832847,-0.09529377,0.02534756,0.2676753
1.107476,-0.06808438,0.2229357,-0.08584697,-0.01576486,0.0008740073
1.108792,-0.0141663,0.2329365,-0.2563744,-0.06053925,-0.3031602
1.200454,0.02674035,0.2234614,-0.465332,-0.1468469,-0.5035284
1.397795,-0.1244092,0.1861726,-0.4205631,-0.1879288,-0.5596263
1.523082,-0.2909714,0.1359138,-0.2459071,-0.399708,-0.643034
1.505567,-0.3454093,-0.03635238,-0.03610472,-0.5555361,-0.7246059
1.396734,-0.3634358,-0.1886919,0.1029231,-0.1997992,-0.5939346
1.28943,-0.3788652,-0.09997331,0.170343,0.4509462,-0.4462178
1.220105,-0.3143838,0.06397515,0.2202612,0.6544425,-0.4636793
1.236885,-0.1412294,0.1341923,0.2459076,0.1389858,-0.4379665
1.256042,0.01968985,0.1201692,0.2776393,-0.4537362,-0.2419709
1.209579,0.08465183,0.004866684,0.1929458,-0.4886417,0.08755781
1.195887,0.03391023,-0.100057,-0.1310116,0.02206751,0.3335419
1.068611,-0.03104188,-0.03438907,-0.5347366,0.5450901,0.29529
0.8005076,-0.0332364,0.05298563,-0.6882949,0.660124,0.2506682
0.6144362,-0.05911635,0.07402385,-0.7587029,0.5370531,0.3197051
0.4998362,-0.08693508,0.1336097,-0.9439152,0.5126618,0.2311336
0.4226361,-0.1115468,0.1781928,-0.8524255,0.4134608,0.1003253
0.421444,-0.1374114,0.1861097,-0.7008181,0.01960394,0.1072707
0.4889594,-0.1190641,0.1833348,-0.7056201,-0.2252351,0.1678329
0.6396953,-0.1174566,0.166505,-0.5814365,-0.1364178,0.2505133
0.8490983,-0.08149697,0.1641597,-0.6115431,-0.01750011,0.2514466
0.9166661,-0.02876754,0.1676053,-0.6515765,0.04249134,0.1875344
0.8322644,-0.05874326,0.1817281,-0.5392002,0.06141121,0.1577993
0.8788513,-0.1157797,0.1859686,-0.5884274,0.110163,0.1121119
0.9500192,-0.1969405,0.2060017,-0.3912775,0.09774618,0.1354479
0.9976456,-0.2199901,0.2756458,0.1223744,-0.1192241,0.1832627
1.177918,-0.1455824,0.3019986,0.4840601,-0.2856606,0.1304459
1.282828,-0.08261178,0.281789,0.4725196,-0.08589974,0.04956067
1.334557,0.002394951,0.2636424,0.2622222,0.1464945,0.02808968
1.378004,0.03422601,0.2253294,0.2705622,-0.02722287,0.3482679
1.396973,-0.1325767,0.1476065,0.2297006,-0.1214531,0.8571765
1.476141,-0.3909478,0.07894535,0.2507926,0.1240706,0.8185614
1.256351,-0.5050846,0.1057989,0.555533,0.4421544,0.230191
0.8482424,-0.4191792,0.1355285,0.43758,0.7173168,-0.3302482
0.7872873,-0.3236553,0.08486871,0.126312,0.3704825,-0.4854976
1.04504,-0.2473775,0.04545079,0.08568712,-0.2801273,-0.3246178
1.342269,-0.1691889,0.002900213,0.07453382,-0.240452,-0.3373072
1.357045,-0.1999911,-0.0368455,0.1235935,0.06247443,-0.4295749
1.13714,-0.2113839,0.008541201,0.08291684,0.2345507,-0.4287573
0.9152254,-0.1735087,0.07875001,0.02796498,0.2925336,-0.5698282
0.6874516,-0.212373,0.1201768,0.1775521,0.02461457,-0.5509943
0.5645356,-0.2111169,0.125399,0.2789852,-0.2033576,-0.3844649
0.537234,-0.1828907,0.1023921,0.4473683,-0.3247579,-0.2707234
0.5786916,-0.162605,0.09190426,0.8280273,-0.5095622,0.07467934
0.7184752,-0.07167786,0.0315343,1.054805,-0.5188258,0.2828512
0.8156975,-0.0167913,-0.03921673,0.9112586,-0.367854,0.1981354
0.872828,0.01260707,-0.003959587,0.6986913,-0.1759529,0.219326
0.8860162,0.06465814,0.03757278,0.6282595,-0.1190944,0.2745874
0.8787069,0.1078146,0.08232668,0.5001764,-0.1934625,0.3563513
0.9213189,0.1914461,0.1841922,0.3790206,-0.2240332,0.4344335
0.9168547,0.2104949,0.1882674,0.2325268,-0.2832166,0.4227076
0.9389812,0.1493678,0.130356,-0.02771118,-0.2077051,0.4195664
1.024661,0.1072915,0.1543377,-0.04991197,0.007306415,0.3773555
1.081753,0.003536139,0.1934742,0.04609097,0.06399501,0.2430351
1.140294,-0.06359465,0.2441358,0.009045294,-0.04441109,-0.01564556
1.156764,0.02845942,0.2887719,-0.1667145,-0.1640382,-0.2956046
1.190766,0.06813219,0.2527912,-0.4111716,-0.1851477,-0.4869019
1.330657,-0.06118747,0.2455455,-0.3488354,-0.3896151,-0.6551637
1.418752,-0.2043616,0.2313612,-0.1609457,-0.853685,-0.744218
1.393642,-0.24133,0.04222509,-0.08184717,-0.9543222,-0.7291166
1.357832,-0.2395269,-0.212999,0.03545068,-0.3519391,-0.6029328
1.297086,-0.3055099,-0.2685876,-0.009965458,0.561153,-0.4001921
1.185746,-0.3510475,-0.05874182,-0.0717203,0.8927073,-0.3253819
1.171944,-0.271024,0.1377367,0.01338583,0.3547672,-0.325415
1.242211,-0.1416337,0.1682526,0.0940362,-0.2181376,-0.1972488
1.235313,-0.02938234,0.1408561,0.2145856,-0.3431774,0.03729795
1.226241,0.01747271,0.04262038,0.1317336,-0.1442227,0.2312474
1.178563,0.0005777239,-0.0511517,-0.07609761,0.172639,0.2473557
0.9705944,0.02821569,-0.02120662,-0.1613767,0.2723106,0.1927823
0.7372192,0.04624779,0.02885436,-0.5307316,0.2642253,0.2640754
0.5847256,-0.01153013,0.0344724,-0.9049196,0.3896402,0.3017396
0.5347274,-0.05091064,0.08764169,-0.7860649,0.4351272,0.2211825
0.5320394,-0.08493939,0.1828629,-0.6339641,0.225599,0.1913129
0.5378758,-0.1181416,0.1937623,-0.601131,-0.07346474,0.1821868
0.6246699,-0.09901025,0.1596148,-0.5688328,-0.1351957,0.1744068
0.7268133,-0.06095389,0.1568055,-0.6098119,-0.03028589,0.170908
0.7915379,-0.01028514,0.1602806,-0.5540931,0.0151618,0.1272446
0.8274302,-0.0004532,0.17856,-0.4905967,0.1266884,0.1119586
0.8478555,-0.07528738,0.2062107,-0.5051778,0.1895794,0.1044976
0.9117744,-0.1578942,0.23714,-0.370795,0.06802377,0.1019486
1.000188,-0.1971028,0.2513149,-0.1326171,-0.1572165,0.123467
1.205367,-0.1681662,0.2720762,0.1163946,-0.4119599,0.1107073
1.452677,-0.1008865,0.3026613,0.3359204,-0.3559789,0.03378028
1.488413,-0.0776706,0.2245915,0.4492277,-0.1975388,0.02560831
1.549511,-0.1873711,0.0759532,0.5204954,-0.2877116,0.4187502
1.667542,-0.4203225,0.01373003,0.593948,0.05041883,0.8507875
1.370831,-0.5160056,0.1290559,0.807657,1.003944,0.5977889
0.8794693,-0.3782847,0.2446122,1.051166,1.566672,0.02611789
0.7737891,-0.211848,0.07743404,0.6987614,0.9199991,-0.328485
0.970803,-0.08499045,-0.1227755,-0.0522212,-0.1699775,-0.4217871
1.102489,-0.03626749,-0.1145202,-0.3349908,-0.2929101,-0.185331
1.081292,-0.1241849,-0.08801286,-0.2742097,0.09799419,-0.07590656
1.105095,-0.2087731,-0.05501196,-0.3247867,0.3282818,-0.3026178
1.10955,-0.2110131,0.01242702,-0.3665903,0.5271591,-0.4446282
0.8501902,-0.2406802,0.07411774,-0.1768117,0.255486,-0.5695543
0.611094,-0.2930689,0.148565,0.1816886,-0.09637916,-0.6113407
0.613698,-0.275538,0.1420691,0.4043971,-0.1627004,-0.453583
0.662769,-0.2167568,0.09425226,0.6277849,-0.3366612,-0.2614616
0.6599094,-0.1311106,0.08416226,0.9343415,-0.3578226,0.05984778
0.6650236,-0.03213309,0.0258274,0.9255428,-0.2746059,0.2124448
0.7669146,0.01385771,-0.02861187,0.6535711,-0.2342817,0.1239206
0.8511228,0.06765198,-0.03516762,0.3531675,-0.1827966,0.1858633
0.85819,0.1102035,-0.01179922,0.2526705,-0.2562888,0.3157421
0.8860162,0.0830496,0.1137387,0.4306981,-0.3765209,0.4754024
0.9326275,0.1449372,0.1957701,0.472993,-0.4881321,0.5866361
0.9862084,0.2209491,0.1363371,0.3002589,-0.3230207,0.5008075
1.001525,0.1467907,0.1239702,0.07496114,0.03333373,0.3982874
1.041444,0.07745837,0.1638647,-0.1113675,0.1675355,0.3283109
1.078939,0.0483114,0.1956054,-0.1099253,0.1888825,0.2044048
1.036042,0.04322839,0.2481501,-0.09190387,0.08123901,-0.00777546
1.054208,0.09752792,0.2714202,-0.2132019,-0.07128092,-0.2679141
1.115264,0.07868822,0.258205,-0.2734135,-0.06814949,-0.4049143
1.271657,-0.07025295,0.220579,-0.09554566,-0.09240011,-0.4121909
1.46095,-0.2508518,0.1290344,0.0520625,-0.2423261,-0.5705698
1.398514,-0.2864052,-0.01513425,-0.1833346,-0.383278,-0.8349442
1.285857,-0.2543243,-0.1562546,-0.3908387,-0.2194032,-0.8393812
1.273643,-0.3387436,-0.1975377,-0.1447292,0.1459304,-0.6876615
1.256552,-0.3313398,-0.04246801,0.1735757,0.2249319,-0.5573546
1.321564,-0.2432493,0.1898243,0.3760506,-0.02393586,-0.3592125
1.384961,-0.1847799,0.2044372,0.5780068,-0.3076081,-0.2013474
1.317766,-0.0007265018,0.06877533,0.4969974,-0.2828025,-0.06913534
1.22844,0.1267113,-0.02752609,-0.05767572,0.06024597,0.1620976
1.126849,0.09438734,-0.08895869,-0.7171708,0.4228083,0.2705708
0.9398909,0.05203513,-0.003955478,-0.9052479,0.6045677,0.2181547
0.7089655,0.002539936,0.1245904,-0.8304949,0.4422125,0.2903326
0.5312889,-0.01586209,0.1201603,-1.03721,0.2810826,0.3859825
0.4943368,-0.03467004,0.1242797,-1.1341,0.288623,0.29973
0.5371354,-0.07288636,0.1336763,-1.077103,0.01266066,0.2399592
0.6208694,-0.09037384,0.1040856,-1.135325,-0.2328119,0.3029653
0.8038605,-0.1198573,0.1062702,-1.025413,-0.1056111,0.3262627
0.9223542,-0.1302384,0.1253703,-0.9941842,0.05374174,0.2968089
0.9020713,-0.1356417,0.1865714,-0.8790649,0.1980623,0.2153241
0.8791576,-0.1425365,0.2436429,-0.4445209,0.3378445,0.04282699
0.8423973,-0.1300964,0.2304215,-0.2678157,0.346176,-0.07728978
0.8147191,-0.1332009,0.2264145,-0.1691135,0.2281106,-0.06698564
0.8621104,-0.1274942,0.2395872,-0.024072,-0.04306493,0.01900647
0.9702616,-0.1200358,0.22913,0.06574095,-0.3398909,0.2057505
1.163354,-0.1151561,0.2419537,0.3305102,-0.2032348,0.2943078
1.330179,-0.05244591,0.314714,0.436232,0.1715581,0.03328774
1.328373,0.07167845,0.3559049,0.2369997,0.1510047,-0.1564894
1.340652,0.1257578,0.2184354,-0.08845177,0.00696424,0.2539385
1.452176,-0.07397962,-0.003254326,-0.2348335,0.003775132,0.8130962
1.426308,-0.4416712,-0.02585689,0.07681923,0.2358432,0.8026014
1.21737,-0.6296397,0.1376666,0.5499446,0.6426133,0.3378752
0.9406249,-0.4867946,0.2038875,0.8368466,0.5140889,-0.1057543
0.8378875,-0.2671673,0.05709396,0.5133855,0.1847726,-0.2492541
1.053929,-0.1694425,-0.133682,-0.1283984,0.1353508,-0.2531406
1.212004,-0.1183638,-0.1374722,-0.3255295,0.09446915,-0.3904974
1.183699,-0.1491955,-0.01352309,-0.3281587,0.2051595,-0.3983469
1.083394,-0.2163194,0.08934538,-0.1304489,0.1947394,-0.3674393
0.8436478,-0.2259505,0.1674408,0.2994411,0.002371089,-0.5371597
0.6781596,-0.2632072,0.145818,0.477371,-0.1488153,-0.5242942
0.6273059,-0.2289782,0.1046319,0.6562793,-0.4023328,-0.3915829
0.5910698,-0.1449747,0.1184908,0.9197522,-0.469864,-0.2079918
0.6780694,-0.09599283,0.05160506,1.039896,-0.4767,0.1531362
0.8022967,0.005782762,-0.01986925,1.046455,-0.4554358,0.2893676
0.8986319,0.04205426,-0.0261256,0.8124792,-0.1832181,0.2225246
0.9339628,0.06862685,0.03571669,0.537526,-0.1001549,0.2298831
0.9053102,0.1580897,0.1630476,0.4775624,-0.1950607,0.2828658
0.9160719,0.1993531,0.1931395,0.4605446,-0.3890534,0.3898938
0.9235863,0.2463701,0.168404,0.3229184,-0.6013651,0.4953486
0.9451595,0.2335862,0.1565379,0.1208408,-0.4332003,0.5376351
1.00106,0.1780701,0.1190937,-0.05655583,-0.1424678,0.5066485
1.052887,0.09582945,0.1450747,-0.2038597,0.02649844,0.4843042
1.117834,-0.04849933,0.1780773,-0.2294902,0.07393095,0.4142527
1.123944,-0.006026034,0.1692309,-0.2531584,-0.01819651,0.1267491
1.107895,0.07305904,0.2067603,-0.3518591,-0.04620241,-0.2373404
1.181137,-0.03539501,0.2574669,-0.2226723,-0.05465289,-0.4873875
1.302711,-0.1551417,0.2436337,0.1179758,-0.2332389,-0.5545995
1.401713,-0.2935619,0.1032705,0.3168213,-0.4714064,-0.6323613
1.387708,-0.3259014,-0.1188288,0.04779798,-0.4607724,-0.7835212
1.273459,-0.2279674,-0.2383616,-0.3050976,-0.1864279,-0.6910427
1.185851,-0.2724298,-0.1944746,-0.0839819,0.07887265,-0.5408711
1.142343,-0.29092,-0.04000998,0.2146443,0.1737868,-0.4910777
1.191628,-0.2294945,0.1505243,0.3282435,0.03317589,-0.315713
1.27315,-0.1731784,0.1804676,0.5078728,-0.1655868,-0.1778047
1.232214,0.03344062,0.0481217,0.3355038,-0.2154773,-0.05512945
1.192587,0.1238365,-0.03894229,-0.1560872,-0.04505303,0.2097411
1.143001,0.02821123,-0.08827887,-0.6521988,0.3450382,0.3264606
0.964155,0.01555017,-0.03346144,-0.8510495,0.5363659,0.2753123
0.7365907,-0.0199117,0.1065755,-0.7507592,0.3816408,0.3293597
0.5471567,-0.052031,0.091963,-1.017699,0.302546,0.3936967
0.5450987,-0.04578365,0.08557625,-1.150772,0.2790163,0.3050865
0.6347936,-0.1055754,0.1433902,-0.9408939,0.07307721,0.2103038
0.6911801,-0.1414957,0.1164277,-0.9773629,-0.08017311,0.2135493
0.826695,-0.1455409,0.1287406,-0.8030595,0.04096777,0.2212215
0.8726156,-0.1287882,0.1424502,-0.7443004,0.1749655,0.1956399
0.8206311,-0.08760201,0.1682677,-0.8032764,0.1687451,0.1288411
0.8430626,-0.0763684,0.2485254,-0.423542,0.1953397,0.02227207
0.8546384,-0.07628619,0.2408313,-0.3648995,0.222434,-0.02715902
0.8938699,-0.1031382,0.2285213,-0.4248574,0.1748998,0.005803178
0.9702489,-0.1545218,0.2472497,-0.2476557,-0.02484665,0.06102909
1.029615,-0.1776026,0.2527827,-0.1195246,-0.3020783,0.1675631
1.145807,-0.1709889,0.275087,0.24648,-0.3167273,0.2817326
1.306714,-0.1152387,0.2607209,0.4934669,-0.1811635,0.26038
1.460615,-0.03353568,0.2207414,0.3866357,0.0297989,0.2703403
1.506901,-0.05306447,0.1274624,0.3006114,0.3677344,0.4659715
1.44695,-0.2097592,0.003950446,0.3566223,0.4939987,0.5192152
1.372474,-0.3954609,0.02700982,0.4536118,0.5780882,0.2559011
1.135003,-0.4868059,0.1738816,0.4780737,0.6299756,-0.05083606
0.8898749,-0.4427744,0.2417242,0.5159691,0.2028541,-0.1371503
0.9482611,-0.3275952,0.08043575,0.314318,-0.1362994,-0.09206686
1.054753,-0.1791168,-0.1642771,-0.08158065,0.03113047,-0.1708186
1.118672,-0.09088058,-0.1890357,-0.2932105,0.2268859,-0.2738748
1.190773,-0.1387893,-0.08493572,-0.3773359,0.2933665,-0.3303278
1.055524,-0.1799242,-0.002831861,-0.1526114,0.1536254,-0.423554
0.8502899,-0.2233616,0.1301005,0.2282114,-0.1204517,-0.4424255
0.7187665,-0.2937648,0.1629091,0.4188532,-0.2254767,-0.4315625
0.633013,-0.2709161,0.09203326,0.7158609,-0.3206455,-0.3329536
0.6582276,-0.2349033,0.0982629,1.09672,-0.4483965,-0.04811755
0.7234265,-0.1641619,0.03997723,1.196659,-0.394882,0.1423893
0.8224861,-0.04199472,-0.06162017,1.066383,-0.2492748,0.1617548
0.9064409,0.01132259,-0.05625235,0.880412,-0.06144285,0.1491599
0.9046642,0.06964677,-0.00560095,0.6330466,0.0401508,0.1826109
0.9227207,0.1205505,0.09690667,0.5311132,-0.2034602,0.296911
0.9262814,0.1464659,0.1876124,0.5871922,-0.4842353,0.4049987
0.926987,0.1959697,0.1920601,0.4382575,-0.4636776,0.4643836
0.9736837,0.193705,0.1728358,0.2826052,-0.3305137,0.4604556
0.9944266,0.1515225,0.1555575,0.2873245,-0.1528228,0.4354635
1.026333,0.0772999,0.1675197,0.2513684,0.06860982,0.4355919
1.059905,-0.00115445,0.1878752,0.2307703,0.1514193,0.3330939
1.056789,-0.007499468,0.1969032,0.06325427,0.03160982,0.0548425
1.081082,-0.0007107359,0.2045389,-0.3753568,-0.08514491,-0.3543858
1.197539,-0.04720962,0.1993175,-0.6323882,-0.05311617,-0.6542529
1.37287,-0.1726166,0.1847689,-0.3028536,-0.1708412,-0.6525711
1.416058,-0.3019638,0.04370659,0.06235459,-0.4442113,-0.6373134
1.338947,-0.3271996,-0.184273,-0.2311885,-0.4071759,-0.6970116
1.299499,-0.3241755,-0.2045984,-0.4053196,-0.04844007,-0.627803
1.238909,-0.3595195,-0.01506662,0.001885693,0.2192356,-0.5534399
1.217993,-0.3599082,0.1380626,0.3354774,0.05661299,-0.4598543
1.2922,-0.2774899,0.151081,0.6207908,-0.2557979,-0.2532607
1.288346,-0.1073204,0.08171083,0.6287095,-0.2489789,-0.09666846
1.222343,0.09145193,-0.009140249,0.03439982,-0.0986082,0.09745253
1.161579,0.1381063,-0.09150377,-0.6010909,0.2201157,0.2981551
1.059209,0.01755749,-0.06359426,-0.8744322,0.6527528,0.2419686
0.8665552,-0.06330215,0.05461492,-0.7736475,0.6448357,0.2052376
0.6059474,-0.05668794,0.1205136,-0.7815473,0.413595,0.3177218
0.5045493,-0.05932371,0.1505997,-0.9248104,0.2937301,0.2455907
0.5539042,-0.09264939,0.1537782,-0.8016668,0.101334,0.1365184
0.6160431,-0.1166155,0.1319639,-0.7907097,-0.0812871,0.1440128
0.7730344,-0.1209254,0.1246506,-0.811698,-0.0901022,0.1547058
0.8589001,-0.1143582,0.09299429,-0.7742443,0.05958405,0.2177074
0.820453,-0.08998195,0.1413079,-0.8569127,0.1517642,0.1762577
0.8439924,-0.07675989,0.254604,-0.6334581,0.1068899,0.0600881
0.8608839,-0.07841526,0.2599941,-0.3603602,0.09062551,0.0517174
0.8757598,-0.1013039,0.2274349,-0.3379599,0.07015098,0.02969469
0.9348362,-0.1693114,0.1875386,-0.2915097,-0.02252568,0.08172375
1.045117,-0.2226615,0.1684358,-0.1490932,-0.1612545,0.2132908
1.253177,-0.220548,0.2585622,0.1690973,-0.1491517,0.2430527
1.388279,-0.1369564,0.3503435,0.4125346,0.08352658,0.08749974
1.384651,-0.01294502,0.3212376,0.3611351,0.2224577,-0.09877542
1.413227,-0.01572762,0.1482671,0.1732793,0.1839563,0.1634356
1.437146,-0.1867172,0.008345107,-0.02305552,0.1664314,0.6087644
1.282724,-0.4288745,0.06731029,0.009482709,0.3367702,0.6320611
1.042289,-0.5432023,0.1291704,0.4068652,0.5485043,0.2887227
0.9432872,-0.3802001,0.05154248,0.7438171,0.5204534,-0.1284228
1.01974,-0.1760162,-0.04985905,0.417813,0.2913596,-0.1961636
1.148857,-0.1289866,-0.152685,-0.106584,0.05281631,-0.1659711
1.209993,-0.1139727,-0.2054948,-0.2124174,0.1068834,-0.4108794
1.19589,-0.1219365,-0.1033449,-0.3600975,0.3413528,-0.469688
1.040642,-0.1837816,0.03419512,-0.4283881,0.36091,-0.4441471
0.7880742,-0.2395198,0.1485284,-0.06527985,0.1956439,-0.4918012
0.7048751,-0.2749442,0.1767557,0.2445905,-0.07658518,-0.413711
0.6859183,-0.2620033,0.1026417,0.4206146,-0.2225433,-0.4227154
0.6215535,-0.2283218,0.1435661,0.6985308,-0.2886767,-0.3102683
0.6984753,-0.1576944,0.1128272,0.9996367,-0.504318,-0.03215784
0.8263085,-0.03200334,-0.0263598,1.047625,-0.4780484,0.04030702
0.8888461,0.03684604,-0.01211868,0.7840134,-0.2962139,0.0238374
0.9314418,0.08033234,-0.01565499,0.5145039,-0.2040926,0.02413882
0.9345361,0.115397,0.001809851,0.3127741,-0.1122515,0.08060871
0.908372,0.1060611,0.1086397,0.2589662,-0.2382338,0.214707
0.8990438,0.1423414,0.1742545,0.3413021,-0.3959893,0.3726104
0.9013435,0.1731712,0.1887674,0.3116291,-0.3998742,0.5286764
0.9229281,0.1436652,0.1260956,0.2397381,-0.2761364,0.5256238
0.995659,0.1114132,0.1419981,0.1270913,0.04727031,0.4408607
1.043348,0.08102655,0.1632903,0.03184921,0.1778431,0.3815608
1.021277,0.09188473,0.1186428,0.04799281,0.0797143,0.2438726
1.005728,0.1427979,0.1523726,-0.06338654,0.05104474,-0.02287737
1.025242,0.156506,0.1340409,-0.2701605,0.02365953,-0.3768112
1.103384,0.07652563,0.1649985,-0.342119,0.002193651,-0.5715915
1.266918,-0.1080378,0.2414333,-0.136184,-0.132279,-0.5931635
1.395288,-0.2438969,0.1731469,0.07932561,-0.4892411,-0.6619458
1.372575,-0.2169873,0.03138818,-0.1547335,-0.6706547,-0.699821
1.334632,-0.2254478,-0.2078989,-0.4065171,-0.2555048,-0.5828912
1.318829,-0.3572281,-0.2822034,-0.2449553,0.3693125,-0.4236662
1.213289,-0.424174,-0.01001028,0.1095225,0.4711339,-0.4079052
1.162415,-0.3836713,0.2346695,0.5939987,0.1333026,-0.3773922
1.195083,-0.2489842,0.2540882,0.8222575,-0.2142572,-0.1812846
1.183116,-0.03161322,0.1224365,0.5132182,-0.3326574,-0.02612253
1.189371,0.0901223,-0.02406587,0.01207642,-0.1117505,0.1363986
1.184589,0.05783768,-0.08861497,-0.5770111,0.2171115,0.2683898
1.0769,0.004994083,-0.01937965,-0.7885056,0.4181004,0.2328492
0.8779114,-0.01907543,0.1049744,-0.6023137,0.3987151,0.2729689
0.676896,-0.06580854,0.1173627,-0.8102601,0.288403,0.2758985
0.6025454,-0.1130562,0.1376341,-0.8731134,0.2277746,0.1222831
0.6168231,-0.1212898,0.177226,-0.6167866,0.0195568,0.07779384
1.222372,-0.2132243,-0.08989608,0.1478456,0.3565832,-0.1473696
1.066729,-0.2410576,0.05727362,0.2513101,0.4461262,-0.3450353
0.9038036,-0.2555529,0.1414154,0.3807156,-0.057735,-0.4921247
0.8401439,-0.2343693,0.1622033,0.6072994,-0.3649502,-0.4384727
0.7430042,-0.1949534,0.1036491,0.7694565,-0.5912916,-0.3723208
0.7902432,-0.1711286,0.07242306,0.813061,-0.6477502,-0.2164715
0.877698,-0.1236408,0.04837398,0.8563402,-0.4709706,-0.02880212
0.8766138,-0.0776208,-0.02033266,0.7826155,-0.3944753,0.01704473
0.9207956,-0.05028862,0.01084576,0.6607843,-0.1893656,0.07560824
0.9523002,-0.01756966,0.07736674,0.6462972,-0.127602,0.133794
0.9677171,0.006018104,0.1146366,0.6473881,-0.2779246,0.1676148
0.9607766,0.03876571,0.1539859,0.6198572,-0.3266609,0.1900286
0.9045891,0.08591654,0.1369871,0.5304547,-0.4724772,0.217392
0.9009577,0.1207446,0.1130514,0.3497673,-0.4736651,0.3447439
0.9326834,0.10584,0.07686664,0.2000111,-0.2643804,0.4630861
0.9815685,0.04032727,0.06601819,0.2062843,-0.1070568,0.5146111
1.017982,-0.04102487,0.1253546,0.3314871,-0.007491933,0.4889606
1.001517,-0.1131068,0.1429122,0.3969767,-0.08295387,0.3281062
1.009224,-0.1249007,0.1448903,0.3369358,-0.1436492,0.0719806
1.028995,-0.09986201,0.1303721,0.159678,-0.1040578,-0.1864543
1.068599,-0.05651272,0.1071374,-0.1494014,-0.05335937,-0.329423
1.171956,-0.01451408,0.1702597,-0.267693,0.1321804,-0.362813
1.25405,-0.09744343,0.2617379,0.1744866,0.1172113,-0.31413
1.271646,-0.2048641,0.2971309,0.7234231,-0.3575471,-0.2941264
1.265992,-0.1826292,0.1545935,0.6846902,-0.8424381,-0.438008
1.297623,-0.1655913,-0.1189841,0.3561067,-0.789512,-0.5340299
1.331511,-0.2296698,-0.2516748,0.2373176,-0.2779447,-0.4378013
1.262033,-0.3109719,-0.2107676,0.2606966,0.2675987,-0.2954102
1.124406,-0.3725788,-0.08999273,0.4359255,0.7292963,-0.2345769
0.9988504,-0.3300248,0.05557576,0.6280525,0.7607044,-0.2444212
0.9427948,-0.1922083,0.133039,0.631887,0.3274968,-0.2301109
0.9832816,-0.08623669,0.1207544,0.5868643,-0.05362781,-0.1479473
1.076889,-0.05078226,0.07379534,0.552205,-0.2903684,0.03125874
1.167378,-0.07673768,0.02788974,0.5148525,-0.1523885,0.2287491
1.130227,-0.08067201,-0.006072125,0.4109625,0.2018455,0.3315427
0.9808647,-0.04026167,0.008888555,0.1794167,0.3716972,0.3267717
0.8630739,-0.05657323,0.07448279,-0.09122568,0.5301664,0.2196636
0.7618507,-0.06748898,0.1530596,-0.2070295,0.3646415,0.1461721
0.7400174,-0.07833986,0.1821382,-0.09509647,0.08598646,0.1717063
0.78773,-0.1269741,0.1533962,-0.05486585,0.07756249,0.2336039
0.7698328,-0.1104853,0.1716495,-0.03092374,-0.0404194,0.3068712
0.782364,-0.08368617,0.1891649,0.06407808,-0.0526533,0.3261037
0.8165005,-0.07122399,0.1685394,-0.02444325,-0.05725568,0.3170789
0.8250544,-0.05774012,0.1990142,-0.04176099,-0.1266775,0.3046764
0.8586017,-0.06790594,0.2300863,0.01066959,0.04688956,0.2426608
0.8372501,-0.04960612,0.2489853,-0.01587377,0.07323527,0.1546461
0.8301129,-0.06432794,0.2527865,0.05936145,0.002586035,0.07744432
0.8898845,-0.1245259,0.2314886,0.05331705,-0.06358554,0.05286237
0.9244879,-0.1629894,0.2465201,0.07737331,-0.255788,0.06241194
0.9753038,-0.1718263,0.2440177,0.2055091,-0.33328,0.05034511
1.118553,-0.1361294,0.253656,0.2044418,-0.2244192,-0.01867956
1.271601,-0.06888913,0.3361648,0.270526,-0.04345125,-0.1349667
1.277739,0.01945916,0.3633267,0.3063718,-0.13495,-0.1195847
1.383436,-0.004348297,0.2190955,0.1081525,-0.2240785,0.1684143
1.60468,-0.1868469,0.04770825,-0.054938,0.1284906,0.4643406
1.405713,-0.3903981,0.09666436,0.003326096,0.6103197,0.3657194
1.102524,-0.5304628,0.1584513,0.2333176,0.9660952,0.0171607
1.014944,-0.4109012,0.06996867,0.4988686,0.6206346,-0.2180839
0.754994,-0.1962152,0.05658288,0.5713409,-0.1361885,-0.2890534
0.7285609,-0.1992095,0.008762291,0.2291831,-0.3158845,-0.2001033
1.012145,-0.2076716,-0.0965063,-0.2126812,-0.2442388,-0.1246191
1.085931,-0.2062929,-0.1119638,-0.3108569,-0.008171161,-0.1383536
1.199124,-0.240198,-0.1075342,-0.2441648,0.3198599,-0.172696
1.136596,-0.2316412,0.02431418,-0.04915893,0.2223066,-0.3650282
0.8093432,-0.2880969,0.1651485,0.3323799,-0.05141309,-0.484921
0.7660371,-0.2798615,0.1340773,0.541307,-0.4109542,-0.4298583
0.7318488,-0.2188752,0.09630069,0.608434,-0.6713062,-0.3474253
0.7458915,-0.1965757,0.05200492,0.7752421,-0.6282369,-0.09017905
0.9334229,-0.128778,0.00859904,0.8414305,-0.5070268,0.072441
0.922182,-0.1081853,-0.004735838,0.7821134,-0.204626,0.04067916
0.953025,-0.07693196,-0.01223777,0.7950217,0.02707423,0.0530192
0.9778639,-0.02348697,0.02686771,0.7883994,-0.05945803,0.03409793
0.9132773,0.007252746,0.06583259,0.7250684,-0.1955926,0.08015887
0.9477526,0.09302667,0.1197495,0.655673,-0.346981,0.1665007
0.9040619,0.1168388,0.1363685,0.5221957,-0.4221574,0.2210347
0.9240074,0.1271316,0.09986459,0.4061861,-0.2556676,0.3171055
0.9825721,0.1624202,0.1128914,0.3278835,-0.003434212,0.3663548
0.9705405,0.09449088,0.1124142,0.2324191,0.09792698,0.3885736
1.02095,0.01282608,0.1192654,0.1822935,0.05197376,0.3330877
0.9949112,-0.03500853,0.1403321,0.123492,-0.07865939,0.1857401
0.9956523,-0.03727908,0.1184052,-0.0106202,-0.1883879,0.01530854
1.079245,-0.01401228,0.1256063,-0.103802,-0.03234503,-0.1784915
1.151897,-0.06898275,0.1662898,0.04967236,0.1892817,-0.236996
1.268886,-0.1489269,0.2158939,0.4391905,0.124471,-0.2476637
1.321353,-0.1940412,0.2228912,0.6273282,-0.1777828,-0.4386074
1.314823,-0.1586432,0.1420325,0.3540623,-0.5421749,-0.6387363
1.304447,-0.09945362,-0.005752912,0.03362794,-0.5976722,-0.5469003
1.290725,-0.1780622,-0.1719977,0.01264759,-0.1897291,-0.3409988
1.239029,-0.2907046,-0.1712829,0.05216786,0.2399411,-0.345291
1.101895,-0.3262423,0.009669414,0.1521164,0.3604663,-0.333452
1.040212,-0.26581,0.1580513,0.453634,0.2072222,-0.2313992
