accx,accy,accz,gyrox,gyroy,gyroz
1.398206,-0.802612,-0.06031412,1.522592,0.8533082,0.4966353
0.670444,-0.4542542,0.1589384,1.279777,0.5738396,-0.06629202
0.706297,-0.3040135,-0.01696894,0.6069554,0.09804362,0.09306153
1.181157,-0.2752074,-0.03998645,0.5313802,-0.2454547,0.1696959
1.435466,-0.2922862,0.07320653,0.5335173,-0.4790948,-0.02721269
1.205679,-0.3055625,-0.005020723,0.574566,-0.527308,-0.1624953
0.7807989,-0.2720628,-0.005385516,0.6962097,-0.5262663,-0.5007522
0.7106936,-0.2795034,-0.0119545,0.6221305,-0.6131571,-0.5666054
0.6181581,-0.2150231,-0.08574896,0.7892919,-0.7078468,-0.3236866
0.5309451,-0.1702906,-0.03885878,0.9670983,-0.7950924,-0.2447338
0.7180735,-0.1885792,-0.06616517,0.9788638,-0.7163483,-0.02033006
0.7567104,-0.1036903,-0.06495419,0.9929305,-0.5089891,0.1687702
0.78594,-0.07814751,-0.01159517,0.7873432,-0.3939818,0.17616
0.8327185,-0.05514618,-0.01771217,0.6747694,-0.185721,0.2924868
0.8036991,0.04078671,0.08008925,0.5789641,-0.05961358,0.3079503
0.8937181,0.07420574,0.1247958,0.3386459,-0.08085379,0.323472
0.8956998,0.07197414,0.1226748,0.2338474,0.08248821,0.4172365
0.9627819,-0.04755325,0.1857794,0.2257193,0.1235323,0.33792
1.133265,-0.2017194,0.2081114,0.4166921,0.01795137,0.2937744
1.1361,-0.2095251,0.2179764,0.7172654,-0.001963737,0.3088577
1.145869,-0.1165903,0.2027355,0.9235811,-0.0542852,0.1444201
1.154921,-0.02376331,0.2460012,0.8082571,-0.1300511,-0.1382509
1.157341,-0.009167693,0.3344865,0.6077976,-0.3277381,-0.2924263
1.195521,-0.03564792,0.2842394,0.9277251,-0.467758,-0.2520735
1.164375,-0.1083972,0.01020066,0.9731804,-0.3935193,-0.5001338
1.12652,-0.1777436,-0.387013,0.1840056,-0.3491709,-1.185238
1.105079,-0.1553947,-0.4237264,-0.7085838,-0.2579863,-1.48375
1.23379,-0.1948984,-0.1547767,-0.94809,-0.1434316,-0.881753
1.564614,-0.4331055,-0.07673643,-0.5136906,-0.06654743,-0.1029128
1.772327,-0.6527626,-0.05843658,-0.3287595,0.1262181,0.08027387
1.667202,-0.5037736,-0.006278134,-0.3407373,0.4386997,0.105761
1.422777,-0.2431841,0.02376018,-0.3808523,0.7455673,0.3575333
1.130349,-0.2182617,0.06074165,-0.8160977,0.7508977,0.4579561
0.7345439,-0.1887826,0.04685695,-0.9404824,0.6128066,0.4556581
0.5089039,-0.1701815,0.0987736,-0.8288578,0.5732809,0.4822494
0.4788232,-0.2133236,0.1114058,-0.886063,0.3515731,0.4299275
0.4114755,-0.1415087,0.02372972,-0.8574972,0.1552812,0.3747547
0.4481534,-0.1187583,0.02688786,-0.9865575,0.1210372,0.253728
0.4888137,-0.153311,0.02069124,-1.117339,-0.01968587,0.107823
0.5040772,-0.1636997,0.05717363,-1.06149,-0.07952845,0.03203285
0.6061683,-0.2302819,0.1805413,-0.8041437,-0.1009536,-0.08343466
0.6312417,-0.2542077,0.2519932,-0.3220562,-0.1330543,-0.1595286
0.7634787,-0.2518116,0.2993851,-0.04365762,0.06616014,-0.2074754
0.9967397,-0.2466322,0.2740357,-0.01179782,0.2011309,-0.3666116
1.117391,-0.1733182,0.2165333,-0.173762,0.09563977,-0.4266116
1.258321,-0.1041882,0.1957613,-0.3697271,0.03775745,-0.1705036
1.365335,-0.0589814,0.2954699,-0.3359533,0.1409652,0.1127844
1.390653,-0.05381715,0.5362976,-0.4222667,0.2346732,0.1458444
1.408169,-0.1079701,0.5290498,-0.5532697,0.1963943,0.3375719
1.487155,-0.3358628,0.1857724,-0.223797,0.2319686,0.8256179
1.573797,-0.7941455,-0.1326227,0.5084803,0.4025689,0.8915532
1.321271,-0.979211,-0.13199,1.008499,0.5352234,0.3804542
0.8575901,-0.5953254,0.02309679,0.6698818,0.4822275,-0.05395504
0.7430875,-0.2413907,-0.02210961,0.07903017,0.1812183,-0.1372045
1.052841,-0.3098087,-0.01970042,0.07920785,-0.2298285,-0.1651695
1.277609,-0.3802444,0.0359327,0.2880127,-0.5464884,-0.3576001
1.060382,-0.30783,-0.03422647,0.4439255,-0.5301852,-0.507265
0.771034,-0.3222112,0.004063654,0.6423059,-0.4959758,-0.5263789
0.6655753,-0.2740698,-0.01941923,0.6994602,-0.7398698,-0.4715873
0.5850423,-0.1730209,-0.08330258,0.767622,-0.8124664,-0.2392315
0.6390719,-0.1754219,-0.03735524,0.8067252,-0.7989724,-0.007808833
0.7594757,-0.1520955,-0.06236369,0.8067175,-0.6776153,0.1229825
0.7776894,-0.1100485,-0.02101483,0.8341131,-0.3478085,0.2350306
0.8065937,-0.07089288,0.0246178,0.6551438,-0.3402937,0.285131
0.8037661,-0.00592658,0.02950788,0.5778777,-0.2932772,0.3713613
0.8267233,0.04193707,0.122035,0.4971306,-0.1063246,0.4523297
0.9162066,0.06613488,0.1255484,0.2376233,-0.1273407,0.4625944
0.9884252,-0.002713327,0.1246377,0.2453267,0.003967295,0.4402691
1.106045,-0.1128692,0.1677757,0.3332762,0.05884738,0.3784821
1.123095,-0.1557201,0.170734,0.4878648,0.002826523,0.334732
1.090369,-0.1137516,0.2258928,0.6968717,0.03882951,0.2009888
1.137874,0.02018286,0.2473778,0.5179661,-0.1693398,-0.07661577
1.143812,0.09379497,0.2687467,0.3164908,-0.4059055,-0.301008
1.233285,-0.03428356,0.3031823,0.4310933,-0.4482056,-0.3177508
1.3493,-0.2635962,0.1085418,0.3164663,-0.3328863,-0.528385
1.361781,-0.3518205,-0.1822422,-0.3751656,-0.1913367,-1.120552
1.316902,-0.308961,-0.2256655,-0.9795621,-0.2085307,-1.181976
1.238198,-0.4140812,-0.073658,-0.7878374,-0.08755796,-0.6771894
1.328798,-0.5933791,0.0282599,-0.2898886,0.08307141,-0.3124805
1.475182,-0.5851956,0.05350187,-0.1470302,0.1322629,-0.01349788
1.471108,-0.4104708,0.07300828,-0.1174321,0.3653503,0.1588366
1.351998,-0.2579635,0.06894202,-0.1844468,0.5583719,0.3418147
1.060629,-0.2381944,0.06077531,-0.4731143,0.4613948,0.535889
0.7831916,-0.2232069,0.07332782,-0.6226927,0.3919921,0.4240081
0.629254,-0.1609484,0.07851311,-0.7008798,0.4590627,0.4275761
0.505582,-0.1676462,0.07961553,-0.7493702,0.4174576,0.4711869
0.4834881,-0.1899176,0.07119053,-0.7483984,0.2860123,0.3348658
0.5046187,-0.1783492,0.05792139,-0.7912341,0.2188967,0.3074811
0.5060911,-0.1940383,0.08417691,-0.6342854,0.1564032,0.2057903
0.5134464,-0.1948167,0.1400605,-0.5062245,0.0739906,0.07339752
0.5265287,-0.1790274,0.197302,-0.4414912,-0.1038487,-0.002835838
0.5860884,-0.1948562,0.2523621,-0.2768542,-0.277696,-0.1593361
0.748297,-0.1991321,0.2728944,-0.1615764,-0.2284638,-0.2253986
1.03597,-0.1947656,0.2519369,-0.05398799,-0.03240981,-0.2715066
1.263025,-0.1599967,0.2334992,-0.1785891,0.1703105,-0.337056
1.351462,-0.1007478,0.2321826,-0.3052627,0.05949957,-0.2709686
1.40822,-0.09738644,0.2753957,-0.2759632,-0.06390224,-0.1303781
1.309819,-0.04798555,0.4443759,-0.4031066,0.4106747,0.02643802
1.16815,0.01201189,0.5851123,-0.3490332,0.7691976,0.2444001
1.284022,-0.2196558,0.3396329,-0.05080415,0.5951172,0.620002
1.462119,-0.7360221,-0.08415162,0.4767302,0.5381148,0.8022536
1.42369,-1.020437,-0.1471517,0.9714417,0.6563001,0.4062241
1.10161,-0.69333,0.004554829,0.7056593,0.6017555,-0.00416245
0.7722613,-0.277456,0.03414082,0.1710028,0.3387792,-0.06464848
1.009126,-0.3021141,0.01753801,-0.006414513,0.03502685,-0.1922382
1.320449,-0.3684602,0.03993648,0.1281458,-0.1994044,-0.3670289
1.036438,-0.3122048,0.08090254,0.4738242,-0.3366956,-0.4427796
0.8337655,-0.3429271,0.05944324,0.6002688,-0.4312722,-0.5561393
0.772361,-0.2926186,0.006514247,0.6517594,-0.5503687,-0.5393609
0.5604243,-0.2033797,-0.02003385,0.8038887,-0.6679536,-0.3651629
0.6347879,-0.1798797,-0.09173887,0.7652759,-0.7369027,-0.1580494
0.7146719,-0.1358405,-0.08698803,0.8587052,-0.6296429,0.1153732
0.7095464,-0.116936,-0.0210021,0.8941863,-0.4746162,0.2499616
0.8188177,-0.07026893,-0.02558899,0.6805555,-0.4190234,0.2919113
0.7632799,-0.02463291,0.02533217,0.6477694,-0.3294125,0.4243011
0.791382,-0.01176688,0.07854223,0.5020554,-0.238001,0.4499342
0.9169169,0.02750037,0.09246918,0.3511381,-0.139712,0.4307891
0.9694538,-0.01925811,0.1383896,0.3324943,-0.06167377,0.4308455
1.097414,-0.110005,0.1499834,0.2882134,-0.04230512,0.3587694
1.125424,-0.173909,0.2039333,0.5748157,0.00863223,0.3464907
1.121903,-0.1729063,0.2760623,0.7630174,-0.005747081,0.2541633
1.143423,-0.01635824,0.2523215,0.6342348,-0.141415,-0.03113302
1.127356,0.08299328,0.2372166,0.5769169,-0.3717854,-0.2143857
1.260519,-0.06115334,0.2410858,0.4703363,-0.4785861,-0.2659917
1.412824,-0.2607721,0.1586276,0.1258288,-0.2932544,-0.6784206
1.40792,-0.2871902,-0.03076202,-0.5189884,-0.1681057,-1.363134
1.238066,-0.2652062,-0.1707519,-0.8667661,-0.2136697,-1.313873
1.102745,-0.4083295,-0.08724472,-0.5598702,-0.1159268,-0.694311
1.278062,-0.5496811,0.04823035,-0.1874472,0.09435796,-0.3751867
1.515319,-0.5099266,0.05981985,-0.04854072,0.1740941,-0.1189912
1.520211,-0.3662685,0.05913902,-0.07442409,0.3015121,0.1453735
1.34045,-0.2557799,0.05834557,-0.2580922,0.5217591,0.3498326
1.122769,-0.230873,0.04382963,-0.6007399,0.4537109,0.5132504
0.9088948,-0.2037622,0.07586868,-0.8116104,0.3444342,0.4241453
0.6236534,-0.1397373,0.08265176,-0.8288585,0.4439223,0.4621352
0.5249662,-0.1320891,0.07448488,-0.9185602,0.3828399,0.5113799
0.6314739,-0.1885851,0.08966673,-0.9408384,0.2577635,0.3634758
0.5366261,-0.1948849,0.09356039,-0.8548696,0.2186607,0.3659391
0.4948834,-0.1811031,0.1124696,-0.7595159,0.1414508,0.260957
0.601889,-0.1864063,0.1121552,-0.7030113,0.1028187,0.1165635
0.5207971,-0.1477009,0.1242485,-0.7048997,-0.006991206,0.05409557
0.5304067,-0.143054,0.1871974,-0.5902005,-0.1529376,-0.08465246
0.6049283,-0.1557601,0.2241103,-0.407716,-0.1599757,-0.08106561
0.668805,-0.1639721,0.2284311,-0.301367,-0.115858,-0.1410373
1.015173,-0.2248332,0.2112077,-0.2828881,0.06083312,-0.3345382
1.286409,-0.2299744,0.2055979,-0.2655446,0.2419003,-0.3841926
1.368799,-0.1887899,0.2512788,-0.1416395,0.1865162,-0.1858485
1.434605,-0.1339276,0.4239104,-0.1224348,0.1546739,0.1058974
1.3824,-0.02743003,0.6023694,-0.5619087,0.2062006,0.1713732
1.37843,0.01221077,0.3777294,-0.9780804,0.1024225,0.4285834
1.429533,-0.1966535,-0.02996991,-0.3620872,0.09055365,0.7668442
1.378443,-0.5907417,-0.09958093,0.5609366,0.5675732,0.4356411
1.092892,-0.7064055,0.003779299,0.5518258,0.9897947,0.004034215
0.7781551,-0.4481793,0.03341024,0.2457705,0.599949,-0.1024775
0.9709671,-0.3033559,0.009129311,0.1556537,0.02525653,-0.1580673
1.312659,-0.4133856,-0.008325368,0.1340881,-0.1015512,-0.1145479
1.286932,-0.481544,0.01399582,0.2897041,-0.247976,-0.2246395
1.088974,-0.4132785,0.005360826,0.4552395,-0.3129472,-0.4508404
0.7939311,-0.3731946,-0.004438251,0.6596387,-0.2374395,-0.4616249
0.6014913,-0.3063401,-0.01869194,0.8665228,-0.5502069,-0.4113929
0.660127,-0.190962,-0.07528372,0.9482205,-0.7726135,-0.279346
0.6906695,-0.1767973,-0.08406076,1.05432,-0.7083701,-0.04731107
0.7365758,-0.1500301,-0.07992103,0.9876513,-0.7327777,0.1174047
0.8005441,-0.1058893,-0.05587068,0.8531806,-0.5933155,0.2408001
0.767438,-0.09063494,0.02405058,0.8349799,-0.4572618,0.3514207
0.7973749,-0.03651663,0.06547643,0.7169401,-0.3824907,0.4572825
0.8041229,-0.0163543,0.08602771,0.5846762,-0.2144789,0.4873298
0.8250606,0.03280501,0.1157214,0.3949376,-0.1400081,0.4526867
0.9539014,0.0523006,0.1542232,0.2478852,-0.04499524,0.4192154
1.005928,-0.06072148,0.1989585,0.3833538,-0.03029183,0.3509134
1.047142,-0.1618819,0.2152126,0.5829256,-0.03205026,0.3247999
1.092375,-0.1927067,0.229312,0.7477969,0.0325123,0.2192532
1.106723,-0.07009921,0.2400522,0.6443937,-0.1358753,-0.08916002
1.143057,0.0508414,0.2628678,0.4404041,-0.3137826,-0.3274632
1.189239,-0.07922667,0.289654,0.721871,-0.3892796,-0.3572011
1.306355,-0.2489511,0.1710621,0.7743005,-0.4113506,-0.5411356
1.354733,-0.3073588,-0.09581644,-0.04088489,-0.3386667,-1.162995
1.263744,-0.2998191,-0.2417645,-0.8443981,-0.2688961,-1.548006
1.23729,-0.3357998,-0.1237368,-0.7969405,-0.08021547,-1.01483
1.378139,-0.5345487,0.02380988,-0.2854638,0.1057156,-0.2638227
1.568872,-0.6389412,0.05275823,-0.04363235,0.221224,-0.03202579
1.55262,-0.4313685,0.08315568,0.03517194,0.4640841,0.140489
1.329124,-0.1832761,0.07814955,-0.2489726,0.6272795,0.4410995
1.030052,-0.1375316,0.04259847,-0.920515,0.4979826,0.5099733
0.7741744,-0.1569321,0.08371535,-1.079771,0.2913593,0.5532914
0.7070825,-0.1358769,0.09063806,-1.004484,0.2885856,0.5665596
0.6280319,-0.1573707,0.07005245,-1.009008,0.2787173,0.4835717
0.4649894,-0.1779238,0.08443837,-0.851296,0.1292801,0.528962
0.4777178,-0.1829128,0.06598485,-0.8423015,0.08468881,0.4329233
0.5657548,-0.221037,0.0729514,-0.7503083,0.05222309,0.2652224
0.5450838,-0.2228683,0.097699,-0.6167785,0.0190013,0.1366157
0.5335112,-0.2145995,0.133583,-0.6235802,-0.04128544,-0.09553874
0.555057,-0.2240372,0.2289933,-0.4471704,-0.263457,-0.1765218
0.6096549,-0.2275701,0.2717426,-0.2499087,-0.3245031,-0.2045148
0.8315591,-0.2779441,0.2383837,-0.08338365,-0.1631005,-0.2372581
1.118663,-0.3181603,0.2112051,0.04319511,-0.05975969,-0.283461
1.294732,-0.2632136,0.2363665,0.0999492,-0.09389958,-0.3895172
1.373706,-0.1749395,0.3211604,0.2071803,-0.09665776,-0.1734671
1.389718,-0.1386384,0.438058,0.1477518,0.126383,0.08910225
1.411643,-0.1514888,0.458131,-0.1744952,0.3636027,0.1806711
1.507622,-0.2819318,0.178877,-0.3648322,0.4190347,0.5286863
1.567114,-0.6165892,-0.1240073,0.187136,0.4409567,0.7869374
1.290257,-0.815256,-0.06546877,0.8574411,0.7192159,0.4779196
0.8467698,-0.5604315,0.01766283,0.6316728,0.9904823,0.09321155
0.8520789,-0.2602005,-0.08985019,0.3464093,0.533938,0.03368734
1.171448,-0.2834131,-0.07729422,0.3338135,-0.05897196,0.01581262
1.300398,-0.3466748,0.0008548425,0.04978904,-0.09666439,-0.03941103
1.163073,-0.3097076,-0.0002461828,0.1651023,-0.2755758,-0.1960826
0.8895008,-0.3032078,0.01198236,0.4652625,-0.4743518,-0.4878235
0.7196639,-0.2539057,-0.02922534,0.3336513,-0.3803747,-0.5298389
0.6514001,-0.2087372,-0.05990987,0.4356574,-0.6143203,-0.4130878
0.6500629,-0.2110335,-0.04057953,0.6086344,-0.7706299,-0.2991675
0.7453025,-0.1717927,-0.08739902,0.6194976,-0.5857781,-0.07514095
0.7567539,-0.1590948,-0.08464142,0.7385755,-0.5908565,0.08351582
0.7690312,-0.1229288,-0.03596989,0.6575517,-0.4377439,0.1770465
0.807685,-0.04888683,0.0003054446,0.6102452,-0.1865251,0.2941202
0.7847006,-0.007139477,0.0640111,0.5673077,-0.1677551,0.3570724
0.8387902,0.06470893,0.1155042,0.2846916,-0.06585407,0.3377153
0.9121417,0.0805715,0.1596828,0.1314251,0.01434473,0.3060541
0.9603126,0.02707982,0.1590292,-0.001956344,0.03777402,0.3042363
0.9861714,-0.02465058,0.1549084,0.01832195,0.06020528,0.2732236
1.014464,-0.1293822,0.1689058,0.2950978,0.01934622,0.3080785
1.111868,-0.1694394,0.153143,0.4725571,0.02145977,0.306582
1.12716,-0.1029652,0.1789086,0.5187421,-0.09100378,0.01883827
1.112018,-0.09497908,0.1929729,0.4318815,-0.2609523,-0.2639033
1.15181,-0.1002818,0.2102196,0.4604034,-0.328313,-0.2901405
1.202465,-0.0788549,0.2266551,0.4228808,-0.3223687,-0.526594
1.281305,-0.141509,0.07710504,-0.081182,-0.2353538,-1.175729
1.248215,-0.2022519,-0.1214422,-0.5727963,-0.1644885,-1.398583
1.108783,-0.2014087,-0.154464,-0.6031482,-0.07354923,-0.8072339
1.031103,-0.304925,-0.04236695,-0.2865276,-0.02719002,-0.1946648
1.208409,-0.4909155,0.01323836,-0.2051614,-0.01145504,-0.05756964
1.608616,-0.5067284,-0.0183777,-0.4505011,0.2473764,-0.04337681
1.739923,-0.3490375,0.001736616,-0.6330158,0.5236926,0.2235071
1.471767,-0.2702181,0.03761344,-0.7595927,0.495436,0.476163
1.103639,-0.2905567,0.07811719,-0.6654945,0.408963,0.4856616
0.821945,-0.2568864,0.1061741,-0.5476623,0.4850961,0.5217567
0.6641929,-0.1683374,0.08238973,-0.575731,0.4682343,0.576969
0.5541245,-0.1258996,0.07294006,-0.5222976,0.3543995,0.5196759
0.5079056,-0.1394071,0.05147321,-0.5790434,0.2974922,0.4140229
0.5066705,-0.13184,0.02859128,-0.5931772,0.1336521,0.3009927
0.5024211,-0.1387326,0.04311977,-0.560535,0.05571258,0.1835809
0.5141337,-0.1585781,0.08277067,-0.6066396,0.06948191,0.09068428
0.5171735,-0.1575269,0.1841172,-0.5021982,-0.06404828,0.07439214
0.6152542,-0.2024813,0.2720241,-0.4109191,-0.1306256,0.03537216
0.8435934,-0.2470487,0.2693577,-0.267458,-0.1074351,-0.03754671
1.058082,-0.2529592,0.2609049,-0.1311109,-0.006375424,-0.1304158
1.182461,-0.2104028,0.2602895,-0.2263211,0.1046388,-0.2187281
1.287489,-0.1486062,0.2571105,-0.2516452,0.1032907,-0.06168472
1.410679,-0.176245,0.3943153,-0.1975598,0.2875969,0.1417318
1.477563,-0.2366055,0.4941178,-0.1434207,0.5151445,0.2398373
1.646695,-0.3977556,0.1694382,0.01751676,0.4070497,0.6280808
1.754998,-0.6677701,-0.1465666,0.3567203,0.329859,0.9151534
1.304488,-0.6669641,0.08488324,0.736107,0.6451756,0.3589345
0.6892729,-0.3783195,0.2574158,0.6002752,0.8085806,-0.3299174
0.6241821,-0.1698627,-0.01427871,-0.005637033,0.3233697,-0.2400625
1.107046,-0.1855376,-0.1203709,-0.3315352,-0.2937753,0.07862976
1.474273,-0.3418109,0.001334928,-0.09993954,-0.4305141,0.09535959
1.194051,-0.4264147,0.001871736,0.195374,-0.239155,-0.1647975
0.8093482,-0.3682453,-0.004974755,0.149364,-0.2292595,-0.5824111
0.7185329,-0.2971211,-0.005528145,0.1824307,-0.3869351,-0.6004264
0.6173809,-0.2201252,-0.02873653,0.3900689,-0.4883736,-0.363486
0.6600351,-0.143094,-0.03443987,0.3978549,-0.5871991,-0.2596415
0.7847599,-0.1278234,-0.07207087,0.4387211,-0.4815591,0.00656107
0.762915,-0.1127791,-0.04798229,0.4422326,-0.2517868,0.1352114
0.8067738,-0.07791692,-0.003737239,0.3133273,-0.157484,0.09234631
0.7995766,-0.06292759,-0.004006232,0.3300653,-0.04230585,0.2296891
0.7644409,-0.009904725,0.0553213,0.2436712,0.0264097,0.2630561
0.8203614,0.09334218,0.121836,0.1158603,0.01151227,0.3613553
0.8000402,0.1216915,0.1303999,0.04647705,0.02666294,0.5195208
0.8836778,0.04929076,0.1332204,-0.04179799,0.04359406,0.4091681
1.022893,-0.04949982,0.1645368,0.1060427,0.03032203,0.3780623
1.038382,-0.1528347,0.1674653,0.2984847,-0.0215663,0.3817391
1.066676,-0.1748764,0.1457614,0.4338631,-0.01487085,0.111811
1.09539,-0.1206339,0.1824221,0.4316377,-0.08772463,-0.2511583
1.141072,-0.1015213,0.2239341,0.3633351,-0.3226276,-0.3964684
1.187348,-0.08491038,0.2430216,0.7313068,-0.4809335,-0.2902162
1.235744,-0.1297146,0.1706434,0.8784487,-0.5110803,-0.417465
1.311754,-0.2496219,-0.07963983,0.08674314,-0.3987249,-0.9458462
1.308514,-0.2950969,-0.2578327,-0.9522724,-0.2281579,-1.325454
1.324927,-0.4084191,-0.186165,-1.136364,-0.09165185,-1.072821
1.412345,-0.6429326,-0.06243554,-0.4628904,0.04286218,-0.4716664
1.543469,-0.7059692,-0.01806851,-0.04392461,0.1086714,-0.1025106
1.607757,-0.505092,0.01560353,-0.07677908,0.3327259,0.1575572
1.429624,-0.2229121,0.008952598,-0.3662146,0.6630255,0.3429789
1.210836,-0.1104174,-0.02230948,-0.8999911,0.6143387,0.3583712
1.001654,-0.157434,0.02937782,-1.101446,0.4443383,0.4373825
0.7048406,-0.1645607,0.05528175,-1.041788,0.4651032,0.395217
0.530314,-0.1633771,0.05427895,-1.068901,0.4151683,0.3497935
0.5079639,-0.1723601,0.07270047,-1.107922,0.294488,0.4167475
0.4792571,-0.1629833,0.04395818,-1.091916,0.1350121,0.3166961
0.4835543,-0.1890931,0.06369208,-0.9650303,-0.01714005,0.2398801
0.5753464,-0.2162543,0.08291189,-0.8698609,0.02287794,0.09069047
0.596439,-0.2316109,0.08984361,-0.7554708,-0.008316705,-0.1267487
0.5670675,-0.2338841,0.1700617,-0.5440543,-0.1621851,-0.1977581
0.6240326,-0.2007245,0.2191959,-0.2952106,-0.1956519,-0.2903566
0.7067945,-0.1773865,0.2416033,-0.1410003,-0.1460862,-0.2821579
0.9222245,-0.2005944,0.2265234,-0.2404259,0.1240008,-0.2678411
1.229727,-0.2250048,0.189803,-0.2570523,0.365269,-0.2858237
1.387931,-0.1838537,0.2182101,-0.2143531,0.06377496,-0.1133475
1.435254,-0.1331358,0.3034671,-0.282937,-0.1813063,0.00178867
1.419654,-0.09159853,0.4060637,-0.256037,0.286656,0.03396987
1.435738,-0.074826,0.2921724,-0.3148574,0.6985496,0.2148649
1.565835,-0.322126,-0.03174261,-0.2973464,0.6020199,0.4964729
1.571636,-0.7390272,-0.182961,0.1224455,0.8750112,0.5158917
1.188239,-0.797722,0.01089043,0.7279688,1.236627,0.2143075
0.7415598,-0.459095,0.2136947,0.9277601,0.6445296,0.0372197
0.8739171,-0.2032617,-0.008731617,0.2642379,-0.09664985,0.02288126
1.247892,-0.2341764,-0.1916716,-0.2717264,-0.19233,0.04226159
1.277686,-0.3508518,0.01311167,0.1010261,-0.2607707,-0.03497463
1.12503,-0.3748159,0.05509854,0.4035451,-0.4320376,-0.3033941
0.8296143,-0.3431615,-0.02372206,0.3820502,-0.4418993,-0.4832724
0.6347743,-0.2957921,-0.009775003,0.5805536,-0.5085226,-0.5022449
0.6960026,-0.216281,-0.0646812,0.6774566,-0.6317367,-0.3761016
0.696818,-0.1635188,-0.0714222,0.6488613,-0.6097238,-0.1757715
0.7806583,-0.1387041,-0.05171816,0.7593021,-0.5240614,-0.03817762
0.82756,-0.09984023,-0.04239932,0.6785493,-0.4109669,0.1028141
0.7473309,-0.06209098,0.0175635,0.5755056,-0.2519956,0.1855754
0.8093883,-0.02118706,0.04593187,0.5825256,-0.153415,0.2921302
0.7902445,0.02326959,0.07318766,0.3762448,-0.0819115,0.3908151
0.8127671,0.05934744,0.1045065,0.1827198,0.05212374,0.3386118
0.9467113,0.0337314,0.1191524,0.05066305,0.1804152,0.3326692
0.9937336,-0.08792931,0.1309567,0.02476652,0.2199335,0.3198397
1.092225,-0.2141792,0.1449645,0.2633514,0.1879759,0.2786656
1.095476,-0.2112818,0.1978415,0.5619953,0.138174,0.2775482
1.083568,-0.08086421,0.2360817,0.8310157,0.02535573,0.1259401
1.17183,-0.01647826,0.2553875,0.7165761,-0.1752959,-0.110275
1.192094,-0.06319698,0.3221988,0.506413,-0.3336344,-0.1956071
1.258401,-0.1000664,0.3606812,0.6882467,-0.3752381,-0.1909892
1.293311,-0.1475137,0.2022507,0.5184968,-0.2980673,-0.5179879
1.267468,-0.2128968,-0.08564878,-0.1691685,-0.1841478,-1.129925
1.228831,-0.2221748,-0.1914179,-0.8003296,-0.154697,-1.282636
1.128717,-0.2520905,-0.1045363,-0.8075109,-0.07741407,-0.8420046
1.212772,-0.4568184,-0.04278882,-0.2618613,0.02966664,-0.3846899
1.408108,-0.6225017,0.001104813,-0.1042213,0.06937305,-0.1565056
1.460938,-0.4619838,0.06201785,-0.1347177,0.3443339,0.03515597
1.404911,-0.240294,0.05409924,-0.2441015,0.6372415,0.2221514
1.189908,-0.1980625,0.0303718,-0.7146344,0.4657709,0.2976519
0.9078483,-0.1991386,0.07456289,-0.8357576,0.2998469,0.3485775
0.7554426,-0.1902531,0.08204066,-0.8197529,0.4527446,0.4098225
0.6573471,-0.1868356,0.06319763,-0.9188096,0.4468206,0.4632101
0.5288187,-0.1761615,0.08752851,-0.8411847,0.2186112,0.48893
0.48536,-0.1787796,0.08745931,-0.8185201,0.010016,0.4303738
0.5649267,-0.1812659,0.08929389,-0.736872,-0.1081935,0.3322435
0.5997565,-0.1690338,0.104649,-0.6619427,-0.004285754,0.1856613
0.5856739,-0.1640841,0.132775,-0.6202118,0.07386281,0.01860057
0.5932401,-0.1552173,0.2102344,-0.4695476,-0.06520223,-0.09631773
0.605104,-0.1567394,0.2469911,-0.3308039,-0.07545265,-0.1669244
0.7643297,-0.2086286,0.2091187,-0.1377703,0.0212441,-0.1985331
1.046814,-0.25665,0.1640954,-0.07243655,0.04859949,-0.2982048
1.244389,-0.2354576,0.1777341,-0.08066093,-0.0152078,-0.3603194
1.389301,-0.1659579,0.2923826,-0.01228018,-0.1168468,-0.1515994
1.511922,-0.09025102,0.4680149,-0.05386843,0.06184591,0.05337071
1.501566,-0.05207117,0.5149139,-0.304392,0.4500783,0.05705968
1.477019,-0.2073507,0.2748217,-0.6386383,0.7000369,0.27618
1.528788,-0.6590485,0.02794898,-0.4359987,0.6781174,0.6858277
1.351384,-1.069225,0.04729421,0.2400579,0.6608,0.6178564
1.077457,-0.9577182,0.1027828,0.8128958,0.8334969,0.1991029
1.005383,-0.4728675,0.04335041,0.8957034,0.5472932,0.03494823
0.9085035,-0.1685185,-0.02416571,0.158306,-0.01882061,0.109025
1.043631,-0.1804365,-0.0699204,-0.323512,-0.1915172,0.181297
1.356599,-0.3059931,-0.03209278,0.1064328,-0.3651383,-0.01333821
1.158655,-0.3453332,0.0579296,0.4351568,-0.4861504,-0.360518
0.8550286,-0.3139458,0.02311075,0.4678486,-0.4422951,-0.505324
0.790309,-0.3191017,-0.01769571,0.5757923,-0.5603889,-0.5107254
0.6881981,-0.2279574,0.007034464,0.6529354,-0.6280395,-0.3553473
0.7273453,-0.1452903,-0.0428313,0.6327911,-0.6420129,-0.1429216
0.7707037,-0.1460346,-0.04775764,0.6257137,-0.6313519,0.00053981
0.7559097,-0.07669863,-0.01613824,0.5536686,-0.4906074,0.1753908
0.8424716,-0.06896122,-0.01883816,0.3916735,-0.3476245,0.261399
0.7942535,-0.05728046,0.04198588,0.3463875,-0.2099804,0.3349723
0.782131,-0.004301628,0.07823138,0.2538924,-0.1602439,0.3720973
0.8542628,0.008076579,0.08982374,0.08804305,-0.1113921,0.362088
0.8913728,0.04384588,0.111573,0.01391848,0.07295213,0.4455388
1.06103,-0.06078082,0.1227724,0.05211238,0.1827164,0.380201
1.10244,-0.204976,0.1689537,0.3212204,0.1394182,0.3133599
1.047887,-0.2094185,0.1734192,0.6602899,0.06988421,0.3264316
1.113924,-0.1357841,0.1851816,0.8202461,0.021443,0.1038298
1.145802,0.008143488,0.246002,0.6663245,-0.1421614,-0.170615
1.255433,0.04038193,0.2535497,0.5122528,-0.3012579,-0.2683596
1.414047,-0.1130678,0.2011722,0.5309684,-0.247431,-0.3888996
1.432268,-0.2478737,0.03313972,0.00530978,-0.1741852,-0.8429034
1.29646,-0.1862283,-0.1879857,-0.8969903,-0.1266703,-1.217792
1.121297,-0.1589846,-0.2394808,-1.228909,-0.1032825,-0.9326911
1.143649,-0.4555354,-0.1043535,-0.8711646,-0.06734131,-0.5074329
1.305841,-0.6877692,0.03639297,-0.3550902,0.1266389,-0.3368405
1.480093,-0.606401,0.08097964,-0.03643087,0.2326267,-0.09734855
1.540937,-0.4654922,0.06439618,0.03585482,0.2774523,0.1464641
1.250697,-0.3337407,0.03763052,-0.3367738,0.4037446,0.2550267
0.9003132,-0.1973182,0.05690621,-0.6807646,0.3219001,0.3435748
0.8219929,-0.1542878,0.07795004,-0.652717,0.1952776,0.3226978
0.7228972,-0.163883,0.08702658,-0.7546812,0.2923284,0.2709341
0.5546966,-0.1146645,0.1241754,-0.8127761,0.3159822,0.2894522
0.5658428,-0.1376585,0.1015348,-0.8009415,0.1816295,0.2088742
0.5887998,-0.185865,0.08744139,-0.8568703,0.127456,0.1423966
0.5714463,-0.1610588,0.1222619,-0.7546425,0.1515238,0.07320894
0.6228432,-0.2081999,0.1291725,-0.6881277,0.1584333,-0.08647532
0.5999188,-0.1972898,0.1773378,-0.6195035,0.1083602,-0.1642099
0.580579,-0.1654361,0.2112365,-0.4808312,-0.01698154,-0.220954
0.6585588,-0.2131719,0.1971666,-0.345976,-0.1024013,-0.2168337
0.8247787,-0.2193859,0.194205,-0.204886,-0.05632005,-0.1788113
1.158562,-0.2675783,0.1705871,-0.1435341,0.008855427,-0.2394975
1.397462,-0.2258559,0.1862248,-0.05863849,-0.0313519,-0.222624
1.387009,-0.09559767,0.3099712,-0.01687937,-0.003974113,-0.1509098
1.305644,-0.04933611,0.4644677,-0.1065349,0.2419269,-0.07142249
1.281759,-0.02350199,0.4368262,-0.4062327,0.4980063,0.1261658
1.502425,-0.2533617,0.2126894,-0.6634639,0.5602318,0.4983265
1.662666,-0.7272372,0.07487759,-0.125817,0.479088,0.7595562
1.216929,-0.900996,0.1094649,0.5454455,0.4983387,0.3897613
0.6825546,-0.5479017,0.1222233,0.3941143,0.4816711,-0.02869718
0.7919943,-0.1614971,-0.04476542,0.1810924,0.1144993,0.1395046
1.148587,-0.2357736,-0.1687263,0.1491943,-0.2354332,0.2218403
1.24779,-0.396686,-0.0275446,-0.09183406,-0.2920165,0.07654771
1.126029,-0.3909089,0.08100007,0.1115898,-0.3266994,-0.09325113
0.8728271,-0.4092861,0.02356496,0.5831174,-0.4055686,-0.4663946
0.7784367,-0.3608892,0.0092131,0.5757221,-0.4216209,-0.5406064
0.8036739,-0.3018883,0.01664378,0.6465385,-0.5251647,-0.3169691
0.69868,-0.2277979,-0.035127,0.8013512,-0.6972386,-0.256361
0.7397228,-0.106924,-0.05976737,0.689137,-0.657217,-0.039839
0.8427269,-0.1229169,-0.04536925,0.6693823,-0.5537129,0.1606408
0.8184495,-0.1130609,-0.04035464,0.5823934,-0.4355619,0.1585601
0.8467382,-0.07150675,0.01255892,0.4917183,-0.2576944,0.2874632
0.8392048,-0.08311186,0.06813462,0.5232894,-0.2128251,0.329591
0.8297953,0.00397859,0.08982021,0.3442538,-0.1429807,0.3426495
0.883229,0.05472277,0.1223714,0.137635,-0.07242889,0.4560891
0.9508976,0.02629266,0.1223994,0.06630138,-0.007262435,0.4150289
1.068523,-0.04367725,0.1592661,0.1378651,0.1185566,0.3833888
1.091304,-0.1744746,0.2006478,0.3802955,0.06244788,0.3769219
1.071199,-0.1959507,0.1778701,0.68333,0.03338248,0.305343
1.115744,-0.110996,0.2000836,0.8166645,0.007808344,0.1786207
1.118066,0.009292907,0.2129545,0.5561468,-0.2286564,-0.06182175
1.150038,0.07220116,0.2157191,0.3830977,-0.4133489,-0.1184454
1.248209,-0.08643521,0.2166965,0.4465423,-0.444035,-0.1604486
1.300614,-0.2687536,0.07461704,0.1284205,-0.229892,-0.7173851
1.264567,-0.2304759,-0.1026996,-0.4176367,0.01298869,-1.247286
1.12178,-0.208744,-0.1188374,-0.581367,-0.05514853,-0.9914346
0.9975014,-0.3860429,-0.02491133,-0.3004661,-0.073902,-0.5021628
1.160398,-0.487953,0.03790964,-0.02629537,0.0903675,-0.3523563
1.485612,-0.4033403,0.08232389,-0.01333351,0.2003456,-0.1082908
1.552972,-0.2783475,0.09078003,-0.2074791,0.3954381,0.1169402
1.333762,-0.1937667,0.0491354,-0.5810379,0.6072321,0.1857158
1.037385,-0.1968108,0.07588525,-0.8168502,0.5283422,0.3970087
0.831323,-0.205294,0.07760786,-0.9324076,0.4133414,0.3877557
0.7432948,-0.1910027,0.05104984,-1.118931,0.4919598,0.359949
0.6516456,-0.2059898,0.08959213,-1.101472,0.4365223,0.487195
0.5883018,-0.2205099,0.08755091,-0.9519742,0.2021812,0.3998271
0.546165,-0.2345007,0.1071268,-0.7735243,0.01913559,0.4006955
0.5400671,-0.221295,0.124461,-0.5729902,-0.08640986,0.3124013
0.6196476,-0.1941403,0.09310721,-0.5355637,-0.08808565,0.07782685
0.595392,-0.1975615,0.1388413,-0.494758,-0.09209964,0.005716488
0.5515127,-0.2011786,0.1971099,-0.3548728,-0.1959252,-0.1580706
0.5912088,-0.205184,0.2428453,-0.1861428,-0.2940473,-0.2308985
0.6468658,-0.2210121,0.2356954,-0.03197701,-0.3280454,-0.2289877
0.9043679,-0.2314368,0.1793599,0.0261307,-0.2321542,-0.3260567
1.228532,-0.2132103,0.2107584,0.07543723,-0.1497377,-0.3125303
1.35593,-0.1695479,0.2346107,0.141862,-0.1638676,-0.1890312
1.335704,-0.1074863,0.3110465,0.1160414,-0.00706201,0.007870613
1.233823,-0.0321703,0.4698228,-0.2320057,0.1660707,0.07867695
1.237563,-0.04570859,0.4136777,-0.613456,0.07264171,0.2734029
1.465143,-0.3078762,0.1486438,-0.2685416,0.09310339,0.6429694
1.64284,-0.7423598,-0.0383198,0.4625099,0.6369893,0.4955937
1.322509,-0.8678569,0.06755683,0.8492467,1.067459,0.1520868
0.7908278,-0.4722828,0.1972472,0.7375232,0.5465058,-0.002548514
0.7846095,-0.09853909,-0.01194687,0.1291198,-0.1320667,-0.1082004
1.060183,-0.132582,-0.1355167,-0.2781584,-0.1278812,-0.03600158
1.166609,-0.3017098,0.0156152,0.02491655,-0.2087344,-0.1265361
1.107649,-0.3826103,0.0465483,0.4070066,-0.4670975,-0.3804289
0.912244,-0.3946503,0.002421211,0.4761524,-0.3470102,-0.475011
0.7887294,-0.3249655,-0.006502739,0.5449926,-0.3731487,-0.5322123
0.726693,-0.2303795,-0.02758787,0.6883923,-0.563746,-0.3917641
0.7236897,-0.1687846,-0.03604184,0.7194504,-0.5153132,-0.1656185
0.8013769,-0.1023151,-0.05106461,0.6469802,-0.5249346,-0.03227771
0.7867367,-0.05107536,-0.0314321,0.4855998,-0.493144,0.1632953
0.8247152,-0.02895276,-0.003135055,0.376971,-0.3818236,0.2355659
0.8412594,-0.02951381,0.01453032,0.3538057,-0.3420474,0.2900738
0.7981224,-0.04006453,0.05779962,0.2232368,-0.2138174,0.4134506
0.8836517,-0.02929083,0.08455036,0.2128649,-0.1234499,0.4023512
0.9503763,-0.05844721,0.1141701,0.2664634,0.006232765,0.3756671
1.041639,-0.1354356,0.1362739,0.2647071,0.1559569,0.3172276
1.093308,-0.2062843,0.1405396,0.5065076,0.06825953,0.2511091
1.041704,-0.2211725,0.1518653,0.7980899,0.002461579,0.2542642
1.093506,-0.1138376,0.1615357,0.9132121,-0.02804492,0.1501182
1.1328,0.006309704,0.2099871,0.7679859,-0.2094361,-0.05235466
1.191944,0.00373801,0.2521823,0.5843263,-0.3796281,-0.1401242
1.300203,-0.1153911,0.1987773,0.7376993,-0.4069311,-0.1236721
1.306567,-0.2192006,0.05539934,0.6541519,-0.226494,-0.4174371
1.263509,-0.1634545,-0.09463975,-0.02126475,-0.04535048,-1.001803
1.117991,-0.1519994,-0.1256025,-0.6659207,-0.1343616,-1.206022
0.9822404,-0.3662091,-0.06426146,-0.625438,-0.1951069,-0.8671604
1.118499,-0.5394228,-0.02346952,-0.1834528,-0.04577109,-0.4956935
1.430706,-0.4720623,0.03624244,-0.03757387,0.05904997,-0.2877867
1.593732,-0.317445,0.1034291,0.06939206,0.2292145,0.03102529
1.420292,-0.2358548,0.07983331,-0.07945148,0.4469889,0.2925442
1.086775,-0.2082339,0.07560047,-0.6541888,0.376952,0.3511003
0.8655614,-0.2102996,0.1227447,-0.7813254,0.2832541,0.4689664
0.7835995,-0.2059848,0.1014257,-0.7295597,0.3503218,0.4888625
0.6670944,-0.1777536,0.09723475,-0.7981165,0.2762449,0.4478108
0.5332417,-0.1912647,0.1183447,-0.7451562,0.1373896,0.4902748
0.5623579,-0.1947387,0.1009762,-0.7450168,0.05917303,0.4311379
0.6147521,-0.1856702,0.1081632,-0.6297602,-0.004441558,0.3600543
0.5919837,-0.2000722,0.1146851,-0.5432467,0.05055523,0.1919462
0.6050055,-0.1841871,0.1274348,-0.4848371,0.08733507,-0.06216416
0.5947552,-0.1897574,0.1619008,-0.3360552,-0.002233238,-0.136576
0.6032315,-0.1993182,0.1825765,-0.3352368,-0.1356294,-0.1523115
0.743187,-0.210604,0.2107986,-0.2253679,-0.2578545,-0.1868045
0.9926097,-0.2860792,0.1978505,-0.1206662,-0.02438019,-0.2126743
1.279665,-0.3192303,0.1720689,-0.08975193,0.2663308,-0.2082041
1.430918,-0.264237,0.2559785,0.0868496,-0.02644504,-0.1963717
1.458829,-0.1580578,0.4313501,0.2106834,-0.2075372,-0.1898129
1.439572,-0.02276653,0.536538,0.2079562,0.2094791,-0.06352352
1.372659,0.04078815,0.3784052,-0.1745522,0.5411073,0.1165117
1.417636,-0.1602751,0.1253604,-0.5004393,0.5678697,0.3973589
1.387843,-0.5822705,0.1064448,0.0618773,0.5749778,0.6069399
1.045449,-0.760129,0.1672039,0.6924846,0.5888366,0.3706794
0.7521218,-0.5550379,0.1177085,0.5774744,0.447419,0.09045471
0.8034255,-0.3230178,0.01561257,0.3863367,0.2149068,0.07520074
0.9490401,-0.257114,-0.09154179,0.3093498,0.04100898,0.1053103
0.9897129,-0.3060667,-0.03856295,0.03712351,-0.1445822,0.06981191
1.133557,-0.3718114,0.07785025,0.184281,-0.2768885,-0.1794245
1.132684,-0.3932732,0.04504365,0.5662157,-0.3604769,-0.5390687
0.8151465,-0.3142991,0.03853225,0.4996264,-0.4570948,-0.6268837
0.7151923,-0.1849523,0.04858859,0.6084716,-0.5607282,-0.4957193
0.7546628,-0.1479572,0.0006622542,0.7393579,-0.7277306,-0.4101794
0.7760197,-0.1392073,0.0003673379,0.5279283,-0.6651041,-0.2520914
0.8415187,-0.06641348,-0.02449893,0.5368793,-0.4893086,-0.003032497
0.7877243,-0.03552808,-0.03205201,0.5254855,-0.4608016,0.1532572
0.8074262,-0.06605404,0.01028256,0.4350427,-0.2682684,0.2803217
0.7917176,-0.04514335,0.02168476,0.4578445,-0.1703347,0.3624342
0.7283512,-0.01146213,0.0581341,0.3681452,-0.2152807,0.4290974
0.8314146,-0.002338237,0.07347614,0.3168631,-0.04844233,0.5095525
0.9030308,0.02616244,0.08898558,0.2933362,0.08602779,0.4238714
1.034736,-0.02022896,0.1450491,0.2952969,0.1299973,0.3266775
1.155416,-0.1087083,0.1264571,0.3628178,0.1120281,0.2870043
1.155956,-0.1213559,0.1364872,0.3958736,0.05331339,0.189328
1.166872,-0.1238232,0.2351795,0.4850086,-0.0264312,0.06614966
1.144136,-0.1016905,0.2918293,0.5517607,-0.2366355,-0.1056674
1.225221,-0.06847325,0.2913921,0.8187124,-0.2756214,-0.1365674
1.336825,-0.1553564,0.2136152,1.109375,-0.1520201,-0.2404499
1.394486,-0.2404895,0.03738215,0.5005176,-0.0113516,-0.7822723
1.412292,-0.1783264,-0.1115817,-0.5621608,0.2815357,-1.127292
1.209211,-0.1782018,-0.06515204,-0.8424116,0.3996547,-0.8166994
1.050681,-0.3976689,0.07190681,-0.4131635,0.3472732,-0.3619846
1.211918,-0.5569599,0.1094122,-0.1533645,0.5089391,-0.1758089
1.422194,-0.370336,0.1349174,-0.324677,0.6682744,-0.01975508
1.379689,-0.1011644,0.1167705,-0.6014895,0.6385887,0.1589252
1.169939,-0.1045107,0.06188744,-0.9429536,0.5870264,0.1677752
0.9212815,-0.1935901,0.1074052,-1.156654,0.4908918,0.2309217
0.6655919,-0.2046459,0.1027707,-0.9317432,0.3485058,0.2770578
0.5602472,-0.22354,0.08458305,-0.7527795,0.3566207,0.27786
0.471736,-0.1881626,0.1154579,-0.7830674,0.3487184,0.3711459
0.410996,-0.1530571,0.08399614,-0.7052441,0.1011184,0.3078229
0.5378494,-0.1703792,0.09864626,-0.7530238,-0.06484148,0.2385062
0.6062028,-0.1793129,0.134595,-0.7987,-0.02970635,0.1612525
0.6261631,-0.2315341,0.1753386,-0.6214057,0.009596012,0.02448876
0.6239506,-0.2520291,0.2636952,-0.4075962,0.02196162,0.003218542
0.5937942,-0.2088752,0.3061818,-0.1450074,-0.1173999,-0.1503799
0.7367327,-0.1930941,0.3289896,-0.05189802,-0.2575791,-0.2353444
0.946627,-0.2071869,0.2906252,-0.1134107,-0.1110444,-0.1905298
1.1461,-0.2322482,0.2095737,-0.09734573,0.01863435,-0.2709771
1.304286,-0.2229756,0.1842552,-0.1209399,-0.05068548,-0.2579932
1.382772,-0.2027216,0.2264406,-0.03440496,0.0005178329,-0.1706541
1.411409,-0.1379996,0.4173862,-0.02541276,0.2608973,-0.01242163
1.40346,-0.0001924592,0.5662941,-0.5459867,0.5003745,0.2330414
1.501136,-0.03041722,0.4028281,-0.8924033,0.5678325,0.5112849
1.493045,-0.3704495,0.146293,-0.0529307,0.5385945,0.7102953
1.281565,-0.7441592,0.1106411,0.9920889,0.6479319,0.3385572
1.029091,-0.7109946,0.1655089,0.7790783,0.688731,-0.1586684
0.7396631,-0.3721531,0.1001251,0.3703969,0.1406537,-0.03582941
0.8594104,-0.2003286,-0.01350703,0.3872879,-0.4306133,0.1689238
1.261142,-0.2254863,-0.08584787,0.06902882,-0.2771707,0.1218254
1.345596,-0.3383529,0.008118129,0.212222,-0.132321,-0.0270668
1.172418,-0.4105361,0.146495,0.581873,-0.3481105,-0.4000652
0.8329281,-0.3149829,0.06752324,0.3473684,-0.3322238,-0.5922196
0.7153445,-0.2215084,0.01983908,0.4144441,-0.436495,-0.3924828
0.7890502,-0.1602645,0.05013437,0.5506222,-0.7513259,-0.2252373
0.6782047,-0.1226462,-0.01896581,0.4522645,-0.7023328,-0.0736784
0.7394078,-0.1505886,-0.02023112,0.5539348,-0.6183127,0.02087853
0.7661394,-0.1304283,0.0292608,0.4924108,-0.57285,0.07990701
0.7119812,-0.1004481,0.06727478,0.4818843,-0.383114,0.3489974
0.8340438,-0.07127338,0.100768,0.5116145,-0.2934502,0.4658972
0.7775203,0.002397819,0.08654232,0.3162081,-0.2345098,0.4718809
0.7870095,0.05253826,0.1201848,0.2149992,-0.2373125,0.6447841
0.9109338,0.04841517,0.1519414,0.1199725,-0.1506935,0.6712255
0.9642155,-0.03405177,0.1596507,0.1705377,0.02764583,0.5522824
1.094709,-0.1586354,0.209802,0.3915061,-0.0316666,0.3907846
1.082941,-0.243069,0.2155066,0.6286245,-0.0842024,0.2094871
1.074952,-0.1988822,0.215426,0.8822527,-0.2103061,0.03076987
1.146367,-0.008356431,0.2330406,0.6579694,-0.4615743,-0.2204352
1.169467,0.1097988,0.2343323,0.3685179,-0.5416819,-0.2700335
1.306929,-0.07372068,0.2019858,0.5302108,-0.5103465,-0.2827885
1.40147,-0.323807,-0.04689483,0.3929245,-0.2890829,-0.7058815
1.370049,-0.2874581,-0.3013187,-0.05719193,-0.02402861,-1.087276
1.198137,-0.2979074,-0.1274037,-0.2215791,0.02454049,-0.9132693
1.02751,-0.527457,0.09508747,-0.06886913,-0.01716444,-0.5491069
1.225814,-0.5709355,0.01604708,0.1435366,0.03486676,-0.386897
1.540835,-0.408468,0.05615303,0.0899549,0.2121941,-0.1022933
1.596839,-0.1730636,0.1422427,-0.1372116,0.391558,0.2628956
1.378317,-0.07664593,0.05653232,-0.4479301,0.5559711,0.3614716
1.050274,-0.1529152,0.1107457,-0.8495317,0.5439595,0.40422
0.8254995,-0.09303372,0.1256018,-1.023516,0.4291103,0.4148328
0.6091429,-0.1022212,0.05151476,-1.074643,0.4520745,0.4391043
0.3932489,-0.1922725,0.1218861,-1.064327,0.283714,0.4964582
0.3773991,-0.1857468,0.1047107,-0.8706853,0.02259695,0.4287982
0.4444314,-0.2383867,0.09389138,-0.7495744,-0.01806221,0.413653
0.4893811,-0.2073318,0.1479578,-0.597295,-0.006222159,0.3096274
0.5702233,-0.1697591,0.123217,-0.447112,-0.001185585,0.112875
0.5658561,-0.2083697,0.1579169,-0.4624786,-0.0970446,-0.01267013
0.5581994,-0.1649073,0.1940046,-0.3552018,-0.2271689,-0.1686894
0.7189881,-0.1418513,0.2335956,-0.2251966,-0.2025856,-0.1715455
0.858746,-0.1067314,0.2489962,-0.2480417,-0.05296327,-0.1791446
0.9736144,-0.1333004,0.1888465,-0.2983002,0.1113484,-0.3175345
1.185788,-0.2425313,0.1850693,-0.2783613,0.07292697,-0.3084037
1.288445,-0.2512076,0.1815226,-0.1603649,0.06083685,-0.1874536
1.271592,-0.2320479,0.3643769,-0.09225376,0.3609798,-0.0550984
1.329337,-0.1122489,0.627017,-0.1928583,0.6285342,0.02570994
1.386513,-0.03428508,0.4616844,-0.2730415,0.6491694,0.2539658
1.517094,-0.3806243,0.1111378,0.04869747,0.6309862,0.5515427
1.641454,-0.7284862,-0.06804463,0.4626066,0.8634811,0.2711769
1.153947,-0.5282817,-0.01973555,0.3927045,0.9871056,-0.2143739
0.5926148,-0.2240229,0.1186113,0.1325035,0.3244076,-0.1847817
0.9550178,-0.2296989,0.03541136,-0.03576377,-0.4136858,0.05606161
1.457025,-0.2708359,0.007820834,-0.04847343,-0.2859596,0.1639446
1.430289,-0.348562,0.1259974,0.1821163,-0.07037592,-0.04762042
1.204161,-0.4181147,0.0844017,0.3598318,-0.2952511,-0.4650757
0.8333121,-0.3084447,0.08425565,0.3690294,-0.3339245,-0.5202464
0.7086458,-0.2464781,0.06052769,0.3622422,-0.4491125,-0.3706213
0.7535473,-0.163589,-0.05969722,0.3812263,-0.7698626,-0.2733167
0.6014908,-0.09785938,-0.05278067,0.4036926,-0.6875168,-0.04427318
0.7157201,-0.1805165,-0.05290341,0.4243266,-0.5775409,0.1104672
0.821685,-0.1678561,-0.01546338,0.4913502,-0.5065782,0.1845187
0.7339126,-0.1536572,0.04341723,0.5675401,-0.254476,0.2862968
0.8202786,-0.1406226,0.01576647,0.5918082,-0.2084366,0.3153781
0.7726198,-0.03349402,0.05697791,0.5037856,-0.1694324,0.3729465
0.7839432,0.02454382,0.09442006,0.3262244,-0.08057452,0.4303337
0.9244692,0.03571442,0.1222789,0.2386627,-0.01587564,0.4389881
0.9645061,-0.05979044,0.1559432,0.311038,0.1161256,0.4236077
1.128446,-0.1962678,0.1607687,0.505987,0.0854702,0.3752649
1.160064,-0.2200622,0.2183004,0.6824222,0.02637701,0.2639887
1.116867,-0.1083392,0.2383858,0.6993701,-0.09448054,-0.005919037
1.17969,0.04406511,0.2551303,0.687959,-0.3242362,-0.2005275
1.189769,0.0004158658,0.2921734,0.8469913,-0.4193979,-0.1680225
1.277948,-0.1416576,0.2160688,0.9489677,-0.4463102,-0.2741387
1.285978,-0.2105092,0.04176826,0.4209516,-0.2785306,-0.7105269
1.179805,-0.2071208,-0.1180914,-0.6052686,-0.07085265,-1.10025
1.071197,-0.1575685,-0.1132493,-1.104169,-0.1452735,-1.003345
1.05591,-0.2370036,-0.03579861,-0.6366665,-0.1671501,-0.6132338
1.447921,-0.4275735,0.005534063,-0.09554015,-0.002394869,-0.2497258
1.817566,-0.5628037,0.09622159,-0.1260544,0.2151207,0.09044778
1.614685,-0.4357385,0.0876188,-0.3169268,0.508274,0.1907584
1.200292,-0.1441252,0.01268797,-0.6430355,0.604267,0.1790319
0.9628453,-0.1472556,0.07412902,-1.014591,0.4463895,0.3269316
0.8350744,-0.2091704,0.08558395,-0.9822365,0.449571,0.3061577
0.7380462,-0.1384739,0.05552725,-0.9363793,0.465916,0.2903328
0.5747322,-0.1939288,0.1034848,-0.975631,0.3055185,0.3943414
0.4457684,-0.1838915,0.07852176,-0.8910716,0.189719,0.2774866
0.5347163,-0.1594942,0.0634469,-0.8882788,0.08800066,0.1951253
0.5397383,-0.1954487,0.08501599,-0.8317443,0.1142559,0.07858253
0.5391247,-0.1484513,0.06112632,-0.7641787,0.1644781,-0.09908132
0.618261,-0.1681091,0.09886762,-0.7546254,0.01581886,-0.08496862
0.5279363,-0.1721265,0.1679203,-0.5618339,-0.1277619,-0.1446235
0.6025483,-0.1578963,0.2351972,-0.3052078,-0.2579288,-0.1329342
0.780617,-0.1945318,0.2581842,-0.1986807,-0.1641587,-0.08226153
0.9993187,-0.1698715,0.2149017,-0.2167837,0.02839191,-0.2346986
1.331888,-0.1801206,0.2109912,-0.1960961,-0.1111908,-0.2568256
1.363773,-0.1718703,0.2302185,-0.1193489,-0.09764139,-0.09919032
1.355153,-0.08992995,0.3752994,-0.1254925,0.1733717,0.05919129
1.369661,0.01118371,0.5379345,-0.3601445,0.3464506,0.09423269
1.303814,0.0200828,0.3463432,-0.5737256,0.3996777,0.2917694
1.467188,-0.353458,0.02600291,-0.09501268,0.3704849,0.6469265
1.472773,-0.7621765,-0.06166538,0.5909432,0.61825,0.3574469
1.061997,-0.6327773,-0.01379636,0.5463413,0.8195346,-0.1201717
0.6876878,-0.3030701,-0.001267078,0.2196735,0.3446028,-0.07558712
0.8827935,-0.2232242,-0.03277926,0.04440785,-0.1728076,-0.007248895
1.25311,-0.3083384,-0.0006972912,-0.02073444,-0.1875477,-0.008161285
1.148326,-0.4484539,0.0455151,0.1993097,-0.1765521,-0.1136546
1.050766,-0.4706926,0.01644387,0.4670452,-0.3145073,-0.4089413
0.9269122,-0.3381209,0.00485905,0.5431308,-0.2964277,-0.5254207
0.6567089,-0.2536644,-0.01314678,0.5422103,-0.3895677,-0.5049705
0.7092083,-0.1474066,-0.06340262,0.52674,-0.6523716,-0.3483638
0.7490044,-0.1012249,-0.05912454,0.5594091,-0.6222356,-0.04579591
0.7554251,-0.1640089,-0.02839282,0.5823655,-0.5346671,0.08668242
0.8207284,-0.1243782,0.01191545,0.6004689,-0.4962914,0.1575734
0.7386967,-0.1063352,0.04384158,0.6548189,-0.3565285,0.2858119
0.7576466,-0.07192666,0.04771941,0.5866562,-0.2963036,0.3864512
0.770777,0.02989441,0.07700469,0.4431426,-0.1931504,0.4818288
0.7760093,0.05322329,0.1042998,0.331572,-0.09978316,0.4954867
0.9043126,0.02485559,0.1126922,0.2829424,-0.07368631,0.4455513
1.020263,-0.1246702,0.114796,0.3747744,0.02905695,0.4147648
1.152569,-0.2708145,0.1248318,0.5429,0.06293099,0.3669779
1.144431,-0.2384887,0.1968324,0.7021777,0.0442893,0.2229208
1.092043,-0.05363713,0.2749562,0.7196029,-0.06461881,-0.06151523
1.15052,0.1280449,0.2998413,0.6790245,-0.3206623,-0.2500671
1.199752,0.01258527,0.3008239,0.8667261,-0.4790655,-0.1791726
1.337122,-0.1971147,0.2290038,0.890734,-0.4452824,-0.2954769
1.373139,-0.240454,0.02625731,0.2008468,-0.2923579,-0.8983412
1.177196,-0.2210831,-0.1402317,-0.683214,-0.1762026,-1.343027
1.056142,-0.2114377,-0.1136423,-0.7658647,-0.1738794,-1.019142
1.143821,-0.3917149,-0.05190354,-0.2890439,-0.09567969,-0.4967707
1.337208,-0.5766931,-0.007853352,-0.1446615,0.1317251,-0.3731148
1.471135,-0.4417769,0.08276854,-0.1647104,0.3323212,-0.1917247
1.4687,-0.2689823,0.08386723,-0.2691854,0.5166899,0.1159649
1.241798,-0.2192409,0.04941479,-0.6679731,0.6559215,0.2445793
0.928338,-0.1621175,0.08029097,-0.9252408,0.5704542,0.396694
0.8530359,-0.1515518,0.05792043,-1.068426,0.5384838,0.4101897
0.8115069,-0.1759284,0.0404357,-1.221345,0.6051567,0.3741573
0.6058277,-0.1850404,0.06617933,-1.191865,0.4912996,0.4678853
0.509084,-0.2242494,0.0698105,-1.0537,0.3753318,0.3698535
0.5662829,-0.2409335,0.1175136,-0.803969,0.2482409,0.3340081
0.5754907,-0.2051149,0.1375261,-0.6266664,0.1320417,0.3045823
0.5696278,-0.1738918,0.1138979,-0.6251573,0.1846423,0.1357064
0.598042,-0.1570552,0.1706887,-0.596103,0.1321409,0.05935805
0.5771677,-0.1551391,0.2453142,-0.4815052,-0.0403708,-0.1654933
0.6163667,-0.1589389,0.2839721,-0.3375461,-0.1349317,-0.2769736
0.7974911,-0.1828881,0.2710642,-0.2742463,-0.1051907,-0.2100908
1.056451,-0.2473928,0.243906,-0.1938938,-0.050218,-0.3286517
1.280168,-0.2946298,0.2707848,-0.1250005,-0.1366582,-0.3225241
1.366567,-0.2848176,0.3085118,-0.1400918,-0.1242317,-0.120293
1.453894,-0.219285,0.4591935,-0.08524731,0.116936,0.07247555
1.443226,-0.122877,0.5961681,-0.09785004,0.2962458,0.1602639
1.319023,-0.1462713,0.3410885,-0.1259765,0.2322811,0.3666336
1.379758,-0.4692051,-0.03066961,0.07904242,0.1965257,0.7213553
1.312409,-0.7884584,-0.06454365,0.5172231,0.5932878,0.5570234
0.9873072,-0.5975481,0.03167645,0.8883501,0.9223431,0.09576886
0.8124825,-0.2468981,0.01534523,0.6093217,0.6617763,-0.1575037
0.8973524,-0.2028498,0.008131249,-0.03560475,0.2841931,-0.2730209
1.139064,-0.2171596,0.03945814,-0.2592403,0.008117779,-0.1708087
1.229522,-0.2710039,0.05825045,-0.05424281,-0.2069947,-0.2533801
1.08233,-0.3622586,0.07050959,0.2683999,-0.1835743,-0.514321
0.8660042,-0.3042567,0.0402572,0.4024162,-0.1717234,-0.5520885
0.7051866,-0.2677564,0.006115494,0.4489443,-0.3348286,-0.5920728
0.7581048,-0.1985584,-0.007336973,0.5805116,-0.4040528,-0.4508047
0.7911489,-0.08202992,-0.03454986,0.5371926,-0.4270759,-0.196105
0.7428562,-0.1051686,-0.03779839,0.4878036,-0.4412883,-0.07030375
0.7846297,-0.1029911,-0.01955718,0.4542859,-0.3746719,0.1482783
0.7720419,-0.06940845,0.007712715,0.3323885,-0.390944,0.233964
0.7706175,-0.06971381,0.05596669,0.3397697,-0.3630269,0.2872447
0.795249,-0.03107672,0.08300012,0.2484645,-0.2978926,0.443041
0.7870193,0.002083458,0.09229916,0.1459468,-0.3246358,0.5064712
0.8371602,0.01385195,0.1205498,0.1655393,-0.2440808,0.6247314
0.9027319,-0.04196649,0.1391362,0.1541913,-0.161064,0.6490672
1.027331,-0.15416,0.147451,0.360278,-0.08028279,0.5804993
1.170086,-0.255243,0.1823354,0.6820817,0.04342472,0.5077139
1.199898,-0.2741486,0.2154967,0.8160211,-1.27743e-05,0.1990575
1.148671,-0.1243538,0.2276377,0.5969387,-0.1408489,-0.167018
1.120829,0.01648937,0.2563959,0.3657357,-0.332567,-0.2965614
1.203338,-0.02091068,0.2886909,0.6392437,-0.4299072,-0.2258988
1.280532,-0.1184283,0.2063207,0.7104878,-0.322175,-0.3905511
1.283674,-0.1917534,-0.00927821,0.06242213,-0.2379117,-0.96479
1.261051,-0.2593437,-0.1549588,-0.7401523,-0.1513317,-1.40632
1.146583,-0.2972728,-0.1289009,-0.974001,-0.03032084,-1.324634
1.054317,-0.4060323,-0.03648737,-0.4173202,0.06642824,-0.8599537
1.233649,-0.6023511,0.03813762,0.06477005,0.2321685,-0.4381813
1.498903,-0.5604772,0.07866516,0.01292759,0.397905,-0.2516537
1.451509,-0.3082482,0.07607771,-0.2315524,0.5330833,-0.1409702
1.206894,-0.1531679,0.06260312,-0.5987595,0.6117814,0.0111829
1.009326,-0.1213643,0.08193206,-0.8231875,0.4788525,0.1076889
0.8620358,-0.1775253,0.08092806,-0.8118075,0.3819935,0.04926098
0.7896584,-0.1806992,0.08289752,-0.7833644,0.4522757,0.08034236
0.6925931,-0.1580168,0.1262287,-0.7338064,0.3817512,0.1507859
0.5899842,-0.2063154,0.1288585,-0.6930528,0.2411833,0.1176579
0.582456,-0.1698078,0.1286445,-0.65991,0.1246648,0.1705071
0.6130134,-0.1616579,0.1410444,-0.6708077,0.004487115,0.1447005
0.6822142,-0.1951857,0.1556864,-0.6874525,-0.01059626,0.07693043
0.6794662,-0.1581796,0.2223654,-0.5250456,-0.09167182,0.05927758
0.6605213,-0.163617,0.2566714,-0.3154033,-0.2747824,-0.06574333
0.7570775,-0.1397361,0.2468059,-0.227028,-0.3413159,-0.1059811
0.884654,-0.131295,0.2478809,-0.1759898,-0.1611836,-0.1038369
1.066259,-0.1689127,0.2422523,-0.07539581,0.2053167,-0.187956
1.188562,-0.6002473,0.04443177,1.085395,0.9378022,0.06176113
0.6681636,-0.3240037,0.1206714,0.5368132,0.355916,-0.01304859
0.9249312,-0.2845439,-0.01933779,0.2467482,-0.4565162,0.1315032
1.398287,-0.3556052,-0.01935146,0.06917748,-0.3603836,0.0773349
1.378735,-0.407911,0.05409752,0.2550752,-0.2090463,-0.1774437
1.117052,-0.4520433,0.05125149,0.6250913,-0.2472237,-0.6010071
0.785182,-0.3804899,0.07006356,0.6618103,-0.08688249,-0.7512922
0.6488691,-0.3058112,0.0350188,0.8528728,-0.3635707,-0.5432876
0.7020399,-0.1903565,-0.0006570126,1.120481,-0.8081842,-0.423729
0.569597,-0.08818689,-0.03128792,1.043628,-0.7774748,-0.2328984
0.6537669,-0.1183825,-0.07087066,0.962844,-0.6149625,0.0074711
0.780154,-0.06113285,-0.01776686,0.8468713,-0.5258772,0.1330125
0.6690969,-0.03334822,-0.002805766,0.7459664,-0.443122,0.3051981
0.7872084,-0.07444357,0.02809746,0.7742157,-0.3725734,0.3939998
0.8019439,-0.01292832,0.113932,0.7115852,-0.3157936,0.4121825
0.7866596,0.01617762,0.1280436,0.7076838,-0.2702041,0.4826435
0.9636965,0.01593742,0.1563703,0.7027693,-0.2010576,0.5038157
1.019876,-0.04426398,0.1633668,0.7068799,-0.1693327,0.4782094
1.173323,-0.1999607,0.1570176,0.9088129,-0.1405961,0.4355557
1.224566,-0.2468695,0.1964851,1.008869,-0.07348249,0.2804187
1.142282,-0.110088,0.2342872,0.8750804,-0.2205921,-0.09480277
1.19775,0.01783912,0.3183258,0.7427628,-0.5201011,-0.4096695
1.248896,-0.09733182,0.301863,0.8673259,-0.6110445,-0.4413875
1.344408,-0.2466707,-0.004839527,0.8314885,-0.5174805,-0.7079434
1.303245,-0.2735825,-0.3150783,0.04419493,-0.366877,-1.206365
1.222593,-0.3838648,-0.1938017,-0.6250828,-0.2228277,-1.188256
1.328183,-0.4755128,0.01665909,-0.2108126,-0.1329933,-0.7275852
1.432996,-0.5078961,-0.061869,0.382335,-0.03324753,-0.2416764
1.587886,-0.4880018,0.005821342,0.2381107,0.09679823,0.1122547
1.551808,-0.2711041,0.08291602,0.05140278,0.3187934,0.24679
1.192351,-0.123352,-0.01856195,-0.1304543,0.5392899,0.454926
0.8692724,-0.1590708,0.0633282,-0.6580565,0.5163005,0.5650849
0.6793721,-0.1802311,0.07150314,-0.7467832,0.450725,0.3978312
0.5444951,-0.1894866,0.03367237,-0.6702162,0.516624,0.4207192
0.4012817,-0.1797361,0.09228488,-0.7923101,0.4304059,0.4559442
0.3887567,-0.1803686,0.02301044,-0.6746825,0.2329298,0.3806977
0.4804781,-0.1947203,0.04571541,-0.6697395,0.1259828,0.3640243
0.4740719,-0.1834345,0.08000536,-0.6605349,0.05668452,0.1936216
0.520621,-0.1842376,0.09845622,-0.5560031,0.08233729,0.02122293
0.5681304,-0.1644209,0.2600752,-0.459454,0.006546392,-0.1110708
0.5388703,-0.1663458,0.2863747,-0.08421101,-0.2532326,-0.2408231
0.6344367,-0.1906803,0.2556614,0.06731775,-0.3002976,-0.2209434
0.9267286,-0.2132092,0.2749511,-0.008436938,-0.1130212,-0.224351
1.253363,-0.257209,0.2652021,0.05295771,0.0356197,-0.2282308
1.287841,-0.1925219,0.2822324,0.006045549,-0.07478539,-0.1682339
1.342913,-0.09765514,0.3305159,-0.09051587,-0.1031401,-0.05258681
1.593139,-0.1158216,0.4988692,-0.1711698,0.4505682,0.1559408
1.494349,-0.1316277,0.5868443,-0.1622175,0.8619683,0.3420159
1.419649,-0.2250148,0.3012795,0.04230368,0.4779597,0.6071478
1.536054,-0.600881,-0.08585344,0.4787811,0.1399518,0.7236036
1.280663,-0.9227384,-0.1432137,0.9467733,0.5116024,0.3444417
0.9114347,-0.6344945,0.02657418,0.7660882,0.6964471,0.0007719014
0.7199228,-0.1975571,0.05298626,0.2816318,0.1648785,0.02595842
0.915838,-0.2686882,0.01395902,0.217119,-0.2932692,-0.0107298
1.257381,-0.3649156,0.01829884,0.2623945,-0.4721246,-0.237192
1.077267,-0.3097376,-0.004584565,0.388248,-0.5002179,-0.4054655
0.8821683,-0.3695537,-0.00779648,0.5855595,-0.4372257,-0.4783112
0.7992939,-0.2924629,-0.03207684,0.6612413,-0.562278,-0.4670346
0.5902543,-0.1999176,-0.05381187,0.8069096,-0.7049393,-0.3357056
0.7032601,-0.2050749,-0.04272401,0.9044243,-0.7963659,-0.1600508
0.7614942,-0.1375487,-0.04805836,0.9645947,-0.73486,0.07297906
0.701501,-0.1108648,-0.03378528,0.9233046,-0.5173448,0.2767624
0.8011002,-0.0552022,-0.01301204,0.7050054,-0.4522306,0.360085
0.7345932,-0.01534104,0.02422254,0.6641172,-0.3372306,0.5053347
0.7575831,-0.05105406,0.08036369,0.5818958,-0.2316072,0.5989977
0.8757869,-0.02693538,0.1182453,0.4926753,-0.1837751,0.5171844
0.9503244,-0.06680896,0.1400881,0.561461,-0.009955374,0.4430119
1.126955,-0.1562339,0.1582207,0.5714878,0.04140367,0.3470559
1.118114,-0.2094744,0.2398684,0.8166507,0.03879729,0.2477344
1.05281,-0.1760938,0.3229395,1.016218,-0.02164082,0.1667389
1.086736,-0.07380207,0.294461,0.7116253,-0.2780752,-0.03871593
1.143028,-0.04519605,0.2545174,0.4237763,-0.5230002,-0.1863776
1.309782,-0.004092777,0.2357237,0.559325,-0.6313638,-0.1921532
1.379705,-0.1081467,0.09434314,0.5218179,-0.4809004,-0.5391359
1.364087,-0.3169734,-0.1485719,-0.254942,-0.2745642,-1.220074
1.302486,-0.2763154,-0.2623016,-0.8499401,-0.2128514,-1.362218
1.176336,-0.388711,-0.1186228,-0.4939437,-0.1303151,-0.800026
1.279132,-0.6556162,0.0499106,0.03247992,-0.08675565,-0.2654291
1.474018,-0.5152418,0.004746433,0.07374281,0.05926159,-0.006919841
1.513515,-0.2636155,-0.0233991,-0.05052726,0.3815415,0.1911296
1.370322,-0.1638987,0.04008064,-0.2705549,0.5140281,0.3803641
1.006477,-0.1222939,0.01667078,-0.7530592,0.4314575,0.4286506
0.6670598,-0.1957061,0.04798765,-0.9467394,0.3240515,0.373017
0.498197,-0.1992376,0.08600194,-0.9436566,0.3370503,0.3649989
0.4413383,-0.1885341,0.05749722,-1.041134,0.3577556,0.3112997
0.4641313,-0.2597261,0.09089909,-0.861667,0.2156837,0.2630631
0.480173,-0.2036506,0.0746174,-0.7193482,0.1747262,0.2835795
0.5145342,-0.191521,0.06268653,-0.6861148,0.1690754,0.2233827
0.5247946,-0.2117196,0.09338772,-0.6553283,0.04340453,0.1562575
0.4932313,-0.1318704,0.1015862,-0.7175152,-0.1227618,0.08915683
0.5328824,-0.1266012,0.1973399,-0.5412056,-0.3686259,0.009553902
0.6246368,-0.1354289,0.2570975,-0.3471926,-0.2857825,-0.04099547
0.9168454,-0.2149993,0.2302762,-0.1690435,0.2473015,-0.21252
1.313205,-0.3225083,0.2064322,0.05709815,0.5647524,-0.3460041
1.368452,-0.2601959,0.1713478,0.00592705,0.1530139,-0.2350725
1.308748,-0.1954034,0.2436658,0.05527059,-0.2848554,-0.009234195
1.424445,-0.1110476,0.4669516,0.1432512,0.357597,0.1939989
1.426953,0.04337249,0.621281,-0.3243741,0.8709393,0.3259796
1.357878,0.03060801,0.3685845,-0.6542097,0.244049,0.5817959
1.387408,-0.3639334,-0.08758508,0.1775645,0.01587155,0.8081782
1.287572,-0.8094005,-0.1842843,1.084144,0.5321098,0.43346
1.022964,-0.657519,-0.1078534,0.7140237,0.7358879,-0.06791423
0.8371021,-0.3268595,-0.1194561,0.2303015,0.3558766,-0.01727125
0.9941113,-0.3398696,-0.04542223,0.2741474,-0.07100217,-0.009054177
1.310703,-0.3549117,0.04654911,0.2128162,-0.08006391,-0.2534884
1.225638,-0.4010225,0.07304264,0.4640067,-0.1728828,-0.364483
0.9538548,-0.405266,0.04833617,0.8240391,-0.3388562,-0.4871664
0.7951966,-0.2483461,-3.919141e-05,0.8541498,-0.3223653,-0.4876676
0.6450396,-0.2119195,-0.02087489,0.8712791,-0.6259283,-0.34509
0.6681653,-0.125739,-0.05644544,0.7853032,-0.8903667,-0.2549362
0.6834028,-0.08738407,-0.04623971,0.8058536,-0.7899781,-0.003590083
0.6859477,-0.166829,0.003767378,0.851209,-0.6940833,0.1868276
0.7881104,-0.06670593,0.01813511,0.6843696,-0.4923142,0.2502341
0.7381481,-0.03927429,0.0346785,0.6055165,-0.2561197,0.403805
0.7557932,0.002263669,0.07085875,0.3764253,-0.1927968,0.4454951
0.8001575,0.1328245,0.1676294,0.1928414,-0.1821574,0.512191
0.7878963,0.07724014,0.2170293,0.2527839,-0.1402825,0.647097
0.9393759,-0.004257257,0.1700607,0.2174638,-0.03744977,0.6466951
1.118109,-0.2055989,0.1869895,0.314378,0.06627864,0.6008052
1.266043,-0.4333975,0.203556,0.4973981,0.126192,0.4036059
1.182643,-0.2964072,0.2025554,0.6134978,-0.01626848,-0.0336033
1.063615,-0.01757186,0.2712406,0.6509156,-0.3764113,-0.3740481
1.233066,0.08362695,0.3437979,0.6983165,-0.5454743,-0.2074168
1.265075,-0.04434743,0.3376182,0.8448572,-0.4899779,-0.1198355
1.227407,-0.2064093,0.1024676,0.3152243,-0.3462349,-0.9379589
1.264161,-0.1709957,-0.2439252,-0.7363186,-0.1412127,-1.589741
1.244435,-0.1599985,-0.2939885,-1.086248,-0.1027709,-1.104169
1.347977,-0.3881631,-0.1081073,-0.6746304,-0.08800978,-0.4377408
1.49332,-0.5667911,-0.02007531,-0.2837679,0.05069204,-0.1627315
1.575473,-0.5105061,-0.002657853,-0.3125932,0.2064264,0.06594342
1.521068,-0.3332634,0.03066453,-0.410474,0.4778431,0.2547416
1.285857,-0.1543867,0.02324146,-0.6190306,0.6227043,0.3555536
1.016597,-0.1220677,0.02543351,-1.091283,0.5245475,0.4149132
0.741726,-0.1546894,0.06326684,-1.196627,0.5285591,0.35984
0.5494338,-0.139354,0.08799937,-1.105425,0.47303,0.3826049
0.4719728,-0.1605044,0.08984245,-1.146277,0.2433102,0.4421298
0.4743369,-0.1940811,0.0698396,-1.041421,0.1117149,0.3364901
0.4964871,-0.1949768,0.06569761,-1.009812,0.0342861,0.2866235
0.4790949,-0.1782248,0.06884809,-1.031354,-0.02379783,0.1758643
0.5215866,-0.1749042,0.08175285,-0.9564476,-0.04451691,0.03906714
0.5352536,-0.174849,0.1521211,-0.8714894,-0.08696058,0.07698587
0.5883663,-0.1739842,0.218634,-0.6536706,-0.02845262,0.0197559
0.8472301,-0.1816907,0.2199938,-0.4351272,0.1870964,-0.06959257
1.13791,-0.1320174,0.1859852,-0.3685858,0.4456387,-0.2166634
1.306028,-0.08529901,0.1854166,-0.5474361,0.479115,-0.3677789
1.340255,-0.09783126,0.270071,-0.7690885,0.2702094,-0.1124357
1.430714,-0.1095239,0.4539687,-0.4413196,0.205653,0.1834792
1.470049,-0.1282187,0.555662,-0.1268387,0.2332369,0.1827892
1.364421,-0.2822621,0.263517,-0.4663803,0.1299318,0.3533547
1.410159,-0.728945,-0.1205397,-0.533842,0.1264725,0.628687
1.27931,-1.082291,-0.1016052,0.1034917,0.503753,0.3694715
0.8862865,-0.733727,-0.008985527,0.5664519,0.866899,-0.09116836
0.7784955,-0.2323037,-0.08626465,0.2603115,0.4299079,-0.2157795
1.078637,-0.3288346,-0.05780441,-0.2567308,-0.1819077,-0.155199
1.393996,-0.4509935,0.02022151,-0.255196,-0.06230919,-0.06455142
1.160623,-0.3765589,0.0631244,0.02102233,0.09337355,-0.3300132
0.8467362,-0.4575019,0.1048966,0.3225066,0.03107514,-0.7236052
0.8495508,-0.3129313,0.03684647,0.4918801,-0.01016151,-0.7378599
0.6122449,-0.06691403,-0.05171943,0.41181,-0.3020016,-0.7012138
0.5091888,-0.06274696,-0.09271628,0.471378,-0.571987,-0.5059998
0.6789053,-0.1031155,-0.09533227,0.4991612,-0.6503957,-0.1179629
0.6856844,-0.205427,-0.01519962,0.5517358,-0.5894333,0.1585448
0.7933093,-0.2225373,0.01690963,0.8827644,-0.3864814,0.4229673
0.8714697,-0.1688813,0.004273455,0.9875039,-0.3361113,0.5625061
0.8337627,-0.1602297,0.02871164,0.9012771,-0.2705077,0.5424702
0.8829047,-0.01417612,0.09603033,0.725092,-0.1602694,0.4542706
0.9196373,0.1120097,0.2170967,0.5261369,-0.1638647,0.3778463
1.012949,0.09458102,0.2336821,0.5567099,-0.06128888,0.3632059
1.092856,-0.02921933,0.1983316,0.5540546,-0.0449408,0.2994649
1.130928,-0.151098,0.2383107,0.6067432,-0.1015545,0.2339369
1.156455,-0.1522781,0.2323491,0.7081783,-0.1032248,0.07563779
1.075903,-0.1244891,0.2370409,0.6343814,-0.3299786,-0.1629572
1.081487,-0.07647294,0.3118743,0.6524565,-0.6008504,-0.2680653
1.143459,-0.1001007,0.3372848,0.8839001,-0.6515842,-0.2728011
1.20036,-0.183466,0.1718071,0.9467803,-0.4898101,-0.4424508
1.327456,-0.245268,-0.1845134,0.2170637,-0.2078356,-1.007539
1.339084,-0.3398805,-0.3593157,-0.5980741,0.001780883,-1.313904
1.308695,-0.3951895,-0.1654682,-0.3099356,0.01572523,-0.7411505
1.342144,-0.512923,0.02515141,0.1574776,-0.09956425,-0.04659205
1.375023,-0.6098398,0.02764679,0.08959825,-0.0142361,0.1038126
1.441861,-0.4301339,0.05230694,0.08271278,0.2488529,0.1203504
1.408527,-0.1657652,0.07671655,-0.301284,0.4275513,0.2752354
1.195937,-0.08010995,0.0377228,-0.9742528,0.4542613,0.2836617
0.8906096,-0.1415245,0.07810285,-1.02788,0.3333434,0.2467533
0.6509677,-0.1596259,0.1115649,-0.9270034,0.3337976,0.3341447
0.5738319,-0.1846735,0.1140384,-0.9012514,0.2997044,0.349176
0.5111848,-0.2336775,0.1665254,-0.6922956,0.09435685,0.3500503
0.4959235,-0.1861036,0.1518261,-0.6295676,0.08651043,0.3302042
0.5455871,-0.1553824,0.1242804,-0.6885002,0.1029968,0.2269772
0.5207505,-0.09103592,0.1285977,-0.7789589,0.09711282,0.1555928
0.5151691,-0.002684312,0.1312676,-0.8976153,0.1332401,0.04997757
0.5396514,-0.02716051,0.2023962,-0.9588657,0.02325797,-0.03143947
0.6259896,-0.07329367,0.2520008,-0.9367226,0.01185608,-0.03178027
0.855792,-0.1373784,0.2165565,-0.8591865,0.2013458,-0.08081199
1.054715,-0.1779134,0.136131,-0.8811241,0.3190538,-0.1396008
1.209972,-0.1858601,0.1083266,-0.8424407,-0.002992689,-0.1080468
1.398781,-0.2463944,0.3000908,-0.6851478,-0.3183911,0.02324717
1.523042,-0.2789836,0.5608042,-0.5375403,0.1906654,0.1580569
1.499683,-0.2889683,0.5278441,-0.4787212,0.6540363,0.2706739
1.428809,-0.3926023,0.1728517,-0.5183164,0.4378883,0.5097858
1.471169,-0.6581546,-0.1541809,-0.1692653,0.4971303,0.7211031
1.403618,-0.8574747,-0.1627556,0.5402214,0.9316453,0.461428
1.098507,-0.6713594,0.03197253,0.8762767,1.051496,-0.03120529
0.8925663,-0.3414573,0.08915618,0.4245544,0.7164005,-0.1780596
0.9743613,-0.163794,-0.01735137,-0.394,0.1634468,-0.1728029
1.230153,-0.1297661,-0.05614038,-0.6458349,-0.2267607,-0.1935662
1.32058,-0.2721094,-0.006763112,-0.3688689,-0.3492274,-0.1861774
1.078787,-0.4209102,0.04130304,-0.09735039,-0.3382874,-0.3446897
0.7380391,-0.4221544,0.03570762,0.11554,-0.3224366,-0.5055603
0.5855449,-0.3677449,0.02284353,0.3650069,-0.5467084,-0.4997096
0.6622087,-0.2572275,0.01884162,0.6386892,-0.7794048,-0.353386
0.7095782,-0.151127,-0.05899185,0.6722286,-0.7464817,-0.1095478
0.7564855,-0.09388191,-0.08205932,0.5685615,-0.6661851,0.04659888
0.8270312,-0.05417381,-0.040763,0.4448682,-0.4781486,0.1850405
0.774048,-0.0886327,-0.02989147,0.3491351,-0.2727176,0.301887
0.7955976,-0.09939988,0.03180369,0.4276448,-0.2054971,0.3368842
0.8300044,-0.04267231,0.09269475,0.3779937,-0.140889,0.3868002
0.8582921,-0.01969912,0.1262407,0.3547119,-0.08115367,0.3674737
0.9981251,-0.0404329,0.155979,0.4150122,0.04361229,0.3098643
1.032249,-0.09539927,0.1793618,0.4622364,0.06153931,0.2738741
1.049183,-0.1108689,0.2128175,0.832255,-0.0165434,0.270605
1.100291,-0.05678006,0.2017769,0.9849654,-0.01012874,0.2371077
1.098963,0.0009420371,0.2063072,0.5990786,-0.2306256,-0.05265054
1.188017,-0.02662824,0.2254081,0.2852546,-0.5427066,-0.3633078
1.368732,-0.2059122,0.1259684,0.2477526,-0.6155271,-0.4867148
1.519744,-0.3599963,-0.1065655,-0.1538336,-0.4319096,-0.9594004
1.486049,-0.3375652,-0.2825896,-0.8614613,-0.2213919,-1.545457
1.32981,-0.3861211,-0.1567976,-0.6421914,-0.2791617,-1.093047
1.248892,-0.6591932,0.003161709,-0.1699124,-0.2247138,-0.3568434
1.293509,-0.7889466,-0.06391263,-0.1912749,-0.02098952,-0.4395639
1.464728,-0.6313323,-0.01974535,0.1100077,0.0617933,-0.1922261
1.567184,-0.4673986,0.09899964,0.0378636,0.3382866,0.3313702
1.463225,-0.2989592,0.05513274,-0.369369,0.5728079,0.2800451
1.213468,-0.163423,0.0564668,-0.5056272,0.5238465,0.3470252
0.9063465,-0.1383941,0.08276575,-0.9960162,0.5941141,0.4175971
0.6797779,-0.08475494,0.05246609,-1.235483,0.6415118,0.3781788
0.5210844,-0.09900529,0.07164995,-1.156574,0.3749397,0.4712474
0.4177983,-0.1791078,0.06926841,-1.179194,0.1091985,0.3318378
0.4341744,-0.2085774,0.06260194,-0.8757085,0.07986449,0.2411155
0.4875572,-0.243768,0.08151292,-0.6965711,0.09662553,0.1469092
0.5036158,-0.2192891,0.08077702,-0.5941046,0.03831302,-0.06846569
0.507777,-0.187786,0.1315668,-0.4095476,-0.01128102,-0.1501432
0.5196332,-0.2147776,0.2173175,-0.370251,-0.06996596,-0.2871843
0.5601459,-0.20534,0.2649129,-0.1022542,-0.1144926,-0.2993236
0.7045979,-0.2105488,0.2467141,0.07048857,0.02117249,-0.2562239
0.9831814,-0.2004918,0.2217584,0.0831603,0.1363476,-0.3310803
1.288207,-0.1156379,0.2394219,0.1106299,-0.08016479,-0.2831005
1.423935,-0.0536232,0.262603,-0.05813821,-0.2129672,-0.139638
1.395767,-0.04912287,0.4028598,-0.1193743,0.1726321,0.08765637
1.421189,-0.0780793,0.5444454,-0.3637238,0.550425,0.2827148
1.488108,-0.1925111,0.3445395,-0.5522668,0.4572789,0.6250794
1.545144,-0.5468442,0.01326706,0.3439761,0.3852884,0.9699806
1.442312,-0.8473651,-0.06209019,1.29373,0.5785885,0.4901984
0.858438,-0.5602202,0.01323865,0.9238481,0.5491344,-0.1389316
0.4081722,-0.1983682,0.02574564,0.2434623,0.1641071,-0.07106132
0.9862408,-0.3278967,0.005246617,0.1901328,-0.2439736,0.0588352
1.665783,-0.4016393,0.03312979,0.2549362,-0.2849375,-0.006358312
1.330805,-0.3461512,0.06212562,0.4592978,-0.0788535,-0.2148865
0.9629098,-0.4544934,0.04023931,0.6581873,-0.1381636,-0.5494006
0.9264751,-0.3741304,0.02193504,0.6384923,-0.2699378,-0.5609318
0.5828439,-0.2146476,0.008159108,0.8564262,-0.4392912,-0.377496
0.5947346,-0.1892194,-0.03375286,0.8738076,-0.8084283,-0.263264
0.7739361,-0.09935936,-0.06061373,0.7830905,-0.8746294,-0.005193411
0.6652227,-0.08545118,-0.0673453,0.8349123,-0.7383522,0.1620448
0.802726,-0.09021468,-0.04281153,0.6098844,-0.6324545,0.2172209
0.7796506,-0.03396035,0.01031365,0.6193347,-0.4217354,0.4238731
0.7169252,-0.04967995,0.0346444,0.6169767,-0.3221843,0.4948692
0.8423563,0.008274093,0.06952112,0.3869548,-0.229403,0.4931867
0.8093527,0.07063936,0.1180706,0.3941565,-0.04901381,0.5406379
0.9751636,0.04106672,0.1409753,0.3356996,0.05307404,0.4219444
1.066759,-0.05168793,0.1746518,0.3905166,0.06887066,0.3460247
1.035257,-0.211515,0.2004885,0.5588576,0.02276923,0.3288394
1.137713,-0.2048255,0.2108303,0.6023709,-0.00183545,0.1775518
1.091163,-0.02155872,0.2428792,0.5342906,-0.1587431,-0.06768279
1.166723,0.06409929,0.3054654,0.4140231,-0.4441528,-0.2558508
1.298925,-0.1044556,0.3199696,0.8348895,-0.5276881,-0.2070126
1.340245,-0.2987903,0.1219911,1.098287,-0.4212947,-0.3660047
1.385878,-0.2055593,-0.1501801,0.2476435,-0.2834449,-0.9726543
1.202167,-0.1747359,-0.176247,-0.6000455,-0.1296504,-1.253962
1.052301,-0.397506,-0.05432648,-0.4486693,-0.01330943,-0.8387921
1.225363,-0.509298,-0.005656593,-0.104305,-0.07924212,-0.3547016
1.532068,-0.4941066,0.02249296,-0.2234577,-0.077954,-0.2472965
1.667174,-0.4478785,0.04887937,-0.2108096,0.2724635,-0.01540741
1.565204,-0.3380917,0.04435979,-0.3195122,0.5289418,0.3785595
1.380638,-0.1970292,0.06641947,-0.763697,0.4685211,0.3826384
1.091178,-0.1198925,0.07859911,-0.8507304,0.4221922,0.374584
0.8222253,-0.1476404,0.06584758,-0.9891196,0.5121815,0.4786685
0.6768446,-0.1209041,0.07968961,-1.196734,0.5546327,0.4144199
0.5447888,-0.1336894,0.07663268,-1.13541,0.429254,0.4241107
0.469647,-0.2355539,0.07081239,-1.087916,0.2875059,0.3877562
0.497013,-0.2147613,0.08299289,-0.8820155,0.1941879,0.2591006
0.536064,-0.2054415,0.08028395,-0.7509582,0.1908958,0.167978
0.5341672,-0.2143501,0.1007628,-0.7549403,0.1740273,0.01089965
0.5366791,-0.1794267,0.1513058,-0.5875532,-0.06274419,-0.08316537
0.5362414,-0.2095328,0.2254632,-0.366527,-0.2814128,-0.1253705
0.6288959,-0.2104735,0.278115,-0.08680607,-0.3406921,-0.1358084
0.9023163,-0.232369,0.2455922,0.02924477,-0.1255838,-0.09858765
1.200106,-0.2553058,0.2110033,0.02734485,0.1999265,-0.1457562
1.390564,-0.1784123,0.2358832,0.03310302,0.1163011,-0.1399526
1.409636,-0.1364395,0.3451804,-0.1539716,0.1174189,-0.03318365
1.405634,-0.1480226,0.4624469,-0.2852554,0.4467626,0.1545623
1.476472,-0.2274062,0.3097195,-0.2145076,0.5499805,0.4912621
1.457841,-0.4606343,-0.01452938,0.2073678,0.5763299,0.6986467
1.354966,-0.7178308,-0.1144883,0.7588155,0.7620758,0.4686581
1.065556,-0.6516904,-0.002787585,0.7308587,0.9232546,0.0554879
0.7385085,-0.3608194,0.06514947,0.5234767,0.5420121,-0.03389115
0.9398521,-0.2612006,-0.0132643,0.4014192,-0.1919576,0.1075686
1.309362,-0.2563821,-0.06688308,0.06914861,-0.3021107,0.1195142
1.23606,-0.3331278,0.007137378,0.1707549,-0.2143888,-0.05581646
1.027965,-0.4333145,0.01754527,0.5484818,-0.3880096,-0.3779597
0.8013802,-0.3054994,-0.009960884,0.5027569,-0.4059716,-0.5621245
0.5819982,-0.2138085,-0.003541977,0.5760366,-0.5442936,-0.4891543
0.6220577,-0.1926941,-0.03335371,0.7194413,-0.701647,-0.3491495
0.6630254,-0.1574775,-0.03223488,0.6591291,-0.6292001,-0.130557
0.7100509,-0.1685299,-0.03489558,0.7147907,-0.5574198,0.08695924
0.8304353,-0.09852462,-0.04190376,0.5939989,-0.3806618,0.1853835
0.7791503,-0.08524124,0.006232077,0.4684046,-0.2107586,0.2476726
0.7648875,-0.08450748,0.0420769,0.491522,-0.1782377,0.3245344
0.7817375,-0.01177578,0.07605417,0.3167758,-0.1456419,0.3848631
0.7824198,0.01964584,0.09771606,0.1867295,-0.046151,0.4250162
0.9051245,0.07150162,0.109891,0.1040282,0.1260819,0.4438345
0.9768518,-0.01353104,0.1388331,0.1268904,0.1859251,0.3691532
1.043036,-0.1692537,0.1468189,0.3538845,0.1501862,0.2743022
1.099685,-0.1906219,0.1638143,0.5716725,0.1219134,0.2011025
1.093066,-0.1632106,0.1835677,0.7396646,-0.01105475,-0.02611171
1.121549,-0.03945357,0.1935168,0.6644279,-0.2178758,-0.2962853
1.146491,0.02621073,0.2260284,0.6602605,-0.3696679,-0.3696412
1.222768,-0.1662392,0.2314588,0.6803184,-0.3904208,-0.5760798
1.25101,-0.3347176,0.09337786,-0.00919959,-0.3424967,-1.150294
1.177293,-0.1729733,-0.142803,-0.8342502,-0.3115694,-1.382217
1.186521,-0.0505612,-0.2066604,-0.8948629,-0.2517413,-0.8827378
1.317044,-0.3982028,-0.09388386,-0.4742157,-0.167595,-0.3428409
1.53824,-0.6579767,0.004263461,-0.2676935,-0.03271356,-0.2055749
1.631384,-0.4840409,0.08546385,-0.282026,0.2154067,-0.07273097
1.494394,-0.3370717,0.08347002,-0.3753975,0.4214199,0.2451884
1.258998,-0.2862008,0.03477058,-0.7149232,0.4167285,0.3191582
0.932896,-0.1966977,0.0742517,-0.938239,0.3877614,0.273365
0.719822,-0.1494676,0.07738534,-1.028521,0.4935606,0.4015992
0.6747137,-0.138823,0.05635567,-1.211549,0.5029252,0.4422054
0.5567501,-0.1230545,0.08294585,-1.219961,0.3502533,0.4542696
0.501702,-0.1376037,0.06051471,-1.117371,0.1526247,0.4213773
0.5426092,-0.1755971,0.06136418,-0.9720085,-0.01490538,0.2585598
0.48606,-0.193688,0.08392882,-0.8702409,0.009879934,0.1363984
0.4649994,-0.193367,0.087758,-0.8536248,0.00777289,-0.002512379
0.4857627,-0.1699306,0.1575483,-0.6941698,-0.1544639,-0.1032138
0.5213649,-0.1953971,0.1972535,-0.4895915,-0.1852191,-0.1984321
0.7728869,-0.2952159,0.1842348,-0.3202448,-0.09559047,-0.2745321
1.138322,-0.3569395,0.1816143,-0.1281336,0.1913799,-0.2603143
1.369026,-0.2771506,0.184481,0.08879665,0.47958,-0.3140131
1.409512,-0.1003665,0.2862223,0.1496332,0.2047218,-0.1645294
1.392997,-0.01571928,0.4534332,0.008395735,-0.01806937,0.0988222
1.389782,0.08171301,0.5185541,-0.2831495,0.4965935,0.09298222
1.336553,0.1205681,0.3530365,-0.9720492,0.8665781,0.1832814
1.385319,-0.3494306,0.00773485,-1.187086,0.4993653,0.4671053
1.41283,-0.8890684,-0.170259,-0.1582374,0.2575642,0.5757776
1.136145,-0.7763302,-0.06947825,0.8842948,0.4612446,0.4606559
0.9080101,-0.4172326,-0.01523718,0.9452833,0.4601172,0.2734019
1.011283,-0.3295661,-0.07700669,0.3340157,0.2819508,0.0780236
1.136983,-0.3330412,-0.03128619,0.01791594,0.08534255,-0.06455735
1.077961,-0.3569113,0.0416837,0.3965621,-0.339204,-0.1511521
0.9981346,-0.3749286,0.02788604,0.6735501,-0.6064035,-0.3835246
0.8823743,-0.267908,0.01788175,0.6550084,-0.533366,-0.554685
0.6865637,-0.1697153,-0.0422047,0.7053613,-0.6353006,-0.4068216
0.6484468,-0.08661226,-0.1132474,0.6489951,-0.8471735,-0.2766299
0.7164377,-0.1006128,-0.08582555,0.4716851,-0.7428033,-0.1620279
0.7697699,-0.1902143,-0.04188001,0.5093036,-0.5469854,0.0580621
0.793678,-0.1313611,-0.004776158,0.6559327,-0.4532628,0.1668412
0.7585145,-0.1279077,0.008638751,0.6532872,-0.3010284,0.2582958
0.792542,-0.1103657,0.01145246,0.6361627,-0.2003318,0.3572146
0.8124538,0.01331037,0.06229295,0.4880325,-0.1080324,0.3742398
0.8395292,0.04326819,0.1004538,0.2395537,0.08523494,0.3995584
0.9520494,0.04935197,0.1159306,0.1629422,0.1525795,0.3459144
1.010493,-0.05222376,0.13258,0.171338,0.1484484,0.2621301
1.093817,-0.186222,0.1667938,0.3777615,0.1493968,0.2650692
1.13423,-0.204817,0.2139321,0.6039675,0.07744889,0.1650427
1.09005,-0.1094545,0.225496,0.5346262,-0.03122509,-0.05037057
1.105496,0.07073147,0.2388927,0.497755,-0.2390019,-0.1597053
1.174268,-0.009984969,0.2402232,0.6164264,-0.4199977,-0.1449356
1.308314,-0.2224728,0.1741799,0.5446156,-0.4161433,-0.3484274
1.372709,-0.3033031,0.04633719,-0.02687197,-0.2738095,-1.012631
1.329255,-0.2973377,-0.08922526,-0.7179812,-0.113759,-1.460163
1.251267,-0.2337788,-0.112117,-0.7339024,-0.09411324,-1.003991
1.165098,-0.4443553,-0.0528289,-0.2752636,-0.05378287,-0.4211422
1.291843,-0.6513926,0.009105799,0.009202851,0.08220943,-0.3426227
1.511018,-0.4871858,0.08169417,0.1530855,0.226963,-0.09269134
1.506882,-0.3277333,0.08389278,-0.02160881,0.4514767,0.2822794
1.296088,-0.2010116,0.05007908,-0.5402478,0.5081845,0.3067645
0.9867148,-0.1429132,0.07572277,-0.7565965,0.4033781,0.323714
0.7558194,-0.1926187,0.08052123,-0.8263714,0.4527807,0.3437886
0.6373625,-0.1417897,0.07058501,-0.9921529,0.4303143,0.3481038
0.5110055,-0.1394283,0.08299512,-1.059996,0.2361944,0.4538974
0.4715802,-0.1816244,0.06917137,-1.117995,0.03317063,0.425311
0.5488426,-0.1741974,0.07765768,-0.9966174,-0.07379914,0.3567434
0.5975179,-0.199895,0.1010261,-0.8073402,0.07869599,0.2152109
0.5972895,-0.2038943,0.1127962,-0.6848989,0.1859213,-0.01186749
0.5643109,-0.1961397,0.1875853,-0.4989992,0.0788462,-0.1230632
0.5266746,-0.1845424,0.2755891,-0.3405795,0.04461828,-0.2241041
0.5941075,-0.1586257,0.2940454,-0.1065017,0.01318543,-0.226291
0.8565332,-0.1915931,0.2619475,0.01653932,-0.01790669,-0.2076785
1.236397,-0.2149147,0.2336449,-0.0006525848,-0.02857105,-0.2361811
1.455959,-0.155179,0.2706595,0.02127422,-0.08295889,-0.1011906
1.488842,-0.09389863,0.3991853,-0.113442,0.1058259,0.02699895
1.499101,-0.1016315,0.5044409,-0.3251966,0.4061897,0.132866
1.459926,-0.248138,0.3158656,-0.4332297,0.4370238,0.3854276
1.446608,-0.6405834,-0.02538901,-0.001876399,0.4278388,0.6287322
1.337691,-0.9672012,-0.08484239,0.7602772,0.6745065,0.5083474
0.9402345,-0.6850453,-0.01202605,0.9032067,0.8776826,0.1563914
0.7127567,-0.2276597,-0.04128314,0.7011753,0.5447214,0.07173898
0.9458679,-0.2428452,-0.04197626,0.4373971,-0.06185595,0.09660467
1.229202,-0.31011,-0.01238156,0.08739331,-0.3713206,0.07523125
1.219217,-0.266109,0.008455778,0.2435947,-0.442221,-0.03703506
1.025598,-0.3259346,0.02033478,0.5197181,-0.4227434,-0.352662
0.8395809,-0.2696029,0.001976255,0.4108159,-0.4265703,-0.485635
0.7035207,-0.1892623,-0.01923983,0.4652564,-0.5773184,-0.4198626
0.6834149,-0.1689354,-0.04175943,0.6097959,-0.6429287,-0.3187902
0.7277036,-0.1344771,-0.04105266,0.5718647,-0.6034994,-0.1357229
0.7842826,-0.1546837,-0.01871467,0.6295011,-0.5308853,0.006418665
0.8189501,-0.1109699,-0.006923802,0.6217003,-0.3684122,0.1473968
0.7763846,-0.07697793,0.01325321,0.5510618,-0.2907187,0.2628187
0.7973885,-0.06045368,0.05092782,0.5577014,-0.2030216,0.3572536
0.8160347,0.03134207,0.1009481,0.4115539,-0.05567639,0.4363324
0.8432553,0.04576785,0.1198952,0.251664,-0.01153412,0.4154686
0.9902594,0.007377362,0.1075641,0.1038306,0.1038584,0.40216
1.060086,-0.09562967,0.1248384,0.03833919,0.2003803,0.3515826
1.093134,-0.2236457,0.1609871,0.2852349,0.1210188,0.2940239
1.124595,-0.2433252,0.1988979,0.5146985,0.06564282,0.2355635
1.102986,-0.1941527,0.2230589,0.5680137,-0.0414172,0.01615221
1.116348,-0.030076,0.2459443,0.5206602,-0.2901639,-0.167569
1.155234,0.07014931,0.2890885,0.4828681,-0.3966093,-0.2154436
1.290317,-0.162418,0.2304331,0.395871,-0.2576243,-0.5121428
1.406391,-0.3946673,0.06007758,-0.1724114,-0.127458,-1.139752
1.305721,-0.1931756,-0.09987795,-0.8456081,-0.09616143,-1.342703
1.158383,-0.03044467,-0.205639,-0.8565993,-0.05297549,-0.876349
1.166036,-0.378818,-0.1411224,-0.4836821,0.06599947,-0.4856783
1.341536,-0.6409614,0.009531377,-0.326683,0.2726225,-0.330163
1.552204,-0.5628741,0.0416717,-0.2512209,0.4172886,-0.08733049
1.556342,-0.4366339,0.05911565,-0.2406231,0.458591,0.1881924
1.265448,-0.2685652,0.08224048,-0.4896421,0.4460476,0.2679396
0.9803392,-0.194616,0.06881602,-0.6281661,0.3838226,0.2129531
0.8700211,-0.1769205,0.07488778,-0.7173866,0.5009346,0.2678902
0.7076953,-0.1161963,0.06457404,-0.9332886,0.6150769,0.2967901
0.50502,-0.1400524,0.07375232,-0.9914725,0.3957184,0.2562724
0.4552807,-0.1781061,0.09146336,-0.9076923,0.1833503,0.2656146
0.4888481,-0.1895922,0.09011744,-0.7673612,0.1453252,0.2064333
0.4969298,-0.1980003,0.09873344,-0.7595556,0.142708,0.1105634
0.5209782,-0.1763534,0.08853038,-0.782525,0.130122,0.02406131
0.526311,-0.1532107,0.1343851,-0.6505286,0.03190444,-0.06759619
0.5290733,-0.1633956,0.20113,-0.5582527,-0.154513,-0.1453607
0.6892368,-0.2151885,0.2123571,-0.3740793,-0.2516207,-0.2227399
0.9826396,-0.2665836,0.2376671,-0.1793692,0.1101702,-0.2705117
1.269132,-0.2548831,0.2574263,-0.0678917,0.5095046,-0.3147474
1.401612,-0.1328344,0.2926947,0.011589,0.2452102,-0.2292604
1.393227,-0.003042907,0.4052984,-0.132199,0.06507395,-0.02237897
1.368241,0.03109807,0.5357668,-0.4193403,0.4106741,0.07398252
1.311403,-0.07319646,0.5524056,-0.7211464,0.523262,0.2835973
1.331163,-0.5708873,0.4381048,-0.4846177,0.392058,0.6293253
1.333034,-1.11674,0.2285528,0.4119931,0.3880561,0.6284658
1.080741,-0.8253185,-0.04673424,0.9572089,0.4393209,0.2481811
0.7960423,-0.2399543,-0.079511,0.7814836,0.4331994,-0.05241396
0.7652452,-0.2477611,-0.009008502,0.2511427,0.2176455,0.04331637
1.009683,-0.271897,-0.1832342,-0.004117868,-0.09323684,0.1518508
1.18619,-0.2177795,-0.1429308,0.2336946,-0.2649344,-0.07762074
1.074322,-0.3387834,0.06213544,0.4497164,-0.3630274,-0.3043872
0.9329293,-0.2815949,0.05295684,0.5371211,-0.3800476,-0.4953651
0.7935934,-0.246621,0.06505533,0.5663951,-0.3854782,-0.5722597
0.6825766,-0.2071063,0.01995932,0.5960358,-0.5504902,-0.3359748
0.724967,-0.1083974,-0.01357691,0.6072255,-0.6583885,-0.1824436
0.7207789,-0.1395516,0.02249487,0.5011478,-0.6245137,-0.06650823
0.699799,-0.06033479,-0.05678085,0.4333353,-0.606983,0.1074251
0.7755594,-0.06384077,0.01044175,0.3467231,-0.5024853,0.1898595
0.7771519,-0.07099369,0.0637238,0.2408135,-0.3892474,0.3714584
0.7550691,0.02224805,0.0130142,0.1260185,-0.3882586,0.4692143
0.7996534,-0.04312678,0.08267441,0.07100411,-0.3364662,0.5285015
0.8512906,-0.001697369,0.08879943,0.1757274,-0.2025389,0.6312703
0.9746911,-0.02698242,0.1231417,0.2006845,0.002890677,0.5052467
1.083953,-0.1621789,0.1727089,0.355441,0.135974,0.4134744
1.08901,-0.1827111,0.1449874,0.640062,0.1042387,0.3577379
1.110989,-0.2378418,0.1941706,0.6756302,0.04507734,0.1715524
1.132157,-0.09784515,0.2328879,0.4503032,-0.195155,-0.06640158
1.176646,0.04419109,0.3047969,0.18809,-0.5108706,-0.2544208
1.29877,-0.09869173,0.3594479,0.408246,-0.5305713,-0.2187394
1.40561,-0.2209445,0.1941063,0.4879028,-0.365721,-0.4719912
1.418424,-0.2499277,-0.08886695,-0.4326129,-0.1693204,-1.043666
1.239847,-0.2407789,-0.2433725,-1.15552,0.01727368,-1.075036
1.067802,-0.3134708,-0.1523678,-0.7183319,0.0855884,-0.624535
1.204001,-0.5146121,-0.06514202,-0.1444353,0.09516688,-0.221833
1.417848,-0.6169098,-0.03139817,-0.1680841,0.1827655,-0.04588808
1.456693,-0.4517352,0.08377039,-0.1149782,0.3355826,0.1108155
1.365843,-0.2006419,0.06678991,-0.1141829,0.4719894,0.4199061
1.146174,-0.1463321,-1.007367e-05,-0.5678748,0.4998935,0.5015553
0.8880781,-0.1259848,0.05009459,-0.7782557,0.4972802,0.3739506
0.6976076,-0.07612762,0.03358275,-0.947523,0.6427169,0.3460606
0.5280882,-0.1426702,0.02650188,-1.138147,0.6829671,0.3228774
0.4167714,-0.1996988,0.08696969,-0.9526227,0.5113345,0.3072964
0.4137805,-0.2143737,0.09746482,-0.8407377,0.3474745,0.2793079
0.4736223,-0.2032319,0.1278768,-0.6499575,0.1326912,0.1679022
0.5439161,-0.1839535,0.1302316,-0.4993473,0.003929986,0.03334528
0.5789355,-0.2199942,0.1249487,-0.5782115,-0.004188244,-0.14901
0.5843597,-0.2321043,0.2205922,-0.3762394,-0.09223818,-0.2967794
0.620511,-0.2268241,0.2751101,-0.1160152,-0.1766824,-0.3193605
0.8014054,-0.2472173,0.2687773,0.02069574,-0.1782371,-0.2769962
1.075237,-0.2603104,0.2634179,0.04867474,0.02731563,-0.2402456
1.240522,-0.2394468,0.2745768,0.01564469,0.228078,-0.2238072
1.375351,-0.1799114,0.3508304,0.08647788,0.1071499,-0.08843186
1.483894,-0.11062,0.4469332,0.03372738,0.06633989,0.08523767
1.346262,0.04859419,0.5072631,-0.1532778,0.3402901,0.08785884
1.228861,0.1696874,0.4369517,-0.4794749,0.4943606,0.2523208
1.404453,-0.1895787,0.1979182,-0.5802812,0.2299008,0.7480004
1.484976,-0.8603211,-0.03360869,0.2181073,0.04274603,0.9332716
1.244707,-1.016947,-0.02836553,1.126441,0.4369236,0.4941354
0.8966609,-0.4963204,0.07465371,1.01961,0.7417332,0.007428052
0.7546121,-0.0994334,-0.003892883,0.4092775,0.3584815,-0.08246857
1.078,-0.2143034,-0.02922748,0.006926804,-0.1182726,-0.01344732
1.38916,-0.2788525,0.01446227,-0.2390965,-0.3182695,-0.07748712
1.151091,-0.1987892,-0.03712017,-0.01279809,-0.4899915,-0.2518574
0.8150022,-0.3403406,0.01332521,0.3919078,-0.5439009,-0.464972
0.685829,-0.3225721,0.00301989,0.3561628,-0.543103,-0.5227441
0.6417952,-0.1697424,-0.06082613,0.4473681,-0.7077581,-0.354936
0.7162924,-0.2405597,-0.0323229,0.5713929,-0.7572729,-0.1955731
0.7167912,-0.1630003,-0.09457617,0.5011008,-0.6030674,-0.003641999
0.704853,-0.1183607,-0.07062681,0.6188632,-0.4124252,0.1753328
0.8203833,-0.1974404,0.007839223,0.5934811,-0.2478339,0.2073173
0.7946171,-0.06364564,-0.001831088,0.5361584,-0.1826172,0.3181204
0.7637341,-0.03887533,0.04602476,0.5077585,-0.1439274,0.4174788
0.8043648,-0.02219474,0.06934521,0.29278,-0.07775461,0.4357183
0.8085246,0.05004986,0.1026891,0.2180886,0.01565974,0.49842
0.9271078,-0.06693243,0.139716,0.2118706,0.08189501,0.4477961
1.034692,-0.140098,0.1251612,0.380346,0.1115527,0.3789525
1.147359,-0.2223485,0.1755723,0.7101897,0.1824122,0.2964774
1.245405,-0.2499362,0.2114909,0.7708372,0.07531786,0.001880556
1.160338,-0.09058493,0.2377654,0.6766678,-0.1869481,-0.2496665
1.167965,-0.01586267,0.2826369,0.5850242,-0.3414542,-0.3228327
1.286555,-0.09459707,0.2474965,0.470083,-0.370085,-0.5874296
1.39828,-0.1953586,0.08997963,0.02352342,-0.1961032,-1.185718
1.444704,-0.1490842,-0.130822,-0.5621314,-0.02078428,-1.487537
1.21251,-0.1488539,-0.1509918,-0.4913652,-0.01584511,-1.055481
1.021454,-0.3431001,-0.01867996,-0.2020148,0.09711421,-0.5848367
1.210692,-0.4365801,0.02349971,-0.2698414,0.2863094,-0.56786
1.471483,-0.3874926,0.06493446,-0.3081255,0.3462084,-0.3880028
1.488112,-0.2686016,0.08002087,-0.3936934,0.39528,0.09219447
1.274149,-0.206055,0.05902463,-0.6096146,0.5143138,0.2217475
1.000033,-0.2370454,0.1028241,-0.653141,0.5243413,0.1220584
0.825672,-0.2006946,0.09512192,-0.7471561,0.5147379,0.15513
0.6635802,-0.180332,0.08024857,-0.9214009,0.616902,0.1906797
0.4499254,-0.1887033,0.1181909,-0.8841505,0.468903,0.2494441
0.4274224,-0.1899733,0.1104471,-0.7264885,0.1372884,0.3128925
0.498084,-0.1822159,0.1136116,-0.5463126,-0.01779026,0.3122595
0.5053286,-0.1317963,0.123031,-0.5192984,-0.06613543,0.2133215
0.6021429,-0.1129361,0.1435844,-0.606199,-0.05618795,0.04400191
0.6222987,-0.0877607,0.2413683,-0.5432965,-0.1361233,0.0003567667
0.625355,-0.1001994,0.2975053,-0.4808365,-0.2242158,-0.002790741
0.8404015,-0.1530862,0.2623769,-0.416203,-0.006384403,-0.07578277
1.0548,-0.1507211,0.2319556,-0.357542,0.1782451,-0.1777263
1.20706,-0.1551235,0.2649666,-0.417997,0.07102787,-0.2273048
1.420259,-0.1394164,0.3486866,-0.400355,0.07585135,-0.08804146
1.561147,-0.1052454,0.4682991,-0.4273462,0.439201,0.06302617
1.311076,0.01183769,0.5525896,-0.6539709,0.706007,0.1027046
1.047228,0.1116197,0.455043,-0.8620559,0.4402441,0.2984175
1.341948,-0.2491859,0.212772,-0.7285084,0.2133044,0.5803834
1.529795,-0.7803178,0.004981593,-0.03617708,0.5102863,0.4474635
1.229677,-0.7670516,0.01619967,0.6561787,0.6690843,0.06801503
0.9947322,-0.3007964,0.07774526,0.5296538,0.3189516,-0.04555785
0.9430486,0.0010376,-0.07025647,-0.1577703,-0.05314116,-0.01378616
1.060491,-0.1558774,-0.06105781,-0.487527,-0.3189251,0.00355345
1.189096,-0.4361479,0.06967412,-0.2319263,-0.5418307,-0.1633946
1.056744,-0.4871175,0.01566272,0.143705,-0.5588513,-0.4700173
0.8761696,-0.406146,0.03908448,0.400426,-0.5379682,-0.5112203
0.7551393,-0.2697986,0.01478151,0.6345781,-0.6198618,-0.4127173
0.6665976,-0.1530452,-0.06141465,0.7656946,-0.6393951,-0.2344988
0.7097769,-0.1556561,-0.01136286,0.6930526,-0.5832625,0.07342382
0.7600418,-0.1198947,-0.03713053,0.6525497,-0.527059,0.2535102
0.769746,-0.06367365,2.845205e-05,0.5931176,-0.4574485,0.2955025
0.8027413,-0.04827402,0.05273328,0.4111865,-0.3688621,0.3100532
0.7907783,-0.009278634,0.03500053,0.3639119,-0.2663404,0.3905634
0.7938131,-0.00389875,0.103442,0.2724891,-0.1320804,0.4475352
0.8223925,0.01808763,0.1242561,0.1508843,-0.03006419,0.4652323
0.8427353,0.00234352,0.1533607,0.2264201,0.02987713,0.5284565
0.9497612,-0.1028855,0.1896146,0.291622,0.07798943,0.4675693
1.061705,-0.2076071,0.1773604,0.4765432,0.05041082,0.4073612
1.093282,-0.2512034,0.2095825,0.6924303,-0.03198022,0.3188522
1.086257,-0.09748252,0.2129301,0.5981124,-0.2253768,-0.01832547
1.106253,0.03034718,0.2699519,0.5580721,-0.4712329,-0.2694453
1.201026,-0.04579604,0.3512937,0.8189346,-0.5500599,-0.2157595
1.25068,-0.09602282,0.2730754,0.822125,-0.5362678,-0.3032688
1.25091,-0.1306663,-0.001080479,-0.005909175,-0.3914744,-0.9564438
1.27281,-0.1760202,-0.2786454,-0.9862282,-0.1672964,-1.467999
1.271229,-0.2227074,-0.1780442,-0.9166163,-0.165699,-1.044327
1.301528,-0.4349728,0.02909505,-0.2973719,-0.1234979,-0.3758026
1.379987,-0.6688644,0.01062182,-0.1087925,0.1218718,-0.1262616
1.440541,-0.5598972,0.0676556,-0.02699839,0.2573027,0.02360059
1.43293,-0.2895516,0.09880303,-0.1549174,0.3631781,0.1960945
1.312966,-0.1983301,0.03271496,-0.6467432,0.4550637,0.2844514
1.099458,-0.1365341,0.09401253,-0.879745,0.392489,0.3262884
0.8653225,-0.1256355,0.08794701,-0.9722642,0.4365995,0.2692779
0.6894852,-0.1723227,0.05976387,-1.040283,0.4976109,0.2726435
0.5469505,-0.1323495,0.1138829,-1.042285,0.3035435,0.3453368
0.4678398,-0.1850913,0.09652289,-1.008981,0.1013036,0.292524
0.5073357,-0.2150881,0.1241642,-0.7609813,0.02529563,0.2641638
0.5313503,-0.1614876,0.1544537,-0.6756169,-0.01504288,0.1319904
0.528057,-0.1750465,0.1505461,-0.5947333,-0.05995156,-0.04462384
0.5442665,-0.1319005,0.2098185,-0.3900616,-0.1145595,-0.05304538
0.5639625,-0.1292397,0.2315799,-0.3704189,-0.2323604,-0.1627392
0.7384497,-0.1736876,0.2437538,-0.200874,-0.344802,-0.2074143
1.056034,-0.1660681,0.2290884,-0.1479109,-0.003469403,-0.1609002
1.27974,-0.1660576,0.2120242,-0.3205738,0.3925267,-0.2163511
1.390624,-0.1163212,0.2937049,-0.3435227,0.08024746,-0.1574681
1.473893,-0.1030693,0.3414178,-0.3311243,-0.125689,-0.06303079
1.497474,-0.1539884,0.3012212,-0.2815305,0.2906318,0.06245403
1.5839,-0.2600995,0.1849157,-0.1917523,0.4910173,0.426821
1.763907,-0.4629278,0.08590427,0.2441383,0.4431649,0.71296
1.672051,-0.6608569,0.1220407,0.8301736,0.7126834,0.2857914
1.30337,-0.8022265,0.1723522,0.8188094,0.8973338,-0.4266294
0.9013471,-0.5631493,0.1290536,0.6709716,0.2413944,-0.3686403
0.6686164,-0.08175711,-0.03739687,0.5353215,-0.5497358,0.03620637
0.988562,-0.1103179,-0.1878257,0.1682381,-0.4094212,0.1595369
1.347563,-0.3578825,-0.06613624,0.4216606,-0.2380852,0.1093317
1.189216,-0.3953169,0.1027042,0.9268722,-0.5260296,-0.2199437
1.024008,-0.4414241,0.006363713,0.7529899,-0.4672088,-0.4580591
0.8546664,-0.3241898,-0.05058178,0.7316934,-0.529934,-0.3682162
0.6789248,-0.1553074,-9.822441e-05,0.8778848,-0.8261835,-0.1648993
0.7739225,-0.1592088,-0.07239463,0.6912194,-0.7394185,0.08697413
0.7990494,-0.1381206,-0.04929701,0.755016,-0.6242391,0.1235869
0.8020111,-0.1522836,0.01604152,0.8359611,-0.4645075,0.1168447
0.8319144,-0.1474515,0.006814514,0.8126392,-0.2757626,0.2748323
0.7408813,-0.09141612,0.06310292,0.8807953,-0.2643545,0.3868465
0.7650674,-0.06577245,0.05397676,0.737324,-0.0831365,0.4528031
0.8047309,0.02340603,0.08192382,0.6166575,0.04258683,0.4315761
0.858182,0.02970733,0.1633542,0.4875808,0.01242154,0.3939751
0.9975634,-0.01503667,0.1557424,0.4149219,0.05660765,0.3830159
1.00815,-0.03521615,0.2144832,0.6416176,0.0006864401,0.3173471
1.021087,-0.1065503,0.2488028,0.8047383,-0.1089517,0.2681864
1.083637,-0.0767616,0.2210604,0.8881618,-0.2104521,0.1184796
1.122113,-0.02229754,0.2270087,0.9014076,-0.3283865,-0.06853696
1.200803,-0.05821247,0.2376396,1.003365,-0.4075709,-0.0811879
1.244657,-0.1644139,0.2218229,1.142586,-0.4178181,-0.2336996
1.270787,-0.3034566,0.01516025,0.5333153,-0.2599052,-0.8725132
1.290508,-0.281652,-0.1988956,-0.4028713,-0.06546769,-1.402587
1.269965,-0.2661597,-0.1263775,-0.5962654,-0.05603692,-1.025743
1.301824,-0.464056,-0.006936615,-0.1786391,-0.08313109,-0.3628944
1.424484,-0.5761616,0.01979885,0.1244908,0.0465776,-0.1741546
1.550843,-0.4431948,0.09190721,0.08100173,0.2460124,-0.008250926
1.490719,-0.2403133,0.1045014,-0.1482666,0.4788502,0.192339
1.233603,-0.1354302,0.04261944,-0.5880468,0.5937211,0.2279936
0.9544643,-0.1429112,0.07790047,-0.9474263,0.451695,0.3217243
0.7460202,-0.147654,0.07957279,-0.9718128,0.4055191,0.3154016
0.6198164,-0.143655,0.0609729,-1.019283,0.4344934,0.3453255
0.4688914,-0.1681105,0.1099272,-1.097427,0.2810344,0.4522623
0.4132428,-0.1793286,0.08146566,-1.017259,0.09603806,0.3448252
0.5512163,-0.1927234,0.08604822,-0.9046771,-0.05197792,0.3058495
0.5753376,-0.2183411,0.1095385,-0.8197829,-0.05548468,0.1964709
0.5539021,-0.2237092,0.1072783,-0.7237216,0.0217221,0.008313882
0.6038233,-0.2083514,0.2154208,-0.5239857,-0.01754477,-0.03039522
0.5832199,-0.186636,0.2829669,-0.2379,-0.1124997,-0.2131378
0.6668245,-0.1801616,0.2635322,-0.09178029,-0.1755931,-0.2536138
0.8765877,-0.2175007,0.2456623,-0.04265376,0.07154611,-0.1729208
1.141744,-0.2544892,0.2379663,0.1008864,0.3443831,-0.2427611
1.406073,-0.1984999,0.2329681,0.1034029,0.05146809,-0.1896138
1.478757,-0.1295253,0.2183107,-0.03648718,-0.1084714,-0.1080745
1.453204,-0.1251075,0.2460312,-0.1101466,0.4586986,0.008068652
1.460037,-0.1608101,0.2023075,-0.4702887,0.8743625,0.2052784
1.563185,-0.414342,0.01637731,-0.7374169,0.5782381,0.4870175
1.642182,-0.731554,-0.1497155,-0.009084247,0.3877398,0.7291947
1.439088,-0.6142765,-0.1151872,0.9143913,0.7515332,0.4013254
0.9953425,-0.3388956,0.02310194,0.8522864,0.8568859,-0.01606551
0.6369813,-0.3061475,0.006251558,0.4009074,0.3939303,0.02926355
0.8766589,-0.2908148,-0.0005513997,0.2622625,-0.09312091,0.02111716
1.288244,-0.3091454,0.04497486,0.201804,-0.3316388,-0.1181872
1.155351,-0.3794313,0.02746647,0.3734423,-0.3620861,-0.2629405
0.9891088,-0.3739378,0.07365077,0.7081418,-0.3798945,-0.4625634
0.8609815,-0.3401489,0.05208559,0.7961199,-0.4898818,-0.4397869
0.6466463,-0.2040842,0.007348101,0.8648542,-0.6839405,-0.2681911
0.7311827,-0.1273513,0.006775703,0.8476203,-0.8011348,-0.1240815
0.753162,-0.1329868,-0.06432006,0.7287433,-0.6727139,0.1086662
0.715699,-0.07823797,-0.03601248,0.735751,-0.5842748,0.22479
0.8262667,-0.1157868,0.009493545,0.6712819,-0.5144375,0.2350785
0.7880724,-0.07768745,0.01773153,0.6327755,-0.3632341,0.3755468
0.7832446,-0.00668778,0.07031068,0.5323768,-0.3484468,0.4574781
0.8136489,-0.02966368,0.06257069,0.2791081,-0.2531878,0.488545
0.842977,0.02086569,0.08195826,0.2116613,-0.05190064,0.5028392
1.014195,-0.02896491,0.1280147,0.2315161,0.1227689,0.3629112
1.09027,-0.1107526,0.1816136,0.3157219,0.2207153,0.2563349
1.100442,-0.1644998,0.2486484,0.5381935,0.1201287,0.2603428
1.108693,-0.2259397,0.2371023,0.6740264,0.09978481,0.2416107
1.091972,-0.1008179,0.2452157,0.6092346,0.03680762,0.06347813
1.132445,-0.02721986,0.2629947,0.5452088,-0.2509506,-0.1823803
1.17005,-0.08052652,0.2743186,0.7307432,-0.4205271,-0.2144904
1.260275,-0.1451098,0.2630637,0.7726643,-0.4479972,-0.3421677
1.367581,-0.2801029,0.04925669,0.2624655,-0.2445226,-0.9009303
1.385257,-0.3271601,-0.20924,-0.4964818,0.04597127,-1.363662
1.250644,-0.3090223,-0.2292985,-0.800742,0.05885978,-1.190245
1.057477,-0.3762765,-0.07121662,-0.3332678,0.1113086,-0.7446884
1.188988,-0.4809741,0.04641961,0.1184246,0.2485146,-0.480835
1.45743,-0.4578761,0.09003249,0.1070286,0.285128,-0.2517945
1.49516,-0.2622025,0.09756684,-0.08385468,0.4677518,-0.07276163
1.357881,-0.08801143,0.05457538,-0.5172777,0.6433183,0.1175834
1.055127,-0.05141206,0.06240897,-0.9103834,0.5454292,0.2985877
0.8348956,-0.1236013,0.07545013,-1.004719,0.4440678,0.1783893
0.7246547,-0.1568296,0.07329169,-1.029967,0.4680369,0.1969645
0.5317181,-0.1702784,0.1413475,-0.9972097,0.3767578,0.3187498
0.5088376,-0.2428548,0.1636972,-0.8797744,0.1798384,0.2343476
0.5864186,-0.2205028,0.1651428,-0.6857611,0.1029328,0.2723802
0.6092415,-0.1919931,0.1754756,-0.552162,0.1201161,0.1821523
0.673181,-0.1897531,0.1761551,-0.5668236,0.1714962,0.03233705
0.6777642,-0.1230508,0.2380108,-0.5019592,0.2186215,-0.01760099
1.066411,-0.3590475,-0.1795226,0.2599408,-0.8058879,-0.6340666
0.9053088,-0.2887442,-0.1290062,0.5737959,-0.8115348,-0.6686336
0.7646218,-0.2960222,-0.13687,0.7000057,-0.7089093,-0.6130257
0.6389483,-0.3071728,-0.2010787,0.8555371,-0.602635,-0.4805755
0.6343619,-0.2606553,-0.1598807,0.9720167,-0.6764246,-0.4720181
0.6960136,-0.2478765,-0.2042745,0.9733291,-0.6068089,-0.2841987
0.7187293,-0.1927194,-0.1845477,1.081489,-0.5116785,-0.04792121
0.7952768,-0.1372225,-0.1488385,0.9539452,-0.4391306,-0.02988896
0.8062498,-0.09346784,-0.1407255,0.8045091,-0.2057085,0.07697656
0.801004,-0.02455928,-0.01997365,0.8114655,-0.1573936,0.1489089
0.887254,-0.02175685,-0.01645077,0.6426003,-0.02197674,0.1403841
0.9870834,-0.04180394,-0.02871893,0.519437,0.2430177,0.1151852
1.063337,-0.09423437,0.01475264,0.3812581,0.3270803,-0.00355659
1.059688,-0.1715537,0.02761794,0.3381137,0.3275705,-0.01505412
1.089588,-0.1527028,0.09736481,0.5609869,0.1742237,-0.02968666
1.156905,-0.05237903,0.1016155,0.6175553,0.006951776,-0.2084085
1.166455,0.02069735,0.1045532,0.4991294,-0.1778806,-0.3887441
1.246852,-0.08386969,0.1083824,0.2927111,-0.3220645,-0.4275045
1.299916,-0.2130414,-0.1098244,0.1013269,-0.1927852,-0.4680573
1.227238,-0.1564208,-0.422231,-0.1781119,-0.05117175,-0.7244994
1.167127,-0.1363285,-0.5279848,-0.8507514,-0.01677681,-0.8790588
1.13393,-0.2498013,-0.3776701,-1.242442,-0.2299979,-0.7026399
1.174391,-0.490104,-0.1695844,-0.7402313,-0.6821723,-0.3664479
1.340774,-0.783962,0.01831108,0.1501978,-0.771517,-0.002340511
1.474715,-0.682864,0.02243749,0.5130203,-0.1634785,0.2401344
1.378165,-0.3132898,-0.1450559,0.08043794,0.6356586,0.3476438
1.097314,-0.1818017,-0.1196697,-0.5105314,0.7867068,0.4060238
0.8954498,-0.1784511,-0.08596733,-0.7868796,0.5503501,0.5062832
0.7871323,-0.1917796,-0.1007612,-0.8837469,0.5941983,0.614585
0.5839166,-0.1572613,0.01353757,-1.024599,0.5588249,0.6133722
0.4372403,-0.08171522,-0.00419185,-1.122699,0.3190041,0.5544775
0.5252281,-0.1669233,-0.02938408,-1.104344,0.206312,0.4700457
0.5667782,-0.2059044,0.003670594,-1.03474,0.1519597,0.4436493
0.5036246,-0.217306,-0.03962838,-0.9470905,0.1239589,0.3908742
0.5627847,-0.2802704,0.006577708,-0.9258901,0.1071085,0.1638306
0.573497,-0.2377627,0.06177635,-0.755762,0.004859089,-0.03037845
0.5504825,-0.2760766,0.1240201,-0.3553343,-0.180302,-0.1347812
0.6695448,-0.3009275,0.1704942,-0.06372936,-0.3464028,-0.163452
0.8781382,-0.3193538,0.05895798,0.04494558,-0.2487369,-0.1180845
1.234058,-0.4165082,-0.0493311,0.1191037,-0.08304604,-0.1194774
1.45014,-0.3062404,-0.06353366,0.1658224,-0.05174554,-0.1052049
1.438546,-0.1779533,0.09434115,0.08189721,0.3056145,-0.0202122
1.538201,-0.1370706,0.2441073,-0.03027801,0.7238786,0.2178508
1.546767,-0.1593847,0.03950897,0.007480715,0.6441165,0.6547435
1.447851,-0.5039794,-0.2420263,0.3353428,0.6765487,0.8709274
1.354576,-0.9642311,-0.2535313,0.7506663,1.038767,0.4494539
1.028159,-1.0148,-0.06098235,0.7168872,1.014427,-0.06775874
0.6966386,-0.5647991,0.07583913,0.5431283,0.4093841,0.01357019
0.6795988,-0.253841,-0.06346274,0.4179206,-0.2833568,0.1127413
0.9764141,-0.3875829,-0.230463,0.09158428,-0.4916899,-0.1729175
1.282181,-0.4660776,-0.1685312,0.2201189,-0.4553145,-0.4377052
1.134725,-0.3969156,-0.1326197,0.6585512,-0.6092381,-0.6916131
0.8613275,-0.3852595,-0.1681761,0.7809693,-0.5256993,-0.7301554
0.784539,-0.3220519,-0.1333126,0.9566621,-0.4175474,-0.553364
0.6216204,-0.2120282,-0.161792,1.008092,-0.71274,-0.4945221
0.61567,-0.1940151,-0.1902578,0.924772,-0.8290877,-0.2238169
0.7378275,-0.1838495,-0.1747364,1.011602,-0.6970376,0.05254597
0.6974648,-0.1544838,-0.2008402,0.8782471,-0.5098808,0.07144863
0.7908432,-0.1516491,-0.1551249,0.7555076,-0.257594,0.2004963
0.8199005,-0.08311866,-0.08572786,0.7354889,-0.1774116,0.2801364
0.7459285,-0.02285969,-0.04270617,0.5302465,-0.1697628,0.2791768
0.8673407,-0.0003290533,-0.01210739,0.3745987,-0.08732746,0.301243
0.957026,-7.116948e-06,-0.03706149,0.154593,0.133269,0.1976552
1.08524,-0.08348753,-0.02335613,0.0345732,0.3487622,0.1054389
1.180059,-0.1522589,0.019082,0.1711853,0.3090748,0.03609652
1.115167,-0.1758533,0.06489124,0.1525628,0.1566432,-0.1285136
1.15273,-0.07364053,0.1053513,0.05312471,-0.06577901,-0.3794004
1.183526,0.02302746,0.08080912,-0.01604562,-0.2156872,-0.5185843
1.243716,-0.1953285,0.05817185,-0.01514423,-0.2038134,-0.4906519
1.330158,-0.3721237,-0.05969776,-0.0939935,-0.1480185,-0.6979874
1.219575,-0.2263289,-0.3448103,-0.6545979,-0.04776359,-0.9762506
1.121883,-0.1739703,-0.4891734,-1.225422,-0.1738912,-0.8219884
1.150804,-0.4403869,-0.3094209,-1.060901,-0.4189054,-0.4706291
1.263794,-0.6628134,-0.09317636,-0.3413329,-0.4932038,-0.1619634
1.480396,-0.5713653,-0.09592801,0.1771687,-0.4388092,0.1624352
1.622613,-0.3910598,-0.1863961,0.1085873,0.03281454,0.3446719
1.453742,-0.274434,-0.2262803,-0.3895048,0.7117509,0.4510935
1.022739,-0.2107208,-0.1423747,-0.8356751,0.8583076,0.6204229
0.6384805,-0.203127,0.001369966,-0.9090651,0.6202392,0.706173
0.4787207,-0.1748694,-0.002066741,-0.9424581,0.5252812,0.7727011
0.4506971,-0.1648362,-0.01973919,-1.037811,0.3909454,0.745057
0.384376,-0.1753882,0.008026825,-1.063207,0.1060408,0.5940287
0.413134,-0.1746265,-0.04298052,-1.135352,0.02866288,0.5530734
0.5662258,-0.2352902,-0.0448962,-1.13897,0.0685587,0.434349
0.6026608,-0.275461,-0.005519113,-1.073705,0.05948355,0.2391682
0.6552755,-0.2783986,0.04260042,-0.9580097,0.03273762,0.04294701
0.6897079,-0.3108713,0.1322024,-0.6077336,-0.06799247,-0.2011866
0.6802788,-0.317426,0.1478766,-0.1851584,-0.09824641,-0.2365481
0.9180065,-0.3453949,0.09830567,-0.00841615,-0.02006608,-0.2083506
1.21844,-0.3721665,0.01771894,0.02267319,0.07049531,-0.2237316
1.381596,-0.2944744,-0.01501104,0.1127754,0.07959126,-0.1467841
1.428191,-0.1826205,0.1239484,0.07706985,0.1096848,-0.08968991
1.436507,-0.09253991,0.2425415,-0.06383199,0.2856978,0.02684014
1.458939,-0.1034446,0.0916485,-0.1389152,0.2669474,0.3357905
1.406059,-0.4262171,-0.2095002,-0.1100318,0.252182,0.6997692
1.349895,-0.9104716,-0.3196657,0.3117565,0.5516488,0.6676269
1.10082,-0.9460061,-0.1228557,0.8670266,0.7363691,0.2296993
0.7669965,-0.5307823,0.04178329,0.8822097,0.6013005,-0.007184308
0.8699873,-0.2675473,-0.1576288,0.5431937,0.1880202,0.001718912
1.109461,-0.258268,-0.3381752,0.288729,-0.2657409,-0.06080653
1.142144,-0.330095,-0.1691515,0.1352983,-0.553168,-0.2963723
1.037866,-0.3476001,-0.0942186,0.2722525,-0.7525182,-0.5345835
0.8190232,-0.2894988,-0.1587589,0.6509808,-0.7783296,-0.5795261
0.6946015,-0.2887225,-0.1440078,0.8026068,-0.7177781,-0.5176688
0.6796412,-0.2424172,-0.1987568,0.8056098,-0.7318608,-0.3897557
0.6606483,-0.1975743,-0.2099705,0.804449,-0.7502451,-0.3032653
0.7273712,-0.2139875,-0.1876112,0.7788882,-0.7118764,-0.1957047
0.797949,-0.175777,-0.2190855,0.8150974,-0.6022819,-0.0111191
0.8104098,-0.1713279,-0.1659342,0.7397724,-0.4158365,0.04459293
0.8423785,-0.1202634,-0.1088402,0.6699666,-0.2379524,0.1589574
0.841964,-0.0322575,-0.0467355,0.6461218,-0.1819141,0.2710894
0.86859,-0.02222237,0.01509015,0.477668,-0.04825137,0.2500806
0.9761751,-0.009061715,0.002746796,0.3187165,0.1867544,0.2450288
1.067922,-0.06725082,0.01734371,0.1551396,0.2811508,0.1188998
1.140024,-0.1511769,0.0284,0.09788683,0.289048,0.03528503
1.157892,-0.1605725,0.04365057,0.2475195,0.2256936,0.0145324
1.122262,-0.09255219,0.1015007,0.3430809,0.08147878,-0.1765862
1.129213,-0.02168101,0.1143732,0.2977073,-0.1093774,-0.3438801
1.218372,-0.1662881,0.08063824,0.2045522,-0.2684704,-0.4163554
1.330891,-0.2969512,-0.04902484,0.1335178,-0.2478524,-0.5545111
1.305827,-0.18187,-0.2956415,-0.2211471,-0.1390106,-0.8127329
1.15267,-0.1519782,-0.437749,-0.8510052,0.007941564,-0.8979285
1.02369,-0.3590297,-0.3049005,-1.069762,0.06025484,-0.5841847
1.031684,-0.5624449,-0.1137935,-0.7642663,-0.1544084,-0.2011449
1.241288,-0.5508706,-0.09108388,-0.4007355,-0.4088498,-0.0457347
1.472789,-0.4072388,-0.1484964,-0.2276573,-0.3929944,0.1454618
1.463002,-0.3150573,-0.2029296,-0.2698032,0.1129554,0.534835
1.159038,-0.2820402,-0.1514398,-0.4911879,0.6835995,0.630755
0.7714094,-0.2548765,-0.04900433,-0.6615862,0.6577901,0.5747087
0.5990359,-0.209951,-0.06007681,-0.7363758,0.561754,0.7496677
0.5811591,-0.1952462,-0.02624918,-0.8932658,0.7545286,0.7538855
0.4862428,-0.2094503,0.02718011,-0.9331855,0.6253601,0.6662398
0.4033758,-0.189339,0.01920995,-0.8804202,0.3851318,0.6286847
0.4882269,-0.189571,0.03164263,-0.9194359,0.3108452,0.5090736
0.6115767,-0.2074521,-0.004227773,-0.9385014,0.09095277,0.389991
0.6154298,-0.2118235,0.03769951,-0.934065,0.04296682,0.1940449
0.6137479,-0.2530362,0.1456536,-0.790572,0.03606188,0.01504276
0.6959728,-0.2975757,0.1565369,-0.4661911,-0.2356364,-0.1451234
0.8589113,-0.3390091,0.1300568,-0.1355761,-0.2728275,-0.2555947
1.136801,-0.3731982,0.03683742,0.07742779,-0.2146194,-0.2274187
1.296286,-0.3352209,0.005330857,0.08303584,-0.2660721,-0.2293908
1.323802,-0.2450429,0.1541402,0.03690802,-0.1735599,-0.0935111
1.477767,-0.1206518,0.3106615,0.01204611,0.08335984,0.1263316
1.485639,-0.05903126,0.3055101,-0.1841443,0.3822586,0.3733795
1.354155,-0.2548265,0.05009925,-0.2825559,0.2761612,0.7984819
1.409634,-0.7886988,-0.2945345,0.2512931,0.1710697,0.8442325
1.351958,-1.264117,-0.4480226,0.8774929,0.732125,0.2665185
1.088349,-0.9271535,-0.3153305,0.7567736,0.9842217,-0.1723339
0.8995191,-0.2482446,-0.2028904,0.4383186,0.2293997,0.07142664
0.9414483,-0.2314402,-0.3015419,0.2713334,-0.5409258,0.288229
1.156207,-0.3709172,-0.2729414,-0.03261532,-0.5155933,-0.1005987
1.16996,-0.3566192,-0.1763853,0.108283,-0.5147143,-0.4201051
1.008757,-0.4509107,-0.1622765,0.5681896,-0.8362633,-0.5255958
0.8396466,-0.3594198,-0.1076871,0.7209706,-0.6202718,-0.5815996
0.6784477,-0.2855021,-0.1480106,0.9367322,-0.5422695,-0.4366896
0.661454,-0.2822531,-0.1719347,1.020712,-0.8172637,-0.3691
0.6227203,-0.1853105,-0.1485556,0.9193811,-0.699442,-0.2174864
0.6498844,-0.2098937,-0.2059785,0.992915,-0.6850902,0.02206423
0.7727075,-0.1668333,-0.1759113,0.8429257,-0.5353215,0.06077605
0.7496688,-0.09995506,-0.1302282,0.7241748,-0.2243745,0.1999079
0.7996332,-0.07121528,-0.07825051,0.7058806,-0.2696629,0.3169679
0.8345376,0.01815958,0.00990964,0.4378449,-0.1542678,0.3426377
0.8648181,-0.00696361,-0.01777432,0.2695595,0.02934109,0.3620099
1.054046,-0.01998869,-0.03017422,0.0787369,0.2205206,0.1612906
1.112459,-0.05521727,0.0003259478,-0.02319647,0.4008448,0.03490865
1.145071,-0.1407511,0.0122602,0.1478068,0.2854413,0.04491435
1.184016,-0.1313441,0.06451332,0.1575087,0.1386193,-0.05748342
1.140718,-0.1090808,0.07831877,0.07596323,-0.1641629,-0.2529893
1.213898,-0.1000132,0.05154155,0.008963295,-0.3442784,-0.4984413
1.358973,-0.316787,-0.006620699,-0.02558548,-0.2341779,-0.6976374
1.457063,-0.5392011,-0.186948,-0.2348239,-0.2047765,-0.8179915
1.310797,-0.3068247,-0.3826792,-0.8272218,-0.05523394,-0.7025112
1.039344,-0.1457857,-0.381464,-1.104329,-0.03201793,-0.3939471
1.039349,-0.4545598,-0.2436494,-0.7971463,-0.171971,-0.1755228
1.175053,-0.666826,-0.1683621,-0.460361,-0.2792543,-0.05179649
1.360398,-0.4778057,-0.1653632,-0.3757001,-0.4307393,0.1179326
1.530328,-0.3346661,-0.1949178,-0.43214,0.007140744,0.4555889
1.324975,-0.3614535,-0.2011633,-0.5029007,0.6581558,0.5811369
0.9350122,-0.2898464,-0.1243729,-0.6228439,0.6252167,0.4910538
0.7065842,-0.2121896,-0.04962473,-0.8195208,0.6373731,0.6452137
0.5421926,-0.1700784,-0.01903517,-1.053048,0.8586526,0.6686416
0.430343,-0.1344115,0.007386901,-1.101769,0.4788862,0.5588564
0.4158238,-0.173207,0.01364287,-1.036931,-0.01765588,0.553871
0.4860713,-0.1846547,-0.04044883,-1.140086,0.003844745,0.4331096
0.6042195,-0.1899871,-0.08842213,-1.200452,0.1148133,0.3333659
0.6172459,-0.2542785,-0.0191683,-1.149065,0.1020196,0.1566108
0.5958646,-0.3070838,0.07677757,-0.9464255,0.0404739,-0.1067124
0.6643589,-0.3181106,0.09613298,-0.4652904,-0.03685543,-0.1977271
0.8081004,-0.3179204,0.07100436,-0.1175337,0.04564567,-0.2175546
1.025939,-0.3563785,0.03954331,-0.07086965,0.238108,-0.1937741
1.112019,-0.364982,0.04307463,-0.04099738,0.3736158,-0.1678591
1.115213,-0.3048522,0.06809793,-0.006732994,0.3649736,-0.1300512
1.326478,-0.2023573,0.1402291,-0.07126315,0.3478782,0.01677369
1.526722,-0.1104999,0.1732262,-0.1862078,0.4618544,0.2950725
1.545003,-0.325871,-0.09305899,-0.1996097,0.5202322,0.686055
1.505959,-0.8597369,-0.3797222,0.1756218,0.7606249,0.7771069
1.272201,-1.118795,-0.2381224,0.7846572,1.149261,0.349033
0.844606,-0.7374741,-0.06486714,0.8431727,0.9082514,-0.04488015
0.6723747,-0.2579711,-0.1571948,0.4322354,0.2382536,-0.01364822
0.9409055,-0.2983394,-0.1571111,0.1459199,-0.2589694,-0.03691274
1.210267,-0.4341538,-0.137819,-0.01232201,-0.5494417,-0.324025
1.194326,-0.3602861,-0.1899844,0.183328,-0.6142627,-0.4812122
1.042507,-0.3823786,-0.1360984,0.5656706,-0.6639533,-0.6039509
0.8152748,-0.3190773,-0.16284,0.6505773,-0.6618522,-0.5883004
0.6539842,-0.2138282,-0.2032882,0.6836163,-0.5894849,-0.3863174
0.6516194,-0.2693842,-0.1680057,0.764939,-0.667618,-0.3633735
0.6227213,-0.2533656,-0.1943995,0.8843117,-0.6093549,-0.1657995
0.6507602,-0.2323511,-0.1624024,0.9722596,-0.5094163,0.06082633
0.7635329,-0.211659,-0.1528724,0.8599017,-0.4646645,0.0425736
0.768659,-0.1172631,-0.1545969,0.808065,-0.3410923,0.2001231
0.7666997,-0.06301316,-0.06485588,0.7208262,-0.3359048,0.308571
0.806034,0.004199134,-0.04184375,0.5126297,-0.1833844,0.3625331
0.8582377,0.02568565,-0.03105176,0.3892013,0.04241503,0.4212539
0.9924578,-0.04842457,-0.02197543,0.2274569,0.1569514,0.2599735
1.114645,-0.1331835,-0.01817395,0.1833009,0.3379908,0.1938681
1.156793,-0.1559666,0.04677804,0.3329961,0.305567,0.1286774
1.152859,-0.09455761,0.08545083,0.4120262,0.1009306,-0.1316047
1.150592,-0.06399967,0.1262392,0.3647465,-0.1952542,-0.3339289
1.21694,-0.07613862,0.1321797,0.2398916,-0.3983638,-0.2596755
1.297352,-0.1156906,-0.02468944,0.08443015,-0.1861714,-0.1934491
1.293545,-0.1816857,-0.3271066,-0.3808272,0.0004276116,-0.6255734
1.183118,-0.2398293,-0.5023133,-1.188139,0.0967577,-0.9356458
1.0576,-0.4229957,-0.3167288,-1.510481,0.117497,-0.6604614
1.040479,-0.7014862,-0.1002567,-1.033258,-0.2123324,-0.3731175
1.131207,-0.7331973,-0.09512626,-0.5447093,-0.4473564,-0.1960569
1.39243,-0.4693348,-0.18287,-0.4226579,-0.2148126,0.09324163
1.696303,-0.3056014,-0.2990569,-0.4272793,0.3461396,0.3976683
1.558775,-0.3469325,-0.27303,-0.6387528,0.7996493,0.4860162
1.057809,-0.3267482,-0.1310572,-0.8432223,0.8067661,0.5177952
0.6718709,-0.2224202,-0.05179693,-0.8303574,0.7388556,0.6248609
0.5191503,-0.1770806,-0.01776725,-0.9518285,0.8206855,0.6089392
0.5494309,-0.1776616,-0.03127879,-1.11999,0.6438582,0.5491235
0.4831988,-0.1377108,-0.01224332,-1.168999,0.300653,0.4691267
0.4082171,-0.1357881,0.02036104,-1.176462,0.2483472,0.3924884
0.5677621,-0.1949466,-0.02033681,-1.148462,0.2789863,0.3438228
0.5545357,-0.197815,0.00757722,-1.139949,0.207674,0.1922184
0.5248808,-0.2190762,0.0665813,-1.002941,0.07309638,0.05326063
0.6421702,-0.2553863,0.1132679,-0.6791182,-0.1916315,-0.07589019
0.6575576,-0.2770697,0.1516985,-0.3135596,-0.2692107,-0.177816
0.9297049,-0.3596149,0.07057646,-0.08930789,-0.03690413,-0.1990604
1.258986,-0.3757257,0.01597789,-0.04176556,0.1356313,-0.2256441
1.343429,-0.2920039,0.04778668,0.01407503,0.1611908,-0.1198972
1.423862,-0.2206456,0.1280022,-0.03272035,0.4828346,0.07546025
1.491517,-0.2175923,0.2139922,-0.2066764,0.918757,0.3230229
1.561243,-0.3199178,0.02903163,-0.2023308,0.5967284,0.7505668
1.488686,-0.5621762,-0.2989124,0.264827,0.3170859,0.9056172
1.300202,-0.8161626,-0.387596,0.8669493,1.056578,0.3680059
1.070139,-0.6818972,-0.2572564,0.6776462,1.377216,-0.1354872
0.857542,-0.330005,-0.1639464,0.03240609,0.3253054,0.02010835
1.006558,-0.2678577,-0.2205858,-0.1638134,-0.6660764,0.06605815
1.162707,-0.3364387,-0.2237379,-0.006478486,-0.5454516,-0.3047081
1.156602,-0.3812578,-0.1560136,0.2934369,-0.450422,-0.5610363
1.082788,-0.3744363,-0.150964,0.4533529,-0.7535238,-0.7413708
0.7646996,-0.2920571,-0.117084,0.6206291,-0.4705163,-0.6789066
0.6537561,-0.2753099,-0.1133042,0.8474769,-0.4170179,-0.454017
0.6759073,-0.2043432,-0.1515708,0.7229365,-0.8425323,-0.4341455
0.5979211,-0.1675931,-0.1419187,0.8001976,-0.8224223,-0.1959736
0.7112492,-0.2190235,-0.1736325,0.8307477,-0.7174342,0.0150419
0.7690088,-0.1565368,-0.1726284,0.5365442,-0.4147558,-0.02004053
0.7833258,-0.1309737,-0.09244527,0.6656013,-0.1411444,0.184865
0.8215455,-0.104463,-0.03949686,0.659562,-0.2230944,0.284835
0.7772376,-0.04360301,-0.007845073,0.5218794,-0.07382927,0.241949
0.892411,-0.0459331,-0.0100431,0.5460689,-0.007586,0.239121
1.004935,-0.02834778,-0.01592901,0.2907638,0.1373295,0.09503516
1.049941,-0.09557663,-0.005895552,0.2767412,0.2981702,0.09698257
1.133805,-0.1407122,0.00205565,0.3446083,0.05766704,0.04736043
1.124077,-0.05736154,0.04706117,0.2064831,-0.05926957,-0.3560945
1.161536,-0.02775208,0.08069558,0.1959477,-0.270699,-0.6888037
1.266082,-0.1026032,0.09170882,0.1396124,-0.3303244,-0.5941845
1.337394,-0.238408,-0.003747646,0.04099203,-0.04163402,-0.4488456
1.349942,-0.2737656,-0.2891098,-0.3887469,0.01439412,-0.7633711
1.230516,-0.2563461,-0.4629827,-1.107521,0.05062501,-0.9568789
1.128905,-0.3873638,-0.332686,-1.233637,-0.1224591,-0.7507311
1.180416,-0.625618,-0.1347279,-0.5386181,-0.5152335,-0.4733381
1.340181,-0.7457694,-0.0860481,0.2592712,-0.5811371,0.01623433
1.477181,-0.5143292,-0.1710168,0.3262714,-0.05488143,0.2802502
1.419566,-0.2267102,-0.2421841,-0.1862023,0.7287071,0.2948811
1.124159,-0.1997024,-0.1604999,-0.6527244,0.7370921,0.5227625
0.7686533,-0.200279,-0.02948812,-0.8292972,0.4848506,0.6041795
0.6078517,-0.1597436,-0.01625723,-0.8453374,0.6472387,0.6102893
0.5637663,-0.151876,-0.0001148972,-1.000401,0.5209774,0.6212539
0.4666502,-0.1379679,0.01842223,-1.077422,0.3414082,0.4613535
0.4508512,-0.1473359,-0.01361176,-1.001886,0.2578534,0.4459348
0.5259892,-0.1804456,0.02017568,-1.028382,0.1159473,0.4558627
0.5541231,-0.2103831,0.02688731,-1.034011,0.2203956,0.3270413
0.571818,-0.2241433,0.04476326,-1.007265,0.2105919,0.1687269
0.5975241,-0.2290428,0.1312144,-0.9240472,0.07658398,-0.04711034
0.6564659,-0.2713538,0.1376924,-0.6238957,-0.04184052,-0.134088
0.8434049,-0.3446227,0.1026695,-0.2727897,-0.273421,-0.1159497
1.124229,-0.3659794,0.01400317,-0.1130604,-0.1926219,-0.1392675
1.356005,-0.2987091,-0.04921489,-0.05352985,0.041496,-0.1228533
1.383146,-0.1859576,0.09475943,-0.008679656,0.2243018,-0.1111108
1.342414,-0.04988179,0.2839488,-0.1581911,0.5824898,-0.01437222
1.418173,0.0006444915,0.2708114,-0.3110419,0.7461953,0.3334256
1.464008,-0.2977361,0.0007065177,-0.1995757,0.6975023,0.728945
1.470839,-0.8823254,-0.2663117,0.2491675,0.7254123,0.7186999
1.265093,-1.110821,-0.2426913,0.8495404,0.8562293,0.260551
0.7989213,-0.6647419,-0.09770528,0.706428,0.8861501,-0.06062604
0.7285568,-0.2130815,-0.08204441,0.1445615,0.4148535,-0.05074434
1.056696,-0.2724892,-0.103271,0.1070514,-0.0935501,-0.09363053
1.20589,-0.4013245,-0.08538793,0.04874465,-0.3569432,-0.3571269
1.081573,-0.351995,-0.08624205,0.1273655,-0.6217243,-0.6881898
0.8633339,-0.3439305,-0.08071392,0.5443709,-0.5384945,-0.8243721
0.7350254,-0.2798892,-0.1118389,0.6527183,-0.447808,-0.6911706
0.6090886,-0.1907416,-0.1490723,0.7143795,-0.5925312,-0.5006931
0.5474674,-0.1982072,-0.1329235,0.7275347,-0.5720469,-0.3540267
0.6585469,-0.1608106,-0.1523637,0.7070581,-0.6217389,-0.1689825
0.7125037,-0.1345471,-0.1267336,0.7579386,-0.6249673,-0.07648364
0.7675979,-0.1058616,-0.05747817,0.5621131,-0.4871064,-0.05529562
0.8138241,-0.0302072,-0.06123875,0.5283489,-0.456958,0.1063301
0.8082542,-0.02142421,-0.06504486,0.5483194,-0.3389604,0.1978302
0.8947655,-0.003683321,-0.02598577,0.4242888,-0.1890256,0.2092864
0.955018,-0.004705062,0.01947101,0.3984886,-0.07607907,0.2660606
1.036398,-0.07116936,0.01977024,0.2783054,0.05707296,0.2473064
1.129174,-0.1371358,0.0112259,0.2978171,0.06895148,0.2385813
1.152783,-0.1890008,0.01547751,0.3497927,-0.03945214,0.09970787
1.218171,-0.1018434,0.01384239,0.2501877,-0.2233158,-0.3170111
1.234702,-0.004363675,0.1352845,0.3097601,-0.3904082,-0.607166
1.279413,-0.1276718,0.2510014,0.4307692,-0.4501434,-0.3620166
1.354161,-0.2272374,0.04431624,0.5229827,-0.3731536,-0.07409049
1.314513,-0.1621215,-0.4024981,0.1768121,-0.1576971,-0.4187925
1.28063,-0.1795602,-0.6596801,-0.7184833,0.03570843,-0.7924109
1.190258,-0.3128223,-0.4906001,-1.201019,0.05853882,-0.8130412
1.112891,-0.4092553,-0.2894851,-0.765196,-0.132538,-0.6553357
1.250089,-0.4553568,-0.2861404,-0.07338699,-0.2923203,-0.1482613
1.493307,-0.4886407,-0.1580756,0.1529067,-0.07445383,0.2152532
1.61795,-0.4601376,-0.1045202,0.08554035,0.4305911,0.3518373
1.297524,-0.2655452,-0.2094491,-0.2468891,0.8162591,0.596654
0.8111334,-0.08579996,-0.06655789,-0.7794761,0.7053168,0.6248438
0.7674426,-0.1489848,-0.0007269703,-0.8592172,0.4926014,0.5877951
0.7624564,-0.2119668,-0.0720272,-0.8050167,0.6392944,0.6378804
0.4544344,-0.1640859,0.03492571,-0.9387081,0.5416695,0.6201893
0.3440108,-0.1843526,0.02491677,-0.9186295,0.2031859,0.5951505
0.4590231,-0.2003764,-0.0005999822,-0.8944057,0.0861956,0.4959436
0.5137926,-0.1932082,0.05480483,-0.8674047,0.00290295,0.3050291
0.6035187,-0.2360161,0.03856646,-0.7423151,0.09417721,0.09097188
0.674453,-0.2308748,0.1186594,-0.557161,0.1526222,-0.04338236
0.6347946,-0.2058802,0.1665248,-0.2682859,-0.06708152,-0.1481175
0.6939053,-0.229885,0.141638,-0.07964626,-0.2013558,-0.2527238
0.9316396,-0.2651207,0.1141626,-0.05304105,-0.2892508,-0.2272053
1.198951,-0.3140389,0.03517662,0.01416499,-0.2430036,-0.2337725
1.371636,-0.2909304,0.05550719,0.115695,-0.1074194,-0.2243676
1.442884,-0.18761,0.1931066,0.1138482,0.01945678,-0.1215981
1.486988,-0.09760473,0.2966738,0.01010915,0.3956195,-0.02025162
1.47973,-0.09890277,0.09801466,-0.3217877,0.6466063,0.3654543
1.421659,-0.4345129,-0.2390974,-0.5539634,0.611894,0.8030137
1.314876,-0.843297,-0.22423,0.2005492,0.6030589,0.6559871
0.9968071,-0.7250971,-0.02454429,1.18439,0.752393,0.09439741
0.7384393,-0.3619035,0.05670466,0.9773329,0.779042,-0.2460302
0.9176737,-0.2177306,-0.07270009,0.3094444,0.1452406,-0.01517719
1.181191,-0.2452298,-0.2368452,0.125001,-0.4737042,0.2485731
1.223871,-0.3689134,-0.1134621,0.172874,-0.4814501,-0.1471191
1.089394,-0.3995373,-0.02106805,0.3583898,-0.5513669,-0.6128122
0.8449225,-0.3229683,-0.1017235,0.5582166,-0.6392121,-0.6560288
0.7616627,-0.3021753,-0.07798119,0.7481855,-0.466038,-0.6407983
0.7882727,-0.2579694,-0.08919743,0.8747634,-0.5243181,-0.5322063
0.6768285,-0.2053274,-0.1330291,0.7567312,-0.727795,-0.3779399
0.6080287,-0.1464012,-0.1197043,0.8316112,-0.7299703,-0.2049698
0.6634487,-0.1102404,-0.1422227,0.8532115,-0.7472245,0.05130625
0.7700956,-0.1305856,-0.1161479,0.6319163,-0.6328614,0.08931273
0.8787191,-0.02853011,-0.07734018,0.6404716,-0.3370869,0.135231
0.8555556,0.03926586,-0.05133947,0.5052264,-0.173763,0.2681321
0.821559,0.01598794,0.00536574,0.3556257,-0.09989415,0.3234436
0.8576549,0.0211004,-0.001950493,0.3013629,-0.1181326,0.4068357
0.8646877,-0.06166412,-0.002958945,0.1329956,-0.01271042,0.3204738
0.961329,-0.1258296,0.0135187,0.2659213,0.1809893,0.2245906
1.150546,-0.2302936,-0.01189009,0.4388058,0.1372308,0.134525
1.216394,-0.3221076,0.01362284,0.5882031,-0.00888001,-0.2433738
1.168602,-0.1477728,0.06647798,0.6223011,-0.3080102,-0.5331902
1.210994,-0.06553401,0.1109965,0.3828062,-0.4344714,-0.4950307
1.331841,-0.212306,0.09943619,0.350593,-0.208543,-0.4618778
1.373032,-0.2805658,-0.09418976,-0.06844984,-0.07089204,-0.7499171
1.324732,-0.1926529,-0.3621619,-0.9020204,0.02449046,-0.9893665
1.197691,-0.1453432,-0.4337012,-1.19141,-0.03226402,-0.8052207
1.039131,-0.3669952,-0.2578018,-0.8175667,-0.2094311,-0.5300547
1.036363,-0.5794544,-0.07438639,-0.05468471,-0.2512073,-0.1714525
1.280955,-0.5013797,-0.04455435,0.3456177,-0.1563988,0.2689456
1.504662,-0.3130802,-0.1368754,0.06163655,0.3162541,0.4963098
1.387187,-0.1692866,-0.2195388,-0.4030084,0.7605752,0.606321
1.054091,-0.1505402,-0.11103,-0.6097808,0.6141691,0.6497056
0.7269426,-0.1868109,0.01714129,-0.6239076,0.4072383,0.6470477
0.5249847,-0.1453832,-0.009743258,-0.792662,0.4756787,0.7053968
0.5171471,-0.1316242,0.0120914,-0.8352937,0.380055,0.6754145
0.4972243,-0.1847647,0.04937982,-0.788072,0.203563,0.5913915
0.4765701,-0.2031691,0.02567958,-0.8379047,0.2047492,0.587509
0.5609586,-0.2186238,0.04991732,-0.7583196,0.1298443,0.4491782
0.5768648,-0.2371377,0.09266871,-0.7027435,0.1135803,0.2084476
0.6112957,-0.2258549,0.1726337,-0.5043609,0.05711675,0.06054931
0.6684626,-0.2357714,0.2206041,-0.1892687,-0.2948696,-0.06802216
0.711196,-0.2401855,0.1289552,-0.09212449,-0.4565328,-0.1308895
0.9287345,-0.2712263,0.03125556,-0.06622391,-0.3350731,-0.1368711
1.149638,-0.35959,-0.01884726,-0.02629283,-0.2261589,-0.1480935
1.312027,-0.3725641,-0.0003025997,0.06410302,-0.1642509,-0.1015714
1.489694,-0.2667247,0.1822504,0.0996098,0.2333416,-0.01149934
1.552714,-0.1140458,0.3307017,0.07380338,0.7686191,0.197972
1.528221,-0.1230311,0.1232002,0.1669564,0.4777663,0.5395869
1.42315,-0.4390821,-0.2074869,0.428322,0.228974,0.6743245
1.289234,-0.7784537,-0.2053719,0.7694623,0.8811593,0.2789746
1.069378,-0.7435297,-0.01540391,0.766696,1.113,-0.1235408
0.7701345,-0.4063295,0.04521397,0.5539215,0.4166334,0.06506143
0.8288133,-0.2110365,-0.09969032,0.3719039,-0.3154245,0.1933123
1.139743,-0.2669647,-0.2741016,0.03114048,-0.4410208,-0.0366923
1.247062,-0.3533463,-0.1657236,0.08163803,-0.403767,-0.2383209
1.093413,-0.3540147,-0.04840542,0.4286883,-0.6244071,-0.5868771
0.826923,-0.2872594,-0.1218184,0.4455811,-0.5472143,-0.7046461
0.7176001,-0.2261496,-0.09356123,0.5576695,-0.474236,-0.4336523
0.6820705,-0.1882861,-0.09506671,0.6656442,-0.6608526,-0.3892227
