accx,accy,accz,gyrox,gyroy,gyroz
0.9249023,0.02340067,0.1525221,0.2928544,-0.52589,-0.1082776
1.020792,-0.02363948,0.06109736,-0.00103187,-0.5870363,-0.2122669
1.111807,-0.06618715,0.03753407,-0.1290764,-0.4056702,-0.04558514
1.289348,-0.1641921,0.06794626,0.02792768,0.04311664,0.2049241
1.491322,-0.2788196,0.09122057,0.3323526,0.4145151,0.2819629
1.335716,-0.2397845,0.061579,0.5666279,0.4830019,0.2504974
1.143909,-0.1775083,0.03547338,0.5965942,0.4430791,0.3510706
1.330241,-0.2490972,0.05544817,0.5035594,0.5853245,0.5291614
1.431168,-0.3199837,0.05203294,0.4895958,0.9518314,0.4599566
1.247955,-0.4510629,0.05071766,0.4812929,1.007391,0.0180908
1.007536,-0.6014668,0.08301584,0.5356075,0.3961972,-0.4762232
0.7103641,-0.5011662,0.09150946,0.7017072,-0.3599131,-0.5202488
0.6711181,-0.326825,0.04111558,0.5596458,-0.4899094,-0.2646902
0.8998068,-0.256623,-0.04505783,0.3152522,-0.2285806,-0.1491849
0.9284833,-0.2338454,-0.06548571,0.3183094,-0.3128213,0.009148021
0.9280813,-0.3573804,-0.01962606,0.4257618,-0.4283436,0.1562203
0.9422583,-0.4895037,-0.01249573,0.7234639,-0.3999462,0.03017186
0.8419033,-0.4571171,-0.04286307,0.9817229,-0.4855972,-0.08887003
0.8148567,-0.3602527,-0.06502934,1.055825,-0.4750885,-0.176141
0.7518434,-0.2411435,-0.05718203,1.107254,-0.54027,-0.1889319
0.78462,-0.1651043,-0.04586893,1.023136,-0.5910411,0.005634369
0.9640182,-0.1137854,-0.05557528,0.9209407,-0.348261,0.06231196
1.016258,-0.05218343,-0.0469201,0.8584569,-0.1535425,0.0809821
1.051458,-0.05524264,-0.02758277,0.7638708,-0.05995554,0.1894466
1.03294,-0.03774808,-0.005186952,0.6053577,5.481106e-05,0.1848594
0.9710233,-0.02255779,0.02115712,0.4214824,0.05982023,0.1989187
0.9567632,-0.04734179,0.0254595,0.4180939,0.06510409,0.2171574
0.8998174,-0.03028093,0.02837596,0.4256023,-0.05094648,0.2117397
0.9334062,-0.04572394,0.01814064,0.4445149,-0.001225501,0.1795746
0.9763978,-0.06287384,0.002243284,0.5819225,0.02186433,0.04062925
0.9924313,-0.06539898,0.02166397,0.6769698,-0.05585272,-0.07261867
1.088697,-0.0921655,0.03410154,0.8196057,-0.03929888,-0.1781719
1.091061,-0.00624857,0.03541835,0.8139718,-0.1789565,-0.2494532
1.074355,0.1710257,0.06223536,0.4562573,-0.368972,-0.1941769
1.15026,0.2562629,0.1092383,-0.04926736,-0.5716456,-0.03923747
1.264883,0.1014242,0.1275449,-0.3495596,-0.7799654,0.1308122
1.352921,-0.1842137,0.02896138,-0.2309189,-0.7396093,0.07855217
1.265975,-0.3561002,-0.124838,-0.1613534,-0.6578653,-0.04117989
1.147745,-0.4839632,-0.1758662,-0.2818563,-0.441747,-0.05115498
1.109134,-0.5633443,-0.1521644,-0.4026595,-0.104057,-0.2327229
1.035239,-0.5378385,-0.1155833,-0.5647344,-0.1367481,-0.4922864
1.042515,-0.5427854,-0.05682994,-0.2425617,-0.3277335,-0.5199538
1.139274,-0.4984644,-0.0546733,0.4327415,-0.3546976,-0.3133627
1.178434,-0.3633784,-0.08587988,0.6208617,-0.1671539,-0.05292225
1.184308,-0.2429145,-0.06705596,0.4753189,0.2164408,0.02451884
1.11082,-0.1698888,-0.06718591,0.2722012,0.4692719,-0.02191661
0.9604503,-0.1525489,-0.03928212,-0.01201043,0.6359195,-0.03384911
0.8670685,-0.1251128,0.04085535,-0.145207,0.779971,-0.07464442
0.7795549,-0.1096077,0.06427592,-0.1243292,0.6615343,-0.08873502
0.6704226,-0.08428397,0.09935121,-0.07212555,0.4523169,0.05504669
0.6426538,-0.02208116,0.1399179,-0.03079322,0.1814082,0.2599873
0.6989846,-0.03190345,0.1096895,-0.1432416,-0.079064,0.3449714
0.7650095,-0.03854634,0.0906681,-0.350184,-0.1347784,0.3671124
0.8545031,-0.05234094,0.085528,-0.4815405,-0.2654867,0.4118292
1.0037,-0.1105629,0.0842771,-0.5646712,-0.1703337,0.3039731
1.025837,-0.1040108,0.1145021,-0.4460897,0.145325,0.07997747
0.9109776,-0.08474845,0.1422409,-0.1276652,-0.02606735,-0.0707066
0.8752857,-0.03057233,0.1696478,-0.03859885,-0.2494485,-0.1860843
0.8595999,0.0353747,0.1643692,-0.121749,-0.3485649,-0.2059793
0.8872308,0.018622,0.08961579,-0.2941621,-0.5216694,-0.08757158
1.014079,-0.006501033,0.008004667,-0.6813217,-0.2442283,0.106332
1.167722,-0.111271,-0.01743101,-0.7133572,0.1149704,0.3236189
1.3993,-0.3055388,0.003867869,-0.1214808,0.2731682,0.3332989
1.502028,-0.3764647,0.006868953,0.3945212,0.501865,0.2588949
1.448067,-0.354266,0.001611919,0.3371715,0.5254764,0.4044568
1.607318,-0.4288722,0.01186198,0.2250584,0.772974,0.4601758
1.719331,-0.5158552,0.001592136,0.424817,1.260358,0.1917218
1.273823,-0.511901,0.03709155,0.3891903,0.9870174,-0.2836558
0.6020319,-0.4978956,0.116344,0.3745757,0.05995085,-0.6704723
0.4230139,-0.4024752,0.1496033,0.5925309,-0.8917223,-0.5353433
0.6976711,-0.2307764,0.1185037,0.4352452,-1.227451,-0.1262058
0.9384128,-0.1878587,-0.0333744,0.2836143,-0.6830306,0.2366963
1.159023,-0.2957095,-0.1705874,0.289697,-0.2392631,0.5007203
1.277387,-0.4206689,-0.1139367,0.2503757,-0.03306467,0.2753632
1.064401,-0.4562296,-0.04260733,0.428256,0.2118123,-0.135557
0.8474978,-0.3994161,-0.05141869,0.5441696,-0.06879771,-0.3583937
0.7771919,-0.3110473,-0.03210065,0.6032796,-0.3364105,-0.5352728
0.7359503,-0.2508248,-0.03037656,0.6498788,-0.4049242,-0.3533108
0.7992724,-0.195442,-0.05869848,0.6209857,-0.645294,-0.04437673
0.8801561,-0.1145438,-0.0504201,0.7640474,-0.3722412,0.1064276
0.9393114,-0.0970225,-0.05360109,0.721111,0.04070447,0.25724
0.97829,-0.09967563,-0.03685284,0.5964177,0.08332801,0.1584603
0.9227257,-0.06111534,0.02302857,0.615028,0.1393293,0.1217313
0.9006773,-0.04967512,0.01763601,0.4735164,0.1382794,0.1907445
0.9022526,-0.03200746,0.001069766,0.4810599,0.1527369,0.06378788
0.8977668,-0.00898663,0.007361459,0.5927613,0.1414946,0.07876571
0.9556024,-0.02101963,-0.01002473,0.6051584,0.1111119,0.005993435
0.9834784,-0.0314937,0.01779851,0.7044509,0.1668212,-0.1595475
1.024809,-0.0535021,0.05490941,0.7128173,0.08865551,-0.1568877
1.060238,-0.07052328,0.05180094,0.637826,-0.01452475,-0.1997974
0.9990376,0.005566505,0.05570422,0.4211781,-0.2509872,-0.1065323
0.9938713,0.1117926,0.08200328,-0.01571453,-0.6220128,0.03440961
1.107999,0.08126376,0.1041775,-0.2835373,-0.8708867,0.03946143
1.263853,-0.08384538,0.03820348,-0.426366,-1.082089,-0.01386211
1.337294,-0.3026521,-0.1036179,-0.6079801,-1.034091,-0.1343972
1.337057,-0.4889746,-0.1927742,-0.5735995,-0.5850441,-0.1844086
1.38583,-0.5682177,-0.17601,-0.4426886,0.03787321,-0.3901395
1.35633,-0.6033694,-0.1164288,-0.4262863,0.42141,-0.6221455
1.243858,-0.5513517,-0.06845425,-0.2116014,0.3921318,-0.4022405
1.179349,-0.3849785,-0.02008989,0.09419308,0.4138806,-0.1274788
1.085872,-0.2646967,-0.01414725,0.006632172,0.4715882,-0.1221407
1.000394,-0.185941,-0.02809512,-0.3061675,0.4179669,-0.2144416
0.9734604,-0.1638868,0.006236692,-0.5536959,0.4589415,-0.2825617
0.9279562,-0.2187536,0.02012012,-0.5969384,0.4836226,-0.1996488
0.8554097,-0.2118561,0.02800903,-0.4394067,0.5292657,-0.04956398
0.7569202,-0.173149,0.06596571,-0.3594309,0.5400735,0.08286743
0.7078006,-0.1375497,0.08330505,-0.3078039,0.3365297,0.2897349
0.7721814,-0.1203585,0.09729352,-0.2856619,0.1086417,0.3618123
0.8564274,-0.1584254,0.1001734,-0.3566786,0.01591566,0.2008414
0.9034829,-0.160235,0.09909338,-0.3109273,0.08133757,0.1121368
0.9052465,-0.1487246,0.121329,-0.289746,0.09817945,0.08741695
0.8451702,-0.1121276,0.1522353,-0.2896679,-0.001058914,0.05948335
0.7751926,-0.007473377,0.1844127,-0.1730261,-0.1535383,0.09719975
0.7641084,0.047652,0.1681591,-0.181865,-0.4637675,0.1098031
0.7951271,0.05587806,0.1358775,-0.2837784,-0.6408437,0.1861213
0.8300877,0.0614419,0.123214,-0.3734551,-0.6298177,0.2595145
0.9368281,0.004300333,0.06282137,-0.4939474,-0.549805,0.1328768
1.117903,-0.1230878,-0.02943929,-0.6114277,-0.1698397,0.04105701
1.209183,-0.2088484,-0.08330443,-0.6111019,0.1671961,0.1372709
1.221081,-0.2136783,-0.03509506,-0.195439,0.2097381,0.2122184
1.270198,-0.2164308,0.05533062,0.4179298,0.1902107,0.1674072
1.288433,-0.1985371,0.07408928,0.6182038,0.1506205,0.2413734
1.374666,-0.1867206,0.03713476,0.4607872,0.333932,0.5606651
1.635528,-0.243154,-0.0202718,0.3253344,0.9347607,0.7599038
1.68342,-0.3901773,-0.001855773,0.1490709,1.482541,0.3976978
1.240728,-0.5966133,0.07955141,-0.06890591,1.098022,-0.2814492
0.6674479,-0.6080912,0.1057626,0.1177757,0.04704634,-0.5753074
0.5157059,-0.4157483,0.1110726,0.3831702,-0.4928689,-0.499186
0.7481474,-0.2596262,0.04747172,0.198396,-0.5575731,-0.2606566
0.9125265,-0.1942351,-0.05593017,0.1043876,-0.4361319,0.2383172
1.059807,-0.2852366,-0.06787613,0.1629564,-0.2306224,0.4970267
1.168456,-0.4189414,-0.07127599,0.172093,-0.1412586,0.2534066
0.9879214,-0.4210072,-0.09220834,0.3856597,0.05052255,-0.08872817
0.8341223,-0.3704844,-0.07775767,0.5210061,-0.08292511,-0.3263113
0.7955165,-0.2691747,-0.0435188,0.5682452,-0.4087662,-0.3327852
0.7399727,-0.1759956,-0.02057298,0.637943,-0.4328366,-0.190837
0.8186321,-0.1568408,-0.02362783,0.5994217,-0.5025108,-0.05408758
0.9130438,-0.1142157,-0.0211098,0.6946518,-0.330743,0.1316573
0.9702315,-0.09127413,-0.02716332,0.7029844,-0.1320148,0.1447999
1.00761,-0.07380435,-0.03637363,0.5599135,-0.1288816,0.041904
0.9652535,-0.007023365,-0.02997042,0.4789682,0.04301683,0.151472
0.9789324,0.02274117,-0.03055405,0.2113912,0.02356228,0.1674912
0.9891037,0.02877904,-0.0208853,0.06538996,0.06520474,0.1304242
0.9674746,0.007673731,-0.0118821,0.143838,0.1883818,0.2727897
0.9885983,-0.05871141,-0.01111257,0.1441386,0.1828657,0.1912315
0.9681485,-0.1000441,0.008782222,0.3045202,0.3330666,0.04551127
0.9601117,-0.141747,0.05036336,0.5420988,0.2333735,-0.04354574
0.9705457,-0.1669093,0.07605798,0.7096426,0.01684475,-0.2568241
0.9663088,-0.04408103,0.06428713,0.7613087,-0.1791881,-0.3000308
0.9995689,0.1795367,0.0783748,0.4621814,-0.511459,-0.2736782
1.061258,0.2555949,0.1062286,0.005068656,-0.6941006,-0.1805595
1.221606,0.0861902,0.0721556,-0.3557247,-0.8782833,0.008052735
1.384691,-0.1717826,-0.02878702,-0.5090186,-0.8156172,0.006531995
1.320387,-0.3628956,-0.1514145,-0.522389,-0.551318,0.02876824
1.208661,-0.4242153,-0.1774039,-0.599769,-0.3299764,-0.004393247
1.221936,-0.4518903,-0.1219419,-0.5858967,0.06816553,-0.2825984
1.13405,-0.5702191,-0.102547,-0.3896232,-0.05634325,-0.5218193
1.059207,-0.5935839,-0.05778757,-0.01603144,-0.3159066,-0.5127626
1.206207,-0.4415948,-0.02024849,0.3638071,0.0420368,-0.2226687
1.259455,-0.2922146,-0.06709769,0.2323956,0.2599525,0.01779411
1.18345,-0.1321582,-0.06683199,-0.2624079,0.50309,0.02890191
1.136662,-0.05437006,-0.02986661,-0.7019437,0.8197712,-0.005553555
1.038239,-0.1407062,-0.0112736,-0.9763299,0.8114168,-0.04417018
0.9367409,-0.1951798,0.03754837,-0.8219272,0.8834047,-0.06375673
0.8124198,-0.2223845,0.05838401,-0.5843536,0.7575199,-0.01656021
0.7007003,-0.219862,0.0700656,-0.5477671,0.4166028,0.1146655
0.6888195,-0.1550407,0.09612241,-0.4162569,0.2086668,0.1989442
0.6970298,-0.1573688,0.09019148,-0.4693096,-0.05687401,0.1766016
0.7420196,-0.1535525,0.08387153,-0.5416626,-0.1151704,0.1441578
0.7962771,-0.1214914,0.07104115,-0.4144998,-0.06340238,0.06084479
0.8239472,-0.1137066,0.07196745,-0.4168439,-0.1976936,0.02961378
0.8381294,-0.06243266,0.09991924,-0.2402571,-0.2953978,0.05854361
0.8428534,-0.0152255,0.114603,-0.1243375,-0.3664669,0.01465882
0.8907591,0.01843696,0.1202988,-0.2848172,-0.3572623,-0.0276292
0.937503,0.03103296,0.09137557,-0.3436094,-0.3080702,-0.09715183
1.011983,-0.03712551,0.03372888,-0.5701794,-0.2832726,-0.1176986
1.172632,-0.1672026,-0.01216742,-0.7095907,-0.05172415,0.07683356
1.325772,-0.3198397,-0.008222506,-0.4444016,0.2386753,0.2604252
1.35917,-0.3339361,0.03774303,-0.01753874,0.3927616,0.1674735
1.284308,-0.1996588,0.0378267,0.3595671,0.4145063,0.03837372
1.280006,-0.1287009,0.004597828,0.2375968,0.2657529,0.1556029
1.378888,-0.1540822,-0.02025194,0.007795864,0.2740111,0.3577591
1.50091,-0.2828991,-0.01589242,0.112472,0.8922602,0.4587726
1.493107,-0.508899,0.02989787,0.1395033,1.49559,0.1105344
1.061068,-0.6150676,0.06156481,0.323861,0.9659899,-0.5031398
0.5170763,-0.4487361,0.08509546,0.5911188,-0.04171086,-0.5045373
0.5108272,-0.2095956,0.06144943,0.2606964,-0.4583175,-0.3096827
0.8374163,-0.1627398,-0.024656,-0.2414576,-0.599228,-0.3203671
1.020576,-0.2312803,-0.06933084,-0.3116463,-0.4727447,0.03750875
1.105622,-0.3229836,-0.07273781,-0.0363187,-0.1629114,0.2648813
1.042406,-0.418153,-0.0595925,0.3331739,-0.06247501,0.03863287
0.8546504,-0.3828333,-0.06061328,0.4431833,0.009361626,-0.1765894
0.8095784,-0.298943,-0.06239896,0.4222315,-0.1759329,-0.3769218
0.8049311,-0.2466932,-0.02591526,0.538571,-0.4401139,-0.3692678
0.8346912,-0.1587501,-0.02760877,0.6134565,-0.4569385,-0.1202441
0.9276572,-0.131591,-0.0375362,0.6794797,-0.4896287,0.05347572
0.9355438,-0.1419931,-0.03098401,0.7129824,-0.2656609,0.1476237
0.96911,-0.0774716,-0.03285305,0.6030779,0.004673614,0.1410486
0.9518056,-0.02055773,-0.00455222,0.4646236,0.006557624,0.1060683
0.9028682,0.002013279,0.001014772,0.2774293,-0.002770039,0.1512266
0.9642216,0.02118526,-0.01151396,0.1539777,-0.03694542,0.1947438
0.983599,0.01106922,-0.01997428,0.1528888,0.03129532,0.2409711
1.027536,0.008408527,-0.04155801,0.1263756,0.1415234,0.190333
1.062087,0.01201653,-0.02976442,0.1504995,0.2665994,0.02776622
1.007552,-0.01534694,0.008931685,0.2323199,0.3473072,-0.03250691
0.9905451,-0.03631998,0.04875231,0.2939243,0.12681,-0.03465359
0.971406,-0.01871367,0.04623857,0.3136466,-0.13131,-0.03903188
0.9909173,0.0750668,0.0290566,0.2021041,-0.4127821,-0.01445702
1.08908,0.1567896,0.05653858,-0.07383095,-0.6069426,0.006562501
1.245893,0.03775426,0.04361994,-0.3823456,-0.5819093,0.07999386
1.349413,-0.1742675,-0.01962886,-0.4270499,-0.6110396,0.08625425
1.21997,-0.2936095,-0.0885009,-0.2795665,-0.5531435,-0.06273506
1.095615,-0.3886703,-0.1318901,-0.335519,-0.5045397,-0.1791735
1.10408,-0.477683,-0.1122263,-0.5513164,-0.3932339,-0.1951456
1.068372,-0.5312334,-0.08201376,-0.6855165,-0.165799,-0.2774052
1.111259,-0.5693573,-0.04899894,-0.4987064,-0.3746267,-0.5279969
1.285566,-0.4888127,-0.05327559,-0.006579021,-0.5249463,-0.6273615
1.386076,-0.33389,-0.1012205,0.2923897,-0.0730368,-0.4659387
1.348431,-0.2402535,-0.08636628,0.2624764,0.4807998,-0.3717459
1.194727,-0.1003426,-0.05732896,-0.07704822,0.847486,-0.2627405
1.033217,0.06055159,-0.03051412,-0.6705032,1.014436,-0.03671317
1.01461,0.0412949,0.001516571,-0.9814801,1.04513,0.1123084
0.9567137,-0.07493948,0.008925202,-0.9377763,0.9870318,0.182353
0.7439171,-0.1037791,0.07114764,-0.8260458,0.828761,0.2864676
0.6854231,-0.1241416,0.1016311,-0.6591301,0.5781441,0.4350035
0.7722702,-0.1601532,0.0773985,-0.4995003,0.2563361,0.478759
0.7669797,-0.1516154,0.1081166,-0.4304526,0.08250594,0.4021413
0.7939959,-0.1883332,0.113072,-0.4620104,0.04692618,0.3039296
0.8695698,-0.1865881,0.121487,-0.4476755,-0.03139002,0.1713326
0.8866503,-0.1513804,0.1657002,-0.3051146,-0.1110339,0.09968517
0.887352,-0.1639621,0.160694,-0.07690479,-0.2051075,0.07894227
0.8490632,-0.06787905,0.16247,0.129828,-0.3151302,-0.02709052
0.8370304,0.02454001,0.1744013,0.07052543,-0.4328136,-0.1301603
0.8876519,0.03305134,0.1503801,-0.1266743,-0.5662513,-0.1329287
0.9649292,0.01992876,0.1030742,-0.3593017,-0.584897,-0.08658191
1.144794,-0.09496026,0.02854507,-0.6567501,-0.3759533,0.03407485
1.305426,-0.2130807,0.009075501,-0.6126484,0.01852099,0.2839609
1.350464,-0.2627619,0.0902781,-0.1447243,0.3485776,0.373899
1.33817,-0.2264626,0.1528656,0.3945889,0.4271867,0.05716434
1.229626,-0.1076912,0.1436392,0.5108093,0.2730791,-0.1995219
1.153097,0.009726945,0.1078561,-0.03528207,0.01976645,0.0556717
1.269537,0.02756092,0.06569475,-0.42672,0.06894533,0.5099876
1.397795,-0.2115714,0.03373716,-0.2384618,0.724743,0.678731
1.267776,-0.5352488,0.01831523,-0.091706,1.320733,0.3512641
0.9236359,-0.6594137,0.03075062,0.09404951,0.7581477,-0.2000568
0.6282799,-0.5425242,0.04297096,0.4837646,-0.3121048,-0.3663083
0.6486854,-0.3261462,-0.007477984,0.4083524,-0.5175733,-0.2757988
0.9307712,-0.2272406,-0.06103505,0.0275659,-0.32907,-0.2351478
1.071914,-0.2183553,-0.05534151,-0.02059417,-0.2851968,0.05422437
1.092035,-0.3211815,-0.04219095,0.03967689,-0.2002112,0.2981412
1.079885,-0.4492536,-0.04645041,0.2692779,-0.1779509,0.117183
0.9320636,-0.4029466,-0.04648935,0.6852367,-0.1470261,-0.1264307
0.8500299,-0.3068023,-0.03991262,0.7869937,-0.2796108,-0.2553561
0.819755,-0.1440003,-0.03372431,0.7395504,-0.4942959,-0.2550049
0.859539,-0.01280347,-0.02665659,0.6481359,-0.4703011,-0.07051419
0.9817715,-0.03883861,-0.02731496,0.426916,-0.3642191,0.1563228
0.976856,-0.03383464,-0.02957214,0.2628021,-0.1148973,0.2384485
0.9870089,-0.0461019,-0.0173514,0.1648182,0.1067717,0.1961374
0.9517184,-0.06601813,-0.002712495,0.1782888,0.12641,0.1766302
0.878577,-0.04234322,0.01397831,0.2010094,0.06464614,0.1669728
0.9283649,-0.03895889,0.01975807,0.1920678,-0.02729423,0.1849703
0.9433996,-0.01042267,0.003977148,0.2092064,0.0573,0.2295101
0.991762,-0.01258879,-0.007070036,0.1791205,0.1490899,0.1907531
1.007164,-0.0230466,-0.01102686,0.2461652,0.1868189,0.07247299
0.962065,-0.01700078,0.008036161,0.3690538,0.2374246,-0.09276522
0.9905273,-0.03976503,0.04583794,0.4676644,0.06627327,-0.1960093
0.9600257,-0.01434855,0.05162894,0.4667542,-0.1915289,-0.1864779
0.9797977,0.07705441,0.05631519,0.1642803,-0.4300532,-0.1501615
1.129549,0.1532517,0.1141068,-0.2699871,-0.5944443,-0.02460296
1.296311,0.04410793,0.1494944,-0.567606,-0.6475892,0.09645053
1.346932,-0.2135153,0.03192846,-0.5330903,-0.6722872,-0.05227214
1.239696,-0.4044965,-0.1406407,-0.2339372,-0.5536063,-0.2767907
1.199425,-0.5248842,-0.1623137,-0.06394015,-0.4336562,-0.3390052
1.150697,-0.5312083,-0.1286463,-0.2494007,-0.3550716,-0.4739026
1.068304,-0.4647436,-0.1216724,-0.4604744,-0.2669754,-0.657969
1.153444,-0.458662,-0.05613305,-0.1650139,-0.2852323,-0.6147327
1.260766,-0.3983284,-0.04145392,0.2198594,-0.1225712,-0.4170637
1.28928,-0.2873457,-0.08114084,0.2328737,0.2887034,-0.1947162
1.199788,-0.185809,-0.05944173,0.1160298,0.6057281,-0.07881895
1.030418,-0.08767702,-0.04259208,-0.1891303,0.6928731,-0.07115284
0.9822606,-0.1002489,-0.0127573,-0.5116319,0.720134,0.04012097
0.9413254,-0.1491417,0.03314892,-0.6193523,0.8429358,0.0988242
0.8233814,-0.1550005,0.04842754,-0.625416,0.844558,0.06073088
0.7573828,-0.1638523,0.09824336,-0.5121997,0.6659126,0.1680962
0.7367634,-0.1507649,0.1270546,-0.414813,0.3663997,0.2756333
0.7582148,-0.1569594,0.1052538,-0.33232,0.04518212,0.3062215
0.8140466,-0.1591614,0.09801552,-0.2947705,0.03139709,0.2777667
0.8570556,-0.1284087,0.0878908,-0.3501858,0.08353197,0.1876957
0.8739351,-0.116331,0.09830256,-0.2857465,-0.048927,0.2276735
0.8575976,-0.08906139,0.1286222,-0.2042959,-0.1204369,0.2482306
0.8482342,-0.05549658,0.1392797,-0.10961,-0.1726771,0.1608632
0.84184,-0.0189243,0.1500577,-0.04614849,-0.2579017,0.09996065
0.8526681,0.006533497,0.1490008,-0.1836825,-0.3403344,-0.04769314
0.9303351,-0.01226235,0.1160527,-0.315563,-0.4692105,-0.155353
0.9970451,-0.02037388,0.0732509,-0.435533,-0.5203319,-0.1252415
1.060423,-0.05688544,0.05774505,-0.5123635,-0.3471357,-0.0254654
1.234186,-0.1524109,0.07280568,-0.4033497,0.03294085,0.2081239
1.418663,-0.2316452,0.07978569,-0.1752664,0.4271168,0.3219014
1.392833,-0.2250308,0.0776336,0.04592424,0.5334199,0.2007463
1.329814,-0.1801635,0.07000987,-0.005666215,0.2237662,0.1848313
1.506384,-0.2112482,0.05191714,-0.1129609,0.09164953,0.3980835
1.611858,-0.2443461,0.05568974,0.04484004,0.7611699,0.5426879
1.420049,-0.3467099,0.06695343,0.1812552,1.387331,0.2836352
0.9734652,-0.5604726,0.06773252,0.3007892,0.9926333,-0.1549112
0.4858745,-0.560049,0.08131043,0.4620309,0.1815585,-0.3040956
0.5833793,-0.390969,0.0630881,0.4401232,-0.3685937,-0.1928342
0.8646366,-0.2611963,-0.0005481955,0.2316074,-0.5347414,-0.08234071
0.8170347,-0.1706982,-0.04967336,-0.10878,-0.2786593,0.01456588
1.058611,-0.2468128,-0.06045853,-0.1790524,-0.1965256,0.1665636
1.188659,-0.3719076,-0.03814016,0.1908655,-0.2385508,0.1794443
0.9642488,-0.3931175,-0.02640187,0.4872809,-0.001310236,-0.09342674
0.9953469,-0.3714063,-0.02986454,0.6090731,-0.1419129,-0.4407526
0.8719818,-0.2429161,-0.0196851,0.5839609,-0.3940009,-0.5510366
0.7521581,-0.07833502,-0.02322506,0.4363951,-0.3707554,-0.3054411
0.9139974,0.006535378,-0.02955606,0.3050184,-0.4819141,0.0125556
0.8986132,0.01525325,-0.03351376,0.07811524,-0.2637501,0.1787266
0.9896094,-0.04839465,-0.04377508,-0.001283389,0.108914,0.2429356
1.062867,-0.09537009,-0.0236348,0.09351329,0.1279744,0.1660955
0.9370027,-0.1139413,0.004350361,0.1133513,0.0858125,0.1031467
0.9610079,-0.1065723,0.009015084,0.1843286,0.01338842,0.1401474
0.94592,-0.06095971,0.001071019,0.2074413,0.009270416,0.1413131
0.9595065,-0.02944573,-0.00865112,0.1923104,0.05595886,0.1565586
1.030864,0.01039688,-0.009602217,0.2411755,0.1241426,0.07508196
0.994001,0.01423038,0.001859838,0.2686074,0.2623176,-0.09536026
1.011029,-0.02254555,0.04510068,0.3202928,0.2083746,-0.1260836
1.00412,-0.02279153,0.08772326,0.3248364,-0.01222351,-0.1054452
0.9902581,0.02915761,0.07467313,0.259215,-0.3337601,-0.07892139
1.019759,0.1582918,0.05343027,0.04547308,-0.5407359,0.0318102
1.067516,0.1904705,0.0569501,-0.3528261,-0.4974433,0.1507479
1.246904,-0.03422204,0.04051516,-0.485385,-0.5134508,0.1056648
1.355387,-0.3047975,-0.006955924,-0.2473821,-0.5228146,-0.1372893
1.240315,-0.4173384,-0.0695846,-0.05683844,-0.4703844,-0.3434557
1.122372,-0.4740417,-0.1167104,-0.04502297,-0.3753346,-0.4032343
1.128585,-0.5244031,-0.1109869,-0.1702798,-0.2321094,-0.4521206
1.111158,-0.4667507,-0.06886923,-0.2814178,-0.3194018,-0.5294331
1.089655,-0.4402812,-0.02778071,-0.01410803,-0.382177,-0.4832591
1.220463,-0.4258701,-0.03714728,0.4037422,-0.05856573,-0.3158744
1.292322,-0.276879,-0.07860399,0.4156821,0.3999924,-0.1844152
1.196222,-0.1590898,-0.0704728,0.08758956,0.7234701,-0.08932151
1.067864,-0.065313,-0.0376903,-0.3645758,0.8056444,-0.01461255
0.9605369,-0.05184505,0.01324701,-0.7093787,0.7595803,0.108554
0.9136662,-0.1796628,0.06434338,-0.7136816,0.744742,0.202042
0.8549358,-0.2266633,0.06604965,-0.4920829,0.6625893,0.1654789
0.7905756,-0.2326649,0.09464415,-0.1939007,0.4711389,0.2214633
0.7764492,-0.1930093,0.1144527,-0.06683288,0.260865,0.2489353
0.7824646,-0.1087451,0.09157836,-0.2046021,0.1149173,0.1604234
0.8173187,-0.08891468,0.09792126,-0.3353142,0.06804976,0.1460565
0.8394419,-0.058237,0.09388002,-0.4054515,0.001532353,0.1342569
0.8599552,-0.07923971,0.1022134,-0.3899562,-0.144909,0.1802345
0.8740697,-0.09307105,0.1326269,-0.23081,-0.2540624,0.222128
0.8533563,-0.03627369,0.1365979,-0.09360125,-0.2874485,0.1428952
0.8507063,-0.002948545,0.1457926,-0.07962856,-0.3139306,0.05335805
0.8612252,0.04368127,0.1396939,-0.2293601,-0.3689295,-0.05919161
0.9181393,0.01380325,0.102549,-0.4938845,-0.4455045,-0.1153616
1.037924,-0.08226154,0.04871674,-0.7050551,-0.4520678,-0.07785542
1.176958,-0.1731003,0.01201918,-0.7339759,-0.2437811,0.04931222
1.295661,-0.2570677,0.04301125,-0.4078279,0.129783,0.2005389
1.324249,-0.223465,0.08883526,0.1728795,0.4434966,0.1102314
1.259515,-0.1447139,0.1135393,0.4359657,0.4906002,-0.04319221
1.206343,-0.05112864,0.116369,0.1267962,0.2089328,0.0248846
1.301824,-0.0005349588,0.07188285,-0.1689735,0.07593204,0.2623285
1.40651,-0.1984624,0.02559884,-0.073319,0.6373004,0.4929353
1.289678,-0.4902631,0.01680428,0.01041885,1.196217,0.3473288
0.9868138,-0.620467,0.03603347,0.1746935,0.8126429,-0.02517891
0.6453753,-0.5307146,0.04924367,0.5655745,0.09524741,-0.1603191
0.6174863,-0.3546611,0.008734265,0.5469788,-0.2124687,-0.2236939
0.8740629,-0.2393598,-0.03993879,0.1808775,-0.2450522,-0.2570897
0.970378,-0.184566,-0.04454789,-0.08905278,-0.1812438,-0.1342689
1.037808,-0.2922985,-0.03866928,-0.177768,-0.2956708,0.03864079
1.103813,-0.4264469,-0.04603345,0.1532678,-0.3516216,0.1907692
1.012474,-0.4085761,-0.06197318,0.5437766,-0.189901,-0.02453407
0.9914094,-0.3803223,-0.06430564,0.5935013,-0.2728006,-0.4394885
0.9333807,-0.2350735,-0.04971098,0.5817359,-0.283493,-0.4682483
0.8291906,-0.01940647,-0.03304814,0.5218044,-0.2657499,-0.2646342
0.8873719,0.003966743,-0.01798667,0.3514117,-0.4143967,0.02384287
0.931135,-0.02895019,-0.02242096,0.1922964,-0.2579437,0.2685737
0.9534855,-0.03327327,-0.02562784,0.1104451,-0.1151909,0.2705783
1.016845,-0.07763924,-0.010654,0.1140268,-0.01846498,0.2275062
1.004094,-0.09796866,-0.004962381,0.1020149,0.1238059,0.1866378
0.9505217,-0.06573291,-0.001907488,0.07998355,0.04633091,0.1723228
0.9379299,-0.04549564,0.001531011,0.05709014,0.07819725,0.2119282
0.9447529,-0.03029337,-0.009663933,0.01276411,0.1234318,0.2029185
0.9475577,-0.007416523,-0.03647249,0.02683712,0.1305227,0.116577
0.9751722,-0.03901016,-0.05070239,0.1273843,0.2506795,-0.04941155
0.993071,-0.07302182,-0.01399131,0.3158914,0.2292982,-0.1255395
0.9993429,-0.08900554,0.02648067,0.4953442,0.06803021,-0.1490947
0.9918059,-0.07455003,0.02179624,0.5078288,-0.1941567,-0.2143664
0.9688292,0.04316974,0.03126833,0.260795,-0.3822912,-0.1181866
1.069314,0.1224496,0.08559359,-0.1850957,-0.4450105,0.06097121
1.243161,0.04092142,0.1092238,-0.5175204,-0.5402873,0.1117105
1.312967,-0.1280197,0.03044416,-0.5615544,-0.5305381,-0.008556581
1.243573,-0.2925387,-0.09408846,-0.3622641,-0.4867246,-0.1687555
1.159797,-0.4353869,-0.1456858,-0.1610374,-0.3607849,-0.2161162
1.147143,-0.5149604,-0.1401374,-0.2778264,-0.06310664,-0.3036311
1.043663,-0.4989963,-0.106733,-0.3525561,0.02291013,-0.416215
0.9667907,-0.4996294,-0.02510567,-0.023639,-0.1826316,-0.4399083
1.102535,-0.4285227,-0.007064284,0.3681864,-0.3050367,-0.45304
1.237042,-0.2339277,-0.05887118,0.5391326,-0.09073644,-0.3274053
1.281215,-0.1034301,-0.06955598,0.2367903,0.331663,-0.1469413
1.222527,-0.01178314,-0.06849989,-0.403062,0.7408381,-0.09340036
1.095564,0.0173836,-0.04426457,-0.8126562,0.9756957,0.005290843
1.043364,-0.05747274,-0.002527532,-0.915403,0.934437,0.08406431
0.969125,-0.1332814,0.01521371,-0.781923,0.8805257,0.08867412
0.8404764,-0.2108377,0.06334789,-0.5688634,0.8102028,0.1663539
0.7542451,-0.228581,0.09877489,-0.3785527,0.5030515,0.2355303
0.7197499,-0.1901068,0.09424924,-0.2144531,0.2565598,0.255652
0.7479423,-0.1777426,0.09591306,-0.3392154,0.1222362,0.2288652
0.7896774,-0.1485594,0.08590239,-0.41017,-0.03166257,0.1579081
0.8424613,-0.128977,0.08627913,-0.2783788,-0.08605,0.128957
0.8978368,-0.1468524,0.1038531,-0.2095856,-0.1349139,0.1221128
0.8892268,-0.1406222,0.122238,0.06490757,-0.2022755,0.07639566
0.8725846,-0.08020128,0.1573992,0.2086998,-0.262067,-0.03679755
0.8680688,0.004926129,0.1752795,0.04366082,-0.389449,-0.1433626
0.8770981,0.03914232,0.1567386,-0.07413109,-0.5202308,-0.1746219
0.9570288,-0.001585791,0.1064063,-0.3331533,-0.5768787,-0.1415006
1.128199,-0.1020685,0.02817213,-0.5040048,-0.3831719,0.04902802
1.372006,-0.2690982,0.004831178,-0.3301761,0.06943319,0.2945035
1.481327,-0.3565132,0.06876227,0.1351816,0.4635276,0.2604422
1.324944,-0.2153995,0.1156699,0.7254426,0.5603516,-0.06066407
1.16672,-0.03313015,0.1068085,0.6457596,0.2963863,-0.238506
1.210726,0.02267203,0.09688617,0.1088578,0.1218248,0.08184489
1.378735,-0.04027925,0.07806237,-0.02814657,0.4952706,0.5564496
1.464687,-0.2933045,0.03380064,-0.05977143,0.9397978,0.5747744
1.187476,-0.585638,0.01516234,-0.06054273,0.9165339,0.2255349
0.7622937,-0.6010048,0.02576024,0.223663,0.480335,-0.1075383
0.7261035,-0.3938816,0.009452279,0.4580717,-0.06054512,-0.2938569
0.8380826,-0.2246442,-0.01991942,0.3198469,-0.2812989,-0.2821712
0.8392766,-0.1705726,-0.02156007,-0.0849161,-0.2740319,-0.1892759
1.030067,-0.2481993,-0.01985125,-0.2120753,-0.3694256,-0.03717237
1.168374,-0.3723932,-0.02893383,0.01320953,-0.3016125,0.1212799
1.049317,-0.3526367,-0.03143049,0.2916449,-0.09826822,-0.01401013
0.9569088,-0.3004489,-0.03270623,0.5379212,-0.1262425,-0.2752212
0.8709007,-0.2644985,-0.03066129,0.5253207,-0.2251555,-0.3813543
0.8175309,-0.1234464,-0.02159854,0.446858,-0.3408556,-0.3276742
0.8600439,-0.04083099,-0.02107206,0.4149534,-0.4521875,-0.0879656
0.9087258,-0.04105356,-0.02353269,0.2821921,-0.330424,0.140279
1.014841,-0.04205673,-0.02238242,0.2292268,-0.1321917,0.2162468
1.058417,-0.05452638,-0.02097939,0.1628846,0.03786384,0.1856469
0.9711816,-0.02768862,-0.007706039,0.1175025,0.1197403,0.1651466
0.935042,-0.01781228,0.006305883,0.1109278,0.01618549,0.2521908
0.9398296,-0.009975146,9.294103e-05,0.01229861,-0.0003794696,0.3042239
0.9496226,-0.01229609,-0.01290048,-0.0146454,0.0775963,0.3364123
0.982808,-0.06030758,-0.03079936,0.003902002,0.1120836,0.3091884
0.9816652,-0.07595955,-0.04532842,0.1281083,0.1894235,0.1280462
0.988787,-0.1252231,0.001100382,0.3658579,0.1942504,-0.04298945
1.00946,-0.1530035,0.06255524,0.5352127,0.03589438,-0.2009896
0.9865668,-0.03820398,0.03977806,0.5858047,-0.2394908,-0.2624406
0.9947182,0.1350519,0.02514291,0.3910792,-0.5052604,-0.1748755
1.120379,0.2366574,0.07088611,0.02681512,-0.6104631,-0.04334138
1.316895,0.1647989,0.06567437,-0.2287807,-0.6027403,0.1058439
1.374023,-0.03530519,0.005669702,-0.178299,-0.483413,0.06418248
1.220289,-0.2554595,-0.06360947,-0.04446,-0.3512681,-0.09068243
1.089489,-0.3474056,-0.1105412,-0.1430724,-0.3707992,-0.1412512
1.050277,-0.3375267,-0.1156236,-0.3310926,-0.2979881,-0.1614454
0.9730656,-0.4547488,-0.1002689,-0.5556343,-0.1032393,-0.1914872
0.9310811,-0.5304423,-0.05367879,-0.5531012,-0.133202,-0.3228118
1.03171,-0.474071,-0.03131401,-0.128641,-0.2790517,-0.4377682
1.141468,-0.4566829,-0.03707992,0.2671078,-0.2690732,-0.3916947
1.143084,-0.3330485,-0.03262736,0.427536,-0.04405141,-0.3604863
1.106473,-0.1295626,-0.06410076,0.2480389,0.3963887,-0.3382756
1.059337,-0.02639486,-0.04144329,-0.1003749,0.6862018,-0.2381992
0.9806778,-0.01963504,0.02303193,-0.3246923,0.6536777,-0.06113709
0.9129876,-0.06135691,0.04097542,-0.5998189,0.639669,0.1563768
0.8821896,-0.07016147,0.08090779,-0.6565078,0.5847171,0.3074441
0.875387,-0.137181,0.09195317,-0.5396736,0.3884599,0.3914842
0.8848961,-0.2147688,0.08507443,-0.5571098,0.2829424,0.3919503
0.9129812,-0.1952201,0.09458125,-0.4627203,0.2775306,0.278661
0.9337302,-0.2245681,0.06516356,-0.4890862,0.3154153,0.1387049
0.9250918,-0.2206947,0.07874273,-0.553117,0.3155681,0.07060547
0.8980046,-0.1631849,0.1218289,-0.3437561,0.164119,0.09129006
0.8608165,-0.1319423,0.1470887,-0.1422183,-0.04450528,0.0957192
0.84338,-0.04359986,0.1499977,0.03462683,-0.1891195,0.07226033
0.848353,0.02370163,0.1077951,0.08357259,-0.308497,0.07719787
0.8508179,0.05809646,0.09600921,-0.05307007,-0.4157795,0.06911267
0.8766622,0.05174512,0.08958084,-0.2126959,-0.3940513,0.07453388
0.9523972,-0.03836356,0.07356856,-0.3899141,-0.3331425,0.07634055
1.052523,-0.1226219,0.06817608,-0.4152311,-0.3274947,0.006504391
1.126097,-0.181922,0.02840499,-0.3325744,-0.2438793,-0.04423006
1.211546,-0.1507286,0.03703351,-0.2171193,-0.09030703,-4.045657e-05
1.324922,-0.09446937,0.06453871,0.01982444,0.08666706,0.02850719
1.317105,-0.1015137,0.04389789,0.1377856,0.164778,-0.08541031
1.290334,-0.08924763,0.03956858,-0.01694325,0.09861671,-0.1387834
1.472452,-0.1247179,0.02096427,-0.1450692,0.1881264,0.1368856
1.615465,-0.2064322,0.01682701,-0.022054,0.5533194,0.4618268
1.492363,-0.4026104,0.03959658,0.1184142,0.9777103,0.4167014
1.202135,-0.6955421,0.03767143,0.2630201,1.00612,0.08833874
0.812516,-0.6770882,0.05850242,0.506423,0.5799776,-0.2653173
0.5247086,-0.462362,0.05689603,0.5072065,0.1606624,-0.5021502
0.4604217,-0.3876869,0.0288547,0.3746183,-0.2961232,-0.4418602
0.5565387,-0.33717,0.03394476,0.4363375,-0.6765124,-0.1440458
0.8640849,-0.3559902,0.01192259,0.6957806,-0.5817313,0.07063122
1.186562,-0.4822862,-0.03610387,1.211331,-0.241569,0.004939279
1.233836,-0.5530933,-0.08483266,1.644076,0.01999571,-0.2797453
1.061279,-0.5150777,-0.09804442,1.755098,-0.07781815,-0.4885239
0.89075,-0.3510451,-0.04862419,1.841205,-0.3669878,-0.505623
0.8822078,-0.1600015,-0.03182812,1.832255,-0.4137129,-0.3347088
0.9266594,-0.03254029,-0.03962085,1.62763,-0.4022918,-0.02034664
0.9469584,0.01287736,-0.03361884,1.376318,-0.304175,0.1831052
1.003528,-0.02485577,-0.04158231,1.148923,-0.1547757,0.2868826
1.014611,-0.03513112,-0.02834156,1.108039,-0.1904354,0.3010785
1.005904,-0.06107072,-0.01835332,1.155429,-0.1337811,0.2192873
1.020238,-0.1047284,-0.02380841,1.136745,-0.05959956,0.1782341
1.012665,-0.08048722,-0.01525607,1.173235,-0.09063806,0.06798825
1.015599,-0.07167118,-0.01360044,1.186367,-0.03894356,0.02681631
1.013052,-0.04350389,-0.008104148,1.195693,0.02942172,0.07358326
1.006186,-0.0242187,-0.0007610474,1.301207,0.06790302,0.005395359
1.001892,-0.06394983,0.003896793,1.343476,0.02170163,-0.01767083
0.982101,-0.05714618,-0.003618277,1.290652,-0.1085602,-0.02452282
0.9838387,-0.02024623,-0.03862168,1.129517,-0.2724962,-0.04562498
1.02887,0.04518202,-0.05296561,0.8237247,-0.3667843,-0.01670714
1.111973,0.0848941,-0.03775864,0.5652245,-0.2388932,0.02469397
1.163851,0.03357668,-0.0139612,0.5198685,-0.1680917,0.1054779
1.150399,-0.06107784,0.01149213,0.6012822,-0.263867,0.09207016
1.127456,-0.2011847,0.02502231,0.7093797,-0.3213866,0.02590979
1.08867,-0.2572331,0.02487388,0.8804468,-0.3785437,0.006141512
1.002032,-0.2076849,0.01285435,0.9492132,-0.3969155,-0.06688529
0.890915,-0.2110768,0.01947603,0.8704716,-0.3719885,-0.1205711
0.8119163,-0.1926443,0.06118356,0.8920916,-0.3997442,-0.149125
0.7992013,-0.1162352,0.1376742,0.8754823,-0.4572618,-0.1788306
0.9195603,-0.06690137,0.2058971,0.6504278,-0.4864964,-0.1269266
1.18781,-0.01996622,0.1886688,0.3045119,-0.2952646,-0.05294251
1.337863,-0.003581194,0.1349939,-0.04896028,0.1489881,0.001697179
1.237564,-0.04438584,0.1084202,-0.1644409,0.4514725,0.09914846
1.115607,-0.08607024,0.1139159,-0.1243403,0.4057516,0.206595
1.020949,-0.1154133,0.1364588,-0.1305787,0.3349941,0.2293203
0.9109109,-0.1241441,0.127034,-0.0638116,0.3711684,0.2128752
0.8700843,-0.117332,0.1290446,0.02770847,0.2681513,0.2047535
0.8553087,-0.1151167,0.1457927,0.03991218,0.1300217,0.1556462
0.8997406,-0.1066251,0.1329761,-0.02305109,0.1468109,0.1142406
1.018812,-0.09257914,0.1425953,-0.14826,0.1882329,0.09752459
1.031208,-0.07459172,0.1497132,-0.2272029,0.2231667,0.07953085
0.9977991,-0.06735628,0.1421673,-0.2083691,0.228879,0.09041245
0.9905814,-0.07118713,0.1548599,-0.09234185,0.1534438,0.0926399
0.9379337,-0.0498592,0.1537643,0.04766301,0.09477223,0.07141635
0.9306772,-0.002372504,0.1516929,0.08319902,0.09115689,0.03355931
0.9526334,0.04755913,0.1468597,-0.03210754,0.1010576,-0.03741357
0.9575322,0.06067764,0.1322525,-0.2724326,0.07700579,-0.1095838
1.015917,0.01085377,0.1336167,-0.4945891,0.06890506,-0.1584064
1.090168,-0.06964133,0.1304854,-0.5454066,0.1293717,-0.1631365
1.117029,-0.111776,0.1306168,-0.3898736,0.1590946,-0.1518099
1.075919,-0.05398619,0.1361774,-0.1604755,0.09762159,-0.1954692
1.028937,0.1022132,0.1328062,-0.0565297,-0.03317913,-0.2734056
1.04174,0.2954789,0.1333394,-0.2574468,-0.09671762,-0.3096992
1.131691,0.354611,0.127472,-0.8143323,0.009478126,-0.2219827
1.337956,0.1141448,0.1142114,-1.341319,0.19663,0.01108325
1.457791,-0.2862352,0.09669031,-1.380267,0.3791125,0.222144
1.233544,-0.5598434,0.06588912,-0.8491085,0.4348699,0.2015008
0.8560357,-0.5912143,0.03385478,-0.1472126,0.289454,-0.004345675
0.7022424,-0.4511394,0.02479023,0.1304179,-0.001502248,-0.1785103
0.8280764,-0.1836408,0.03352007,-0.02884775,-0.2812504,-0.2204482
0.9939127,0.1375021,0.02602498,-0.4434359,-0.3024605,-0.1102146
1.092135,0.1319876,0.007791985,-1.095642,-0.2064669,0.1014311
1.154874,-0.1198827,-0.01804046,-1.489648,-0.1909165,0.2320217
1.068161,-0.1473951,-0.052862,-1.294438,-0.02221654,0.1651763
0.9345457,-0.1657005,-0.04579379,-1.060481,0.1056329,0.03515619
0.927457,-0.1976563,-0.01600942,-1.006433,-0.07247436,0.0434734
0.809206,-0.0868676,-0.004821377,-0.8964186,-0.1579734,0.1145525
0.6894948,-0.09749697,0.02053126,-0.9761316,-0.09985696,0.1674609
0.8327471,-0.08154703,0.03088714,-1.048883,-0.1114596,0.2177259
0.9480451,-0.05165901,0.0127574,-0.8802116,-0.09712194,0.1534657
0.9921387,-0.08151681,0.005102516,-0.807257,-0.07626988,0.1013949
1.050059,0.03717709,-0.02517266,-0.7295177,-0.04894708,0.1395316
1.003901,0.1046125,-0.06112052,-0.8311024,0.002434875,0.1496068
0.9893229,0.1193616,-0.07187676,-1.093642,0.02621444,0.1859571
1.014963,0.07850187,-0.08387892,-1.024634,0.06475202,0.1524788
1.014532,-0.0697773,-0.07560627,-0.8653639,0.1254433,0.04288262
1.055672,-0.1237702,-0.06922326,-0.6291141,0.1158503,-0.04964696
1.069672,-0.1405288,-0.09026873,-0.3788602,-0.131628,-0.1868206
1.077093,0.007955525,-0.08737251,-0.4625696,-0.4388014,-0.2131558
1.181316,0.2181891,-0.04231612,-0.7545015,-0.4200592,-0.04050924
1.361211,0.1386219,0.001172502,-1.117585,-0.2436434,0.1535005
1.450518,-0.08128275,-0.03700999,-1.112146,-0.1972088,0.1785784
1.323495,-0.3356311,-0.125836,-0.7298311,-0.1899176,0.0993026
1.14458,-0.4707312,-0.1637657,-0.515941,-0.1615878,0.09931978
1.008357,-0.4407468,-0.1509709,-0.5048145,-0.08366876,0.03799423
0.8757666,-0.4858781,-0.08879301,-0.7964863,-0.0289642,-0.1359419
0.8813436,-0.4958914,-0.03270891,-1.055491,-0.3010039,-0.3040453
1.04495,-0.4187096,-0.05819871,-0.7355889,-0.5560558,-0.3526724
1.208161,-0.3651649,-0.09074166,-0.2841559,-0.181417,-0.169377
1.242512,-0.2534742,-0.09073967,-0.09722103,0.3630859,0.006955891
1.128354,-0.1365354,-0.07935043,-0.1466678,0.578345,0.07659492
1.012309,-0.08716639,-0.04034717,-0.4108842,0.7703867,0.1283551
0.9116396,-0.05089184,0.006492336,-0.7770152,0.9642378,0.1060845
0.7873658,-0.06362448,0.04936278,-1.089756,0.9296515,0.1350392
0.7415884,-0.09247549,0.08117863,-1.106146,0.7270697,0.1984832
0.7474523,-0.1045939,0.07838898,-0.97461,0.3829531,0.2401194
0.7949707,-0.1385551,0.07239074,-0.9657673,0.07793072,0.2888352
0.8749364,-0.1339149,0.07982392,-0.8871707,0.08206792,0.2478042
0.8693461,-0.1314021,0.07838417,-0.7649022,0.1215531,0.2175471
0.8432518,-0.1383642,0.0878728,-0.6431853,-0.005669439,0.1882835
0.8333744,-0.08150009,0.1221424,-0.340511,-0.1192389,0.1312393
0.7970558,-0.04935283,0.1541837,-0.07806898,-0.3036992,0.1288902
0.8116073,-0.0606867,0.1542018,-0.05122428,-0.5008343,0.04818186
0.89232,-0.0709644,0.1235833,-0.1697901,-0.4718037,-0.02022231
1.053397,-0.1077203,0.06573511,-0.3513902,-0.3275148,0.03010567
1.275828,-0.2236606,-0.01927168,-0.4214563,-0.08808279,0.1106447
1.357453,-0.3437994,-0.02779775,-0.2728038,0.2228588,0.1727544
1.277548,-0.262631,0.05180071,0.08000503,0.416055,0.04183965
1.224019,-0.0533324,0.09286425,0.3696681,0.5637851,-0.235964
1.195276,0.07763686,0.116187,0.09620274,0.5975589,-0.2694254
1.218253,0.06617733,0.1110367,-0.466193,0.4463744,0.2079691
1.400329,-0.0457474,0.05989673,-0.6718861,0.4413089,0.7423288
1.501091,-0.2478223,0.05047223,-0.607631,0.6694842,0.5423321
1.21149,-0.6366172,0.04027365,-0.3437174,0.7385678,-0.1453462
0.7058996,-0.801567,0.02943395,-0.008664071,0.1614633,-0.580516
0.527585,-0.5196999,0.03392602,0.1556939,-0.555136,-0.5410249
0.8120008,-0.3797222,0.003448631,0.3607548,-0.4407098,-0.1285792
1.068325,-0.3832843,-0.01062926,0.4349543,-0.2140761,0.2719607
1.076134,-0.3504704,-0.001699588,0.4251354,-0.4162846,0.448075
1.01765,-0.4068035,0.003108484,0.5579548,-0.3181534,0.1638253
0.9188873,-0.3280179,-0.03335308,0.5235389,-0.286912,-0.4942576
0.7910578,-0.2133504,-0.09919076,0.4959728,-0.4851234,-0.6655726
0.7542391,-0.1415411,-0.1034586,0.3985525,-0.4614013,-0.4659964
0.8144567,-0.05037019,-0.09369428,0.2192037,-0.4692757,-0.2373509
0.9006049,-0.1303719,-0.08944877,0.3571185,-0.2050946,0.1425903
0.9866331,-0.1732488,-0.04829308,0.4503147,0.1621718,0.1308833
0.9707262,-0.1349038,-0.004473059,0.5030029,0.02862908,-0.04952059
0.8765724,-0.1408152,0.01638923,0.5741223,-0.03483079,0.01921197
0.8865078,-0.04339165,0.01540411,0.4607155,0.02524478,0.06227107
0.9239593,0.05818357,0.005830372,0.4043699,-0.07325294,0.1589602
0.9504551,0.0833427,-0.03407838,0.2932188,0.01139773,0.1596443
1.007122,0.05662144,-0.04573501,0.1826122,0.1926233,0.01723618
1.002666,0.007304203,0.0101317,0.233472,0.1978417,-0.08632206
1.009688,-0.02739034,0.03159494,0.2555848,0.007444966,-0.2181573
1.018796,-0.05355848,0.02532003,0.2550941,-0.2923753,-0.2538267
1.012422,0.06006038,0.02710737,0.1393537,-0.4866267,-0.1685189
1.120044,0.1675021,0.04987154,-0.1842053,-0.5304379,0.009104724
1.276075,0.03046619,0.06963873,-0.5332933,-0.5996895,0.181949
1.360317,-0.2218733,-0.009016203,-0.6163452,-0.6334943,0.1252199
1.287362,-0.4737742,-0.1122499,-0.4515117,-0.5532503,-0.003667957
1.18102,-0.6149002,-0.1360911,-0.3945008,-0.5003802,-0.1104868
1.182255,-0.5831165,-0.106915,-0.4274669,-0.4191542,-0.3736838
1.169781,-0.5252542,-0.08171978,-0.3578117,-0.2992117,-0.6288365
1.230483,-0.4565507,-0.07559657,-0.1547921,-0.1806079,-0.5642614
1.310647,-0.3010107,-0.06703498,0.1508663,0.0947612,-0.2363185
1.194703,-0.1403742,-0.07425248,0.2315158,0.4863399,0.09010871
1.058264,-0.0555939,-0.05825629,-0.1516107,0.6841802,0.1645149
0.9919625,-0.0647798,-0.01411194,-0.6327484,0.6389034,0.02742176
0.9257923,-0.147725,0.01128245,-0.7963545,0.6941681,-0.0186608
0.854082,-0.2068627,0.04284574,-0.7105907,0.7683454,-0.008939013
0.761074,-0.2071485,0.05967691,-0.5726877,0.6989192,0.02176848
0.6956762,-0.1718484,0.07717784,-0.4019536,0.5970744,0.1839549
0.6925595,-0.1410673,0.1006694,-0.2655778,0.2779484,0.23114
0.7397015,-0.148516,0.09194121,-0.2763778,0.01584756,0.1627341
0.7857603,-0.1489345,0.0826612,-0.2878512,-0.002566061,0.1769855
0.8132799,-0.1510225,0.0594098,-0.195396,-0.07959321,0.1708992
0.8383015,-0.1494639,0.05791101,-0.09769718,-0.09540618,0.1601012
0.8128094,-0.1059792,0.1107843,0.05524402,-0.1874979,0.1548337
0.7931275,-0.06006751,0.1423819,0.1667509,-0.3901136,0.09370442
0.8621165,-0.01288333,0.1296465,0.10767,-0.4557363,-0.02337346
0.9676178,0.02323101,0.08343682,-0.04513702,-0.4648925,-0.1909621
1.082218,-0.02749763,0.03148536,-0.3435717,-0.3164835,-0.2054047
1.243333,-0.1766614,0.001174078,-0.5379394,-0.06133136,0.004187471
1.384738,-0.2636041,0.02368678,-0.3338989,0.1381284,0.2251389
1.370895,-0.1707478,0.08658129,0.07480393,0.2864422,0.2434646
1.274223,-0.03582261,0.1051409,0.3924599,0.3446699,0.01716982
1.287756,0.009628731,0.09729196,0.2505172,0.3139154,-0.08937683
1.485959,-0.1068066,0.06823007,-0.06644286,0.2857269,0.2047152
1.700605,-0.3738074,-0.0173104,-0.009598477,0.6194296,0.4804618
1.58232,-0.5407893,-0.08917182,0.04583749,1.056459,0.2756223
1.136088,-0.478205,-0.06397632,0.16052,0.9007975,-0.1184594
0.6358883,-0.4193876,0.02581132,0.4134753,0.2849114,-0.3399821
0.4096487,-0.4567961,0.04714639,0.2941788,-0.364343,-0.4043915
0.7553578,-0.3810751,0.01518789,0.2003023,-0.5486951,-0.2743228
1.145919,-0.2926219,0.0008170638,0.1638604,-0.3281941,-0.1044764
1.133658,-0.3520717,-0.006760458,0.1304604,-0.3758311,0.00482876
1.081114,-0.384076,-0.01082195,0.5289243,-0.3917634,0.005179553
0.9775354,-0.3822201,-0.05317049,0.7703404,-0.2112681,-0.2438199
0.8449123,-0.3361215,-0.05974352,0.8261547,-0.2795009,-0.3729924
0.7941516,-0.1831606,-0.02783245,0.9097553,-0.3728809,-0.3102079
0.6982875,-0.09135483,-0.03996159,0.8336353,-0.4729462,-0.1500299
0.7579851,-0.06564876,-0.02115105,0.8886903,-0.5624293,0.1826219
0.8961384,-0.04454873,-0.0258564,0.775101,-0.2631811,0.239851
0.9877943,-0.03239086,-0.04745686,0.563816,0.1195882,0.1381587
1.026667,0.01276144,-0.01291747,0.4274079,0.2237462,0.1640991
0.9134564,0.04382606,0.0001496987,0.1163269,0.1161129,0.1314424
0.9204575,0.05807857,0.01361329,8.019335e-05,0.02602002,0.2093231
0.9896143,0.05426164,0.008348718,-0.01078656,0.09023076,0.3545092
1.00473,0.01587349,-0.02296546,0.007141236,0.1490734,0.39044
1.065997,-0.005107669,-0.02385377,0.144385,0.254985,0.3082787
1.038053,-0.04782829,-0.02051867,0.2993674,0.3052302,0.1534479
1.04236,-0.1154741,0.01864648,0.5463832,0.1062827,0.04641953
1.044919,-0.1299624,0.05557014,0.5218377,-0.1329222,-0.09257713
1.001497,-0.04487567,0.0482615,0.2825914,-0.4222342,-0.1334686
1.088817,0.06700141,0.07549408,0.00336398,-0.7119732,0.04155831
1.201476,0.02063283,0.1025826,-0.4263328,-0.8253394,0.1564063
1.315535,-0.1434417,0.0204712,-0.6131086,-0.827234,0.01781701
1.313531,-0.3350747,-0.1269805,-0.4984795,-0.7187963,-0.1691203
1.22955,-0.5293075,-0.2017435,-0.3956335,-0.4196501,-0.1623702
1.237971,-0.5523902,-0.2071729,-0.4747494,0.0742598,-0.2529238
1.113469,-0.5069052,-0.1566344,-0.4746899,0.2763675,-0.4454064
1.034611,-0.5182354,-0.05989946,-0.1404978,0.07488982,-0.3593933
1.137602,-0.4238118,-0.04590401,0.21072,0.1237979,-0.1523691
1.125858,-0.2896422,-0.06198385,0.3542004,0.2670746,-0.009157741
1.073456,-0.1896956,-0.03896533,0.1084023,0.3022696,0.005431298
1.032937,-0.1306788,-0.03925768,-0.2433831,0.5251331,-0.09520919
0.9873753,-0.1617924,-0.007273546,-0.3452501,0.7047002,-0.08629753
0.9474474,-0.1596039,0.03667495,-0.4654804,0.7945471,-0.046835
0.8227765,-0.1363406,0.05080448,-0.4535748,0.8184319,-0.007813862
0.7269945,-0.1438768,0.07603619,-0.357027,0.6476489,0.1109097
0.6895981,-0.1321406,0.08363218,-0.3462037,0.4542054,0.1347487
0.697187,-0.1362012,0.08804099,-0.2434234,0.1580003,0.1144283
0.7745438,-0.1249531,0.09333523,-0.2314916,-0.1728792,0.1314415
0.7935794,-0.09790169,0.09569191,-0.1780129,-0.2143849,0.1159651
0.7970918,-0.08396586,0.1124821,-0.04290624,-0.2038389,0.153618
0.8458954,-0.05708639,0.1047998,-0.01330387,-0.3470714,0.1853287
0.8903594,-0.03406106,0.1183312,0.03513123,-0.3404437,0.1019329
0.9448122,-0.009562008,0.1346981,-0.04882265,-0.2553994,-0.04127752
1.005216,-0.02251031,0.07881875,-0.2838545,-0.3051737,-0.2114473
1.101442,-0.1046444,0.0320182,-0.5598082,-0.1928204,-0.2751767
1.23204,-0.2143457,0.02949069,-0.6499674,-0.0482587,-0.05920688
1.34251,-0.2734784,0.05386321,-0.2146072,-0.04086431,0.2612324
1.393984,-0.2006852,0.07688866,0.3228785,0.1352149,0.3274153
1.440865,-0.1458714,0.05660422,0.4639319,0.2927653,0.2615953
1.647126,-0.2262263,0.03508564,0.2742206,0.4163249,0.3731941
1.759193,-0.3547372,0.01794603,0.01988964,0.9623026,0.4718802
1.27947,-0.5407028,0.02629008,-0.1271416,1.591299,0.2962103
0.5356145,-0.6334161,0.08514396,-0.1260205,1.3165,-0.1535207
0.3162361,-0.4986392,0.1146034,0.1515755,0.2229503,-0.5409287
0.4925341,-0.383984,0.08465851,0.4535711,-0.7771378,-0.4213787
0.5644492,-0.3713468,0.03106723,0.4775621,-1.16604,-0.1445084
0.8590627,-0.3421974,-0.02850883,0.3816212,-0.6096792,-0.05136431
1.34237,-0.3191818,-0.09463512,0.2687827,-0.03435755,0.1760236
1.256978,-0.3195251,-0.0940095,0.238258,-0.08663898,0.1993152
0.8988249,-0.3244449,-0.02839679,0.3295339,0.03656203,-0.1891376
0.8146691,-0.3018491,-0.03115326,0.47146,-0.1542205,-0.4567846
0.7301362,-0.2550586,-0.03222501,0.5805306,-0.5745853,-0.5399764
0.7663272,-0.1906049,-0.01605584,0.5634004,-0.5164665,-0.3174415
0.9454874,-0.07696615,-0.05880538,0.4777774,-0.438051,0.05143405
0.9954972,-0.03891606,-0.06152301,0.3038813,-0.08984374,0.1067125
1.047384,-0.08912589,-0.04962819,0.1789115,0.25913,0.1429796
0.9474345,-0.07108374,-0.01179574,0.2215181,0.2170266,0.1452585
0.8179375,-0.05808555,0.06254228,0.2178608,0.1549287,0.09389109
0.8866732,-0.07509178,0.04338904,0.1937869,-0.001120099,0.1940381
0.9022246,-0.04240275,0.01089357,0.2009746,0.001990785,0.2229821
0.9797124,-0.02836587,-0.007157346,0.2361066,0.08897551,0.2563233
1.021246,-0.04448252,-0.0317613,0.3786596,0.1487799,0.1829136
0.9564702,-0.08717081,0.02115641,0.5405918,0.2411153,-0.01182781
1.003845,-0.1411638,0.06568315,0.6463081,0.02730052,-0.0446987
0.9840168,-0.1000976,0.04591934,0.6095409,-0.2509868,-0.09918096
0.9838148,0.02475937,0.04313824,0.2884346,-0.5119702,-0.08804284
1.072734,0.1353289,0.07994957,-0.2805238,-0.7439638,0.02741295
1.206619,0.1081652,0.08431822,-0.6081856,-0.7856451,0.0447812
1.414722,-0.1212317,-0.001466314,-0.3715618,-0.7477967,0.003895771
1.429207,-0.4073858,-0.1183166,-0.03969368,-0.5314167,-0.1037733
1.33018,-0.5514595,-0.1692068,0.06012755,-0.2197507,-0.2109351
1.209753,-0.5109278,-0.1402471,-0.2083361,0.05238256,-0.3964938
0.9808156,-0.4628992,-0.08929886,-0.6176786,-0.03373263,-0.5842753
0.9382228,-0.4776612,-0.03117675,-0.3634416,-0.330572,-0.4885496
1.147086,-0.4346407,-0.02103277,0.09481478,-0.138103,-0.3125216
1.293607,-0.3847284,-0.06384653,0.1374159,0.1815149,-0.1292216
1.233279,-0.3033183,-0.04639382,0.1783729,0.5001944,0.02573216
1.099631,-0.1423659,-0.02540451,-0.06229549,0.7938424,-0.04204516
0.997208,-0.09175531,-0.01710105,-0.42923,0.7133877,-0.07830276
0.8957196,-0.1459028,0.02601057,-0.4079611,0.797031,-0.04524762
0.7941724,-0.1645818,0.04729695,-0.3786747,0.7871893,-0.03982367
0.6925051,-0.1320285,0.08878241,-0.317124,0.4567476,0.1206451
0.663373,-0.09852734,0.1083776,-0.2159511,0.2420445,0.2869651
0.7104197,-0.09724794,0.08915822,-0.1972972,-0.09426206,0.3174797
0.7430451,-0.08623966,0.109406,-0.1927653,-0.1755398,0.2696148
0.8095243,-0.09124867,0.1027558,-0.2697419,-0.07770171,0.196473
0.8734635,-0.09448134,0.1077469,-0.1703366,-0.2270127,0.2028695
0.880619,-0.06889346,0.1458899,-0.0006086659,-0.1892599,0.1686943
0.8836771,-0.06254667,0.1484282,0.06482307,-0.2248745,0.0617376
0.8796082,-0.03401662,0.1489424,0.05955388,-0.3571544,-0.05543159
0.9159066,-0.01049294,0.1276739,-0.1551965,-0.3573803,-0.239728
1.021754,-0.04290927,0.0786198,-0.3474199,-0.354767,-0.2610213
1.192647,-0.137189,0.04044201,-0.4275648,-0.05539144,-0.01142498
1.371794,-0.2497673,0.05638039,-0.1994263,0.2416033,0.1646841
1.380605,-0.235745,0.1125828,0.3257845,0.2767094,0.04440309
1.278179,-0.1553113,0.1068964,0.4685624,0.3427418,-0.01118383
1.308404,-0.1499122,0.06298352,0.25038,0.3554406,0.3912564
1.58769,-0.2220306,-0.004980966,-0.01214432,0.4837198,0.7767423
1.786531,-0.3833814,-0.06487317,-0.126012,1.182038,0.6084431
1.279893,-0.5916661,-0.02165903,-0.006239106,1.800554,0.05320996
0.5671451,-0.7041667,0.03159044,0.1490915,0.9113243,-0.486852
0.6023903,-0.5625588,0.04807972,0.3859,-0.588252,-0.5467507
0.8493551,-0.2817728,0.0178215,0.4330748,-0.7735352,-0.2207772
0.8771086,-0.1789891,-0.07012384,0.1494122,-0.4497463,0.01430556
1.099524,-0.2344352,-0.07863845,0.0094105,-0.4402254,0.3022961
1.183323,-0.3056406,-0.05626395,0.1275508,-0.2366835,0.4756873
1.018867,-0.3688287,-0.0746823,0.2862829,-0.0805543,0.08433234
0.9676223,-0.3443441,-0.05819719,0.3970931,-0.09612649,-0.3619035
0.8653472,-0.2660595,-0.04975044,0.5571601,-0.1103073,-0.4422709
0.7893881,-0.1791845,-0.04499346,0.5728859,-0.1655155,-0.2892593
0.8263963,-0.08182416,-0.02284382,0.4421177,-0.2097843,-0.03404984
0.8440402,-0.04472364,-0.0288488,0.505041,-0.1915624,0.09391846
0.9365852,-0.02929128,-0.02788571,0.4217304,-0.0494443,0.1587333
0.9728351,-0.01849686,-0.007147452,0.2322495,0.09892917,0.1963426
0.9138161,-0.03889729,0.01539852,0.2212473,0.1672606,0.1399307
0.8828494,-0.03602319,0.0265051,0.1212561,0.1639881,0.1365757
0.8325381,-0.02737915,0.01521737,0.1243789,0.0663422,0.1298609
0.8337057,-0.02892012,-0.002244383,0.2133368,-0.0354526,0.1642676
0.9163321,-0.04101075,-0.0241001,0.2906309,-0.09348831,0.2213758
1.035345,-0.09212868,-0.02489957,0.5446257,-0.003095731,0.1221322
1.114594,-0.1239699,-0.01034747,0.6658896,0.1034364,-0.06408835
1.079641,-0.06075121,-0.006970379,0.6037928,0.03530994,-0.3002731
1.059921,0.09064685,0.02922787,0.3410835,-0.0748479,-0.3739582
1.101677,0.1900723,0.08772833,-0.1731051,-0.3389452,-0.1645466
1.180915,0.07365706,0.1003998,-0.3800828,-0.6859584,0.04973977
1.29138,-0.1762671,0.01286029,-0.2066661,-0.7888314,0.1357791
1.281821,-0.3462555,-0.1462346,-0.1534444,-0.7355126,0.1130481
1.207124,-0.3905447,-0.2094884,-0.3155634,-0.6235257,0.05740745
1.221872,-0.4236291,-0.1558599,-0.5539499,-0.2799507,-0.08767771
1.217231,-0.5496126,-0.1134616,-0.8220733,0.2308162,-0.417942
1.197531,-0.6790755,-0.06076988,-0.7556598,0.3796834,-0.68147
1.204096,-0.6530892,-0.006060831,-0.1636882,0.2015677,-0.6558449
1.121255,-0.4902031,-0.02346727,0.4367788,0.1961977,-0.4277463
1.032344,-0.2982818,-0.03848961,0.6510052,0.1627935,-0.2225893
1.030612,-0.1895144,-0.02359576,0.3728067,0.1206842,-0.1513645
1.042905,-0.1509349,-0.02608447,-0.04659458,0.3683015,-0.1459515
1.0158,-0.1165892,-0.008448939,-0.2972477,0.6601746,-0.1693678
0.9204667,-0.142131,0.02144967,-0.5527469,0.860406,-0.1709069
0.7770661,-0.1381718,0.05410385,-0.5415447,0.828173,-0.06834571
0.6621827,-0.08931696,0.1080307,-0.458114,0.531266,0.1095599
0.6691034,-0.1123323,0.1220766,-0.5536151,0.214517,0.2219245
0.7406184,-0.11133,0.1106655,-0.4574278,-0.0717925,0.211689
0.7889289,-0.1079136,0.1202059,-0.4280827,-0.138855,0.1845435
0.8319673,-0.1205516,0.1180771,-0.3936897,-0.09716041,0.1758475
0.824214,-0.0785668,0.1110891,-0.2318552,-0.1701192,0.1856198
0.8307884,-0.06025155,0.1150003,-0.1966855,-0.1908812,0.2028054
0.8730077,-0.01990756,0.1380136,-0.1244455,-0.3327929,0.1396303
0.8885336,0.02993845,0.1528751,-0.1631859,-0.5134083,-0.009146696
0.9578427,-0.01119516,0.09097556,-0.3541726,-0.4656231,-0.1802305
1.060838,-0.1321263,0.02420561,-0.6726942,-0.3597077,-0.1726778
1.233767,-0.3107829,0.05167037,-0.8658376,-0.193013,0.1428119
1.405699,-0.369143,0.08882963,-0.2747682,-0.0016513,0.3912193
1.371333,-0.2251077,0.06955941,0.6148733,0.2121188,0.2265941
1.347997,-0.08755956,0.03166073,0.8842534,0.4315966,-0.02994225
1.460793,-0.07791124,-0.01563069,0.2808542,0.3565179,0.02512613
1.590329,-0.147242,-0.01629516,-0.3777239,0.3639945,0.3052076
1.700844,-0.2800332,0.006389057,-0.2546139,0.9970634,0.5202072
1.516353,-0.4281799,-0.02157632,-0.1415941,1.476245,0.2870297
0.8528029,-0.467103,0.01596069,-0.007419333,0.7597651,-0.2651454
0.2471386,-0.4848864,0.07131839,0.596854,-0.4729973,-0.4560934
0.4524722,-0.4963068,0.02781458,0.5925463,-0.8398399,-0.3734717
1.057582,-0.3346176,-0.006346982,0.2175116,-0.4101075,-0.2474753
1.200313,-0.2143439,-0.03143777,0.2225797,-0.1211926,0.05702903
1.150144,-0.278753,-0.03886398,0.2013642,-0.2002001,0.1987365
1.075409,-0.3180403,-0.01486229,0.3835862,-0.2120189,-0.01741715
0.8860897,-0.319542,-0.04429104,0.7062006,-0.1583011,-0.3285182
0.8378288,-0.3072198,-0.05366345,0.745723,-0.3282344,-0.3882185
0.7895737,-0.2083227,-0.03597811,0.7291231,-0.4919648,-0.2106253
0.8006763,-0.07161116,-0.03731617,0.6134752,-0.5183438,-0.05182638
0.8878749,-0.02079614,-0.01972151,0.4332701,-0.3821877,0.132465
0.9417226,-0.0585855,-0.02719434,0.3290334,-0.03274581,0.1622562
1.042849,-0.06195852,-0.03429047,0.2800089,0.1629884,0.03546879
0.9550797,-0.05496762,-0.001803371,0.3108814,0.1408437,0.01011932
0.9055037,-0.06687913,0.01981817,0.2588781,0.05052819,0.01937591
0.9304371,-0.0385156,0.02241422,0.2295409,-0.0345142,0.1327755
0.8685128,-0.02568017,0.0101956,0.2793961,0.03061863,0.2798162
0.9700655,-0.02593538,-0.007744869,0.3215434,0.08533484,0.298267
0.9630301,-0.01438606,-0.02353211,0.500576,0.1167783,0.198345
0.9444306,-0.02830272,-0.01810795,0.7008699,0.1350304,0.02916323
1.010583,-0.0327539,0.01122018,0.7519186,-0.01000856,-0.06732981
0.9366534,0.01662658,0.03196076,0.4834474,-0.1766205,-0.1511768
0.9720303,0.1639683,0.07455697,-0.1028954,-0.3692413,-0.1594335
1.038675,0.276855,0.1268635,-0.60802,-0.7012498,-0.04174287
1.201819,0.07719589,0.1292889,-0.7718907,-0.9515973,-0.01060668
1.417989,-0.3055835,0.02490369,-0.5600814,-0.8381097,-0.04797426
1.339803,-0.5288745,-0.1609672,-0.2733962,-0.6090351,-0.1198988
1.241443,-0.592328,-0.1961001,-0.1653003,-0.473372,-0.2819932
1.195864,-0.5778326,-0.1171118,-0.1818463,-0.2255478,-0.6128073
1.151794,-0.5039032,-0.1159043,-0.2131789,-0.1742062,-0.8510861
1.236824,-0.4277257,-0.06200206,0.0270566,-0.1889514,-0.5563074
1.282992,-0.3181176,-0.01333255,0.2971563,0.1818783,-0.1481307
1.199496,-0.1962524,-0.05586959,0.1917458,0.4441174,-0.02420627
1.078119,-0.1058003,-0.03163717,-0.07976866,0.5636426,0.02037647
0.9911981,-0.06208565,-0.001476157,-0.4549641,0.7104417,-0.00663549
0.9193363,-0.1159346,0.0131321,-0.7688872,0.7245536,0.003198995
0.8338881,-0.149059,0.06178248,-0.7839221,0.8004371,0.09881805
0.7494036,-0.1323601,0.0759344,-0.7173943,0.7219454,0.1532279
0.7011295,-0.1491775,0.09364992,-0.6505531,0.4181259,0.2393311
0.7310713,-0.150484,0.1040475,-0.5624872,0.1138773,0.2611293
0.7802469,-0.1685568,0.0825839,-0.4809613,-0.1374616,0.2014049
0.8357995,-0.1805848,0.08384261,-0.3834767,-0.08411515,0.1832396
0.8699286,-0.1442721,0.0959841,-0.2808869,-0.03431228,0.1624015
0.8405882,-0.1208789,0.1166334,-0.1239098,-0.188462,0.1736228
0.8460233,-0.1012579,0.134776,0.02656825,-0.2541502,0.1617142
0.8672086,-0.08931851,0.1417161,0.05137577,-0.3505463,0.05917764
0.8683735,-0.02620738,0.1542916,-0.108649,-0.403105,-0.07849946
0.9034771,0.0645309,0.1288225,-0.4314152,-0.394677,-0.1923341
0.9668376,0.007928608,0.06506022,-0.6987051,-0.3922845,-0.1063448
1.124168,-0.1452089,0.02677812,-0.6937446,-0.1413596,0.1881827
1.360843,-0.2974738,0.03264858,-0.2398257,0.2026106,0.4019123
1.450923,-0.3688164,0.06952371,0.4225082,0.3864852,0.2238094
1.327645,-0.2382288,0.1001251,0.5983269,0.3797129,-0.008474189
1.260509,-0.1197083,0.07182644,0.3628968,0.3389142,0.2812865
1.407122,-0.2059615,-0.001577434,0.2423354,0.5433017,0.558997
1.474407,-0.3584687,-0.05077873,0.1659052,0.9788169,0.3755423
1.205166,-0.5142773,-0.03209876,0.2127068,1.234703,-0.02315736
0.7663602,-0.5401062,0.03293453,0.4658857,0.5386717,-0.4560604
0.5559242,-0.3674784,0.06065072,0.5090981,-0.5588104,-0.3387445
0.7772792,-0.2358885,0.008498182,0.2828679,-0.6203297,0.008754844
1.073107,-0.1970147,-0.06573073,0.01649918,-0.28658,-0.01666503
1.139492,-0.2634046,-0.0854937,-0.01643506,-0.3126819,0.2272319
1.123746,-0.4017309,-0.06664585,0.2646425,-0.1436327,0.3324717
1.034306,-0.3958435,-0.07230925,0.4652203,-0.02693401,-0.1102154
0.8882214,-0.3366323,-0.06828418,0.5515717,-0.1332536,-0.3415176
0.803234,-0.2573433,-0.03669145,0.5754321,-0.214471,-0.390199
0.7578869,-0.1095214,-0.02410004,0.5131646,-0.4226959,-0.2083257
0.8082014,-0.05451778,-0.02515074,0.5299233,-0.5209144,0.1246997
0.9041955,-0.03860378,-0.03558754,0.4346789,-0.3281398,0.2014707
0.9691755,-0.01715483,-0.03994218,0.3052673,-0.07553069,0.2453721
1.010289,-0.01612166,-0.02961277,0.2270202,0.1409498,0.1779671
0.9567655,0.004603788,-0.01978177,0.03665593,0.2082036,0.124227
0.9048815,-0.002292548,0.001773392,-0.02231798,0.08663821,0.2020808
0.8947999,-9.631798e-05,0.008380918,-0.003513613,0.009128647,0.1614432
0.9049266,0.00295503,-0.008259188,0.01154092,0.0887151,0.1794013
0.9760238,-0.02092458,-0.01878066,0.1417062,0.1434788,0.1031999
0.9931375,-0.02695533,-0.01748513,0.2912251,0.1489405,-0.0676338
1.000782,-0.05125385,-0.0009251204,0.4161083,0.1656395,-0.1131083
1.024138,-0.0357527,0.02407803,0.3434279,0.05105464,-0.1658697
0.997448,0.08813228,0.05614611,-0.005417206,-0.1892465,-0.09701871
1.057074,0.1904714,0.0867875,-0.5144148,-0.4318109,0.09024186
1.187529,0.07144767,0.09823254,-0.8067963,-0.5588476,0.2683253
1.281632,-0.2489971,0.03326405,-0.5187337,-0.5022124,0.256462
1.26464,-0.5381861,-0.1105237,-0.07492211,-0.4408567,-0.09939582
1.165999,-0.6392585,-0.1786176,0.1630282,-0.3784149,-0.4775179
1.11237,-0.5211407,-0.1540939,0.04819831,-0.2554378,-0.6695679
1.038243,-0.3895588,-0.104564,-0.3354048,-0.354985,-0.6752333
1.068628,-0.3719014,-0.03233364,-0.3130529,-0.4993916,-0.5698083
1.247553,-0.3248929,-0.04577449,-0.06343749,-0.243594,-0.4071482
1.305901,-0.2858906,-0.09956086,0.005932488,0.2080876,-0.207539
1.259115,-0.204334,-0.08083857,-0.003419469,0.6304266,-0.1774092
1.124819,-0.06496912,-0.04956184,-0.2700264,0.8518922,-0.1758047
0.9629674,-0.07164445,0.01551126,-0.5558941,0.7410615,-0.06325479
0.9093681,-0.1104605,0.07102588,-0.7282332,0.7201811,-0.002551305
0.859918,-0.1322772,0.06840273,-0.7998897,0.7788822,0.06420048
0.8064403,-0.1717891,0.09416492,-0.6421413,0.652548,0.1476439
0.7565491,-0.1421687,0.1071331,-0.6029711,0.4983701,0.2144259
0.7532768,-0.141369,0.1045066,-0.5314445,0.2165843,0.2651357
0.8106962,-0.1506576,0.1100347,-0.4347341,-0.02409052,0.2485343
0.8177977,-0.1370124,0.09367115,-0.511913,-0.02513521,0.2195227
0.8481077,-0.1442004,0.1111606,-0.3706586,-0.08662757,0.2074423
0.8628561,-0.1202777,0.1291339,-0.2045424,-0.1628384,0.2186965
0.8433876,-0.09351568,0.1295925,-0.09465748,-0.246905,0.2281846
0.8664739,-0.02990791,0.1537564,0.008750437,-0.3932866,0.1773715
0.8726053,0.05772997,0.1641408,-0.1171526,-0.4183348,0.05973675
0.9037546,0.05254896,0.1544024,-0.3001104,-0.4541376,-0.1158565
0.9393761,0.007084841,0.102224,-0.5422121,-0.4930041,-0.1983677
1.019294,-0.04190418,0.02767777,-0.6628418,-0.3110835,-0.03030418
1.20565,-0.1668536,0.009145755,-0.496554,0.006678623,0.2363704
1.316294,-0.2708641,0.03426138,-0.1500737,0.2615156,0.3056173
1.306392,-0.2160052,0.04414957,0.279012,0.3106727,0.1492302
1.287533,-0.1689147,0.01277863,0.2189606,0.1634866,0.07362151
1.368001,-0.2156395,-0.006088754,0.01257293,0.1531182,0.2956607
1.520163,-0.2798515,0.001437387,0.2315145,0.6622697,0.4836799
1.517788,-0.4826741,0.0005449544,0.2549311,1.234658,0.228499
1.128476,-0.6483938,0.01615228,0.2621406,1.019667,-0.2089727
0.5460826,-0.5040606,0.0431428,0.4052555,0.2507014,-0.4666054
0.4503631,-0.3281739,0.05100176,0.2061458,-0.433796,-0.4957499
0.7672093,-0.2607746,0.01575581,0.0732379,-0.7655883,-0.2974261
0.9308822,-0.1707345,-0.03459489,0.03926079,-0.6471372,-0.02158189
1.073567,-0.2316665,-0.05009614,0.1276977,-0.4633573,0.2294162
1.179005,-0.4191421,-0.07572082,0.5141389,-0.22791,0.2550347
1.116919,-0.451062,-0.1073581,0.6001096,0.1184559,-0.08233946
1.030097,-0.3583353,-0.0791918,0.5701764,0.04691149,-0.380619
0.8408172,-0.1976903,-0.02171534,0.5904542,-0.1603878,-0.4149949
0.7478837,-0.05036189,0.004548488,0.4332869,-0.2903537,-0.2057445
0.9857174,-0.02984482,-0.02093756,-0.3069402,0.1806385,0.1067367
0.9861851,-0.06016117,-0.01317403,-0.2368453,0.2862904,0.007196548
0.971391,-0.1325933,0.01270359,-0.1014354,0.2051676,-0.1004822
0.9823186,-0.1427881,0.02199019,0.1056611,0.05948064,-0.1718619
0.9919112,-0.04462576,0.0289782,0.1588147,-0.1606499,-0.1950914
1.034032,0.1254234,0.04554017,-0.01656113,-0.422995,-0.1733258
1.10756,0.1978572,0.07460296,-0.3194179,-0.4081904,-0.06096372
1.165147,0.1247677,0.07587403,-0.5447596,-0.4675179,0.1012642
1.267582,-0.01567138,0.04576021,-0.5155195,-0.5161291,0.1428194
1.308621,-0.2078027,-0.007218254,-0.4617245,-0.5082116,-0.02494916
1.245264,-0.341456,-0.1118796,-0.5487655,-0.5762993,-0.194025
1.216115,-0.3835357,-0.156157,-0.7011715,-0.2483216,-0.2178491
1.161098,-0.4558937,-0.1251828,-0.8899293,0.1349663,-0.3115662
1.054229,-0.5199753,-0.1081949,-0.8616541,0.04142512,-0.4597717
1.032817,-0.5035326,-0.0378235,-0.5089096,-0.133513,-0.4205938
1.077919,-0.4675168,0.002029296,-0.1336655,-0.1210253,-0.2959005
1.117124,-0.3755149,-0.04867839,-0.008430345,-0.01348837,-0.1451659
1.155364,-0.2336194,-0.05791053,-0.2748666,0.2201114,0.03241988
1.148672,-0.1756893,-0.05879011,-0.6533219,0.5439823,0.02377147
1.100699,-0.1881536,-0.05336606,-0.8204764,0.7759673,-0.09093896
1.031232,-0.2138471,-0.008739014,-0.8312318,0.8880681,-0.1169924
0.8921312,-0.2262293,0.01813092,-0.657088,0.8380615,-0.06056149
0.7425482,-0.1970729,0.06029821,-0.4734278,0.6293786,0.08766062
0.659812,-0.160298,0.09400248,-0.4390916,0.3290631,0.1886953
0.648385,-0.1383742,0.09249285,-0.4324694,0.02380349,0.1677691
0.7207966,-0.1156253,0.09981164,-0.4783738,-0.02264214,0.1593324
0.8252124,-0.08889002,0.09245579,-0.5211531,-0.01837038,0.1664166
0.8942836,-0.10325,0.09217722,-0.5460506,-0.1526616,0.1465634
0.9145362,-0.1254859,0.1232076,-0.4038243,-0.1757915,0.09872036
0.9044112,-0.08985966,0.1441327,-0.09068106,-0.2093096,0.04519668
0.9095994,-0.04078822,0.1546021,-0.04064973,-0.2919738,0.003757583
0.940375,0.0154022,0.1449544,-0.1140623,-0.3741362,-0.03677704
1.021959,0.02866916,0.07415655,-0.2888288,-0.4535488,-0.06684636
1.195157,-0.07025478,-0.01335564,-0.733095,-0.2982159,-0.06461145
1.394013,-0.2065023,-0.01866063,-0.8652892,0.0103229,0.09428851
1.469533,-0.2763402,0.03319749,-0.5017339,0.3018514,0.267683
1.357311,-0.2031052,0.06456855,-0.03963231,0.4392104,0.1237807
1.249374,-0.1235743,0.0891204,0.2160605,0.3222513,0.01136573
1.306603,-0.1880047,0.07574766,0.1030366,0.3013623,0.3195653
1.40805,-0.2855916,-0.00245548,-0.1370532,0.5750547,0.6416702
1.417458,-0.4451894,-0.0463889,-0.1915694,0.9131534,0.6005984
1.147759,-0.625302,-0.01903165,0.01926413,0.9623591,0.2233836
0.7007063,-0.5895169,0.01045421,0.3696584,0.4327352,-0.2162632
0.6313115,-0.4110825,-0.005986056,0.5615196,-0.2541445,-0.281382
0.8380716,-0.2451679,-0.02871095,0.4561369,-0.3708082,-0.1299039
0.904849,-0.1953816,-0.03444892,0.1548119,-0.196079,-0.0923917
0.9920114,-0.2628884,-0.06760801,-0.03446374,-0.2564533,0.1144233
1.034334,-0.2810708,-0.0745818,0.06884339,-0.2619032,0.31661
0.933224,-0.3199531,-0.05733062,0.2009015,-0.166996,0.1146472
0.8894076,-0.3424982,-0.066105,0.278733,-0.2155457,-0.1519905
0.8330346,-0.2446642,-0.04266495,0.3750896,-0.2579492,-0.2933844
0.8076363,-0.1957721,-0.02449999,0.3840198,-0.3457812,-0.2928732
0.8691577,-0.1430246,-0.02988008,0.4318676,-0.4463781,-0.09172139
0.8923438,-0.09815124,-0.02549358,0.5150061,-0.3417289,0.07608245
0.9493483,-0.1290172,-0.03148969,0.4742025,-0.1862885,0.201199
0.9758045,-0.09414169,-0.01699213,0.4584517,-0.01439429,0.2427591
0.9183647,-0.07581897,0.006047428,0.4408108,0.1118844,0.1589669
0.9051546,-0.06690542,0.02067912,0.3017426,0.042137,0.1828043
0.9129934,-0.01599742,0.02558643,0.2007834,-0.01157709,0.1820536
0.9225552,-0.005238763,0.01804493,0.1957691,-0.01599921,0.1504853
0.9385643,0.005303724,0.02289911,0.2123614,0.001812623,0.1745343
0.9817929,-0.01277198,-0.001251213,0.2262224,0.1107291,0.03453255
1.050415,-0.01637009,-0.02693407,0.22854,0.1220202,-0.1554755
1.066214,0.01423892,-0.01308957,0.2047878,0.04598886,-0.2753425
1.08332,0.04342939,0.001543217,0.02863628,-0.007027924,-0.2997789
1.115651,0.1229621,0.05581985,-0.3672428,-0.130558,-0.1358493
1.177368,0.07770213,0.1110904,-0.7658621,-0.3752979,0.1307411
1.344246,-0.1781667,0.03783901,-0.8770028,-0.6247539,0.3159327
1.417945,-0.498653,-0.1074653,-0.6373708,-0.6414272,0.1773159
1.300779,-0.6547333,-0.1812888,-0.3208626,-0.5373948,-0.09019526
1.185662,-0.5529135,-0.1836728,-0.2140255,-0.3535876,-0.3411655
1.091937,-0.4954691,-0.1333116,-0.2858568,0.05822653,-0.7390294
1.036987,-0.4552622,-0.06106031,-0.3087925,0.157896,-0.8153922
1.099942,-0.2837541,-0.06863257,-0.1554777,-0.01538175,-0.5036505
1.13316,-0.1762578,-0.09353831,0.004916623,0.1642625,-0.1693459
1.085232,-0.08556481,-0.07244453,-0.02203273,0.3391989,0.2243723
1.069172,-0.06004688,-0.05431999,-0.2923389,0.4247693,0.2064681
1.064066,-0.1604593,-0.01239926,-0.7155545,0.6610408,-0.1082165
1.027836,-0.183758,0.009501961,-0.9278134,0.8533235,-0.1180232
0.915538,-0.1692566,0.01904271,-0.8740332,1.051617,-0.204145
0.7430519,-0.145839,0.0902418,-0.8647521,1.069072,-0.1860469
0.6917784,-0.1225811,0.1265437,-0.8709438,0.83626,0.09893186
0.7192387,-0.1441498,0.1189974,-0.7888301,0.5757484,0.1543556
0.6485747,-0.1343695,0.1412939,-0.6470693,0.205074,0.2372225
0.6358103,-0.1376757,0.141434,-0.5003505,-0.02348106,0.287814
0.7679558,-0.1405035,0.1131775,-0.5064215,0.004471633,0.2013452
0.8420508,-0.1295038,0.1077676,-0.4893128,-0.06196303,0.2297282
0.8255175,-0.1323999,0.1158571,-0.279067,-0.253937,0.1503219
0.8359165,-0.08288472,0.1313477,-0.1754606,-0.3542291,0.07473109
0.9020318,-0.02682784,0.1566209,-0.1789663,-0.3647841,-0.02593579
0.9531719,0.01609797,0.1486128,-0.250708,-0.3852147,-0.2112709
0.993906,0.03461511,0.0927896,-0.6014339,-0.2179255,-0.1523374
1.134934,-0.04496109,0.04231513,-0.8419115,0.06483431,0.08218075
1.341365,-0.2161923,0.04719598,-0.571292,0.1743089,0.331107
1.478168,-0.3469324,0.06617549,-0.05325689,0.1835004,0.3107215
1.442209,-0.2998284,0.04195339,0.3385098,0.184784,0.2328819
1.414612,-0.2738364,0.01870534,0.5128396,0.3704963,0.4602159
1.611716,-0.4000625,-0.002665714,0.5835311,0.8895862,0.4277471
1.651708,-0.4934682,-0.007899583,0.3128082,1.386422,-0.007418141
1.213929,-0.5197256,0.06632106,-0.1581589,1.155225,-0.4644168
0.6326655,-0.4447424,0.1127973,-0.09873885,0.2884359,-0.5337149
0.487184,-0.2930718,0.09257676,-0.03700313,-0.3167001,-0.2117113
0.7638259,-0.2500552,0.06732364,-0.3644017,-0.5507821,-0.0414627
0.8964534,-0.3004923,-0.003458737,-0.2549678,-0.5252467,0.2010455
0.9809941,-0.4049903,-0.05083589,-0.01460172,-0.3853235,0.3306618
1.072589,-0.5200401,-0.04300824,0.1361335,-0.3429808,-0.09291611
0.8835299,-0.4951076,-0.06287744,0.5552239,-0.164362,-0.4161886
0.7357458,-0.3610063,-0.06793218,0.6614202,-0.282083,-0.4931712
0.6986959,-0.2259879,-0.05039584,0.6519299,-0.5587121,-0.3696883
0.727123,-0.1333192,-0.04650344,0.7644402,-0.4848174,-0.03234762
0.8916704,-0.1133505,-0.03974531,0.6025179,-0.4574834,0.1604922
0.9470058,-0.1062784,-0.03810521,0.5082925,-0.2720972,0.2318877
0.9652035,-0.0770516,-0.0213733,0.4325991,-0.07646103,0.1539161
0.9573478,-0.06221184,0.008648547,0.3479031,-0.1473354,0.1298532
0.9119734,-0.02837155,0.01383121,0.3839432,-0.1461508,0.1987753
0.956032,0.02296538,0.005164137,0.2285672,-0.2038232,0.1492416
0.9703365,0.02884073,-0.006284165,0.1154658,-0.1433829,0.2578956
1.041011,-0.0008852227,-0.01166532,0.1373626,-0.003685907,0.2576256
1.100899,-0.04428532,0.01148889,0.2649233,-0.009781149,0.06848233
1.052861,-0.07274789,0.03804525,0.5297574,-0.009591303,-0.09237453
1.029636,-0.03094963,0.0194602,0.5504444,-0.1734148,-0.319859
0.9716677,0.1014794,0.001225129,0.2870599,-0.4054595,-0.2802339
1.048002,0.2173105,0.03166682,-0.2536618,-0.6238468,-0.1109756
1.275055,0.085728,0.03294695,-0.8051853,-0.7825261,0.03026493
1.369808,-0.2503492,-0.03594635,-0.7595563,-0.6855663,0.1903701
1.312139,-0.5199391,-0.1152995,-0.5066415,-0.5630119,-0.01740786
1.185569,-0.6415166,-0.1431546,-0.5394933,-0.4381271,-0.2600737
1.125897,-0.6233097,-0.1218118,-0.5391498,-0.2782407,-0.405686
1.116429,-0.5756907,-0.08817485,-0.4647395,-0.2660323,-0.7630607
1.155208,-0.5593251,-0.04539863,-0.3088817,-0.2690315,-0.8023585
1.268161,-0.444208,-0.05401388,0.1243662,-0.02366988,-0.4010451
1.247468,-0.3041389,-0.08978407,0.3539028,0.4337286,-0.1242707
1.140735,-0.2182781,-0.0508938,0.1807828,0.701274,-0.06851876
0.9984238,-0.1308488,-0.0151574,-0.00759583,0.6325666,-0.08740368
0.8521015,-0.08499776,0.005164827,-0.2575641,0.6008084,-0.09414955
0.8451804,-0.08244834,0.03752887,-0.4718691,0.7559575,-0.03947129
0.745539,-0.0899583,0.04742975,-0.521224,0.7920921,0.03333833
0.6033073,-0.07227606,0.09056256,-0.6147007,0.605469,0.2013184
0.6600245,-0.07490076,0.102971,-0.6473424,0.3104717,0.3801901
0.7177333,-0.130966,0.08564478,-0.5668643,0.01461018,0.3471754
0.7580273,-0.149014,0.1106194,-0.543282,-0.05605364,0.2229381
0.8324973,-0.1572813,0.09459175,-0.5163119,-0.0007463333,0.1175918
0.8238161,-0.1217023,0.09806754,-0.3660722,-0.04337573,0.09364487
0.812758,-0.04522617,0.1373658,-0.1755925,-0.1463032,0.1381288
0.8510952,-0.03871044,0.1420677,-0.1267126,-0.3048165,0.09082479
0.8765064,-0.03157124,0.1384756,-0.1389216,-0.4169457,0.02158526
0.9405573,-0.03513095,0.07384085,-0.1040983,-0.4111039,-0.09528735
1.055083,-0.083632,0.01428024,-0.235127,-0.3207494,-0.1560415
1.205869,-0.199209,0.02945245,-0.3423577,-0.1335656,0.0842446
1.412409,-0.3455024,0.03147946,0.0240015,0.10192,0.2394066
1.466599,-0.2656196,0.0344195,0.5314415,0.2832863,0.008714525
1.310262,-0.07393905,0.06020147,0.6092904,0.2720608,-0.1424945
1.295164,-0.02911631,0.07262474,0.2434407,0.239413,0.1965786
1.48357,-0.08006898,0.04840679,-0.2370732,0.5309326,0.6025829
1.570436,-0.2805921,0.008112064,-0.4208555,1.110611,0.4981462
1.289903,-0.5887951,0.01564738,-0.1461311,1.387838,-0.008593427
0.7279915,-0.7067045,0.06241688,0.2968472,0.5556154,-0.4267541
0.4891691,-0.5384888,0.07177684,0.5514769,-0.7096161,-0.3011841
0.7794034,-0.3399742,0.01132102,0.4702201,-0.8394034,-0.02099133
1.082435,-0.3090478,-0.05762708,0.1977453,-0.2839739,-0.0547366
1.123834,-0.3258675,-0.07037761,0.1780468,-0.1688161,0.1191897
1.014464,-0.3485082,-0.04801333,0.363444,-0.3072683,0.2305902
0.8952803,-0.3781065,-0.05220751,0.4432419,-0.3785895,-0.09215992
0.8443154,-0.3182409,-0.06658331,0.5075376,-0.2863008,-0.2594879
0.8089631,-0.2394472,-0.05443731,0.4643186,-0.2315156,-0.3280111
0.7656307,-0.1788894,-0.04409722,0.444788,-0.3768761,-0.2530276
0.7958174,-0.1345824,-0.02272104,0.5412426,-0.3965427,-0.01312765
0.870654,-0.1192953,-0.01386724,0.5053594,-0.2768862,0.01109055
0.9018408,-0.07165149,-0.0252385,0.5175349,-0.09789353,0.06015567
0.9076733,-0.03391502,-0.005942035,0.4737239,0.007656864,0.05866727
0.8995674,0.0004105947,-0.006044086,0.3320901,-0.08992871,0.03706484
0.9381479,0.05300767,-0.01461181,0.2704363,-0.07350417,0.1986539
1.040396,0.07337509,-0.020205,0.1482003,0.08129256,0.2485322
1.078062,0.06871649,-0.04888321,0.1479309,0.2488693,0.2650456
1.034322,0.01825671,-0.03198813,0.2164145,0.3347499,0.1828962
0.9773608,-0.05202767,-0.005590823,0.2701192,0.1857474,0.03656385
0.9774034,-0.08277013,-0.004746045,0.4068698,-0.08326361,0.03505689
0.999623,-0.01947787,0.01135135,0.3279363,-0.4034588,-0.04698189
1.029958,0.09032369,0.0260271,0.01081275,-0.6244647,-0.03407021
1.20345,0.06078723,0.03460056,-0.3367259,-0.7752584,0.1068827
1.391661,-0.1146014,-0.01813569,-0.4243088,-0.9115301,0.1368151
1.413035,-0.343653,-0.1283903,-0.2926187,-0.7430926,0.1119952
1.335879,-0.4690821,-0.1665118,-0.3756427,-0.5451622,0.04849218
1.227548,-0.4301879,-0.1369489,-0.5471181,-0.2827212,0.03284427
1.089144,-0.4626489,-0.09819376,-0.8150101,0.204687,-0.06559394
1.006597,-0.5370267,-0.04248298,-1.039079,0.1537797,-0.2772776
1.137535,-0.5421786,-0.01850924,-0.565616,-0.04194877,-0.2583918
1.250989,-0.5306664,-0.0374609,0.132933,0.2282009,-0.07739662
1.110994,-0.372615,-0.03512914,0.2808986,0.3344112,0.01851639
1.001779,-0.1664211,-0.02832202,0.07939105,0.4473551,-0.02783839
0.9995278,-0.1415466,-0.0303839,-0.1601248,0.671239,-0.1154267
0.9200769,-0.1842317,0.005737344,-0.3439475,0.6903144,-0.1316581
0.7939232,-0.1590406,0.04549647,-0.4591,0.819058,-0.1709984
0.7336499,-0.1300473,0.04546313,-0.4700702,0.8237405,-0.1231956
0.7141414,-0.14217,0.0529025,-0.4146944,0.6203249,0.06584909
0.6022222,-0.1144293,0.1015928,-0.3963349,0.4934206,0.159016
0.539095,-0.09412686,0.1389251,-0.3067351,0.2655566,0.1875546
0.6681478,-0.1138049,0.1208254,-0.1744295,-0.001220379,0.1573884
0.7660787,-0.077361,0.1041218,-0.1205746,-0.318899,0.06595003
0.772788,-0.05461994,0.1163774,-0.09284177,-0.5078041,0.04413718
0.8284854,-0.04464648,0.1348405,0.00126899,-0.4303882,-0.05370532
0.9290644,-0.006695369,0.165737,0.1011441,-0.5093663,-0.2127265
1.007334,-0.01114724,0.1494726,-0.1009317,-0.4456427,-0.3410213
1.071505,-0.03027328,0.05990249,-0.529246,-0.09934227,-0.3604232
1.212874,-0.1013604,0.00470565,-0.6817334,0.1201425,0.0231179
1.416115,-0.2279542,0.05918849,-0.2262549,0.2480397,0.3785129
1.526542,-0.2456479,0.1435855,0.5493056,0.3462756,0.2077461
1.4487,-0.1397068,0.1346455,0.7581867,0.4994563,0.04694899
1.362334,-0.07123069,0.08638148,0.2994257,0.4423474,0.2024208
1.44699,-0.1322855,0.05065128,-0.08319091,0.3878927,0.4818647
1.451068,-0.3497025,0.001096309,-0.07410664,1.050354,0.664926
1.218923,-0.6800091,0.01846405,0.1534967,1.460531,0.1495725
0.8381952,-0.7987444,0.04930385,0.3629806,0.6101022,-0.6275982
0.5450081,-0.551241,0.02562683,0.5312302,-0.5402677,-0.4933749
0.7512613,-0.2931749,0.01390479,0.4324905,-0.6919408,-0.19859
1.071711,-0.2043109,-0.02874214,0.05396802,-0.2240317,-0.221313
1.045183,-0.2035728,-0.05180016,-0.0117146,-0.193824,0.2191536
1.00456,-0.2846666,-0.02998101,0.1214555,-0.2716227,0.3455577
0.9259107,-0.3500541,-0.06058975,0.2207892,-0.2278555,-0.06059305
0.8079675,-0.3410043,-0.07326614,0.4625128,-0.2801373,-0.2111213
0.8046589,-0.2842318,-0.05318194,0.6087299,-0.2862775,-0.3051201
0.7643402,-0.1788758,-0.04272148,0.6849546,-0.3760966,-0.145211
0.8237134,-0.1069306,-0.02788862,0.7518526,-0.347297,0.1253918
0.9102678,-0.07805212,-0.03102482,0.6747523,-0.1860668,0.1159136
0.899657,-0.03718455,-0.01998915,0.6210672,-0.05674115,0.1945774
0.9279888,-0.00815476,-0.0007048749,0.5372605,0.09491698,0.2207287
0.8967053,0.007745538,0.002447564,0.4057905,0.00928073,0.2203199
0.8948131,0.02316551,0.008819478,0.3531089,-0.03207893,0.3326728
0.9516992,0.03893602,0.004554466,0.33126,0.06572913,0.3371244
0.981794,0.01857582,0.009023741,0.3724548,0.05422492,0.2998042
1.051882,-0.05101298,0.02985352,0.4690025,0.1192816,0.1414279
1.061472,-0.1080166,0.04637814,0.5761742,0.04528126,-0.08147401
1.038592,-0.08489218,0.05052839,0.5684164,-0.2029337,-0.1874071
1.037659,0.08485212,0.05039456,0.2330836,-0.4246662,-0.169387
1.107217,0.2200136,0.07343269,-0.2489337,-0.6850931,-0.002177616
1.316198,0.02859714,0.06860584,-0.4220986,-0.7871307,0.1643097
1.420238,-0.3080541,-0.03269465,-0.3022232,-0.6937631,0.2027426
1.319642,-0.4548289,-0.1711974,-0.2949925,-0.5541189,0.01646104
1.182062,-0.4717624,-0.2037849,-0.4347235,-0.2985783,-0.2281286
1.098782,-0.5008495,-0.1310399,-0.6619328,-0.03258887,-0.3225427
1.040352,-0.5415016,-0.07661296,-0.8820006,-0.08155044,-0.4431927
1.083343,-0.5583461,-0.0364244,-0.5926396,-0.2347376,-0.3831408
1.259694,-0.4776178,-0.04479791,0.04755297,-0.09973123,-0.0644877
1.294372,-0.3371002,-0.1077363,0.2797082,0.09650114,0.09862183
1.202883,-0.2286604,-0.09019363,0.08989544,0.3882047,0.072131
1.096883,-0.1671938,-0.05396815,-0.198318,0.7705339,-0.02756676
0.9454801,-0.1579056,-0.02657876,-0.5018611,0.9155513,-0.1181583
0.8626143,-0.1510648,0.04080667,-0.6840281,1.044242,-0.1510635
0.7316821,-0.1469413,0.07043475,-0.6768827,1.022995,-0.126464
0.5814453,-0.1390683,0.1092674,-0.5980776,0.6987118,0.01745111
0.5589372,-0.1148937,0.1598049,-0.4742031,0.3008328,0.1446095
0.5541771,-0.1312059,0.179816,-0.2862358,-0.1035092,0.1704412
0.6325804,-0.1204415,0.1743702,-0.202455,-0.2514672,0.1368829
0.7687907,-0.09017513,0.1042583,-0.2222927,-0.4492849,0.1079669
0.8413541,-0.06107195,0.07848312,-0.1270946,-0.6131271,0.169191
0.8985569,-0.002334693,0.115358,-0.03820536,-0.3950256,0.1766944
0.9697656,-0.01475558,0.1439077,-0.09875879,-0.4472915,0.06460583
1.026226,-0.02913492,0.1586232,-0.1457896,-0.4496076,-0.1665543
1.042748,-0.02789218,0.07033061,-0.3040704,-0.2868834,-0.372241
1.150789,-0.1232176,-0.01635793,-0.6579932,-0.3302649,-0.1594991
1.292244,-0.2011011,0.01681974,-0.7033808,0.005911837,0.2755734
1.347213,-0.2112061,0.03477779,-0.2537901,0.2899439,0.4866974
1.461679,-0.2647541,-0.001162502,0.2029271,0.3366891,0.4494098
1.494945,-0.3790203,-0.0251498,0.366206,0.5151452,0.3995089
1.45985,-0.4378553,-0.04267485,0.5194885,0.6479475,0.5327672
1.553692,-0.4517819,-0.04708749,0.6926419,1.269691,0.4415104
1.426183,-0.5438266,-0.002531122,0.474978,1.813215,-0.2228153
0.9521816,-0.6028902,0.05738718,0.2861282,1.146389,-0.8635962
0.485968,-0.4819566,0.1068585,0.4325108,-0.02066622,-0.7593981
0.4214482,-0.2585623,0.09834298,0.3311169,-0.6493495,-0.3255589
0.8081362,-0.1331199,0.00323952,0.04530757,-0.6289974,-0.1781982
1.087997,-0.1722392,-0.06819167,-0.1324999,-0.3901246,0.1455896
1.126391,-0.2759591,-0.09967231,-0.06092741,-0.1266048,0.3382657
1.088489,-0.3959028,-0.09410398,0.2695503,0.05780567,-0.08005048
0.8966045,-0.4235578,-0.07214908,0.4459808,0.04560442,-0.3277771
0.7441587,-0.3206816,-0.08224441,0.6015138,-0.1210462,-0.4162695
0.6743363,-0.2109242,-0.03236237,0.8088066,-0.4684003,-0.3381648
0.7198903,-0.1119195,-0.003223032,0.8720101,-0.6742478,0.032647
0.8733186,-0.0497584,-0.02712844,0.8831562,-0.5917545,0.1242331
0.9294039,-0.02656258,-0.007164682,0.7335618,-0.3812291,0.1781199
1.00021,0.009296383,-0.01643143,0.5611374,-0.09748862,0.1637981
0.9554075,0.01586556,-0.01512199,0.4242828,0.005771536,0.08067808
0.8650646,0.01508591,0.00410211,0.2999957,-0.08871618,0.2424313
0.9457817,0.03021068,-0.007910609,0.366134,-0.1174915,0.2745118
0.9700725,0.01453396,-0.0221023,0.374112,0.03820821,0.304698
1.038063,-0.01776261,-0.04384824,0.4026867,0.2400221,0.217716
1.045701,-0.07364948,0.02379642,0.5904122,0.2897611,-0.03844634
0.9440597,-0.1258126,0.1019568,0.7022939,0.02794475,-0.03835431
0.9930447,-0.04182034,0.04657614,0.6906301,-0.44412,-0.07265847
1.015745,0.168572,0.01485994,0.327966,-0.6096441,-0.07596696
1.104754,0.2795202,0.06306563,-0.3342777,-0.609978,0.02154716
1.281295,0.1437318,0.1060195,-0.8480123,-0.7947981,0.01208065
1.340858,-0.07516599,0.09997185,-0.9433247,-0.8788076,-5.960553e-05
1.34092,-0.3078873,-0.05784854,-0.601407,-0.7580805,-0.09363995
1.269636,-0.6533805,-0.2466438,-0.3149246,-0.3972911,-0.2328471
1.233247,-0.7279948,-0.1819975,-0.3893942,-0.03973937,-0.5240844
1.193656,-0.507251,-0.0483582,-0.3560804,-0.1550722,-0.769387
1.16756,-0.4990083,-0.06543215,-0.01138919,-0.2827167,-0.4688594
1.255649,-0.3733634,-0.05650747,0.2151098,0.07537344,-0.07833558
1.21556,-0.1096874,-0.05755614,0.1559226,0.4532916,0.02453106
1.140127,-0.1225129,-0.06813002,-0.1571449,0.6428598,-0.005205745
1.062418,-0.08186295,0.004907535,-0.5785185,0.8332381,-0.1022006
0.897746,-0.09614671,0.02067879,-0.6514493,0.870523,-0.1198179
0.7962762,-0.1975984,0.05310241,-0.4831677,0.8221886,-0.09094999
0.6634457,-0.107936,0.1037412,-0.3712243,0.6833458,0.004094658
0.6392155,-0.1198515,0.08490347,-0.2128925,0.3027812,0.2040043
0.7362679,-0.1237394,0.09449187,-0.1580118,-0.005824761,0.2448946
0.7433302,-0.08007508,0.08147631,-0.2307238,-0.1194791,0.1672839
0.8161778,-0.1237329,0.07468774,-0.2194019,-0.1221332,0.1600572
0.8608394,-0.07426912,0.09763855,-0.1752956,-0.1352796,0.1764858
0.8468155,-0.06403447,0.09835684,-0.0987086,-0.2382128,0.1911095
0.8774891,-0.04226249,0.1307279,0.03859124,-0.2714093,0.1827494
0.8714892,0.02301324,0.1461486,0.02928254,-0.3214468,0.1050069
0.9349801,-0.01054088,0.1360644,-0.1308587,-0.40265,-0.05444525
1.021409,-0.04096546,0.07903854,-0.2886321,-0.4015788,-0.1590379
1.109656,-0.1309481,0.002816925,-0.4340385,-0.3071456,-0.06549776
1.312692,-0.2570459,0.03274326,-0.308476,-0.1189571,0.1483456
1.453989,-0.2881517,0.06436186,0.1553585,0.02072285,0.2714079
1.404093,-0.1779426,0.05725554,0.4692489,0.1462759,0.009724703
1.331898,-0.03383216,0.06071056,0.2926395,0.1691136,-0.2350531
1.448835,-0.1460451,-0.003758275,-0.1067494,0.1040923,0.2865989
1.698505,-0.4164741,-0.1191295,-0.2829172,0.4779836,0.8040791
1.832493,-0.6154831,-0.1751094,-0.3296336,1.327023,0.4348621
1.406849,-0.6790793,-0.1208086,-0.1370749,1.813804,-0.1617403
0.5647356,-0.6349412,-0.01715462,0.2719943,0.86823,-0.5059642
0.3625018,-0.5447887,0.05127826,0.3185581,-0.6249585,-0.4584448
0.7011113,-0.2755666,0.03416432,0.2398417,-0.7866706,-0.1064236
0.8853638,-0.1357776,-0.03658506,0.06696636,-0.5369194,-0.01804335
1.118533,-0.2976704,-0.06214022,-0.1266462,-0.6427152,0.1393779
1.191648,-0.3151342,-0.08914005,0.1550144,-0.2532835,0.2793001
1.027592,-0.3350618,-0.1366437,0.3401791,0.01139503,-0.1496576
0.9898502,-0.367239,-0.1194846,0.4072903,-0.03764657,-0.4123872
0.9059861,-0.186832,-0.08223668,0.5078326,-0.03222809,-0.3622427
0.8062051,-0.09548999,-0.05520399,0.4054582,-0.2116088,-0.176663
0.8315625,-0.0467019,-0.03439509,0.4110088,-0.1981594,0.2046374
0.851002,-0.008303322,-0.0282563,0.2576935,-0.06398625,0.2444997
0.8460261,-0.04494654,-0.005643141,0.08133702,-0.01155262,0.1662566
0.8337967,-0.01465281,-0.001005418,0.09494808,0.001668999,0.1420197
0.8359243,-0.004422731,-0.00978646,-0.007974803,-0.1397239,0.04586083
0.8915734,0.02734362,-0.005109417,0.02121034,-0.1047819,0.1420798
1.004691,0.03525756,-0.02213384,0.04223196,0.07390604,0.2120603
1.066699,-0.02723695,-0.04242226,0.06299385,0.302517,0.1974084
1.026597,-0.04381896,-0.03636791,0.2646824,0.4489338,0.15323
0.991157,-0.1111227,0.02126446,0.4289131,0.2252307,0.07315475
0.9653116,-0.1390194,0.08259684,0.5823333,-0.08088238,0.05482729
0.966131,-0.05677254,0.05758213,0.5196725,-0.4117011,-0.03104434
1.048764,0.08059372,0.03148693,0.1600431,-0.5196405,-0.05062195
1.163433,0.172321,0.05692547,-0.2638343,-0.4139032,0.01222102
1.260963,-0.04257571,0.03716779,-0.4004586,-0.5805526,-0.00897089
1.286658,-0.3565845,-0.03201958,-0.1457079,-0.566475,-0.1274308
1.218518,-0.4479737,-0.09996767,-0.09430845,-0.4592871,-0.352583
1.158542,-0.45359,-0.1333489,-0.243507,-0.4901225,-0.4951376
1.181697,-0.4855672,-0.1171165,-0.3336606,-0.2983717,-0.5062055
1.222742,-0.4840988,-0.0901256,-0.4009451,-0.2691336,-0.4314883
1.292389,-0.4433771,-0.06173788,-0.09924676,-0.1786526,-0.2294966
1.38857,-0.3807031,-0.07107856,0.2649184,0.3014908,-0.06225306
1.285499,-0.2446453,-0.1044648,0.150525,0.6706794,-0.06072471
1.05345,-0.1174166,-0.04859262,-0.1152579,0.8224877,-0.07523488
0.951518,-0.1044235,0.01520044,-0.3308345,0.7803448,0.01646277
0.8656951,-0.1268265,0.0261939,-0.5251464,0.809114,0.04633608
0.7670625,-0.1342839,0.05227533,-0.5149346,0.8950183,0.04188007
0.719965,-0.1184445,0.06654492,-0.4261134,0.7160693,0.1514649
0.6573016,-0.109882,0.08909753,-0.4106731,0.5138756,0.2165176
0.6606921,-0.1265272,0.1114904,-0.303145,0.2357959,0.2046349
0.7021845,-0.120309,0.1159662,-0.2200447,-0.02823943,0.1573722
0.7254494,-0.09707901,0.1305807,-0.2156519,-0.1451352,0.07923861
0.782328,-0.04928129,0.1353303,-0.1026475,-0.2957242,0.06286229
0.7997286,-0.01024423,0.1683956,0.03525331,-0.3694507,0.08390123
0.8268701,-0.01145526,0.1799094,0.1449647,-0.5864642,0.103672
0.9144023,-0.007128553,0.1349095,0.1289925,-0.7097855,0.05694936
1.009052,-0.04261821,0.07099528,-0.1420894,-0.5762039,-0.062792
1.153722,-0.162292,-0.0197342,-0.5517644,-0.5031502,-0.05965375
1.339616,-0.3406708,0.006521457,-0.6893883,-0.07768958,0.2303441
1.496609,-0.4512487,0.1072751,-0.05000092,0.3318347,0.4988496
1.471214,-0.3188161,0.1230095,0.6858804,0.5271745,0.1660235
1.244704,-0.1026318,0.136194,0.6014045,0.7253157,-0.2212856
1.143164,-0.06721638,0.1335444,0.3886873,0.2887866,0.03142914
1.338675,-0.1277959,0.1385237,0.3745798,0.05629825,0.2205292
1.509196,-0.2076253,0.1638852,-0.01010897,0.6356325,0.1187621
1.242652,-0.4268928,0.07116059,-0.1759665,0.8694163,-0.05957598
0.7959205,-0.6509388,-0.02655804,0.3396452,0.2796578,-0.3907245
0.69751,-0.5386004,-0.03354209,0.6404667,-0.4191941,-0.275806
0.8936756,-0.2675089,-0.06058102,0.3438027,-0.2638955,0.02430963
1.11276,-0.2324062,-0.1183213,0.02170581,0.02741056,-0.034259
1.116474,-0.2489339,-0.1188289,0.01046043,-0.1560322,0.1340362
0.9445603,-0.2518021,-0.05594867,0.1293906,-0.1203525,0.2281255
0.8583644,-0.340815,-0.0392714,0.2447896,-0.2310046,-0.04674935
0.8051226,-0.2974999,-0.0515211,0.397028,-0.3326194,-0.1774313
0.7784005,-0.2375744,-0.04427327,0.4707228,-0.2448419,-0.2061157
0.7771657,-0.2118329,-0.05046709,0.5531766,-0.4828552,-0.0779224
0.8051082,-0.129415,-0.04851642,0.6649514,-0.4558645,0.07909645
0.9333572,-0.1284269,-0.05578569,0.6256125,-0.2338656,0.06532303
0.9682396,-0.06398637,-0.04232928,0.5863476,-0.08458016,0.1024298
0.9580715,0.008647733,0.003656089,0.502656,0.1392259,0.09944986
0.9565308,-0.001956189,0.01991989,0.3392031,0.0653344,0.1444214
0.8949605,0.06289833,0.01971347,0.2747478,-0.009474347,0.2684377
0.9112358,0.07658204,-0.01534925,0.2268306,0.0111782,0.3076943
0.9466944,0.04871993,-0.04176811,0.2274374,-0.003952586,0.3036239
1.021323,0.009341041,-0.01214104,0.3097638,0.1596498,0.1347907
1.117252,-0.07699699,0.005337835,0.3730447,0.185784,-0.09658919
1.088897,-0.06921201,0.004507829,0.3505554,0.03820763,-0.2770609
1.053698,0.02115587,0.01242484,0.1283842,-0.1347812,-0.3667387
1.051302,0.15557,0.04225335,-0.2339332,-0.3755771,-0.1627117
1.127849,0.1880654,0.06170386,-0.4772369,-0.5985751,0.1646313
1.281659,-0.07504206,0.02287986,-0.4158519,-0.7074273,0.2797377
1.309164,-0.4447927,-0.07736738,-0.2166152,-0.6026144,0.06137114
1.190853,-0.5890877,-0.1859337,-0.173986,-0.553685,-0.2434556
1.085044,-0.5220927,-0.1805841,-0.3982005,-0.5232958,-0.4563064
1.129275,-0.5120518,-0.09475917,-0.6593249,-0.3693244,-0.700498
1.271601,-0.5235957,-0.05979896,-0.4378716,-0.3691008,-0.7112687
1.372405,-0.4516387,-0.07373334,0.07866847,-0.07999756,-0.3893275
1.332839,-0.3605666,-0.07969526,0.3167042,0.5192603,-0.1404956
1.12438,-0.1811439,-0.03843972,0.2280731,0.6999181,-0.08229525
0.9391508,-0.01917418,0.003705823,-0.1479038,0.6507846,-0.03964629
0.9003795,-0.0402163,0.01016696,-0.5116493,0.6997388,0.05243778
0.8866328,-0.1018468,0.0307127,-0.6347189,0.743344,0.05689574
0.7911314,-0.1037615,0.05888782,-0.660559,0.7440966,0.05118932
0.6991304,-0.09686858,0.07709603,-0.6197207,0.6264602,0.2071309
0.7038504,-0.1065641,0.09365537,-0.6202772,0.3635329,0.3137069
0.710115,-0.1304193,0.09958333,-0.5796532,0.1427573,0.3068129
0.7211441,-0.1575728,0.1009186,-0.4998147,0.05540244,0.2656284
0.7597905,-0.1432619,0.1038448,-0.4692441,-0.0933898,0.1955573
0.7742948,-0.1053386,0.108648,-0.316404,-0.2633255,0.225638
0.828046,-0.07496385,0.1191316,-0.2541821,-0.3199598,0.2304187
0.8840013,-0.004465062,0.1371819,-0.2909528,-0.372568,0.1239581
0.8947268,0.0179984,0.1320794,-0.2980183,-0.417009,0.004673816
0.9257943,-0.04712136,0.05767045,-0.4540527,-0.4475337,-0.1535321
1.020118,-0.1044736,-0.03244327,-0.6403665,-0.4373087,-0.1531837
1.127939,-0.1682622,-0.03892207,-0.6803954,-0.2319736,0.09880047
1.195901,-0.1869584,0.005150169,-0.3582821,0.091543,0.2927123
1.297276,-0.1735295,0.04084898,0.2457233,0.2408357,0.1896974
1.308273,-0.2055399,0.07256,0.5677869,0.1747786,0.1067831
1.303879,-0.2326507,0.01038457,0.4159278,0.2224282,0.4655484
1.642497,-0.3568051,-0.1014099,0.1835388,0.6072089,0.81796
1.878454,-0.52184,-0.07549873,0.1761844,1.257672,0.6399783
1.410721,-0.5549247,-0.01485047,0.2010407,1.527334,-0.04458502
0.6856972,-0.5900284,0.03174932,0.3562824,0.6076524,-0.7551445
0.4732061,-0.4921426,0.1147211,0.560768,-0.7064664,-0.651978
0.7257711,-0.1969301,0.04169956,0.3276434,-0.9651152,-0.1390656
0.9654627,-0.1251402,-0.08892163,0.03773044,-0.4457945,0.06497814
1.147967,-0.2335081,-0.07927437,-0.02325827,-0.1094414,0.3324561
1.176735,-0.3210445,-0.06674048,0.04099084,-0.07750445,0.3040049
1.006951,-0.4675349,-0.06369287,0.3345898,-0.1335448,-0.2043557
0.9151145,-0.4525087,-0.05030101,0.632599,-0.2607743,-0.5368102
0.8095307,-0.2434523,-0.06428551,0.7352676,-0.4433759,-0.6392381
0.7565687,-0.1017107,-0.05393504,0.6296917,-0.4665602,-0.339193
0.8908183,-0.01745288,-0.05223761,0.4519176,-0.2745351,0.04648462
0.9309888,0.02316278,-0.05156406,0.218826,-0.03926124,0.07130942
0.9416042,0.02408129,-0.0311301,-0.03705424,0.1215252,0.1721855
0.9543663,0.003355751,-0.02126854,0.005675525,0.157767,0.1933658
0.8778147,-0.05862663,0.006606741,0.04939719,0.1013889,0.174318
0.8611909,-0.07996224,0.02295725,0.01147099,0.002939962,0.3058885
0.8479634,-0.09537289,0.01366456,0.1834082,-0.07162998,0.2743019
0.8841152,-0.1187551,0.001422246,0.3283528,-0.05242265,0.2514308
0.9742646,-0.1166478,-0.01334687,0.5193183,-0.02324849,0.1005749
0.9895659,-0.1351582,0.01073004,0.7213649,-0.0887891,-0.167536
1.049509,-0.1089155,0.03919932,0.7198592,-0.2315559,-0.2673984
1.08773,-0.01917981,0.02723587,0.5914735,-0.3647375,-0.3352327
1.086836,0.1337407,0.03246469,0.1807393,-0.3654337,-0.1670141
1.176731,0.2113421,0.06189718,-0.3358889,-0.3101272,0.1190357
1.278864,-0.04619781,0.05254562,-0.4469052,-0.3458393,0.1681988
1.316093,-0.4107497,-0.01962523,-0.119022,-0.3277535,-0.003913092
1.217513,-0.546149,-0.09006018,0.09358547,-0.3047068,-0.2947898
1.081355,-0.5023069,-0.07960326,-0.08211794,-0.4001807,-0.548683
1.076341,-0.4014796,-0.05454176,-0.254491,-0.415046,-0.7628381
1.178729,-0.2975602,-0.07884733,-0.3266646,-0.3467249,-0.6193498
1.369897,-0.2460356,-0.07205301,-0.2513461,-0.05292112,-0.1780796
1.479895,-0.2496445,-0.0653452,-0.08633938,0.5859662,-0.04784851
1.292158,-0.1779854,-0.08670958,-0.2695043,1.015064,-0.03840502
1.002417,-0.08273123,-0.037015,-0.5601627,0.9591985,-0.02619704
0.8867732,-0.1162798,0.02659249,-0.682137,0.7976127,-0.07969511
0.8345673,-0.172732,0.05229519,-0.7320808,0.7847429,-0.01568222
0.7449387,-0.2001091,0.06847831,-0.5961131,0.7707087,-0.008283565
0.691965,-0.1820014,0.07172562,-0.432958,0.5965925,0.06237145
0.6518414,-0.109702,0.09916529,-0.3432429,0.2604014,0.2517393
0.6822198,-0.108044,0.1066344,-0.3009974,-0.07182398,0.2690686
0.760789,-0.1251308,0.08684744,-0.3777884,-0.133887,0.2367374
0.7832055,-0.1161008,0.09354476,-0.355984,-0.1489284,0.2170753
0.8322272,-0.1232278,0.1012331,-0.2166733,-0.2754237,0.2009139
0.8783624,-0.09812397,0.1311838,-0.03320055,-0.2989102,0.187686
0.9122045,-0.06896213,0.1624746,0.1437844,-0.3245405,0.06722095
0.9695721,-0.04761495,0.148829,0.07348711,-0.3629272,-0.1304141
1.005775,-0.04461299,0.1093349,-0.1100096,-0.3707767,-0.3105212
1.155646,-0.1079136,0.07164553,-0.3140448,-0.360463,-0.2189682
1.406447,-0.2005894,0.08890852,-0.4293905,-0.1287352,0.1528319
1.492617,-0.2552283,0.1176992,-0.1512326,0.2626486,0.4050734
1.332321,-0.2089762,0.09528692,0.1500758,0.4403874,0.2588414
1.210734,-0.1687439,0.04498704,0.2038582,0.2130261,0.06461574
1.344427,-0.2707403,-0.02902052,0.2497706,0.1048038,0.3728547
1.424138,-0.4791284,-0.07079677,0.3293882,0.5731924,0.5847798
1.256533,-0.6672682,-0.05240866,0.459983,1.042842,0.2124351
0.9426991,-0.5893371,-0.01699906,0.539515,0.9372866,-0.262264
0.636916,-0.3414247,0.02704418,0.4655151,0.2560894,-0.6054373
0.7147268,-0.1961791,0.006119153,0.3204409,-0.502286,-0.4577092
0.9824966,-0.09551689,-0.05947155,0.03680216,-0.6241248,-0.05279301
1.020315,-0.1734422,-0.06054585,-0.1805773,-0.3801274,0.1067869
1.060082,-0.3596608,-0.06169894,0.03656384,-0.377767,0.3333792
1.049848,-0.354371,-0.06572568,0.3751638,-0.2753424,0.2179904
0.9124995,-0.3294106,-0.03957482,0.5150723,-0.01576312,-0.2497242
0.8387925,-0.231623,-0.0320519,0.6036848,-0.0517861,-0.3864903
0.7111966,-0.0293072,0.000243866,0.5538561,-0.2104736,-0.3728208
0.6903641,0.028283,0.02359683,0.4312017,-0.4147819,-0.1061507
0.7700311,0.03810375,0.009895194,0.3804603,-0.5718395,0.262204
0.798796,0.02255485,0.001767312,0.2157703,-0.3351816,0.3479631
0.9859722,-0.01132628,-0.03674692,0.09954497,-0.0494986,0.4089154
1.065674,-0.01972125,-0.05632403,0.07055933,0.09535743,0.3738443
0.97136,-0.05536176,-0.02820525,-0.004597566,0.1761647,0.3612325
0.9691936,-0.0499697,0.001513678,0.05559585,0.1039815,0.4097561
0.950218,-0.06024607,0.01912684,0.1316105,0.1141426,0.3115288
0.9535997,-0.06325432,-4.07852e-05,0.1971693,0.1475309,0.2117872
0.9838057,-0.05186775,-0.008607729,0.3560514,0.09978826,-0.001562948
1.010972,-0.1086368,0.02646768,0.4258678,0.06155528,-0.1641589
1.058059,-0.1037146,0.05251524,0.3821787,-0.1285971,-0.2137582
1.031503,-0.005925095,0.04576023,0.1777224,-0.3847679,-0.313293
1.031855,0.130384,0.04337743,-0.1206958,-0.5889444,-0.1242864
1.126261,0.1189045,0.05378074,-0.2012871,-0.7248105,0.1654167
1.277697,-0.150383,0.003654932,-0.0531563,-0.6782838,0.1884549
1.363415,-0.397501,-0.08252327,0.1691078,-0.5666667,-0.03863723
1.227836,-0.467969,-0.1285804,0.2772822,-0.4909479,-0.3722818
1.078504,-0.4451238,-0.1372907,-0.01917059,-0.4223294,-0.5313003
1.124422,-0.4366305,-0.08807951,-0.3867498,-0.414126,-0.6145896
1.267285,-0.4072286,-0.02848291,-0.1311642,-0.3731731,-0.5461313
1.371192,-0.3586559,-0.0431204,0.2768904,-0.05428969,-0.2149998
1.34391,-0.349941,-0.0757774,0.2593963,0.4877693,-0.0624697
1.234605,-0.2195132,-0.07222977,0.1042664,0.827588,-0.07661876
1.12931,-0.09146753,-0.05005164,-0.2633313,0.8264757,-0.07488985
0.9680349,-0.09234112,-0.002307912,-0.6070241,0.8298243,-0.1413354
0.8474593,-0.08073107,0.04236653,-0.6315303,0.8859228,-0.1572916
0.8053381,-0.09993362,0.05991325,-0.6535184,0.7941351,-0.06450954
0.686033,-0.0908927,0.09166967,-0.5454384,0.5911686,0.1466715
0.6468544,-0.07632628,0.1203455,-0.4482958,0.2552458,0.3109737
0.7025127,-0.1091456,0.1208637,-0.5146928,0.002750289,0.2330293
0.7080942,-0.08795218,0.117745,-0.4712797,-0.01778355,0.1395975
0.7784775,-0.08392758,0.1195605,-0.4023635,-0.1598176,0.1010064
0.8302887,-0.06034616,0.1316633,-0.2209398,-0.320801,0.06921652
0.8321068,-0.01329804,0.1456255,-0.01121195,-0.3858685,0.08877298
0.8730144,0.01566156,0.1692944,-0.007990067,-0.5054695,0.0396388
0.906797,0.06519801,0.1755778,-0.1864101,-0.4969635,-0.04206373
1.00732,0.02687736,0.09176171,-0.5220819,-0.3719532,-0.04327911
1.156246,-0.04484295,-0.004645392,-0.6754317,-0.1264184,0.07879725
1.290851,-0.1379836,0.01554298,-0.533361,0.1996042,0.3194194
1.411388,-0.2755113,0.09342411,-0.1910615,0.412595,0.4087011
1.42838,-0.2606908,0.1171282,0.1802358,0.5598317,0.2012934
1.420682,-0.1980989,0.09922787,0.1638904,0.3379482,0.1111942
1.563411,-0.2284655,0.07371609,0.08948913,0.1287136,0.5225131
1.689807,-0.2920144,0.04594498,0.2215956,0.9141703,0.8353734
1.456806,-0.4881898,0.02497973,0.1929921,1.60765,0.2818976
0.9627544,-0.6661369,0.02128717,0.2460947,0.8355787,-0.4383482
0.6757984,-0.5155793,0.03694091,0.4261196,-0.2546447,-0.4477412
0.7929796,-0.2546642,0.0172276,0.3336232,-0.5161496,-0.238478
0.978272,-0.1769155,-0.01873218,0.1594702,-0.3982469,-0.09620612
0.9892824,-0.212898,-0.02224218,0.03374326,-0.306865,0.254852
1.028865,-0.2876877,-0.02760333,0.06754555,-0.3118732,0.4069956
0.9973123,-0.3213013,-0.0227406,0.3183784,-0.3106469,0.09878322
0.8563141,-0.2791342,-0.03825934,0.3689508,-0.2029483,-0.2884034
0.8475907,-0.2097323,-0.06054701,0.3167802,-0.216283,-0.4722507
0.8034904,-0.09113018,-0.02773455,0.3118726,-0.3062984,-0.3335064
0.8111615,-0.02892188,-0.01132326,0.2621458,-0.3467275,-0.04651453
0.9397159,-0.06109491,-0.01316959,0.2922102,-0.2318735,0.1574546
0.9389281,-0.07234276,-0.006821537,0.2770344,0.06256471,0.2690497
0.9417372,-0.07721233,0.002849655,0.2787313,0.1473498,0.1898924
0.9126961,-0.06746946,0.02760987,0.3002829,0.08720842,0.1160354
0.8637158,-0.03045852,0.02436115,0.2383378,0.05246632,0.2356941
0.9467346,-0.01323072,0.003451748,0.2605229,-0.009391785,0.250974
0.9983542,-0.01876999,-0.01096231,0.260857,0.09259995,0.1902579
1.03437,-0.04167703,-0.005099097,0.3305603,0.1694794,0.1272033
1.041143,-0.09444074,0.01221195,0.473721,0.01940322,-0.05661096
1.010284,-0.1399201,0.001240636,0.414344,-0.2258274,-0.1699716
1.034582,-0.02063794,0.009446297,0.1691652,-0.4612783,-0.1896199
1.0802,0.1816392,0.03821502,-0.330469,-0.6240178,-0.1295503
1.219766,0.1560672,0.0501363,-0.7488869,-0.7396109,0.01004433
1.366129,-0.1088241,0.02441687,-0.6206804,-0.6681431,-0.001444339
1.3964,-0.4318857,-0.07689687,-0.2441705,-0.4439052,-0.1078041
1.308897,-0.5894626,-0.1619751,0.0105283,-0.2525297,-0.2093265
1.110246,-0.5263692,-0.1364547,-0.002298253,-0.03219479,-0.3526035
0.9494015,-0.4827753,-0.05179516,-0.2292559,-0.04982174,-0.5020317
0.9033045,-0.4336999,0.01750751,-0.3029963,-0.5076864,-0.5353347
1.081627,-0.3165429,0.02554733,-0.1269584,-0.7557549,-0.3178889
1.320258,-0.2682264,-0.03511798,-0.01262281,-0.1047561,-0.04516347
1.23301,-0.1906664,-0.07879825,-0.1216463,0.8348265,0.06924602
1.051791,-0.1288017,-0.02567559,-0.3461791,1.010395,0.03263175
0.9455748,-0.1771024,0.0303921,-0.5149047,0.9102588,-0.04254021
0.8270086,-0.1684985,0.02709253,-0.5463508,1.051443,0.0008673725
0.7966644,-0.1506408,0.04877514,-0.443853,0.8945628,0.05178679
0.6679134,-0.1638244,0.1055254,-0.2947356,0.6177423,0.1349351
0.5354592,-0.1373879,0.140684,-0.2080352,0.3185935,0.2556545
0.6350808,-0.1281726,0.1266643,-0.1339996,-0.1257678,0.2142527
0.6521659,-0.1090692,0.11039,-0.1326745,-0.2350323,0.201145
0.6591195,-0.08003292,0.1248852,-0.1913312,-0.2719911,0.186709
0.8044087,-0.06626648,0.1236286,-0.1179532,-0.4221606,0.07355351
0.8431066,-0.03669656,0.1318704,-0.04773139,-0.4189686,0.05718763
0.8507655,-0.0381332,0.1530209,-0.04267495,-0.4810907,-0.004531381
0.873196,-0.05559995,0.146573,-0.03763596,-0.5799185,-0.1104214
0.9170835,-0.07176136,0.1251093,-0.09816107,-0.6299629,-0.1111641
1.099934,-0.1548305,0.06836538,-0.1035219,-0.5124004,-0.01734582
1.33016,-0.2628443,0.02593311,0.07802617,-0.0785339,0.1163652
1.48256,-0.280572,0.05737198,0.4278358,0.3869102,0.08869522
1.412561,-0.1489866,0.1030293,0.6359791,0.5427606,0.04174786
1.266704,0.04556354,0.1385967,0.349932,0.2308401,0.1712813
1.299104,0.08069067,0.143581,-0.1716926,0.1217467,0.3903593
1.459976,-0.117165,0.08085734,-0.5341198,0.7986873,0.5665135
1.574901,-0.4303677,0.006834081,-0.5010876,1.307435,0.254864
1.155345,-0.6533637,0.004320009,-0.02326803,0.7296761,-0.3116532
0.5241182,-0.589753,0.03585151,0.3513048,-0.3450859,-0.3477015
0.6211,-0.3952529,-0.001608253,0.4623873,-0.7469362,-0.2001879
0.9799752,-0.2694621,-0.07453939,0.4170158,-0.301482,-0.2094725
1.086848,-0.1723602,-0.117866,0.0219921,0.09959821,-0.04191725
1.116575,-0.2090967,-0.1090658,-0.05544243,-0.07511286,0.1685299
0.9040559,-0.3384686,-0.03571058,0.2428179,-0.2812017,0.2398792
0.7260117,-0.399433,-0.0004108326,0.3982357,-0.2805825,0.07122143
0.75285,-0.4174998,-0.02197587,0.8787399,-0.5356954,-0.2835474
0.7113222,-0.3241522,-0.04612891,1.144623,-0.6898736,-0.3857181
0.7661145,-0.1952002,-0.07029091,0.9233718,-0.5997064,-0.2793182
0.9257533,-0.104201,-0.05224353,0.927669,-0.523022,-0.1947399
1.035078,-0.005878443,-0.04406509,0.7541154,-0.1373225,-0.09899281
1.062821,0.01055245,-0.02907439,0.4429159,0.1637378,-0.05248853
0.9750362,0.04275365,0.03839187,0.3504226,0.1065563,-0.03107931
0.9247039,0.067963,0.04863255,0.2549077,0.01341586,0.04402488
0.9524272,0.02615623,0.02880812,0.1781224,-0.05687619,0.1696936
0.982012,0.03932066,0.008717168,0.1733827,-0.0153733,0.2406407
1.0125,0.009139168,-0.03918393,0.3002866,0.002719389,0.1736772
1.044715,-0.01487624,-0.05028014,0.4750019,0.07580947,0.06618303
1.056756,0.001987151,-0.01554155,0.645809,0.1551565,-0.0138938
1.010814,0.003986504,0.02637472,0.6224114,-0.05396126,-0.06015004
0.9880719,0.1246524,0.03550443,0.2088532,-0.3270658,-0.0899494
1.060551,0.2051496,0.04271137,-0.2500551,-0.5607394,-0.06796189
1.216606,0.03055914,0.0602114,-0.4178758,-0.6843254,0.03383132
1.339782,-0.3168683,-0.0007398616,-0.03027152,-0.6274773,0.04181027
1.27727,-0.5489611,-0.1189268,0.3771453,-0.5136458,-0.1156033
1.149422,-0.5069199,-0.1778373,0.190361,-0.4266632,-0.2802802
1.076363,-0.4754657,-0.1314319,-0.115338,-0.4619296,-0.3819757
1.084342,-0.5405202,-0.07912895,-0.4041904,-0.5397772,-0.5709916
1.2643,-0.5328058,-0.07880268,-0.4357614,-0.5073923,-0.7400337
1.427466,-0.5083701,-0.06366499,0.05640245,-0.1586969,-0.5320387
1.342909,-0.4237856,-0.06153454,0.4589398,0.3826752,-0.2508369
1.141608,-0.1690176,-0.06148156,0.4774866,0.6701381,-0.1888476
0.9659372,0.03359182,-0.007754682,0.1171155,0.7396273,-0.02968216
0.8646611,0.004472561,0.03642608,-0.3670779,0.7971454,0.1025594
0.8498457,-0.048363,0.05350572,-0.615367,0.8113552,0.08774512
0.7745973,-0.03918548,0.06597168,-0.7551094,0.7337904,0.1572763
0.6637749,-0.0877977,0.08631559,-0.7672703,0.6025624,0.2590969
0.6597824,-0.1119613,0.1118553,-0.6998033,0.3836785,0.3925343
0.6707093,-0.09339159,0.1076934,-0.6506961,0.1750104,0.4576112
0.7112184,-0.125138,0.09971871,-0.5042296,0.1083957,0.3309708
0.8089763,-0.129644,0.08776439,-0.3950176,-0.04334769,0.2480661
0.8050247,-0.1059106,0.07723984,-0.2898633,-0.1750366,0.2651179
0.7721584,-0.0804364,0.1112437,-0.1326282,-0.2105861,0.2438188
0.8086351,-0.005120088,0.1334992,-0.1691847,-0.3390557,0.1174455
0.8206545,0.0303748,0.1231319,-0.3392491,-0.3731156,-0.05775534
0.8492817,0.02995047,0.1056781,-0.5196723,-0.4507946,-0.1569117
0.9479797,0.01195864,0.06198858,-0.8004799,-0.5248954,-0.1055043
1.108968,-0.1233697,0.01160051,-0.8420687,-0.253853,0.1389456
1.362097,-0.2868823,0.005281686,-0.2551029,0.1420112,0.3178993
1.509576,-0.3281871,0.04813326,0.4324244,0.5294785,0.1716436
1.415826,-0.2027357,0.06989538,0.532527,0.6264806,0.0400894
1.371801,-0.09049236,0.05176434,0.2819741,0.4608615,0.3379185
1.45605,-0.2050567,0.02158946,0.1597259,0.6906694,0.842008
1.441783,-0.4341483,-0.01474255,0.0727563,1.271394,0.9403654
1.271368,-0.6606387,-0.004026025,0.09077654,1.670967,0.2456681
0.8549616,-0.7201024,0.03182173,0.4336376,1.024388,-0.573017
0.4603104,-0.4977465,0.03461404,0.6139405,-0.4208144,-0.4499785
0.6561201,-0.2789217,0.01841198,0.3545655,-0.862145,-0.15493
1.032345,-0.1900989,-0.02797498,-0.03407506,-0.4284562,-0.2851611
1.078342,-0.2040534,-0.06659105,-0.2080469,-0.2497712,0.1597043
1.094266,-0.335893,-0.05375569,0.03602808,-0.1810255,0.4861171
1.009047,-0.4356355,-0.0452562,0.3563314,-0.1288066,0.02713271
0.8267369,-0.455071,-0.05373276,0.5874734,-0.1580914,-0.3001281
0.7853118,-0.3425275,-0.0418883,0.7876248,-0.3230958,-0.4675511
0.7230854,-0.1401156,-0.03170762,0.7803404,-0.5511176,-0.389658
0.7902601,-0.04810372,-0.04380799,0.6819702,-0.6130878,-0.09882182
0.9446127,0.0009544181,-0.05009275,0.4890166,-0.4042825,0.01991297
0.9696132,0.02006093,-0.04827148,0.2069468,-0.0008462811,0.1905228
1.012364,-0.01367448,-0.03736822,0.08466136,0.1498747,0.1742725
0.9674402,-0.01479059,-0.0039323,0.05558536,0.155975,0.09731659
0.9213345,-0.02723672,0.01946165,0.03002192,0.1870052,0.1995721
0.9580644,-0.01786135,0.01485692,0.03043734,0.1035926,0.1403831
0.9466699,0.0009127205,-0.01315807,0.03552684,0.1741823,0.1089294
1.001666,-0.01954048,-0.0383545,0.06886309,0.2437961,0.01111972
1.023954,-0.04650243,-0.008058554,0.1864706,0.2422719,-0.1914494
1.008452,-0.08283774,0.0259317,0.328388,0.1985524,-0.1676815
1.027547,-0.01418222,0.01565696,0.3131402,-0.08576462,-0.1437611
1.004798,0.1654719,0.04362423,0.01522263,-0.3313107,-0.0994952
1.085902,0.2281545,0.09380118,-0.497327,-0.5793561,0.0763928
1.28997,0.003209358,0.06471113,-0.7963182,-0.7763511,0.1137006
1.439294,-0.3145759,-0.02542385,-0.6536045,-0.7191577,-0.0761659
1.322791,-0.3965977,-0.1232492,-0.3773484,-0.6913478,-0.333072
1.10924,-0.4212337,-0.17207,-0.2399324,-0.534371,-0.4829921
1.126171,-0.4765691,-0.1383978,-0.4413363,-0.2789276,-0.6143075
1.117381,-0.4051752,-0.08735623,-0.7131396,-0.2687331,-0.7069735
1.1195,-0.4053318,-0.04762011,-0.505457,-0.2733753,-0.532395
1.329194,-0.396183,-0.05017465,-0.2317447,-0.04883487,-0.2037458
1.395172,-0.2988169,-0.08963886,-0.2117401,0.4768553,-0.01391602
1.219485,-0.3108916,-0.06259782,-0.106767,0.9130751,-0.07601146
0.968917,-0.2436523,-0.02207868,-0.1289233,0.7386414,-0.1574319
0.835299,-0.143295,0.008523813,-0.2212995,0.5280376,-0.06031015
0.8352076,-0.1330466,0.05817109,-0.1886262,0.6521619,0.06161685
0.7696139,-0.05331893,0.05018618,-0.3249462,0.5889499,0.2526625
0.7426493,-0.03473418,0.06387909,-0.4325023,0.4699529,0.4572777
0.7588883,-0.08619614,0.090982,-0.4815932,0.3656693,0.4388682
0.7741276,-0.1362677,0.06856359,-0.5736858,0.1278477,0.3808109
0.8581455,-0.2115999,0.09040958,-0.5190552,0.156442,0.2480235
0.8708077,-0.2138778,0.1023356,-0.4964711,0.1949238,-0.008296741
0.8518531,-0.1936097,0.1081916,-0.3587909,0.04182014,-0.08458579
0.8241804,-0.1280983,0.1512411,-0.03520283,-0.04046494,-0.07311939
0.7649296,0.01298353,0.1641743,0.1237596,-0.272489,-0.07902275
0.7996379,0.05818911,0.1665808,0.1434293,-0.4693872,-0.08815996
0.8768904,0.01326741,0.141255,-0.0572088,-0.472087,-0.143702
1.011245,-0.01260815,0.08424365,-0.4361341,-0.4425969,-0.109102
1.161326,-0.05266616,0.03469362,-0.5793664,-0.2509899,0.04610344
1.237515,-0.1855635,0.03725223,-0.3645196,0.01330038,0.2251593
1.370393,-0.306989,0.08959916,0.08471228,0.3162104,0.2029532
1.433703,-0.2608176,0.07845135,0.4349827,0.5006522,0.003206751
1.356465,-0.1460004,0.05609277,0.3480579,0.3407095,0.01870897
1.389624,-0.1251365,0.05571581,0.1687617,0.3562562,0.3511564
1.420748,-0.227894,0.03682591,0.2828517,0.9273029,0.6511566
1.241968,-0.4238567,0.04787423,0.2936536,1.350589,0.3402608
0.9016041,-0.5467418,0.02843138,0.263355,0.7029145,-0.1678514
0.5920975,-0.4612559,0.01635907,0.4953608,-0.3638823,-0.09245355
0.7337816,-0.3489368,0.01259984,0.5170506,-0.5575978,0.00205378
1.11261,-0.3054279,-0.05871722,0.3386432,-0.2619926,-0.02347627
1.169879,-0.2796075,-0.06495656,0.2445647,-0.1800726,0.137807
1.055613,-0.3274417,-0.03283195,0.2907189,-0.2180522,0.04735943
0.8639983,-0.3392576,-0.0342322,0.5387948,-0.4078052,-0.1478597
0.7490882,-0.2953115,-0.02944663,0.6843897,-0.6041027,-0.2647442
0.8179119,-0.266397,-0.04480964,0.7409655,-0.5702534,-0.3362067
0.7622547,-0.1530568,-0.04497918,0.7283799,-0.5056625,-0.1179365
0.7812226,-0.05130265,-0.04427578,0.5817499,-0.519381,0.09933207
0.8877516,-0.0336835,-0.05290993,0.4822143,-0.3365104,0.1424591
0.9359107,-0.03001416,-0.03955336,0.2943329,0.01281694,0.09173253
1.026153,-0.0305653,-0.02266009,0.1632481,0.1736922,-0.0435677
0.9414377,0.008953903,0.01975849,0.09344641,0.1688802,-0.04774399
0.8597121,0.05245427,0.03719987,-0.04317666,0.05190412,0.06804688
0.8823502,0.07658616,0.01444526,-0.0299585,-0.07741436,0.2563086
0.9104731,0.07983152,-0.002963169,-0.05543682,-0.002948188,0.3492429
1.067525,0.02827533,-0.05248502,-0.03711154,0.1088391,0.1719019
1.089995,-0.03490169,-0.08386815,0.1228747,0.2079159,-0.003100442
1.042012,-0.1092374,-0.04588386,0.2185598,0.2289903,-0.114608
1.054206,-0.1249964,-0.01103867,0.2596805,-0.05109116,-0.1779012
0.9907566,0.00122647,-0.002222286,0.0411512,-0.4008554,-0.1337459
1.068132,0.1143956,0.03869283,-0.3579614,-0.625718,-0.05357788
1.247125,0.04404871,0.0732754,-0.7384951,-0.8258322,0.07391476
1.377208,-0.1582543,-0.02712111,-0.8993697,-0.9278226,0.1038581
1.40764,-0.3877827,-0.1879004,-0.5544173,-0.7837289,0.03728605
1.305464,-0.5759059,-0.2241055,-0.2783425,-0.3955043,-0.05841595
1.19449,-0.5834651,-0.1770725,-0.3787014,0.1046336,-0.3608269
0.9902867,-0.5103774,-0.1255021,-0.3341634,0.2308547,-0.6847
0.8744672,-0.4927532,-0.03417811,-0.05290776,-0.2483118,-0.6739604
1.075955,-0.377298,0.0125178,0.3211297,-0.5297581,-0.2312706
1.23933,-0.2669512,-0.03909903,0.5700565,-0.155753,0.2381922
1.225684,-0.2253081,-0.06512754,0.3180338,0.2983202,0.1820587
1.163502,-0.1248689,-0.06465804,-0.148925,0.5254132,-0.02375874
1.070417,-0.1068287,-0.06564591,-0.3785576,0.7660422,-0.01450136
0.9642017,-0.1325717,-0.003108398,-0.5469083,0.9997818,-0.06803315
0.8034922,-0.08925502,0.06771488,-0.5647625,0.943397,0.01423109
0.6787121,-0.08210177,0.09582287,-0.4758331,0.7514322,0.2906413
0.6662151,-0.102113,0.1049652,-0.5681569,0.5146024,0.4159673
0.6639565,-0.1241676,0.1080931,-0.5124037,0.1453006,0.4450236
0.6973855,-0.1655515,0.1234801,-0.4511847,-0.06222881,0.3529668
0.7762476,-0.1828821,0.1285299,-0.5038267,-0.1729463,0.1613599
0.8379794,-0.1646838,0.1268755,-0.3408524,-0.3181058,0.04447727
0.8918765,-0.136293,0.138431,-0.1605512,-0.3411145,-0.09433613
0.8958663,-0.06640683,0.1408408,0.0100826,-0.3757217,-0.2094339
0.8833864,0.02384581,0.1273506,0.01475586,-0.4020924,-0.2803953
0.942643,0.02879589,0.0816575,-0.2633603,-0.3724824,-0.3214893
1.066333,-0.04995286,0.01258753,-0.5068839,-0.3302137,-0.1738383
1.272563,-0.1884928,-0.01628569,-0.6289683,-0.08928973,0.1375273
1.447069,-0.2967093,0.02157974,-0.3052599,0.2902916,0.3942079
1.433363,-0.2400573,0.04945393,0.1907506,0.4923885,0.2287556
1.370862,-0.169178,0.008925772,0.2362943,0.3901925,-0.0200024
1.382337,-0.2112864,-0.03185072,0.1453437,0.3237579,0.2289862
1.416715,-0.3065897,-0.04336806,0.07503339,0.629487,0.3999856
1.371059,-0.5069949,-0.0373598,0.008615269,1.137061,0.2183083
1.014498,-0.6453881,-0.0007849138,0.08282965,1.389624,-0.1867964
0.5405054,-0.4862466,0.03107825,0.2445878,0.6832507,-0.717372
0.5574253,-0.2929364,0.03084293,0.3612859,-0.4394309,-0.5340733
0.8775017,-0.2592447,-0.02138879,0.2082951,-0.55124,-0.08378501
0.9940636,-0.2817229,-0.08654855,0.03975217,-0.3208945,-0.129774
1.039338,-0.3605768,-0.08426145,0.2040639,-0.490321,0.02309817
1.009206,-0.4052339,-0.07443761,0.4583167,-0.3983036,0.03744311
0.9026371,-0.3474523,-0.0999695,0.6559782,-0.329199,-0.3002893
0.8877552,-0.2611712,-0.08674052,0.7650238,-0.4076793,-0.337919
0.7937875,-0.1489099,-0.03551203,0.6936626,-0.3376536,-0.2979209
0.7503371,-0.0578824,-0.02549608,0.6357211,-0.3827656,-0.05804794
0.8842212,-0.03482649,-0.04986191,0.6310973,-0.3764984,0.237594
0.9802938,-0.01889202,-0.04034432,0.5028945,-0.2350183,0.1682391
1.020426,0.01519147,-0.03257403,0.3370265,-0.02401186,0.1698085
0.9830616,0.02990761,-0.03649656,0.1561016,0.1982896,0.2120218
0.9656766,0.07113357,-0.001832764,-0.0271694,0.1591432,0.211692
0.9862067,0.113831,0.01513909,-0.1330266,0.1693856,0.2774143
0.9448232,0.04875762,0.00629916,-0.209222,0.3447741,0.3054947
0.9528055,-0.005135578,0.01218374,-0.1424014,0.3720464,0.324237
0.9313524,-0.03027802,0.01295397,0.02021604,0.3669064,0.2338299
0.9138209,-0.1017953,0.02134234,0.2293473,0.3229198,0.1311174
0.965835,-0.1560891,0.04154323,0.5152745,0.1074615,0.008408947
0.9647922,-0.2062291,0.05409307,0.5569566,-0.1506787,-0.1730268
1.000638,-0.1201445,0.05582636,0.3389585,-0.3263876,-0.1955598
1.070628,0.06414159,0.07270011,0.04777422,-0.5016147,-0.1534536
1.16102,0.07555051,0.09378721,-0.1335544,-0.7432487,-0.08736192
1.278413,-0.03336267,0.02408397,-0.0698531,-0.8186746,-0.04579452
1.315842,-0.1946539,-0.1103713,-0.1614326,-0.6800322,-0.1068748
1.300794,-0.3505186,-0.1945498,-0.4605613,-0.3666476,-0.2306367
1.233523,-0.4173499,-0.2003869,-0.6090493,0.1150457,-0.4494818
1.139829,-0.4564592,-0.1307596,-0.5794181,0.2045357,-0.6054419
1.090116,-0.455985,-0.04774768,-0.3059195,-0.03684163,-0.6072382
1.142483,-0.4075511,-0.03137508,0.1617611,0.0558469,-0.40179
1.228626,-0.2892534,-0.04842258,0.3161473,0.2236756,-0.02963234
1.142052,-0.1302045,-0.04306619,-0.06578466,0.3593894,0.1891301
1.04542,-0.08505889,-0.02832046,-0.4942402,0.5473987,0.2166756
1.041142,-0.1362923,-0.004698468,-0.6532695,0.5514371,0.1830526
0.9826468,-0.1962129,0.03385076,-0.5894225,0.6760891,0.1165684
0.916076,-0.2336551,0.04632637,-0.4060504,0.7896008,0.06262226
0.7868726,-0.2054117,0.05802052,-0.3312789,0.6108601,0.09989105
0.6599098,-0.1281002,0.1046708,-0.3307519,0.4263755,0.1832938
0.6682831,-0.07583649,0.1263139,-0.3961994,0.1438941,0.1602109
0.7016758,-0.07171815,0.1230346,-0.488477,-0.1106797,0.1157817
0.7567447,-0.07292709,0.1279874,-0.410566,-0.1814241,0.1078623
0.8079345,-0.06936957,0.1255998,-0.3084866,-0.3032768,0.09088395
0.8421766,-0.05225348,0.1360864,-0.1409061,-0.3757837,0.08307306
0.9094981,-0.03469544,0.1580248,0.00281158,-0.3937888,-0.03073245
0.965378,-0.04986489,0.1514309,-0.1270437,-0.4322681,-0.2078445
1.064358,-0.07741192,0.09651562,-0.2484957,-0.396023,-0.2658368
1.220745,-0.1410415,0.02525204,-0.3276469,-0.2069882,-0.1317033
1.396537,-0.2306822,0.02993447,-0.3440873,0.1780046,0.16088
1.47518,-0.2436095,0.09110539,-0.02662777,0.5195599,0.2835312
1.294022,-0.1292895,0.1083519,0.3380572,0.5828241,0.02496782
1.09838,0.02980615,0.09033446,0.3197427,0.3377439,-0.2158588
1.165046,0.05925168,0.06404101,-0.02514002,0.02842992,-0.0142501
1.416949,-0.1343249,0.03598683,-0.3272036,0.1781453,0.3507145
1.558162,-0.4625033,-0.002130738,-0.3130502,0.810703,0.4220902
1.177487,-0.647066,-0.04541947,-0.03750646,1.256775,0.1188341
0.5815156,-0.5386692,-0.02509004,0.218815,0.8253534,-0.2936466
0.5440141,-0.3704048,0.00106556,0.3698666,-0.08969135,-0.2858804
0.8518761,-0.2634639,-0.02920247,0.3757078,-0.444565,-0.1568924
1.016153,-0.1809465,-0.0326835,0.1584572,-0.4320138,-0.2634823
1.121385,-0.2205998,-0.02767037,0.1175824,-0.4512644,-0.04028315
1.106847,-0.2576245,-0.04621013,0.2402008,-0.2983669,0.1321619
1.016616,-0.2199502,-0.05695768,0.2118368,-0.1972472,-0.09245084
0.9646974,-0.2363322,-0.06610049,0.2413395,-0.1228133,-0.2133068
0.8229557,-0.1399367,-0.04171554,0.2215406,-0.06731398,-0.2887788
0.7471874,-0.01168697,-0.006221149,0.1900446,-0.2293356,-0.1250637
0.8098789,-0.07103194,-0.01188215,0.251518,-0.3407006,0.1895211
0.9016058,-0.1115331,-0.02163233,0.2338107,-0.2715036,0.2324072
0.9977774,-0.108593,-0.02091518,0.327488,-0.07374362,0.2523944
0.9852368,-0.1130385,-0.01371945,0.359686,0.06718061,0.193565
0.9279135,-0.05208334,0.002109072,0.2826212,0.08081485,0.08862967
0.9231999,0.006620207,0.002555468,0.2739787,0.04073196,0.1407551
0.9568711,0.04629061,-0.01356493,0.1607611,-0.03547178,0.135541
1.010502,0.04534682,-0.02569577,0.1400061,0.08343423,0.05694855
1.024636,0.0008490637,-0.01674881,0.2136602,0.208249,-0.01539215
1.047802,-0.0423444,0.009289936,0.2731487,0.1867511,-0.0499518
1.057227,-0.04257179,0.02705113,0.3585506,0.1013746,-0.02185501
1.022755,0.09848804,0.02804587,0.1721508,-0.1450466,0.03469374
1.028861,0.2696323,0.03767386,-0.2874204,-0.3399017,0.1384444
1.059213,0.2309027,0.05141497,-0.7059822,-0.5337054,0.2421281
1.155381,-0.03174815,-0.005722234,-0.7902571,-0.6841515,0.2271114
1.277357,-0.2872148,-0.1082378,-0.6238382,-0.6266418,0.0717055
1.245174,-0.3222193,-0.1323655,-0.4884278,-0.6476598,-0.07362615
1.175179,-0.3166717,-0.105334,-0.3048582,-0.4967826,-0.1658064
1.162945,-0.4822182,-0.1038057,-0.2835476,-0.05448236,-0.3353058
1.066238,-0.5575739,-0.09618822,-0.3623722,0.1308272,-0.5033821
0.9424449,-0.4702605,-0.05731082,-0.04480008,-0.1174751,-0.4782468
0.8791541,-0.4559827,-0.003982352,0.3416763,-0.5570133,-0.3444881
0.9690683,-0.375084,0.01067541,0.4268513,-0.7353617,-0.279526
1.255283,-0.2200584,-0.04886659,0.1826273,-0.2535276,-0.2937818
1.364474,-0.1810081,-0.09641533,-0.2800171,0.5362599,-0.3275482
1.244897,-0.1372366,-0.06159973,-0.4902032,0.8347333,-0.2649085
1.146269,-0.1159671,-0.01134594,-0.5091343,0.7696166,-0.1367921
0.9762534,-0.1428143,0.02119012,-0.4867603,0.7775513,-0.0198274
0.8230356,-0.1130591,0.0628539,-0.368103,0.5936559,0.122163
0.7906261,-0.1102612,0.07997105,-0.3501658,0.3076709,0.1806908
0.7918389,-0.1145921,0.07491361,-0.3077955,0.1224256,0.1929252
0.8394296,-0.1022359,0.07819387,-0.3162344,0.01115916,0.2023821
0.8832481,-0.1126343,0.07010402,-0.4262862,0.0605128,0.1692405
0.9106406,-0.1108953,0.06427987,-0.3757857,0.06735323,0.2345335
0.9122666,-0.1276416,0.07117019,-0.3044228,0.04652536,0.2983482
0.8868104,-0.1433599,0.07849871,-0.1760568,0.02134611,0.2914139
0.8823987,-0.1225573,0.09314949,-0.04702337,-0.1317185,0.2474311
0.8587649,-0.0857416,0.1114227,-0.07721298,-0.2063227,0.09889077
0.8595941,-0.04299008,0.1240524,-0.112126,-0.2655902,-0.04035406
0.89605,-0.03113743,0.1120174,-0.2427531,-0.3228574,-0.1664395
0.9458197,-0.05139833,0.08151231,-0.3525141,-0.2839438,-0.2076077
1.056781,-0.09598429,0.04644485,-0.310769,-0.2439134,-0.01972525
1.180077,-0.174462,0.002078778,-0.2290749,-0.03326938,0.2201092
1.249563,-0.2213163,-0.01151359,-0.01813569,0.2838876,0.2689311
1.226306,-0.1627045,0.006145655,0.1248245,0.3436608,-0.001226034
1.195383,-0.06248645,0.007194931,0.003761283,0.1149583,-0.2428003
1.276338,-0.06018472,-0.003489176,-0.160701,0.02435644,-0.04213032
1.458118,-0.2297111,-0.01792853,-0.2115904,0.4635472,0.3386627
1.60484,-0.4575999,-0.03718132,-0.1778601,1.073777,0.5142396
1.322556,-0.4887045,-0.03753414,-0.06317166,1.20499,0.289809
0.7596809,-0.4029381,0.002725792,0.0839734,0.7887754,-0.1522778
0.6017531,-0.3784874,0.04498077,0.07703614,0.1697409,-0.3199751
0.7151707,-0.2521221,0.03268649,-0.03174149,-0.4436062,-0.2892843
0.8421924,-0.1627671,0.004096009,-0.1534265,-0.701494,-0.1879597
1.066554,-0.2826094,-0.02591648,-0.2642291,-0.3800117,0.09271978
1.085402,-0.3691906,-0.08285394,-0.07327963,-0.1633394,0.201853
