accx,accy,accz,gyrox,gyroy,gyroz
0.7290719,-0.07266721,0.1909146,-0.8837618,0.7385057,-0.07908475
0.7435682,-0.1041217,0.2278587,-0.8428061,0.5867347,0.000837121
0.7242934,-0.1395133,0.2632294,-0.7854277,0.2522385,0.03050717
0.732635,-0.1542813,0.2622907,-0.6663024,-0.06675754,0.02268496
0.7600037,-0.130782,0.2807275,-0.5425102,-0.2047937,0.04653962
0.7896366,-0.07694333,0.3310107,-0.4220641,-0.3134314,0.04241647
0.8313995,-0.0225918,0.3571247,-0.3505463,-0.4607093,0.03581398
0.8798421,-0.04798397,0.3347031,-0.372567,-0.484488,-0.04749971
1.021297,-0.1242727,0.3018519,-0.421439,-0.4233962,-0.2386167
1.155908,-0.1667366,0.2761736,-0.5230065,-0.3756778,-0.3036068
1.165892,-0.170732,0.2381455,-0.591931,-0.259893,-0.1970284
1.21238,-0.1421323,0.2275048,-0.4765146,-0.08901548,-0.08362542
1.258651,-0.03292878,0.2933329,-0.3156823,0.09680313,-0.1105928
1.215129,0.0960558,0.4046709,-0.2812932,0.3387161,-0.2671623
1.244283,0.02903664,0.4148625,-0.3336778,0.5001863,-0.3745599
1.305734,-0.2266024,0.2756477,-0.3500083,0.422801,-0.2313306
1.31464,-0.4933826,0.1410458,-0.2292975,0.3728066,0.0597399
1.321858,-0.6573114,0.09041744,-0.03172074,0.5009559,0.1128603
1.206879,-0.5776301,0.1249753,0.0273579,0.5343444,-0.04247127
0.9370586,-0.372577,0.1876108,-0.1682495,0.4998998,-0.1891093
0.6902618,-0.2441145,0.1937381,-0.5118934,0.3139185,-0.239284
0.6557388,-0.175546,0.1747431,-0.7590692,-0.2068149,-0.05661676
0.7591079,-0.2081417,0.1485732,-0.7481099,-0.6645306,0.1611298
0.8140146,-0.2712284,0.1089772,-0.5228819,-0.7899156,0.1966707
0.9489177,-0.3514043,0.06843332,-0.2283887,-0.6356653,0.1247843
0.995145,-0.4270588,0.05321497,-0.02326537,-0.4960235,0.01428024
0.8534401,-0.3147923,0.0732423,0.0654401,-0.5423165,-0.04272746
0.8722887,-0.2113106,0.07165889,0.1245429,-0.380652,0.01233788
0.8850328,-0.1444267,0.05493901,0.1264428,-0.1222408,0.1300983
0.8651507,-0.05848986,0.04663906,0.07063164,-0.0610137,0.1847532
0.9507128,-0.09915992,0.05078195,0.03241396,-0.01761164,0.2151483
0.9440238,-0.0562274,0.06941204,-0.06608526,-0.03245205,0.2948443
0.9824005,0.006440986,0.06501133,-0.225966,-0.05662318,0.3301937
1.023807,-0.0146893,0.05744903,-0.300755,0.006723466,0.3595716
0.988711,0.00384555,0.05517109,-0.2837275,0.06182184,0.3208838
1.024015,-0.05742681,0.06062679,-0.1997692,0.1446002,0.2081527
1.020591,-0.1283843,0.101736,-0.07612151,0.1957616,0.1619727
1.028199,-0.1725563,0.1499159,-0.02907921,0.1791355,0.08719357
1.037389,-0.1771429,0.1774738,-0.1314081,0.1269161,0.05238525
0.998462,-0.07203699,0.1544001,-0.3192071,0.001323581,0.1043091
1.026482,-0.02710075,0.1201315,-0.4111701,-0.1138503,0.1349276
1.079555,-0.05438483,0.1280117,-0.33764,-0.1779929,0.1919574
1.190197,-0.130007,0.1270556,-0.2082465,-0.1602968,0.1843889
1.293413,-0.2600161,0.1290432,-0.1528173,-0.09629243,-0.01284984
1.295356,-0.3711179,0.1530772,-0.2741107,-0.1713833,-0.3893509
1.2426,-0.4140392,0.1518881,-0.5382443,-0.2840767,-0.7178848
1.086363,-0.38712,0.1003718,-0.6734865,-0.3069928,-0.7593471
0.9524492,-0.4600886,0.04617495,-0.442281,-0.213833,-0.7086039
0.9637245,-0.5683092,0.09761449,-0.02529172,0.1247544,-0.6933989
1.068311,-0.5484996,0.1660622,0.2498777,0.5195103,-0.579152
1.205093,-0.4273284,0.1519994,0.2400966,0.6572363,-0.3617193
1.227739,-0.2027204,0.1913746,-0.05482637,0.4771031,-0.1108159
1.108332,-0.1023799,0.2378912,-0.3749064,0.262723,0.03330544
0.9706529,-0.1856801,0.2033916,-0.4753944,0.3124668,-0.04808056
0.9108086,-0.2048389,0.2072691,-0.4453288,0.4252768,-0.1701346
0.8932536,-0.1862461,0.2218048,-0.4481445,0.5790226,-0.1565245
0.8127574,-0.163408,0.2032737,-0.5026108,0.760347,-0.1419486
0.7197841,-0.09282037,0.2046296,-0.5744844,0.6772471,-0.1093866
0.6712647,-0.06041586,0.1993256,-0.6637445,0.5346376,0.01042298
0.6601788,-0.09073129,0.2134725,-0.6690298,0.382799,0.06189556
0.6918975,-0.1267594,0.2531432,-0.5582979,0.147348,0.08429929
0.7115557,-0.1605143,0.2759521,-0.4103841,0.01902749,0.1280322
0.7100373,-0.1604258,0.3184719,-0.1959412,-0.203236,0.134861
0.7310571,-0.09909751,0.3516322,-0.02374297,-0.5079231,0.1094842
0.7987277,-0.07383061,0.3443327,0.01798931,-0.6770392,0.004268574
0.9374498,-0.1052417,0.3352718,0.02059173,-0.7823412,-0.1254804
1.114585,-0.1523632,0.2860698,-0.01053379,-0.7388453,-0.2140631
1.261871,-0.1923383,0.1975062,-0.0515256,-0.5124138,-0.1921494
1.361902,-0.1683541,0.1653367,-0.04953385,-0.1845267,-0.005859169
1.407001,-0.1508464,0.1885718,0.04100899,0.09534577,0.122516
1.386125,-0.1689691,0.1903974,0.1284534,0.1806975,0.05436534
1.376845,-0.1505094,0.2025492,0.01066245,0.3369257,-0.0183944
1.414097,-0.1042131,0.3064694,-0.1751922,0.5297579,0.06601773
1.3928,-0.1196963,0.38724,-0.1560857,0.442107,0.1316478
1.252338,-0.3664386,0.2686337,0.1244033,0.3701551,0.1280628
1.035005,-0.6156789,0.1223948,0.4121805,0.4223953,0.1831957
0.8340672,-0.4136785,0.1601151,0.3283125,0.3639921,0.05839817
0.6996585,-0.1396334,0.1815994,0.04965281,0.2745426,-0.144787
0.681054,-0.2092113,0.1129965,-0.1456911,0.04135593,-0.07542168
0.8023138,-0.2166216,0.1077346,-0.3254208,-0.3525425,0.1051595
0.8948083,-0.2115766,0.08693844,-0.2821643,-0.6257261,0.2776231
0.9261047,-0.4076434,0.06890734,-0.04153196,-0.7564315,0.3317413
0.9365248,-0.4201309,0.09609618,0.1447592,-0.7313335,0.1846998
0.8590531,-0.3362473,0.06762219,0.3623221,-0.6854995,0.05928938
0.8337777,-0.3030771,0.06731465,0.4769255,-0.7186608,0.01273771
0.8705618,-0.1722347,0.06645017,0.5088532,-0.5840623,0.05406693
0.8926992,-0.1134369,0.02229855,0.5578631,-0.3661111,0.1710542
0.9530644,-0.1038449,0.04316348,0.4818753,-0.1765506,0.2387705
0.9680366,-0.06902371,0.05356602,0.4347317,-0.02492181,0.3175133
0.9709044,-0.03621907,0.04667949,0.3017915,-0.04943957,0.3859437
0.9947878,0.02377094,0.05482783,0.02762334,-0.05019392,0.4168977
1.004283,0.003033233,0.03473215,-0.1261979,0.0307179,0.4814016
1.028427,-0.02817779,0.04322182,-0.1949966,0.06665159,0.4576301
1.018652,-0.07816003,0.06795789,-0.1136537,0.1378714,0.3841485
1.038448,-0.1997559,0.09102043,0.03537899,0.1772748,0.3383405
1.08935,-0.2401292,0.1267387,0.1588358,0.1724895,0.2474723
1.100211,-0.2633659,0.1537554,0.2636902,0.158598,0.1784806
1.067215,-0.2089455,0.1674526,0.1441848,0.07064878,0.09934484
0.9942562,-0.03104035,0.1535462,0.02895918,-0.08636499,0.04410421
1.037347,-0.0202343,0.1479727,0.06339713,-0.2883731,0.08200925
1.177636,-0.1304984,0.1271075,0.1145971,-0.3399196,0.06242991
1.293162,-0.2159078,0.08200286,0.2369784,-0.1447266,-0.02130684
1.331379,-0.3431281,0.1055574,0.246431,0.009904794,-0.2248468
1.188975,-0.4311932,0.128209,0.07536911,-0.04978454,-0.5641539
0.9957035,-0.4794519,0.1156295,-0.1064129,-0.1521589,-0.7994956
0.8615218,-0.5128198,0.1400674,-0.1358905,-0.2093567,-0.8641408
0.8665294,-0.4905366,0.144628,0.1538834,-0.2320724,-0.7826303
1.08146,-0.5003004,0.1233155,0.5287247,0.08905639,-0.5840799
1.269265,-0.421879,0.1282831,0.5841822,0.5863447,-0.3019643
1.309226,-0.2010787,0.1610502,0.2360136,0.6028278,0.03318088
1.156425,-0.08692691,0.2054298,-0.2194008,0.4528827,0.1861059
0.9146037,-0.1149198,0.2105978,-0.4438797,0.5012033,0.05754371
0.8434815,-0.1638704,0.2012255,-0.5192251,0.4660665,-0.11408
0.8040999,-0.1571637,0.2170456,-0.5815056,0.5557995,-0.180401
0.7467405,-0.1262453,0.207869,-0.5985056,0.7644094,-0.1966959
0.7332986,-0.1010883,0.18715,-0.6425361,0.7497684,-0.1489052
0.6842173,-0.0590124,0.1897355,-0.7119414,0.685506,-0.05253908
0.6800689,-0.09379051,0.1993268,-0.6969481,0.5377087,-0.01174725
0.7095999,-0.1552553,0.2313118,-0.5747231,0.1808045,0.04122777
0.7453775,-0.1959443,0.2789987,-0.3517906,-0.09434146,0.0852105
0.7754412,-0.2269428,0.3209515,-0.0843183,-0.2102114,0.05330966
0.7647545,-0.1514267,0.3496347,0.1079753,-0.3808236,0.05893349
0.8225676,-0.08797056,0.3485333,0.2164862,-0.6053776,0.02888654
0.9509267,-0.09592788,0.3316399,0.2584268,-0.6640502,-0.0745711
1.093369,-0.117679,0.2931055,0.1833775,-0.5751962,-0.1276455
1.205611,-0.1638408,0.2542172,0.06068988,-0.467356,-0.1141496
1.265898,-0.1571406,0.2716395,0.02229055,-0.2790291,-0.01875122
1.299642,-0.1205961,0.3207256,0.1311762,-0.07899113,0.06334052
1.302061,-0.02890111,0.3981667,0.2319522,0.04573326,0.01556205
1.382906,0.09643284,0.4694211,0.07561956,0.2332094,-0.09271714
1.471956,0.006135668,0.4048701,-0.09716383,0.4297724,-0.118304
1.352698,-0.2780674,0.2159434,0.002142104,0.3851945,0.06300582
1.194552,-0.4839525,0.07993762,0.1603017,0.2983389,0.2853551
1.115414,-0.446301,0.1426021,0.2698118,0.3847759,0.2356982
0.9288074,-0.334218,0.239597,0.3116879,0.3564959,0.03618166
0.7544451,-0.3067634,0.1484474,0.1530894,0.2511477,-0.07454806
0.7527738,-0.1819248,0.09560939,-0.1096256,0.1399186,-0.1175097
0.7836111,-0.1376355,0.1423578,-0.3298915,-0.1139743,-0.007524612
0.8574628,-0.2734247,0.09170045,-0.3985957,-0.2957025,0.1650337
0.906218,-0.2872278,0.09237609,-0.2538491,-0.515762,0.1820031
0.8623281,-0.3625715,0.1087717,-0.06219158,-0.7236071,0.1671787
0.8688824,-0.4326685,0.05014387,0.1048132,-0.6541584,0.117095
0.8355082,-0.3255309,0.06778478,0.3157189,-0.6841201,0.04774915
0.8358995,-0.3176552,0.06344652,0.4842014,-0.6387911,0.08632816
0.9128846,-0.2196101,0.03100472,0.5436389,-0.3299158,0.1348215
0.8891259,-0.103653,0.04225125,0.5563286,-0.2279373,0.2004627
0.9159573,-0.1485201,0.04545044,0.5289473,-0.1705718,0.2496477
0.9602877,-0.06928441,0.07781154,0.4043208,-0.09167312,0.2741838
0.955195,-0.03032938,0.07995025,0.2022911,-0.1611495,0.3919799
0.9890282,-0.02223648,0.06050906,0.03381956,-0.1360153,0.5079199
0.9811302,0.03493241,0.06730179,-0.02273214,-0.04497354,0.5651204
1.006381,-0.05062171,0.05404504,0.01196162,0.06039643,0.5674086
1.041536,-0.1150581,0.06193139,0.1001964,0.166752,0.4910779
1.063426,-0.16701,0.09174321,0.2219831,0.1625758,0.3450154
1.144947,-0.2228859,0.1495317,0.2698316,0.1675191,0.1464263
1.153836,-0.1703552,0.198543,0.1585113,0.131168,0.0149508
1.116952,-0.09628938,0.1668934,-0.008598392,-0.01197163,0.01246142
1.110428,-0.007682755,0.1485305,-0.08674804,-0.1602771,0.07212691
1.159562,-0.02560456,0.1598546,-0.01286106,-0.2610675,0.09754543
1.278685,-0.1810166,0.1446858,0.1057339,-0.1663189,0.01223938
1.323816,-0.3243545,0.1302557,0.09011981,-0.03189392,-0.2345157
1.225388,-0.4289732,0.109989,-0.03873223,-0.09380167,-0.6011943
0.9958418,-0.437349,0.07721085,-0.2235231,-0.1195466,-0.8420628
0.8093493,-0.4439886,0.06425359,-0.2982045,-0.06952211,-0.8687144
0.8815112,-0.5245296,0.09236505,-0.01654814,-0.009469474,-0.7876856
1.063227,-0.5325856,0.1275734,0.322588,0.2804342,-0.587626
1.179376,-0.4319754,0.127478,0.3162717,0.5391885,-0.3284105
1.215913,-0.2429059,0.1383818,0.08239646,0.361469,-0.03740721
1.106458,-0.1080587,0.1725384,-0.1591968,0.1794035,0.1883689
0.9497867,-0.1406215,0.1725271,-0.3115241,0.327803,0.02169402
0.8958367,-0.1552545,0.1786682,-0.4261078,0.4399648,-0.2778569
0.8494442,-0.1052782,0.2094273,-0.595246,0.5706783,-0.292607
0.7811413,-0.07804634,0.1969452,-0.7509629,0.8143389,-0.2944375
0.7300828,-0.05721369,0.1812307,-0.8389938,0.7737059,-0.2826453
0.6909589,-0.06221264,0.1955348,-0.8692806,0.6282925,-0.1338322
0.7110296,-0.09354988,0.2012976,-0.820531,0.490204,-0.11625
0.7390628,-0.1508199,0.2308939,-0.6506941,0.1462732,-0.09110209
0.7603572,-0.2118794,0.2818884,-0.3461584,-0.06903599,0.014284
0.7747769,-0.1848945,0.3133383,-0.02977629,-0.2300426,0.06290415
0.7688191,-0.1073929,0.3345566,0.1252196,-0.502318,0.172919
0.8301763,-0.06230497,0.3397617,0.1189306,-0.5887958,0.2031855
0.8997447,-0.04340725,0.3307115,0.02274825,-0.6126232,0.113694
0.937029,-0.05007885,0.3254737,-0.1208532,-0.5755653,0.03036627
0.9871489,-0.06083883,0.3133088,-0.1663038,-0.3597625,-0.05208132
1.136383,-0.08742954,0.2620475,-0.06239308,-0.1278562,0.01240508
1.350743,-0.1172255,0.2314397,0.09087085,0.05820036,0.07990818
1.279484,-0.02825507,0.3700261,0.2031931,0.134328,-0.03005194
1.156864,0.06923349,0.5300475,0.1235733,0.3241635,-0.1524508
1.321471,-0.007197356,0.4420762,-0.03207508,0.6261169,-0.1905126
1.352913,-0.1733788,0.2609641,0.04326739,0.543872,-0.003234632
1.263471,-0.3934527,0.1607931,0.244255,0.3398414,0.2914774
1.214568,-0.5691555,0.1272405,0.3290508,0.3459748,0.2837105
0.9908721,-0.508512,0.1872885,0.2741326,0.2958083,0.04338235
0.7789187,-0.364264,0.1983411,0.1255805,0.2646219,-0.113921
0.7097368,-0.2685479,0.1529385,-0.0950091,0.1835194,-0.07901886
0.7144019,-0.1933602,0.1616411,-0.2857309,-0.1452027,0.1384483
0.7912551,-0.2407613,0.1178084,-0.2685433,-0.4991084,0.3671189
0.8560679,-0.3107519,0.1037326,-0.09765774,-0.7983885,0.4195578
0.9052625,-0.3324674,0.1198095,0.1077736,-0.8417762,0.2655264
0.894447,-0.3793361,0.06688376,0.2883889,-0.6479446,0.05211603
0.8569873,-0.3102267,0.08511877,0.382652,-0.6093089,-0.02904023
0.865147,-0.1967823,0.08784416,0.4606482,-0.4862202,-0.001831955
0.8638684,-0.1382705,0.04494323,0.4605521,-0.2664562,0.07832197
0.9125102,-0.0831507,0.06883744,0.4283044,-0.1796736,0.2024969
0.9572791,-0.1127978,0.08129876,0.4661511,-0.06659994,0.3073517
0.9556618,-0.0986351,0.1011063,0.3928442,-0.1156736,0.3767202
0.9865193,-0.03211714,0.1055066,0.2673664,-0.196938,0.4107884
1.007052,-0.01695852,0.07493553,0.1325177,-0.08829283,0.4296792
1.030352,0.03045155,0.07411226,-0.00190877,-0.04394017,0.4144755
1.042942,-0.009727803,0.06497586,0.02932881,0.06802777,0.360732
1.038698,-0.1151924,0.08922572,0.09008729,0.2027492,0.2603991
1.059462,-0.1681674,0.1396029,0.1648685,0.1649201,0.09686443
1.056991,-0.2064702,0.1428272,0.2340508,0.09773569,0.03659836
1.051812,-0.1660544,0.1229191,0.1409493,-0.0179048,0.06376118
1.053004,-0.07978235,0.103321,0.08589104,-0.1231557,0.08682401
1.065715,-0.0208764,0.118185,0.1530499,-0.1849143,0.1649484
1.155718,-0.0961865,0.1450165,0.2308759,-0.2275229,0.1668179
1.290611,-0.3142155,0.160735,0.269462,-0.1307379,-0.01157905
1.339573,-0.4266673,0.1843227,0.1506685,-0.08523606,-0.3455154
1.210087,-0.4387808,0.1657634,-0.1446519,-0.2505996,-0.676412
1.023549,-0.4530133,0.1269251,-0.3323136,-0.3982948,-0.8016287
0.9504284,-0.4949827,0.1222448,-0.09412227,-0.3391447,-0.7880618
1.020824,-0.5889868,0.1407173,0.343352,-0.08711776,-0.7115621
1.159371,-0.5627624,0.1812044,0.6120958,0.3068004,-0.5413044
1.208313,-0.4036484,0.2096034,0.6820725,0.5871998,-0.2586842
1.125706,-0.2086204,0.2171041,0.4513525,0.403855,0.04089225
0.9823464,-0.0584529,0.2224038,0.07861824,0.2058076,0.1737086
0.8618029,-0.08549511,0.2149085,-0.1173742,0.3720285,0.1201255
0.8094558,-0.1150568,0.2132891,-0.2940559,0.4104582,0.01529197
0.7723705,-0.07608263,0.2047184,-0.4474823,0.4281367,-0.01766792
0.7545666,-0.08068658,0.1867728,-0.4967081,0.572009,-0.0514768
0.754571,-0.05247881,0.1960564,-0.6175134,0.5137488,-0.07890992
0.7526675,-0.06500726,0.2137817,-0.6490263,0.4852444,-0.02497272
0.7629661,-0.1425857,0.2411653,-0.50415,0.3976163,-0.02521338
0.7613106,-0.1858136,0.270978,-0.2760582,0.09354864,0.006574263
0.7680812,-0.2112898,0.2719346,-0.002399504,-0.06922437,0.08172637
0.7475785,-0.1865254,0.2897276,0.1331252,-0.2247437,0.0916581
0.7170107,-0.1481292,0.3350793,0.3071255,-0.5218075,0.1427341
0.7879942,-0.113255,0.3519319,0.5172147,-0.6944554,0.09674355
0.9283554,-0.07689703,0.3393086,0.4347828,-0.6565956,-0.03518345
1.107804,-0.1159495,0.3240485,0.3475801,-0.5972492,-0.09442549
1.274089,-0.1326852,0.2923098,0.2951134,-0.4499297,-0.1211263
1.35946,-0.08855929,0.2613255,0.1520719,-0.05514546,-0.03940262
1.375487,-0.02559691,0.3068181,0.204642,0.1899272,0.02236002
1.303308,0.08775141,0.4007706,0.1983437,0.2023995,-0.04065292
1.240113,0.1045683,0.422685,0.01795771,0.2623586,-0.05023191
1.268109,-0.07381307,0.3423859,-0.0373166,0.2976085,0.04819256
1.27872,-0.3765676,0.2281021,0.01868338,0.3331116,0.2116218
1.248704,-0.6512307,0.1614251,0.3158387,0.3694281,0.2841805
1.191802,-0.6597905,0.1462773,0.6614684,0.3763124,0.171734
0.9910384,-0.4730822,0.1474611,0.6419033,0.391299,0.002390693
0.7415925,-0.3326416,0.1646269,0.4309072,0.3195639,-0.0933429
0.7089003,-0.2315995,0.1579834,0.1522571,0.1115434,-0.06305795
0.7588141,-0.1588289,0.1287083,-0.1136762,-0.2814738,0.06128833
0.7569663,-0.1745364,0.1201181,-0.1493698,-0.7154894,0.2128873
0.877048,-0.2653456,0.09693768,-0.002270259,-0.8912952,0.2714663
0.9578565,-0.3609216,0.07050713,0.2027629,-0.7860343,0.173041
0.888312,-0.3732506,0.07010424,0.3984582,-0.6825105,0.07253997
0.8891971,-0.3131406,0.07012991,0.5727511,-0.6610591,0.07680955
0.8981383,-0.2308215,0.06535456,0.7077514,-0.4278183,0.1242072
0.8719673,-0.136056,0.05600052,0.736523,-0.1779058,0.190904
0.8978623,-0.08080509,0.06802399,0.6760051,-0.1734193,0.2557496
0.9221362,-0.06068947,0.09195206,0.5582866,-0.1571207,0.3022931
0.9596335,-0.005353369,0.09096497,0.3696816,-0.1642573,0.4100614
0.9842848,0.03800791,0.08203345,0.1167862,-0.1883429,0.5414765
0.9930867,0.01199434,0.06722857,-0.1036221,-0.06617069,0.5720269
1.046786,-0.03157682,0.0665391,-0.1766523,0.07339693,0.5222689
1.076125,-0.1036124,0.09642044,-0.09902633,0.1626023,0.4428433
1.103027,-0.2020811,0.1373558,0.02365563,0.1734734,0.3177535
1.132332,-0.2139832,0.1716539,0.08163125,0.1483142,0.1582635
1.081938,-0.1395827,0.1671964,0.06824671,0.1223462,0.05948851
1.043578,-0.05494556,0.1561174,-0.02635097,0.01747995,0.06095605
1.078261,-0.01889878,0.1582579,-0.1022759,-0.128544,0.1058769
1.14819,-0.09731264,0.1391323,0.02647835,-0.2374062,0.169376
1.248685,-0.2318051,0.1321848,0.2012495,-0.1688617,0.1807678
1.287315,-0.3272156,0.1397556,0.1921979,-0.06165452,0.004541394
1.196503,-0.3749484,0.1253686,-0.00592989,-0.1457354,-0.3480974
1.036893,-0.4043017,0.09751584,-0.3104761,-0.1875357,-0.6328206
0.8686193,-0.4635067,0.07803663,-0.4413201,-0.1799702,-0.7143782
0.845301,-0.514169,0.0975735,-0.2206082,-0.1758136,-0.7104978
1.057232,-0.4943208,0.129123,0.09737045,0.09639719,-0.6431239
1.263941,-0.421189,0.142029,0.2448162,0.4746333,-0.4930834
1.266558,-0.2894231,0.1719002,0.1876376,0.5609503,-0.2850775
1.125203,-0.1537954,0.185277,-0.04203794,0.3377293,-0.03493014
0.9826288,-0.1164399,0.1675926,-0.2907003,0.1920723,0.04751608
0.9175289,-0.1548046,0.183124,-0.3956192,0.3314939,-0.1067163
0.8466669,-0.1794462,0.1972663,-0.4348455,0.4870405,-0.2221023
0.77263,-0.1443174,0.1879709,-0.5016817,0.6258802,-0.213125
0.7588947,-0.1049668,0.195916,-0.5491822,0.7564581,-0.1486458
0.7227827,-0.1019124,0.1985112,-0.5848459,0.7078701,-0.0127892
0.6964854,-0.114378,0.203099,-0.6208,0.5458031,0.09196258
0.7372658,-0.1631694,0.2246213,-0.535042,0.2729731,0.1125111
0.7590482,-0.2001575,0.2481722,-0.3387597,0.01038434,0.1214984
0.7695946,-0.1988532,0.2921938,-0.1412537,-0.1316986,0.1205034
0.7990402,-0.1922883,0.3355587,0.07023125,-0.378353,0.1155426
0.8098256,-0.1025081,0.3426149,0.1595647,-0.6207061,0.07300842
0.8726995,-0.000341752,0.3304393,0.07864442,-0.696413,-0.03844234
1.037469,-0.07045658,0.2920822,-0.01690603,-0.6837794,-0.1707365
1.182648,-0.1891186,0.2018266,-0.1751015,-0.5340088,-0.2370476
1.273011,-0.1749905,0.1570938,-0.2879225,-0.2853888,-0.1312793
1.351095,-0.1053031,0.236478,-0.1442931,-0.0131515,-0.006767044
1.369955,-0.06835699,0.3379098,-0.001061482,0.2420505,-0.04889805
1.378636,-0.1489107,0.3781161,-0.01086161,0.4150692,-0.1469935
1.389189,-0.3786702,0.2805603,0.1057522,0.4613832,-0.1840085
1.30808,-0.5519684,0.1016193,0.3081863,0.3955227,-0.05263928
1.196568,-0.5743166,0.09086907,0.4615113,0.3655193,0.1301738
1.00767,-0.4996809,0.1993301,0.6290537,0.3277447,0.05592428
0.742572,-0.366972,0.2461525,0.5270713,0.2332419,-0.1214579
0.7238719,-0.2699714,0.2214923,0.1744209,0.1402155,-0.1919309
0.8466165,-0.2100488,0.1390391,-0.07808385,-0.08012178,-0.1726179
0.8375033,-0.1642318,0.07069175,-0.2583341,-0.3114287,0.02970424
0.9088795,-0.1768162,0.04595654,-0.2498417,-0.4399972,0.22504
1.01582,-0.2824049,0.06248364,-0.08811676,-0.5272545,0.1945786
1.01507,-0.3781191,0.08266652,0.02220182,-0.4870461,0.07244482
1.023602,-0.3484688,0.05773869,0.1672935,-0.4781526,-0.06931735
0.9151173,-0.3024378,0.06835815,0.2586573,-0.5349927,-0.1408652
0.811366,-0.2201039,0.07158402,0.3288612,-0.4672795,-0.08214941
0.8801115,-0.08037619,0.04365527,0.3795996,-0.3546457,0.009771702
0.8893624,-0.04878416,0.05425719,0.3273616,-0.2199499,0.1337162
0.8957043,-0.0692151,0.05223358,0.3479012,-0.1136099,0.2773771
0.9507131,-0.05312671,0.0618588,0.2664369,-0.08488186,0.3549004
0.9593564,-0.0373826,0.06678024,0.07443703,-0.03895589,0.4174309
0.9806131,-0.03052967,0.04018515,-0.006864659,-0.04154006,0.5346329
0.9869433,-0.03368169,0.03948429,-0.05948285,-0.003677217,0.5568165
0.9972107,-0.06407322,0.03550698,0.003952833,0.1478071,0.4664485
1.036646,-0.1399258,0.05830528,0.1489217,0.2087643,0.4017841
1.082068,-0.2220391,0.1123975,0.2590881,0.1968455,0.307757
1.098888,-0.2462474,0.1547123,0.3077593,0.1583085,0.2003835
1.05283,-0.1784844,0.1765594,0.2088494,0.03683135,0.1073945
1.041147,-0.08224892,0.1502004,0.1333775,-0.1275031,0.03245531
1.083719,-0.04030102,0.1360033,0.1515726,-0.2811208,0.05430093
1.176702,-0.07263622,0.1233517,0.2108488,-0.2667114,0.05226899
1.298061,-0.1752047,0.08665582,0.2884992,-0.08227108,-0.04782733
1.304793,-0.287627,0.09870112,0.2121793,0.03417017,-0.2435317
1.168664,-0.3956746,0.1135199,0.02744892,-0.01337168,-0.5434002
0.9862724,-0.4703472,0.1180677,-0.0988921,-0.1394935,-0.7619968
0.8933798,-0.4907597,0.1566935,-0.05409734,-0.2118583,-0.832358
0.9071988,-0.5339411,0.182548,0.2531575,-0.1684117,-0.8056093
1.001077,-0.5318985,0.1873036,0.6338578,0.09529625,-0.6266867
1.220778,-0.399585,0.1896237,0.7474049,0.442102,-0.3037105
1.365113,-0.2132381,0.1879743,0.4879317,0.4527612,0.04323849
1.233101,-0.09696124,0.1996105,0.1638003,0.3451091,0.2021279
1.009076,-0.0879074,0.2124311,-0.001506108,0.4229188,0.07664588
0.8937122,-0.1009017,0.2072986,-0.1277984,0.4544497,-0.08575006
0.8623512,-0.1084566,0.1976671,-0.2044268,0.5479892,-0.08272752
0.8099122,-0.08618891,0.1798646,-0.2626271,0.7305914,-0.03379932
0.7040619,-0.03541289,0.1670308,-0.3414213,0.7085021,0.03066121
0.6571954,-0.0279913,0.184753,-0.3519852,0.6137676,0.128964
0.6750871,-0.04298189,0.2210421,-0.3626954,0.4524656,0.1216454
0.6769236,-0.08585484,0.2659172,-0.3044828,0.07907465,0.06812654
0.7378548,-0.1451393,0.2846041,-0.1564529,-0.1915153,0.05957707
0.7936712,-0.1522308,0.2828285,-0.02206406,-0.2623977,0.06306538
0.785093,-0.1085995,0.317835,0.1328544,-0.3945951,0.07853439
0.8339661,-0.0462275,0.3467727,0.1833814,-0.4963875,0.008600813
0.9154098,-0.0392294,0.34082,0.1305545,-0.4700881,-0.1270704
1.017889,-0.09310309,0.3271487,0.05088857,-0.4944506,-0.2214623
1.130158,-0.1478238,0.2840306,-0.1020071,-0.4899841,-0.2305736
1.231341,-0.1580578,0.2502762,-0.1432826,-0.3030624,-0.1047972
1.334078,-0.07013684,0.289444,-0.01302571,-0.0444915,-0.01366653
1.344567,0.04500108,0.3654225,0.06007881,0.1912797,-0.0876299
1.356036,0.06374404,0.4024855,-0.04888708,0.4076178,-0.1843033
1.387911,-0.06866204,0.351382,-0.16849,0.5519272,-0.1667761
1.32787,-0.2963317,0.2496918,-0.09796851,0.5047623,0.0001315926
1.284853,-0.4218233,0.1982814,0.069696,0.4064346,0.1752059
1.164747,-0.3870149,0.2002558,0.2076993,0.4441469,0.1469832
0.8994617,-0.3590235,0.1633152,0.2236202,0.4386181,0.008825897
0.7397188,-0.3395745,0.1056039,0.06679911,0.3732607,-0.00850066
0.7213155,-0.220847,0.1155509,-0.1569037,0.2680455,0.04790746
0.7314583,-0.1851627,0.1333258,-0.3483854,-0.04404566,0.1609484
0.7803144,-0.2791899,0.1116362,-0.3854722,-0.4654692,0.3143636
0.8768105,-0.3236351,0.1114083,-0.202535,-0.8200535,0.2963411
0.949044,-0.3841593,0.09140164,0.07170678,-0.8730113,0.1652784
0.9388149,-0.394779,0.05324121,0.2971474,-0.7171488,0.03837025
0.9179462,-0.2987065,0.06537134,0.4749304,-0.666893,-0.02828041
0.9337442,-0.2099479,0.07035095,0.6136331,-0.4269551,0.04121175
0.9296469,-0.06455844,0.06901137,0.6188782,-0.1511383,0.1022415
0.9327984,0.001720982,0.09087094,0.5166388,-0.2009603,0.1792089
0.9673206,-0.01090375,0.09203293,0.3681656,-0.1459366,0.2914871
0.9753874,0.07092417,0.08694977,0.166402,-0.05311864,0.3154701
0.9826284,0.06324306,0.07683475,-0.01965823,-0.1133395,0.3664413
0.998044,0.01253849,0.05635552,-0.1976276,-0.04322539,0.4401346
0.9836051,0.01947286,0.0487457,-0.317445,0.04337253,0.4706073
0.9768574,-0.03864824,0.05099712,-0.2827028,0.1110869,0.4847607
0.9990244,-0.1167974,0.08138777,-0.1771714,0.2292247,0.4049478
1.043482,-0.2114775,0.1425099,-0.002224425,0.2417982,0.2525675
1.084657,-0.2726369,0.189306,0.1775082,0.1702639,0.1056787
1.081741,-0.2185974,0.1875982,0.1655873,0.04985301,0.006306088
1.054098,-0.08979806,0.1582965,0.01488384,-0.08157246,-0.02538597
1.039129,0.05532913,0.1440624,-0.1249389,-0.1569502,-0.02973168
1.059011,0.04291238,0.1468944,-0.1525731,-0.2046705,0.00841185
1.1376,-0.07952945,0.1464859,-0.05557579,-0.1640481,0.03850515
1.269695,-0.1696617,0.1354525,-0.0186443,-0.05005383,-0.06537714
1.329656,-0.2863141,0.1334627,-0.1309824,-0.03554941,-0.2981518
1.209601,-0.3091778,0.1226139,-0.3037081,-0.1543604,-0.5612617
1.035243,-0.3149764,0.07627996,-0.4105522,-0.2357602,-0.7126131
0.921697,-0.4609785,0.063213,-0.3195019,-0.1206227,-0.7333087
0.8830674,-0.5089426,0.1203013,-0.05798036,0.0803594,-0.737412
0.9800347,-0.4760134,0.1811074,0.2554152,0.2270828,-0.6801864
1.129814,-0.3895158,0.1882761,0.3681901,0.3594423,-0.4966784
1.180041,-0.1564416,0.1746069,0.06326645,0.341965,-0.2198552
1.146498,-0.07879882,0.1852042,-0.2545967,0.2189539,0.03697698
1.081109,-0.162596,0.1778032,-0.2760402,0.2800122,0.007874429
1.000797,-0.1649592,0.164138,-0.2900283,0.41707,-0.2020064
0.9096108,-0.1240197,0.1800986,-0.3545376,0.613467,-0.265725
0.8077255,-0.06860748,0.1839124,-0.4216462,0.8146674,-0.2780557
0.7232199,-0.03425803,0.1866972,-0.5541907,0.7602159,-0.2228592
0.6792142,-0.04288324,0.1963576,-0.6507681,0.6907866,-0.07494218
0.6835157,-0.06303851,0.2032173,-0.6604018,0.5771997,-0.04796712
0.7265411,-0.09082281,0.2417618,-0.5658259,0.2232571,-0.03780128
0.7770692,-0.1211373,0.2834952,-0.4159813,-0.05621027,0.01402255
0.7818045,-0.1173628,0.2837789,-0.3191177,-0.1755773,0.08921148
0.7683203,-0.05984941,0.2871993,-0.2102318,-0.298154,0.20614
0.8182538,-0.05003108,0.3303608,-0.08894228,-0.4936819,0.1999195
0.8969923,-0.07361363,0.3517307,-0.0463382,-0.5687033,0.1062855
1.005444,-0.09958206,0.332333,-0.0529669,-0.4957149,-0.04296253
1.138155,-0.1712289,0.3006774,-0.07028349,-0.4667972,-0.1711932
1.211078,-0.1866757,0.2371185,-0.0804888,-0.2495971,-0.1161657
1.23906,-0.1408572,0.2110725,-0.04167278,-0.002481861,-0.04484322
1.215458,-0.05593537,0.2788068,0.04255625,-0.004175053,-0.01813818
1.197505,0.04905688,0.3746504,0.08022605,0.0614026,-0.05200769
1.265497,0.05964541,0.4143631,-0.02795759,0.3740802,-0.1729832
1.299402,0.007397257,0.3090577,-0.1947195,0.7063003,-0.1676165
1.263215,-0.1147893,0.1798765,-0.2342767,0.5504551,0.002176452
1.230354,-0.3572325,0.1995935,-0.1893992,0.2966961,0.1528853
1.182151,-0.5095442,0.216289,-0.1688693,0.5187654,0.09874024
0.988059,-0.3978843,0.158391,-0.1513426,0.52995,-0.01624002
0.6939739,-0.2792803,0.1452662,-0.1858202,0.3276474,0.01864257
0.6481608,-0.3096792,0.1375041,-0.2581097,0.2315645,0.0385997
0.7681163,-0.2793023,0.1355165,-0.2473579,-0.1244863,0.1243285
0.7638737,-0.2633234,0.1576659,-0.1766721,-0.5087298,0.2996498
0.8430307,-0.32283,0.125813,-0.05528846,-0.7633039,0.2691206
0.9909785,-0.3182536,0.07936388,0.1234831,-0.8187986,0.1430191
0.9784166,-0.3100717,0.05218213,0.240065,-0.6091329,0.05586154
0.9427517,-0.2465842,0.06607448,0.2929448,-0.5069451,0.02698227
0.936802,-0.1570676,0.1096478,0.3294926,-0.3422608,0.1245875
0.9183865,-0.152472,0.08640196,0.2983861,-0.1650442,0.2169629
0.9224914,-0.1182474,0.08080975,0.2541043,-0.2357505,0.3032523
0.928212,-0.09949484,0.1071343,0.2438637,-0.2157588,0.3903618
0.9642859,-0.1187005,0.08521471,0.2233454,-0.1858585,0.4046331
1.002701,-0.07958624,0.084971,0.1832572,-0.2160432,0.430224
1.025188,-0.03989618,0.0734453,0.08282668,-0.1304798,0.4252678
1.051869,-0.01824077,0.05302991,-0.03743963,-0.03904962,0.3668651
1.020064,-0.004719937,0.07338095,-0.06843672,0.03937806,0.3234804
0.9995855,-0.03413082,0.08432232,-0.02677139,0.06617802,0.2538841
1.035506,-0.1030717,0.1190483,0.05561182,0.06978845,0.186134
1.055259,-0.1759167,0.1442441,0.1367788,0.07880717,0.1515487
1.05875,-0.1811551,0.1169302,0.1287334,0.01186292,0.1320438
1.036374,-0.09026372,0.1119626,0.009548615,-0.03012967,0.1371793
1.017552,-0.002911252,0.1313496,-0.1364491,-0.06143474,0.1419687
1.040917,-0.009461718,0.1517901,-0.1516363,-0.1674359,0.1540699
1.095542,-0.07381565,0.1581809,0.01794355,-0.2382767,0.163237
1.2002,-0.1794677,0.1356909,0.2265229,-0.1298244,0.08937512
1.280983,-0.302713,0.1173552,0.2824602,0.02595585,-0.1068898
1.223154,-0.3373515,0.1192014,0.1547783,-0.001068777,-0.3864607
1.081992,-0.3500615,0.1085244,-0.06258945,-0.0544461,-0.6130196
0.9600771,-0.4372989,0.08489836,-0.2276998,-0.06897932,-0.7176708
0.872221,-0.4758559,0.1062565,-0.1067394,-0.1221403,-0.7494133
0.8768762,-0.4755486,0.1447983,0.2415286,-0.01479039,-0.7044752
1.033159,-0.4788647,0.1530937,0.4965087,0.2978996,-0.5621244
1.257927,-0.3580903,0.172569,0.5540463,0.5514688,-0.272833
1.333636,-0.1858262,0.1889724,0.3579014,0.4468922,0.03064881
1.155084,-0.09188843,0.1854334,0.06881845,0.2565734,0.05016449
0.9685532,-0.09049779,0.195404,-0.07558168,0.3934723,-0.09948855
0.9158348,-0.1319794,0.2144302,-0.2063031,0.4902177,-0.1756918
0.88089,-0.1019262,0.226643,-0.2925599,0.5410366,-0.1714884
0.8194068,-0.05056231,0.2102575,-0.367524,0.7675556,-0.07737551
0.7020712,-0.01366474,0.1886558,-0.5557695,0.7861974,0.04596875
0.6553833,-0.009693832,0.209978,-0.6125764,0.6082677,0.134138
0.7224916,-0.08429648,0.2436707,-0.5878179,0.3069698,0.1528878
0.74426,-0.1232107,0.2738859,-0.539743,-0.07813252,0.1149158
0.8047611,-0.1468757,0.3087945,-0.3316212,-0.2385848,0.1225666
0.8697193,-0.1426527,0.3184808,-0.1615639,-0.3076045,0.1246464
0.8425254,-0.0718674,0.3208704,-0.05681462,-0.4205423,0.08966373
0.876454,-0.05689269,0.3311219,0.01562741,-0.5369912,0.012371
0.9439904,-0.05856554,0.3172002,-0.03547724,-0.5717272,-0.1538142
0.9972173,-0.1024468,0.2814158,-0.1414519,-0.4957335,-0.2398259
1.104247,-0.1835422,0.2276134,-0.3342525,-0.4429085,-0.1712571
1.233739,-0.1748376,0.1986628,-0.4449272,-0.2180016,-0.03583701
1.315888,-0.1047422,0.2448842,-0.2172593,0.04787997,0.1063436
1.302775,0.008989895,0.3209779,-0.03345969,0.1139842,0.07681162
1.325883,0.05755054,0.4069917,-0.2001823,0.2829733,-0.1263876
1.38255,0.009718593,0.4223542,-0.317966,0.5068989,-0.2282162
1.23831,-0.08952708,0.2514841,-0.2386959,0.5338871,-0.09577214
1.092101,-0.3083982,0.08242788,-0.2260548,0.3641022,0.169378
1.140177,-0.423088,0.115778,-0.1784439,0.2227606,0.3135678
1.058666,-0.3545717,0.1936033,-0.04565783,0.2826157,0.1951798
0.8154248,-0.3601205,0.1872628,-0.0101546,0.2876804,0.023657
0.7395108,-0.3832413,0.1815215,-0.02384103,0.1709542,-0.02384355
0.8044007,-0.3034802,0.159553,-0.09706283,0.0634329,0.02986828
0.808023,-0.2255285,0.09212099,-0.2125345,-0.1373945,0.1909886
0.8032251,-0.2095912,0.07156368,-0.2298723,-0.4052318,0.3693954
0.8679776,-0.2513436,0.08986854,-0.15592,-0.5655295,0.4012423
0.9163382,-0.3279979,0.09798142,0.01037105,-0.6047709,0.3062301
0.9088674,-0.3568208,0.09536933,0.2227312,-0.6164111,0.2032789
0.8984078,-0.3225858,0.09677408,0.405369,-0.6197144,0.1393937
0.9147159,-0.2903544,0.1190488,0.508621,-0.549338,0.1475888
0.9389635,-0.2647136,0.1188969,0.5966609,-0.4016368,0.2003819
0.9505751,-0.2074918,0.1127056,0.7559955,-0.3273523,0.2279435
0.9546868,-0.1323147,0.1183119,0.7625385,-0.3439034,0.2915748
0.9664506,-0.09627969,0.1017167,0.671923,-0.3117179,0.3374607
1.011978,-0.05209336,0.0777641,0.5985997,-0.2746258,0.3282529
1.054768,0.01802272,0.03877935,0.3880545,-0.2465345,0.4164228
1.053408,0.02455564,0.02572815,0.2286554,-0.1377558,0.4825974
1.040864,0.006341902,0.05099268,0.1094102,0.008181252,0.4564859
1.026577,-0.02161163,0.05536591,0.03337309,0.1120007,0.4125261
1.028945,-0.08082,0.07033988,0.153319,0.17199,0.281399
1.037209,-0.1240926,0.1035889,0.1910683,0.2056317,0.1922646
1.020886,-0.1707687,0.1305204,0.188329,0.1766399,0.1420141
1.017843,-0.1600749,0.134771,0.1469058,0.09664292,0.0375479
1.008192,-0.06647023,0.1241042,-0.06454788,-0.03164203,0.02586464
1.005035,-0.02742292,0.1449582,-0.1226244,-0.1951602,0.0431731
1.093824,-0.0779812,0.1493718,-0.07607761,-0.2326586,0.01858188
1.238881,-0.194079,0.133543,-0.06111735,-0.1430402,-0.04075856
1.317409,-0.3257482,0.1398662,-0.03241423,-0.08232992,-0.2380241
1.274859,-0.3798732,0.1147926,-0.148351,-0.1171939,-0.5022765
1.153906,-0.3947067,0.06435795,-0.3117649,-0.159877,-0.6899946
0.9829308,-0.4542281,0.03249165,-0.311066,-0.10028,-0.7623767
0.875574,-0.5193807,0.05203988,-0.05943734,0.0104904,-0.7465434
0.9265169,-0.5214061,0.1140323,0.3168601,0.2731264,-0.6452821
0.9892641,-0.4863245,0.1449097,0.4308709,0.5983254,-0.4785291
1.058576,-0.3833639,0.1740707,0.1828455,0.5722355,-0.2970447
1.143582,-0.1689467,0.2087783,-0.1738557,0.3125753,-0.04473137
1.095532,-0.06665658,0.2060409,-0.4140619,0.1765831,0.09036548
1.042108,-0.1696001,0.2051903,-0.4617237,0.287943,-0.08960206
1.029871,-0.231835,0.2061052,-0.4034011,0.5534022,-0.245185
0.9381442,-0.2089973,0.2150565,-0.4202342,0.6979432,-0.2242335
0.8370617,-0.1802434,0.2310757,-0.4855611,0.6985277,-0.2140738
0.7409485,-0.1150874,0.2245372,-0.5076557,0.6187959,-0.173088
0.7076752,-0.09623505,0.2309872,-0.5613097,0.4719386,-0.1031772
0.762599,-0.1420864,0.2414768,-0.5289895,0.3002402,-0.0397682
0.7806773,-0.1589305,0.2400778,-0.4069809,0.09872676,0.06707102
0.8033586,-0.176134,0.2433118,-0.302996,-0.03419986,0.1434432
0.8102241,-0.1717823,0.2499328,-0.1056969,-0.2073042,0.1717909
0.7885347,-0.1161906,0.2762493,0.05191565,-0.4607184,0.1723756
0.8493473,-0.07668881,0.3086155,0.1097602,-0.5408135,0.1241747
0.9149267,-0.06264789,0.3225362,0.1493454,-0.5378289,0.0167582
0.9714893,-0.1050077,0.3073533,0.1034833,-0.5492571,-0.1398888
1.069915,-0.1781579,0.2594611,0.02940886,-0.515087,-0.1775906
1.162542,-0.1958517,0.2114828,-0.02810205,-0.4044162,-0.05865405
1.248658,-0.1767337,0.2096368,0.07155375,-0.1074134,0.003494162
1.273876,-0.1281851,0.2690641,0.2203162,0.2046695,-0.08786477
1.254813,-0.03226478,0.341185,0.07317066,0.3451323,-0.2626857
1.301777,0.05012665,0.3563624,-0.09834468,0.3870956,-0.3420903
1.356393,-0.06060317,0.2687764,-0.1458785,0.3802875,-0.1695249
1.328248,-0.2884314,0.1712895,-0.2098211,0.3999586,0.1100151
1.226176,-0.3413856,0.1973976,-0.09972499,0.4426239,0.1667728
1.035972,-0.3486037,0.223134,0.008290402,0.4104331,0.0006454044
0.8189279,-0.3569185,0.1753055,-0.1637042,0.3035922,-0.124651
0.7556778,-0.2546459,0.1516515,-0.3763,0.1521858,-0.1303736
0.795946,-0.2460491,0.09616053,-0.4930477,0.02861401,-0.02007601
0.8328506,-0.2707274,0.0450177,-0.5512126,0.006349773,0.1531559
0.9315439,-0.2724005,0.08436284,-0.4434351,-0.1108631,0.2665294
0.9468818,-0.3620245,0.1139196,-0.1961265,-0.3925986,0.2637559
0.8640995,-0.3859303,0.1273818,0.04728626,-0.5319301,0.138624
0.8632839,-0.3572507,0.1354803,0.2660245,-0.6012173,0.005368874
0.8538395,-0.3195164,0.1085134,0.4046935,-0.6930209,-0.02818608
0.8822216,-0.2277577,0.0972044,0.4626596,-0.5426286,0.02003824
0.9720403,-0.15773,0.07636789,0.4928087,-0.3352185,0.103969
0.9711608,-0.1055307,0.05961639,0.4175578,-0.2498014,0.2224351
0.9778309,-0.08067978,0.08313342,0.3057761,-0.1569195,0.3577745
1.003526,-0.0654371,0.08169236,0.2218062,-0.1246952,0.4040394
1.011487,-0.04334941,0.07807682,0.1071231,-0.1309116,0.4243312
1.043881,-0.04802944,0.08432776,0.02390707,-0.120881,0.4615702
1.035708,-0.03910625,0.07308872,-0.05068392,-0.1077259,0.4139288
1.019681,-0.03999522,0.08023906,-0.0902186,-0.05608975,0.3594157
1.01422,-0.05601098,0.08469463,-0.01615611,-0.02727913,0.2884679
1.022483,-0.09702471,0.08697939,0.07096972,0.007155052,0.1758996
1.060589,-0.1857297,0.1083741,0.1560367,0.1112457,0.1106278
1.050815,-0.2078267,0.1169775,0.2096864,0.1744213,0.0604496
1.018071,-0.1330695,0.1137057,0.1553466,0.09705335,0.07049969
0.9977574,-0.05385279,0.1104896,0.03769457,-0.03646849,0.1386777
1.010248,-0.03920437,0.1224244,-0.05508508,-0.1314696,0.1708494
1.092696,-0.1074378,0.1386026,0.02678221,-0.2033262,0.1683243
1.215453,-0.2347668,0.1361354,0.2066704,-0.1615888,0.1008866
1.314424,-0.3539786,0.1360097,0.2226806,-0.08090259,-0.06520189
1.253431,-0.3825304,0.1198767,0.07568099,-0.1382621,-0.3215549
1.114989,-0.3985355,0.06837966,-0.1290368,-0.149957,-0.5126115
1.048904,-0.4833205,0.03510031,-0.208212,-0.1002367,-0.5567514
0.9382359,-0.5566655,0.0808889,0.03608704,-0.06343518,-0.6142989
0.8691783,-0.5889407,0.1541578,0.4175838,0.1425656,-0.6174241
0.9593134,-0.5125814,0.1737795,0.6984268,0.4183491,-0.4893267
1.058187,-0.2812201,0.2077648,0.7658257,0.5210062,-0.3249578
1.093121,-0.1078444,0.2468697,0.4714444,0.3469689,-0.1034372
1.053075,-0.1187934,0.2040766,0.05926401,0.09147604,0.03015508
1.007483,-0.1777764,0.1746618,-0.1033318,0.1128241,-0.04920839
1.010881,-0.1985156,0.1953566,-0.1198035,0.2958935,-0.1482951
0.9688723,-0.2192589,0.1935654,-0.1397443,0.5023705,-0.1529967
0.8700751,-0.1955596,0.1929358,-0.1775084,0.6532709,-0.1314276
0.7611052,-0.10348,0.2073325,-0.2948315,0.5154116,-0.100604
0.7163892,-0.08320133,0.2176933,-0.3820808,0.3238842,-0.0576301
0.7610044,-0.1126717,0.2321423,-0.3549858,0.2121774,-0.05610362
0.8121081,-0.1385932,0.2452312,-0.3159753,0.07435688,-0.03893478
0.8568253,-0.2015242,0.2507665,-0.2365124,0.06387494,0.01345595
0.8583929,-0.17468,0.2556961,-0.1211642,0.0103838,0.02253807
0.8304634,-0.09805675,0.2690443,-0.06964697,-0.1703515,0.05070938
0.8644907,-0.08395168,0.3001289,-0.07815359,-0.220228,0.08346518
0.9097285,-0.1046589,0.3163823,-0.1242094,-0.1909171,0.06867734
0.9665442,-0.1943014,0.2795661,-0.1446477,-0.1521031,0.05166463
1.036084,-0.279313,0.2204357,-0.1203194,-0.07644824,0.03461221
1.052277,-0.3457466,0.1812686,-0.07674327,-0.006802268,0.06209993
1.088469,-0.3674825,0.2028144,0.005262692,0.02291329,0.0857865
1.127993,-0.1920647,0.2891238,0.1249155,0.02265927,-0.01955112
1.13539,-0.009917996,0.3749914,0.234191,0.02933129,-0.2064381
1.161591,-0.007576308,0.4046396,0.1269944,-0.03681013,-0.3404837
1.178076,0.009354878,0.3502626,-0.1637917,-0.08118991,-0.321025
1.220496,0.1081977,0.3068205,-0.3524099,0.04179971,-0.141787
1.215343,0.06584051,0.3319051,-0.4912009,0.1334022,0.1102725
1.110977,-0.1331342,0.3039949,-0.5553809,0.09284553,0.2536914
1.049755,-0.3004716,0.2636185,-0.4622116,0.0395207,0.1712865
1.010877,-0.371944,0.2786069,-0.4089971,0.0174351,-0.005839768
0.9694409,-0.3096883,0.2383159,-0.38501,-0.02683218,-0.1745145
0.8788116,-0.2639681,0.1408264,-0.3945324,-0.05400344,-0.242113
0.7759177,-0.2933522,0.08050581,-0.5264212,-0.01786292,-0.1119815
0.8417344,-0.2237828,0.07091507,-0.6830529,0.003226658,0.02857121
0.9128877,-0.1846641,0.04871232,-0.8279223,0.09437941,0.1384991
0.9472544,-0.1942596,0.03994503,-0.8640319,0.1706602,0.2584161
1.002477,-0.2100408,0.09802043,-0.7720899,-0.003510756,0.2211136
0.9302496,-0.3030966,0.1381102,-0.6461906,-0.266538,0.1173782
0.8843328,-0.3149479,0.1462062,-0.43913,-0.4487131,-0.009512458
0.9148444,-0.3010106,0.1352061,-0.2249355,-0.5108998,-0.1626444
0.9280918,-0.3047419,0.0921116,-0.04952214,-0.4321996,-0.1757915
0.9796606,-0.2497738,0.07809822,0.1134991,-0.2951322,-0.159167
0.9692821,-0.2037917,0.0714692,0.1936565,-0.1764199,-0.07888155
0.9275512,-0.1218322,0.07189915,0.2147579,-0.1629415,0.142012
0.9344858,-0.08106648,0.08769189,0.192188,-0.2078956,0.2546317
0.9458605,-0.08445742,0.06492484,0.1355474,-0.2025893,0.2742805
0.9977588,-0.04095936,0.05719442,0.07505593,-0.206515,0.3678768
1.028888,-0.06895433,0.06818829,0.03967705,-0.2073603,0.4622016
1.027227,-0.1254489,0.07120469,0.100345,-0.1281648,0.4254661
1.057198,-0.1576074,0.09182336,0.1985533,-0.04060611,0.3483542
1.081774,-0.2151536,0.09786377,0.3312135,-0.002392784,0.2885612
1.09324,-0.2303078,0.1020896,0.4994533,-0.01053443,0.1870035
1.067499,-0.1697971,0.118818,0.5132304,-0.0390158,0.1765162
1.027681,-0.09773198,0.1357188,0.3935853,-0.04834308,0.158026
1.045042,-0.08609952,0.1598307,0.3122884,-0.1408138,0.05227519
1.107534,-0.1428665,0.1658515,0.332425,-0.3066926,0.04413807
1.21686,-0.2322733,0.1451299,0.4818956,-0.3449967,0.03234244
1.310382,-0.2933924,0.1170838,0.6815622,-0.2142919,-0.04232889
1.295898,-0.3070554,0.1078026,0.7629273,-0.03958135,-0.1778978
1.214262,-0.322576,0.08537494,0.6398132,0.005760576,-0.3653791
1.099891,-0.3423516,0.03411528,0.4355607,-0.03397659,-0.4763014
0.9658842,-0.3502471,0.01858739,0.2759898,-0.01345613,-0.5866243
0.8933742,-0.3549703,0.02150833,0.2209942,0.02781791,-0.6578306
0.9289325,-0.3815267,0.06163508,0.4120236,0.2080248,-0.6154244
1.003117,-0.4190297,0.1532968,0.7179856,0.5820067,-0.5239834
1.0299,-0.4072592,0.1771947,0.8449269,0.762631,-0.3219792
1.015067,-0.3115157,0.1734802,0.7593077,0.5043037,-0.07086449
0.9800289,-0.1784667,0.210598,0.6153352,0.1657309,0.06414291
0.9499395,-0.1446241,0.2078199,0.5486636,0.1275878,0.007084129
0.950737,-0.1626148,0.1997987,0.4434769,0.2697789,-0.1036556
0.930988,-0.07439812,0.22913,0.2736744,0.4366513,-0.1109697
0.8976975,0.003816899,0.2272808,0.09782785,0.5547417,-0.1301982
0.8770923,-0.0006320428,0.2025537,-0.1672107,0.5447454,-0.1080271
0.816967,0.02339682,0.2041413,-0.3372485,0.4713514,-0.002593834
0.7641656,0.01846961,0.2459148,-0.3521556,0.2819042,0.04933149
0.7751551,-0.0666583,0.3078686,-0.305273,0.006623852,0.1463187
0.8167901,-0.1278347,0.3354476,-0.1110164,-0.1822163,0.2553501
0.8689349,-0.1372357,0.3570028,0.1355119,-0.287337,0.2629618
0.8857819,-0.1076257,0.3846066,0.3131774,-0.3532649,0.1879095
0.8672724,-0.06760919,0.3578862,0.3236094,-0.4542398,0.01089959
0.8934,-0.08509289,0.3229176,0.206289,-0.5479301,-0.1328234
0.9836986,-0.1148034,0.2728438,0.07806609,-0.5050431,-0.165309
1.12044,-0.1380917,0.209153,-0.1313878,-0.2809894,-0.08085385
1.225809,-0.1604405,0.2515998,-0.1993969,0.06779869,0.09069977
1.212807,-0.09760756,0.3301771,-0.02796624,0.1873994,0.1359356
1.19354,-0.03680005,0.392193,0.07434769,0.08275528,0.06817722
1.235895,-0.06484474,0.4398772,0.0594145,0.1991645,-0.01676359
1.231863,-0.09242967,0.3461416,0.06698303,0.3968959,-0.06485087
1.164268,-0.1581368,0.2378578,0.1213847,0.3698127,0.07073923
1.079279,-0.2958775,0.23985,0.1420132,0.1884894,0.2662806
1.047434,-0.3585143,0.2128445,0.1988571,0.02048754,0.2967847
1.042381,-0.3425253,0.1882604,0.3137521,0.07274304,0.1633176
0.9349579,-0.3784236,0.1880269,0.3189489,0.1733724,0.004995245
0.8452236,-0.3843522,0.1308114,0.2750032,0.1145269,-0.05755702
0.859883,-0.3098354,0.09600223,0.238583,0.1065069,0.001035596
0.8387654,-0.2751571,0.07997941,0.2088403,0.03055973,0.1509037
0.8268682,-0.2635374,0.05919015,0.2285399,-0.2107365,0.3016548
0.8883265,-0.2655286,0.0980941,0.2583747,-0.3986162,0.3524587
0.927456,-0.2830459,0.1072667,0.3426444,-0.5694498,0.2613453
0.9360507,-0.2631651,0.08973433,0.4386701,-0.6389127,0.135023
0.9405063,-0.2425794,0.1137104,0.4811611,-0.5921856,0.04714583
0.9478278,-0.1852189,0.1088915,0.5126194,-0.5647297,-0.02102386
0.9787753,-0.1070833,0.106912,0.5156939,-0.4056426,0.009224854
0.9857365,-0.07672859,0.1128375,0.5012793,-0.2225631,0.05737095
0.9558589,-0.04022729,0.1012901,0.4569375,-0.1939948,0.0972784
0.939932,-0.01129497,0.1087347,0.3655034,-0.1797628,0.2165596
0.946677,0.01126142,0.09847318,0.2533266,-0.1422098,0.3250059
0.9699842,0.0317835,0.09499882,0.13569,-0.1198622,0.4686831
1.002525,0.02275656,0.09313247,0.03951306,-0.06544059,0.5821136
1.035686,0.02352374,0.07273328,-0.02437055,0.0330509,0.5633919
1.029215,-0.002312224,0.091608,-0.01696634,0.08435097,0.5184192
1.006991,-0.06579303,0.1074521,0.03359343,0.1002988,0.3800771
1.048364,-0.1363149,0.1147451,0.07633109,0.1204799,0.2206532
1.070898,-0.1949411,0.1402501,0.1184119,0.09005888,0.1376097
1.042851,-0.1793333,0.1500684,0.09518531,0.04813853,0.07745552
1.028281,-0.1159251,0.1464965,0.05169526,-0.0647448,0.1061346
1.022887,-0.06855586,0.1372067,0.07758964,-0.2504547,0.146399
1.104843,-0.09423569,0.1369593,0.1514546,-0.3002901,0.1521846
1.260893,-0.1926454,0.1411261,0.2531885,-0.1789786,0.1021923
1.334906,-0.2845385,0.1480451,0.240829,-0.06910475,-0.1136341
1.298316,-0.3518421,0.1541259,0.05485496,-0.1486397,-0.3836714
1.196782,-0.3756006,0.1125563,-0.1603804,-0.226544,-0.5835022
1.042249,-0.4133024,0.06790585,-0.2447488,-0.1428603,-0.6506367
0.9038008,-0.49917,0.08041465,0.002090498,-0.04051862,-0.6112082
0.9043864,-0.5073948,0.1066244,0.3951694,0.263023,-0.5458129
0.9923543,-0.4420932,0.1325202,0.5091906,0.677443,-0.40387
1.049395,-0.3213554,0.1851213,0.3750934,0.6952731,-0.2207247
1.060422,-0.1669205,0.2219701,0.1390106,0.3888722,0.01354802
1.006147,-0.1442312,0.2158156,-0.09725517,0.1697977,0.1892783
0.9551932,-0.2121306,0.213189,-0.1351757,0.2407744,0.05442003
0.9388771,-0.2194742,0.2111678,-0.06499298,0.4341302,-0.1112375
0.8920143,-0.1763229,0.2040709,-0.1101912,0.5483227,-0.112764
0.8293641,-0.109575,0.203835,-0.1949277,0.6246852,-0.1446301
0.7615215,-0.03923075,0.194026,-0.2759433,0.5577183,-0.1104385
0.7406818,-0.01498772,0.2012367,-0.4446988,0.4108946,-0.02780584
0.7700578,-0.0375266,0.2272383,-0.5291537,0.3077375,0.0009521942
0.7810195,-0.06528048,0.2564066,-0.490812,0.1217799,0.08388129
0.8067834,-0.0937527,0.2833437,-0.4624847,-0.02227138,0.1490406
0.815778,-0.09876609,0.28623,-0.3657548,-0.1665196,0.1747523
0.7999319,-0.06036778,0.3092947,-0.2757078,-0.4235122,0.1774095
0.8270128,-0.04989314,0.347235,-0.247984,-0.5824163,0.07776353
0.8795032,-0.09902348,0.3428564,-0.2331819,-0.6421068,-0.07666972
0.9758607,-0.175902,0.3113041,-0.2483208,-0.6100225,-0.2501986
1.101725,-0.2359066,0.2516522,-0.2212728,-0.496501,-0.28914
1.207415,-0.2332414,0.2023619,-0.1755427,-0.2970639,-0.1093414
1.272383,-0.16805,0.2250386,-0.05221874,0.0534204,0.02857672
1.221796,-0.04720912,0.2861057,0.09093181,0.2472975,-0.01745273
1.163335,0.05608633,0.374797,-0.04011065,0.2747117,-0.142194
1.223753,0.04345703,0.4253474,-0.2602257,0.3628833,-0.1775058
1.256008,-0.07935534,0.300463,-0.342482,0.3863104,-0.03700016
1.240458,-0.2912597,0.1522501,-0.3840093,0.3670665,0.1819927
1.227114,-0.4811562,0.1795695,-0.2468716,0.3989709,0.2433978
1.099577,-0.4859371,0.2127779,0.02932359,0.427323,0.0832569
0.8731478,-0.3735163,0.1705223,0.05696639,0.3723637,-0.05695384
0.6979369,-0.2877526,0.1555097,-0.111861,0.2180258,-0.112085
0.6971741,-0.2498447,0.1129681,-0.2504725,0.03718894,-0.1043573
0.8075593,-0.2533176,0.06841512,-0.3718067,-0.1190207,0.01264803
0.8666356,-0.2711166,0.07670017,-0.3739383,-0.2422977,0.1218392
0.9194082,-0.3160965,0.08768093,-0.2170337,-0.4458731,0.1451312
0.9768538,-0.3785977,0.1165511,0.002916464,-0.6005972,0.06559816
0.9490124,-0.3461259,0.1112812,0.1521929,-0.5225242,-0.02260646
0.901772,-0.2888184,0.08372457,0.1577043,-0.4940401,-0.0271111
0.917315,-0.2848989,0.1051256,0.1925579,-0.4958912,-0.01881682
0.9316864,-0.206521,0.09262238,0.2311008,-0.3486017,0.03199472
0.9158666,-0.123125,0.07736606,0.1878977,-0.2744979,0.1104145
0.9439633,-0.1209183,0.08976012,0.1667706,-0.2357028,0.1773501
0.9521408,-0.1021021,0.07581949,0.1137555,-0.126001,0.2323144
0.9358126,-0.08788143,0.08335285,0.04163796,-0.07481797,0.2384688
0.9724741,-0.0792538,0.08463482,0.002148386,-0.07171973,0.2717103
0.9790767,-0.06151019,0.07330601,-0.03400844,-0.07858452,0.3410563
0.9931362,-0.07353901,0.08068088,-0.01886791,-0.06933676,0.4147998
1.034885,-0.0680809,0.0748713,0.03676729,-0.003134722,0.4427628
1.049289,-0.07062622,0.08934819,0.1061065,0.09813009,0.3663781
1.077474,-0.11719,0.1110778,0.1456484,0.1650882,0.2679228
1.07091,-0.1763988,0.1145079,0.1224484,0.1289654,0.164415
1.053962,-0.2028501,0.1146324,0.07183907,0.08709332,0.1231954
1.049723,-0.1233834,0.1101598,-0.01654735,0.05385311,0.1692869
1.031607,-0.05614014,0.1365137,-0.03620892,-0.1006799,0.1701
1.09803,-0.1294883,0.1599592,0.115967,-0.2204997,0.1757739
1.222546,-0.2361085,0.146504,0.2999974,-0.1440611,0.1668255
1.289949,-0.3044196,0.1420899,0.3648876,-0.06509824,0.001743835
1.261524,-0.3349597,0.1407755,0.2908977,-0.1010941,-0.2670778
1.179662,-0.3453937,0.1136636,0.1238966,-0.07020028,-0.4864919
1.054666,-0.388309,0.08375632,-0.08006089,0.009149763,-0.5985596
0.8678295,-0.43718,0.09759123,-0.1372413,-0.01990606,-0.6756559
0.8227834,-0.4604041,0.1299449,0.08666382,0.03980959,-0.6843066
0.9704312,-0.4604123,0.1592221,0.3532685,0.266588,-0.5517182
1.09954,-0.3912592,0.2160323,0.4365806,0.4473922,-0.3443943
1.166392,-0.2740445,0.2528616,0.2763984,0.4704744,-0.1285389
1.149504,-0.2140211,0.2563062,0.006783489,0.3405215,-0.005341855
1.057045,-0.2219417,0.2462338,-0.06308081,0.2702916,-0.04307329
0.9701875,-0.2072025,0.2107781,-0.05978514,0.3587512,-0.1307363
0.8880151,-0.1647862,0.2105622,-0.1432525,0.4732699,-0.1464324
0.8187212,-0.1456705,0.2256218,-0.2135642,0.5579891,-0.1088943
0.7505938,-0.09728548,0.2122426,-0.3194677,0.5333326,-0.05661891
0.7326213,-0.06553332,0.2275078,-0.3654488,0.4549097,-0.009481818
0.7788338,-0.1126344,0.2447433,-0.3391889,0.3711535,-0.02089305
0.785199,-0.1222577,0.2499557,-0.3148003,0.1715723,-0.02940716
0.7992893,-0.1249691,0.2696521,-0.2203162,-0.02534854,0.003680502
0.8099933,-0.1395503,0.2771404,-0.1605048,-0.1447239,0.04786151
0.7712578,-0.08550245,0.2911353,-0.1199245,-0.283147,0.1254878
0.7840854,-0.05055508,0.316355,-0.05073975,-0.3970716,0.1260291
0.8606067,-0.04972023,0.33391,-0.04056772,-0.4251383,0.01162754
0.9655093,-0.06867809,0.3406673,-0.05897496,-0.391521,-0.1253751
1.034869,-0.1355051,0.326104,-0.1058229,-0.3638506,-0.2343647
1.115049,-0.2095268,0.2918121,-0.142674,-0.3234903,-0.2147381
1.25833,-0.2437835,0.2541156,-0.1224096,-0.1865094,-0.09772153
1.271951,-0.1662563,0.2803853,-0.08180566,-0.0409426,0.004524197
1.240723,-0.08035734,0.3650745,-0.05412209,0.0632165,0.006540812
1.311302,-0.0613859,0.4327208,-0.07474302,0.3071733,-0.1287102
1.318038,-0.03311426,0.4272941,-0.1094502,0.576834,-0.1888489
1.2671,-0.163993,0.2396499,-0.1030342,0.4856717,-0.04611859
1.197728,-0.4052729,0.05806636,-0.04517568,0.2857852,0.08889127
1.093759,-0.4291527,0.1856108,-0.01697889,0.3181639,0.03273789
0.9882759,-0.3526714,0.3071991,-0.05365616,0.2865632,-0.08870706
0.8267394,-0.3253424,0.1651454,-0.1320767,0.1755331,-0.1253662
0.7328644,-0.2380784,0.08940221,-0.3120889,0.07533173,-0.1292238
0.827808,-0.2225599,0.1159277,-0.4423515,-0.05184279,-0.0596431
0.9313461,-0.3062065,0.08452137,-0.4143373,-0.08264078,0.07067524
0.9454458,-0.3278831,0.1056686,-0.3298558,-0.2437402,0.1269973
0.9308174,-0.364988,0.1292105,-0.1345889,-0.4487442,0.08765564
0.893994,-0.3675668,0.1138734,0.07212095,-0.461348,-0.007723531
0.8671097,-0.2880542,0.1296655,0.2013563,-0.5317528,-0.02050848
0.8897246,-0.2397043,0.1162163,0.3545384,-0.5676458,0.01074653
0.9116522,-0.1578134,0.1019732,0.413827,-0.460685,0.03432758
0.9140791,-0.1020968,0.0825463,0.3716898,-0.3148527,0.1558395
0.9168844,-0.1015008,0.04938764,0.3048225,-0.182301,0.2256483
0.9303998,-0.05441321,0.06789715,0.1451687,-0.1244975,0.2333804
0.9796496,-0.02864602,0.06327419,-0.01393269,-0.05064442,0.2566095
1.019336,-0.02222236,0.04882662,-0.1095235,-0.01598295,0.2673912
1.000027,-0.0478096,0.06901146,-0.1672721,-0.04867412,0.354241
0.9776953,-0.09167387,0.0710411,-0.1479969,-0.07511826,0.4114469
0.9892662,-0.08047393,0.07271284,-0.0768868,-0.09566787,0.4134159
0.9927263,-0.07977306,0.0833474,0.01464028,-0.0598387,0.4204836
0.9966143,-0.07829054,0.09822388,0.09685423,-0.02534833,0.3521845
1.031848,-0.1081835,0.107326,0.1457939,0.01485061,0.2545813
1.060663,-0.1878084,0.1186998,0.1718043,0.04442315,0.1446346
1.071831,-0.1972036,0.1447756,0.1259164,0.009427259,0.08938257
1.066138,-0.136031,0.1367042,0.06451783,-0.0256653,0.11995
1.066894,-0.07005622,0.1276804,0.1065406,-0.1179207,0.1193041
1.139912,-0.09207389,0.1428925,0.1830012,-0.18516,0.1106534
1.256006,-0.1789288,0.1444648,0.2280286,-0.1372518,0.05366755
1.319694,-0.2336253,0.1611208,0.1785493,-0.1291614,-0.1377331
1.276215,-0.2604823,0.1696228,-0.08923998,-0.1948695,-0.4056969
1.175596,-0.2501016,0.1289308,-0.4332204,-0.2334563,-0.5950133
1.042208,-0.3096243,0.08566726,-0.5075673,-0.1807881,-0.6013226
0.8867367,-0.4592956,0.08530663,-0.2094176,-0.04690239,-0.5945356
0.8732353,-0.5448081,0.1333841,0.1276999,0.1903991,-0.6357166
0.9832177,-0.5408205,0.1812108,0.2430623,0.4954982,-0.5416618
1.071729,-0.4228636,0.1952308,0.2332583,0.5806045,-0.3117882
1.12247,-0.2509512,0.2058734,0.06819231,0.302744,-0.006365939
1.083396,-0.1846704,0.2070592,-0.1507327,0.06978654,0.2136704
1.025842,-0.2218981,0.1963545,-0.1494614,0.2413376,0.06048272
0.9874628,-0.2373929,0.2173812,-0.1191513,0.4750032,-0.2001771
0.8884042,-0.1821427,0.2416173,-0.2117257,0.5633099,-0.207099
0.8000982,-0.1349343,0.2289564,-0.2799896,0.6694537,-0.1921528
0.7303485,-0.07799994,0.2127985,-0.3759087,0.573293,-0.1612392
0.7069727,-0.04575926,0.2064769,-0.4515866,0.3643601,-0.04298528
0.7604838,-0.1081707,0.2203624,-0.34066,0.3068065,-0.03566795
0.7750241,-0.1391158,0.2513177,-0.1831438,0.1511077,0.006089255
0.767466,-0.1418184,0.257598,-0.07187581,-0.03584823,0.09652289
0.7434752,-0.109267,0.275503,0.02601555,-0.1961336,0.1149408
0.7157833,-0.01288863,0.3187073,0.03053282,-0.4802796,0.1513603
0.8051792,-0.004725578,0.3249374,0.00121214,-0.6079598,0.1096514
0.9635125,-0.057675,0.3094786,-0.01417075,-0.5515814,-0.01634709
1.099047,-0.1231918,0.2896995,-0.08081635,-0.5028908,-0.1517418
1.196845,-0.1970413,0.2482424,-0.1671029,-0.3773444,-0.2276874
1.263234,-0.1848685,0.2297907,-0.2093959,-0.1632144,-0.1630609
1.296143,-0.09617555,0.2684315,-0.1080519,0.03115271,-0.1292841
1.27981,0.03409958,0.3372625,-0.002207023,0.1328035,-0.135744
1.279771,0.09353307,0.398488,-0.1208329,0.1796671,-0.1407582
1.300569,-0.01260148,0.3779765,-0.2332873,0.2511913,-0.1595263
1.28376,-0.2172455,0.2246308,-0.1909314,0.3489275,0.0464903
1.25922,-0.4618222,0.09891817,-0.1462614,0.3320061,0.3253678
1.240801,-0.5778841,0.1700446,0.0007469254,0.244646,0.2977006
1.196224,-0.5061543,0.2522576,0.2317257,0.2862441,0.09350263
1.033377,-0.448408,0.1902131,0.2227752,0.2222435,-0.07115211
0.7695737,-0.3696502,0.1581176,0.02599199,0.04151927,-0.1362954
0.6883952,-0.2352045,0.1404516,-0.1486301,-0.01787015,-0.06205219
0.7883017,-0.2314242,0.05894575,-0.3155144,-0.1379702,0.06147105
0.8170972,-0.2666946,0.06685498,-0.3198108,-0.3285694,0.1697082
0.8799128,-0.2792826,0.09384456,-0.1142634,-0.5259066,0.2195557
0.9593497,-0.3616926,0.07360819,0.1148178,-0.6483943,0.1305317
0.9038046,-0.3589575,0.08870446,0.3102127,-0.5785906,0.04209398
0.8931965,-0.2800374,0.06931166,0.3864374,-0.565278,0.03316792
0.9073666,-0.2412773,0.05487652,0.4456395,-0.5261828,0.05024936
0.8906842,-0.1924983,0.06181145,0.5624013,-0.3417868,0.1540591
0.9415575,-0.1784698,0.04999781,0.532696,-0.2765152,0.2714635
0.9406996,-0.1672458,0.07449561,0.4771133,-0.2548379,0.3721147
0.929869,-0.1294264,0.07674271,0.4495233,-0.2064243,0.4436838
0.9594522,-0.1172009,0.07128208,0.3494515,-0.2090096,0.4153674
0.947871,-0.08110182,0.0826992,0.2976285,-0.1890922,0.4385035
0.9875138,-0.05980527,0.07273902,0.2042963,-0.138062,0.468414
1.041421,-0.06086554,0.08187938,0.08118065,-0.04832665,0.4296816
1.048552,-0.04550283,0.08261886,0.08407718,0.021371,0.4228224
1.05991,-0.07488548,0.08607529,0.1187555,0.03566919,0.3648736
1.078962,-0.1384768,0.1086177,0.1612928,0.1131679,0.2874725
1.106743,-0.1948009,0.1261558,0.1991461,0.1729259,0.2286768
1.086214,-0.1825129,0.1521052,0.1508132,0.1230331,0.1406433
1.039085,-0.09420617,0.1495354,0.04843976,0.0426956,0.0988712
1.030685,-0.0496126,0.1587314,-0.002478075,-0.0820661,0.07541822
1.06345,-0.07916791,0.1845792,0.07280709,-0.1782997,0.04398151
1.155296,-0.1542626,0.1495663,0.2154084,-0.1266925,0.01003009
1.218528,-0.2450012,0.1116542,0.2814189,-0.07866775,-0.09901427
1.186519,-0.3182211,0.09753091,0.1396888,-0.1298123,-0.3272578
1.085976,-0.3815052,0.05407705,-0.1280467,-0.159304,-0.6057574
0.9448846,-0.4462762,0.01444553,-0.2153612,-0.1679742,-0.7546914
0.8965152,-0.5278694,0.05668145,0.01906907,-0.1017915,-0.7733853
1.012739,-0.5452656,0.1232139,0.3624696,0.1764773,-0.7483464
1.155908,-0.4123746,0.1255829,0.4854981,0.5115052,-0.603824
1.200704,-0.2020559,0.1594536,0.3572628,0.6330927,-0.3200901
1.153649,-0.0805101,0.2052988,0.1184292,0.4190535,-0.04677295
1.068087,-0.1448045,0.1731742,-0.1818863,0.1988781,-0.02738375
1.01039,-0.2199433,0.1757589,-0.3314887,0.3381736,-0.2292374
0.9974305,-0.1990369,0.1984518,-0.2932035,0.5338598,-0.3587079
0.9214173,-0.1693021,0.1928509,-0.3346679,0.7101362,-0.3621802
0.7680867,-0.09245159,0.2280194,-0.3917225,0.9261371,-0.2614207
0.7163265,-0.06068433,0.2394407,-0.4176047,0.8569893,-0.09955294
0.747349,-0.1124361,0.2292098,-0.5031064,0.6364109,0.01158054
0.7008471,-0.1076644,0.2561247,-0.4783542,0.3358738,0.08455196
0.6979105,-0.126581,0.26398,-0.3803356,-0.003766206,0.0932157
0.7726708,-0.1364127,0.2552027,-0.3028426,-0.03078722,0.08906673
0.7781613,-0.08215845,0.2524758,-0.2127354,-0.04310885,0.13324
0.7814177,-0.07764576,0.2579399,-0.2139462,-0.2250706,0.1333331
0.8120904,-0.05894304,0.283499,-0.2274698,-0.3498773,0.08674854
0.880063,-0.03855975,0.3166851,-0.2260492,-0.4255665,-0.03469344
0.9987458,-0.08225936,0.328113,-0.3016149,-0.3733841,-0.195692
1.066632,-0.1585706,0.2844602,-0.387616,-0.3094906,-0.2311534
1.148326,-0.2422406,0.2433224,-0.4173707,-0.2717113,-0.1267773
1.231685,-0.2194349,0.2591891,-0.2695396,-0.1129587,-0.01694146
1.246885,-0.1232962,0.29237,-0.09107452,0.03228279,-0.05013024
1.269663,-0.05954913,0.3394922,-0.1079299,0.2583484,-0.1756049
1.305369,-0.05740138,0.351056,-0.1279909,0.5222558,-0.2240569
1.346505,-0.187204,0.2358065,-0.08806508,0.5004271,-0.08154239
1.244638,-0.3449083,0.1287897,-0.04110273,0.3872293,0.1250346
1.022555,-0.3983455,0.2082652,0.03694782,0.3830795,0.07710369
0.9355855,-0.3730782,0.2776722,0.0200441,0.3288836,-0.07605158
0.8364268,-0.3049029,0.1602422,-0.108797,0.2331169,-0.1143274
0.7367481,-0.2392188,0.06788889,-0.2791928,0.1258414,-0.1361705
0.8416789,-0.2226119,0.06460877,-0.4262459,0.001793926,-0.05228539
0.9311347,-0.2610478,0.0553219,-0.456558,-0.0335369,0.07282107
0.9257009,-0.3065382,0.09426145,-0.4109649,-0.1810447,0.119624
0.9240132,-0.3714266,0.1367506,-0.2607443,-0.4708117,0.1324076
0.9026005,-0.4211849,0.1297285,0.00955396,-0.5522226,0.04888636
0.8875793,-0.3544374,0.1207308,0.2379087,-0.5958392,-0.01699264
0.8686871,-0.2899747,0.1051967,0.420498,-0.693103,-0.02137318
0.8707794,-0.2621231,0.08379855,0.5746973,-0.5602112,0.009441203
0.9195239,-0.1659402,0.06655885,0.6041129,-0.365071,0.130132
0.9386304,-0.07238186,0.05629446,0.5457958,-0.265978,0.2293669
0.9345571,-0.05457275,0.05580476,0.4798409,-0.1862193,0.3279568
0.947467,-0.06921593,0.06301947,0.3704508,-0.1724526,0.3926131
0.9812223,-0.01446351,0.06819096,0.2058731,-0.1807004,0.4184835
1.00754,0.02889978,0.06242045,0.06598668,-0.1326595,0.5256037
1.007321,-0.02685446,0.05747622,-0.03787505,-0.05862011,0.5527154
1.035972,-0.0647977,0.0359257,-0.0637572,0.0336666,0.5332845
1.063952,-0.1206926,0.02436839,0.03125813,0.1088744,0.513207
1.064248,-0.1722463,0.05965441,0.1513792,0.1325161,0.3738709
1.090163,-0.1892929,0.1067843,0.2518463,0.1470581,0.2409475
1.08663,-0.2302102,0.1424359,0.2573715,0.1224745,0.1226053
1.036407,-0.142778,0.1380436,0.1228755,0.04862714,0.04692175
1.000408,-0.01757538,0.1246708,-0.01478484,-0.0652009,0.08113723
1.014631,-0.01511693,0.1287236,-0.03029659,-0.2594749,0.1082289
1.139906,-0.07072801,0.08942922,0.09430081,-0.3307344,0.1209362
1.264399,-0.1769511,0.06152349,0.2166132,-0.1478661,0.06322645
1.226401,-0.2752083,0.1128725,0.2033854,-0.008187916,-0.1602757
1.178599,-0.3769075,0.1611274,-0.007024726,-0.08540797,-0.497104
1.172087,-0.4085494,0.1388594,-0.3629356,-0.2007578,-0.7585357
0.9734272,-0.388342,0.09833461,-0.4906863,-0.2625607,-0.7775408
0.7630516,-0.5176926,0.09022644,-0.2229597,-0.2805003,-0.7390545
0.8784325,-0.5491995,0.09938244,0.1205748,-0.07787104,-0.7418728
1.082868,-0.4908453,0.1246991,0.3012364,0.3580981,-0.5960777
1.183035,-0.4587169,0.1523006,0.2803709,0.6112566,-0.3241335
1.248448,-0.2090432,0.1919282,0.02176724,0.4171054,-0.04601341
1.133926,-0.09865604,0.231017,-0.308346,0.1928212,0.07433926
0.9559795,-0.2120244,0.2061281,-0.4064356,0.3217151,-0.07292947
0.9483317,-0.1877953,0.1939182,-0.3659043,0.4844743,-0.2085832
0.9292879,-0.1913955,0.2074715,-0.4158489,0.6424779,-0.190982
0.8447765,-0.1780964,0.1829002,-0.4641616,0.8210365,-0.1629628
0.7749978,-0.09449731,0.1852402,-0.4892003,0.6505339,-0.1064347
0.7134963,-0.1030377,0.2019949,-0.5169738,0.4289265,-0.05917813
0.7228238,-0.1150098,0.2187141,-0.4390044,0.2674705,-0.06432572
0.7531026,-0.1349519,0.2434348,-0.3150004,0.02306381,-0.02309475
0.7728745,-0.1574797,0.2331233,-0.2022108,0.001594581,0.05744878
0.7860367,-0.1282374,0.2399445,-0.05524799,-0.08724656,0.1482894
0.7694755,-0.07508526,0.2695072,0.0402886,-0.3203396,0.2089201
0.7995916,-0.02213427,0.2972941,0.04048238,-0.4284588,0.1776769
0.8525945,-0.02860524,0.3221341,0.008352104,-0.5485922,0.05389488
0.9407219,-0.07737635,0.3004079,-0.03351601,-0.5443574,-0.1364117
1.102748,-0.1591322,0.2599503,-0.09438783,-0.4445551,-0.2167699
1.222391,-0.2248294,0.2293241,-0.1158299,-0.2615765,-0.1174522
1.28615,-0.1737657,0.2305245,0.02357345,0.08240681,-0.02561394
1.316908,-0.0703585,0.2829553,0.1741495,0.2108719,-0.0005673845
1.267277,0.05094022,0.3679878,0.06335625,0.1815155,-0.06436838
1.199791,0.1574667,0.4528543,-0.1858011,0.2930684,-0.1649409
1.228376,0.08740419,0.3907738,-0.3560302,0.4603882,-0.07239883
1.254456,-0.1186024,0.2422873,-0.376723,0.4990058,0.1250409
1.178618,-0.3166898,0.2199752,-0.2149094,0.3843287,0.2107964
1.126434,-0.4744267,0.2212549,-0.03297484,0.3308825,0.1624824
1.05383,-0.4683997,0.2039025,0.04284106,0.345269,-0.02390529
0.8849411,-0.3553979,0.196303,-0.005014731,0.2903948,-0.1839908
0.7464574,-0.3037161,0.1239078,-0.1714387,0.1697965,-0.1861961
0.7265668,-0.2498433,0.08701022,-0.3172125,0.02800342,-0.0631231
0.8211227,-0.2427027,0.0884968,-0.4372016,-0.07593657,0.1226678
0.8932488,-0.2743197,0.08922472,-0.4495117,-0.2553685,0.2159226
0.9136905,-0.2903608,0.1218351,-0.2672066,-0.5084201,0.2221385
0.9323582,-0.3599852,0.1019539,-0.06875526,-0.6037379,0.1655753
0.9064549,-0.349891,0.08515538,0.1494367,-0.5953458,0.05171293
0.911528,-0.2905985,0.0951758,0.3128568,-0.5950292,0.02172212
0.9419414,-0.2576211,0.06649814,0.3957693,-0.4996505,0.04080048
0.9553834,-0.1686956,0.06106744,0.4922588,-0.3617348,0.09219886
0.9743388,-0.1262365,0.06408214,0.4413713,-0.3089402,0.2005162
0.9700737,-0.1065365,0.06291711,0.3624475,-0.263543,0.2947164
0.9880077,-0.07366622,0.06685904,0.275762,-0.179237,0.3664492
0.9922267,-0.08376842,0.05859144,0.1311377,-0.1498,0.40984
0.9831688,-0.07437547,0.06144255,0.1340711,-0.1588776,0.4745437
1.020483,-0.06951176,0.04997298,0.09975788,-0.09499103,0.5195163
1.028506,-0.07174598,0.04270646,0.05408748,0.01437775,0.4835655
1.033159,-0.07672305,0.06492591,0.1428483,0.09748799,0.432286
1.044142,-0.1226126,0.09491891,0.1815935,0.1744697,0.3183763
1.03383,-0.1567291,0.1235408,0.2246271,0.1976333,0.1864467
1.041925,-0.181311,0.1173578,0.2376781,0.1266337,0.1364635
1.035264,-0.1985889,0.1119917,0.1483309,0.05919559,0.1224451
1.027172,-0.1467255,0.1245949,0.06303045,0.01630586,0.1353661
1.034021,-0.0674696,0.1199445,0.04238357,-0.07141238,0.1458236
1.071193,-0.08412782,0.136192,0.1604905,-0.1391185,0.1095466
1.184051,-0.1786216,0.1582531,0.2724865,-0.09371001,-0.01955723
1.275997,-0.241331,0.1568605,0.2044997,-0.0659478,-0.2844779
1.254693,-0.258301,0.1564593,-0.07028962,-0.1811804,-0.5408506
1.146704,-0.2474025,0.1190561,-0.4923053,-0.2737448,-0.6611625
1.020484,-0.3079245,0.04388069,-0.6359327,-0.20869,-0.6827312
0.9598073,-0.482968,0.02515431,-0.2777254,-0.03329529,-0.655741
0.9870103,-0.6196296,0.07712395,0.1510252,0.2567452,-0.631095
1.039775,-0.6161356,0.1301023,0.3557283,0.5353489,-0.54456
1.083217,-0.4424432,0.1805995,0.3840384,0.5383217,-0.3110199
1.101834,-0.2209943,0.2317445,0.1904108,0.280313,-0.07190849
1.042212,-0.1583184,0.2307531,-0.06037539,0.06034206,-0.02410455
0.9784686,-0.2101405,0.1954276,-0.1051003,0.1188596,-0.1772556
0.9784381,-0.2166076,0.1847795,-0.1130753,0.321749,-0.3091724
0.9478832,-0.1630373,0.1901189,-0.2025468,0.4575165,-0.2969421
0.8797951,-0.1265766,0.1899012,-0.2791593,0.557205,-0.2488059
0.8303107,-0.0947349,0.191974,-0.4005958,0.5281859,-0.1526802
0.8059816,-0.08973816,0.2133617,-0.5257636,0.3894918,-0.01186446
0.7836999,-0.1305388,0.2397241,-0.5227895,0.2625345,0.06642545
0.7899319,-0.1368849,0.2338885,-0.4507004,0.04885,0.1134332
0.7854249,-0.1355747,0.2744024,0.4220089,-0.1551968,0.1235065
0.8000204,-0.09313222,0.2849784,0.5030086,-0.3115747,0.1344577
0.7895157,-0.04631915,0.308984,0.5196889,-0.5131516,0.1515084
0.8474234,0.001915513,0.3452133,0.4955209,-0.5598757,0.07460851
0.9492307,-0.0009647045,0.3586186,0.4177025,-0.5158072,-0.02040434
1.054837,-0.08016935,0.3405601,0.2254795,-0.475481,-0.101879
1.14273,-0.1497633,0.2987648,0.02809642,-0.3999878,-0.1025984
1.224804,-0.1808799,0.2553362,-0.003930838,-0.2248481,0.008940833
1.267929,-0.1213743,0.2860101,0.1881759,-0.03516144,0.11068
1.256633,-0.02664396,0.3641227,0.330773,0.03284902,0.07482181
1.278534,0.002640388,0.39803,0.3000434,0.1441854,-0.07831435
1.317336,-0.0589925,0.3592052,0.2847457,0.3055903,-0.1223681
1.298594,-0.2287821,0.2497312,0.3259092,0.284795,0.07699105
1.24437,-0.3851942,0.1668288,0.4477687,0.1751378,0.3625691
1.140034,-0.4309961,0.2072672,0.6359945,0.1438513,0.3805002
0.9770602,-0.4166228,0.2525877,0.6757887,0.1369778,0.1325193
0.8662984,-0.3623495,0.1966434,0.4846714,0.09332009,-0.0181475
0.8093498,-0.2652631,0.1326606,0.2379463,-9.002412e-05,-0.02833186
0.7703765,-0.1984728,0.0846185,0.04664855,-0.1451731,0.05595016
0.8348421,-0.2254309,0.05684793,-0.05926098,-0.3095538,0.1778106
0.9044781,-0.2559074,0.1002621,-0.0142866,-0.517689,0.220725
0.8809492,-0.2826006,0.1154517,0.1329936,-0.6427763,0.2111197
0.8708904,-0.3429521,0.1002215,0.3146098,-0.5569024,0.1085094
0.8723234,-0.3033915,0.1146458,0.4678702,-0.5497039,0.02429665
0.869531,-0.2061735,0.09258699,0.4976569,-0.5959458,0.04081995
0.9044595,-0.1550421,0.07666305,0.483056,-0.4238312,0.05883273
0.9548982,-0.1132913,0.08063685,0.4959843,-0.2424417,0.1062622
0.9876859,-0.09976427,0.07427205,0.4756968,-0.1746573,0.1423407
0.9746486,-0.08266865,0.08526065,0.4522706,-0.1863224,0.1698058
0.9629914,-0.04752984,0.07255825,0.4021426,-0.2297518,0.1915915
0.9795957,-0.002057062,0.05512614,0.2578074,-0.197827,0.2158754
0.9763669,0.0441003,0.04627501,0.1273327,-0.1565341,0.3159052
0.9869828,0.0003447493,0.03464424,0.07137395,-0.04345398,0.3607265
1.022563,-0.07047725,0.04617624,0.07518178,0.100849,0.3510672
1.049508,-0.1397392,0.05401354,0.1463242,0.1156272,0.3334959
1.071775,-0.2340182,0.09193403,0.2427736,0.1248853,0.2611867
1.066333,-0.2255667,0.140712,0.3127146,0.1241925,0.1889091
1.043535,-0.1404245,0.1324201,0.2986454,0.05616024,0.1350554
1.042247,-0.05735336,0.1192606,0.2696518,-0.06412342,0.1674265
1.099558,-0.02429658,0.1101006,0.2961309,-0.2092981,0.234667
1.231367,-0.1245613,0.09936843,0.3090508,-0.2282532,0.2267201
1.311435,-0.2568996,0.1251637,0.3190038,-0.1786775,0.1101672
1.259725,-0.341139,0.1616396,0.235601,-0.1909474,-0.20619
1.148167,-0.3839551,0.156317,-0.01303522,-0.2758905,-0.5427567
0.9932385,-0.4061933,0.1146825,-0.133074,-0.3486326,-0.6789841
0.8723754,-0.4906376,0.08877909,0.09118286,-0.2316831,-0.6489542
0.9080366,-0.550028,0.09977642,0.3961551,-0.0609828,-0.5816166
1.016374,-0.5021222,0.1324731,0.5302666,0.04305064,-0.5581437
1.128761,-0.4024885,0.1663199,0.6043934,0.2469159,-0.4419659
1.209804,-0.2162965,0.1992769,0.3974344,0.3675152,-0.2164798
1.135376,-0.05750968,0.2154154,-0.1584371,0.2415424,0.02340985
1.013918,-0.1043802,0.197227,-0.3808559,0.2088959,0.1196107
0.9473019,-0.1748286,0.1886284,-0.3411236,0.3399006,-0.05568859
0.8680159,-0.1408624,0.1926321,-0.4507148,0.4507155,-0.1458015
0.8327411,-0.1180235,0.18822,-0.4904773,0.5788976,-0.1258503
0.7902497,-0.06262562,0.1871539,-0.5669955,0.6267422,-0.1855952
0.7462123,-0.02339072,0.1827959,-0.7049641,0.5589733,-0.1173146
0.7832717,-0.08633995,0.1909959,-0.7337956,0.4506904,-0.06069674
0.778359,-0.1295136,0.203767,-0.7108724,0.2374433,-0.03917832
0.7779115,-0.1955894,0.207537,-0.577762,0.101962,0.05527518
0.7956269,-0.2546408,0.2404341,-0.3864705,0.06415259,0.09630337
0.7636557,-0.2142501,0.2942616,-0.1302418,-0.137975,0.1916718
0.7870213,-0.1879621,0.3196899,0.1215577,-0.3789699,0.2418089
0.8307035,-0.1490863,0.3099852,0.2131416,-0.5236788,0.2013869
0.9078571,-0.1373716,0.3033816,0.3044183,-0.6315245,0.1439913
1.050742,-0.2106051,0.2925246,0.3570197,-0.6209812,-0.04436564
1.157271,-0.2327776,0.2535363,0.346543,-0.4736718,-0.1418594
1.217837,-0.1914572,0.234794,0.3935702,-0.2786406,-0.09014239
1.228863,-0.07041084,0.2512318,0.4394232,-0.08922457,-0.05985229
1.231335,0.07734048,0.2881994,0.4627581,-0.002249429,-0.04322738
1.242212,0.1028983,0.3674337,0.3494335,0.05165906,-0.085137
1.271505,0.05585603,0.4190865,0.09378048,0.3428163,-0.1156785
1.311565,-0.07753858,0.3239188,-0.04497629,0.6269313,-0.014599
1.205821,-0.3529154,0.1773418,0.06920847,0.3879208,0.19418
1.075611,-0.5218195,0.1588387,0.3786289,0.01188658,0.3077214
1.036434,-0.4697401,0.2033913,0.6673086,0.03620316,0.162489
0.9187131,-0.4644658,0.2020798,0.6855006,0.132591,-0.04233161
0.8001015,-0.4206689,0.1713016,0.4965346,0.121814,-0.06267498
0.7678543,-0.2079279,0.1271746,0.3605564,0.04403319,0.1509606
0.7650255,-0.1870143,0.1085798,0.2598093,-0.2633591,0.4319309
0.8358665,-0.265568,0.1124845,0.2177421,-0.5785077,0.5032269
0.9261551,-0.2250563,0.1079838,0.3026247,-0.7103269,0.4022249
0.9427228,-0.2781608,0.1103793,0.3198818,-0.7061551,0.2906128
0.9032874,-0.3080285,0.104917,0.3701054,-0.6573449,0.1216014
0.8541341,-0.261756,0.09502244,0.5114181,-0.6868649,0.04788536
0.8609021,-0.2630644,0.08744506,0.6097932,-0.5725249,0.1689789
0.9019331,-0.2098925,0.07457092,0.7632251,-0.3565939,0.2249959
0.9167666,-0.1767612,0.07458163,0.8659492,-0.2739366,0.26801
0.9270623,-0.1788558,0.07803771,0.8832995,-0.2113923,0.3297578
0.9343677,-0.1011824,0.07861834,0.8521114,-0.1847964,0.2841071
0.9566918,0.006592239,0.07486341,0.6669332,-0.1610556,0.3382304
0.9925742,0.08496625,0.06341589,0.4416541,-0.09690934,0.4223151
1.020371,0.09054853,0.0508322,0.2353768,-0.01651239,0.407274
1.054108,0.04695988,0.03799717,0.1677334,0.1117337,0.3957755
1.050179,-0.02935794,0.06894065,0.2458092,0.12483,0.3058461
1.048779,-0.1423931,0.1471016,0.232776,0.05007576,0.1812243
1.064096,-0.1740013,0.1834906,0.1970163,-0.0156563,0.0980551
1.044536,-0.08849546,0.1468466,0.1161194,-0.1205694,0.07562505
1.059429,-0.005304209,0.1154247,-0.02181717,-0.161787,0.1243734
1.111232,-0.02172154,0.1350346,0.006541905,-0.1692216,0.1470978
1.21014,-0.1443177,0.1429256,0.1269759,-0.2064588,0.1535482
1.301078,-0.3280533,0.1361818,0.1822787,-0.1881632,0.01610546
1.231223,-0.4583086,0.1410557,0.112273,-0.1947609,-0.3251114
1.090463,-0.4630743,0.08726613,-0.1000338,-0.271776,-0.618327
0.9756375,-0.4760241,0.03446708,-0.2248011,-0.2930511,-0.7590924
0.9456182,-0.5524991,0.09367453,0.05494594,-0.2004195,-0.7388349
1.036648,-0.5858902,0.1679429,0.592502,0.1025431,-0.6198742
1.109972,-0.5275505,0.1873934,0.8524878,0.5241168,-0.476272
1.164809,-0.3525448,0.2208038,0.7411723,0.6098146,-0.261979
1.1696,-0.1412683,0.2519263,0.4944798,0.3079705,-0.03063983
1.065193,-0.08314208,0.2227848,0.2181452,0.1255803,0.1034401
1.014022,-0.1672245,0.1990484,0.09848429,0.2680079,0.01938925
0.9821173,-0.1817952,0.2113291,0.09958764,0.4728705,-0.1221016
0.8716385,-0.1114614,0.1890335,-0.02337321,0.6526225,-0.05607543
0.7336586,-0.06888541,0.1625931,-0.15899,0.7849148,0.01826458
0.651778,-0.02211026,0.1786408,-0.2241035,0.7064883,0.08472197
0.6910031,-0.01513847,0.1939794,-0.3164694,0.5658064,0.2319702
0.6916605,-0.0641607,0.2185031,-0.3283784,0.3790325,0.2289634
0.6731982,-0.1001758,0.2699063,-0.2576247,0.07761112,0.1986418
0.7484224,-0.1581371,0.2923821,-0.1931217,-0.03377361,0.2249569
0.7764602,-0.1577434,0.2961464,-0.07358031,-0.1376977,0.1987897
0.7958185,-0.08507792,0.3331124,0.0592161,-0.4118837,0.1956813
0.8378781,-0.0399168,0.3568086,0.1255814,-0.5137709,0.09960433
0.8951842,-0.01905667,0.3509799,0.0865216,-0.5170857,-0.09568582
1.011623,-0.07403745,0.3430817,-0.05787963,-0.5344936,-0.2557073
1.100669,-0.1405043,0.3101496,-0.2149631,-0.4946021,-0.2957599
1.197847,-0.1318384,0.2885895,-0.262633,-0.3584887,-0.07454612
1.300582,-0.1178185,0.3090023,-0.08261742,-0.06888776,0.194526
1.366865,-0.09162323,0.3495289,0.123264,0.1733108,0.1948076
1.42334,-0.07043339,0.4098801,0.1261903,0.4483101,-0.02713082
1.421183,-0.1043191,0.408574,0.126717,0.6910426,-0.1573804
1.299079,-0.2238448,0.2622371,0.2304374,0.4225087,0.005231182
1.094447,-0.4049404,0.1215323,0.3520555,0.1035154,0.171781
1.047338,-0.4596925,0.1612058,0.3638313,0.1769193,0.1048994
1.021068,-0.3657005,0.2026767,0.2156119,0.2251933,0.001679232
0.7997239,-0.2715507,0.1200532,0.05610378,0.2063049,-0.02459591
0.7410671,-0.189733,0.1044501,-0.1971797,0.1501924,0.01503217
0.8286788,-0.1652865,0.1158157,-0.4619493,-0.08746549,0.1680373
0.8489508,-0.2372607,0.08013003,-0.4641556,-0.3724988,0.2887435
0.9087621,-0.3135002,0.1017891,-0.3288421,-0.6025407,0.2645525
0.9225679,-0.3816451,0.1062428,-0.1073637,-0.6422375,0.1782411
0.8679934,-0.3956612,0.09403778,0.1109775,-0.5943266,0.04475748
0.8491117,-0.3101837,0.1029033,0.2299271,-0.6678881,-0.002539545
0.8783385,-0.2364371,0.07732801,0.3576055,-0.5504159,0.09718493
0.9203055,-0.1631708,0.06526843,0.3653185,-0.2819345,0.1990131
0.9210799,-0.1152346,0.05323164,0.3397554,-0.1706766,0.2904164
0.9289583,-0.1409453,0.05371382,0.3639622,-0.105155,0.348882
0.9500812,-0.09799522,0.07635779,0.2891793,-0.1050709,0.3718356
0.9601412,-0.03793227,0.05826745,0.1891866,-0.1187611,0.4255131
0.9884588,-0.02771077,0.04777715,0.03777446,-0.07170583,0.4948674
1.009717,-0.008484919,0.0363467,-0.04124901,-0.0277759,0.5118232
1.017845,-0.04750121,0.03883093,0.0330541,0.1114144,0.4344334
1.04323,-0.1395899,0.1060229,0.08824919,0.189818,0.3303244
1.084471,-0.2168451,0.1595699,0.2037132,0.1330067,0.2105269
1.091373,-0.2207256,0.1628203,0.2560056,0.08461764,0.1007486
1.061856,-0.1627256,0.1265057,0.1573712,0.01002814,0.07206328
1.061285,-0.1453521,0.1073113,0.1172619,-0.0313214,0.06356535
1.107362,-0.1622558,0.1281528,0.1269116,-0.1046409,0.07733366
1.21447,-0.2180518,0.1359227,0.1800046,-0.228769,0.07369089
1.316733,-0.3388185,0.1525992,0.2399539,-0.2015442,-0.07517116
1.28029,-0.436262,0.1487911,0.1577863,-0.1902608,-0.3560868
1.131083,-0.4368236,0.08731578,-0.06658538,-0.3160575,-0.6502847
0.9887921,-0.4326031,0.04486349,-0.2440624,-0.3638645,-0.8028725
0.9780477,-0.522268,0.09122326,-0.1144035,-0.3205634,-0.8089955
1.117446,-0.5795219,0.1730653,0.2657018,-0.1162861,-0.7247398
1.22944,-0.5263615,0.1840651,0.6152582,0.3634265,-0.5225232
1.221565,-0.3687941,0.1978936,0.7024665,0.6399838,-0.2508208
1.120551,-0.1222555,0.241591,0.3571174,0.4093707,0.004749351
0.9580677,-0.03825685,0.2099141,-0.09177679,0.1974425,0.08694308
0.8757202,-0.1346044,0.1818282,-0.2536432,0.2657414,-0.07286007
0.917666,-0.1548333,0.2022792,-0.3397752,0.4214912,-0.2321819
0.9141278,-0.1539261,0.1994569,-0.4083484,0.6970055,-0.2229588
0.798664,-0.153026,0.1942295,-0.3956654,0.8825681,-0.1370885
0.6972963,-0.07508831,0.202571,-0.4527293,0.7530956,-0.04999946
0.6922907,-0.05959537,0.2081603,-0.4961455,0.5983981,0.02936642
0.7262968,-0.09122831,0.2204098,-0.5267912,0.3573874,0.0484805
0.7561574,-0.08763666,0.2379165,-0.5868891,-0.01322161,0.03473746
0.7986061,-0.1102986,0.234751,-0.5733005,-0.1058582,0.06950005
0.8337296,-0.1047901,0.2384757,-0.5343713,-0.09865411,0.1211226
0.8467681,-0.06860986,0.29503,-0.4344633,-0.2469458,0.1460816
0.8572869,-0.06289596,0.3443666,-0.3023766,-0.3922106,0.08205399
0.8815474,-0.06888023,0.334204,-0.2807545,-0.4737757,-0.09948618
0.9643132,-0.1164112,0.3220996,-0.3198665,-0.4664056,-0.3125091
1.051123,-0.1678142,0.324873,-0.3925384,-0.4531783,-0.4147906
1.084295,-0.1952729,0.2694168,-0.4585843,-0.4078126,-0.2470736
1.228492,-0.2241697,0.209728,-0.3658792,-0.2117972,0.05918924
1.395671,-0.1746743,0.2673843,-0.1263764,0.08236399,0.1718028
1.377382,-0.09762205,0.3777482,0.03899007,0.4901448,-0.01239321
1.367226,-0.1262842,0.402838,0.01882269,0.7766139,-0.2111965
1.316988,-0.2093439,0.2553415,-0.0009465068,0.5850208,-0.08297294
1.118768,-0.3194214,0.0907402,0.1324054,0.2274284,0.114159
1.074046,-0.4548545,0.1696293,0.2069387,0.174295,0.1226097
1.048684,-0.4575755,0.2501786,0.1298286,0.2400535,0.05015421
0.8498901,-0.3391043,0.1476481,0.05999689,0.2079154,-0.1280219
0.7935801,-0.2675922,0.1237179,-0.160917,0.1228667,-0.1442615
0.8606312,-0.2335882,0.104923,-0.4247466,-0.02858363,0.03304203
0.871948,-0.2262653,0.03819415,-0.4393663,-0.1336593,0.1309485
0.8930351,-0.2606065,0.08892904,-0.4192844,-0.323995,0.2521474
0.8922058,-0.3299239,0.1137451,-0.2938496,-0.6033791,0.196038
0.8729407,-0.3933465,0.1052768,-0.05186912,-0.6287423,0.03710566
0.8709711,-0.3573576,0.1182387,0.06989,-0.6356015,0.04445356
0.8753595,-0.3048502,0.08172699,0.2444208,-0.6865225,-0.007044086
0.9042559,-0.2551683,0.08224716,0.3910078,-0.5252637,0.03524693
0.9322973,-0.1574899,0.06967264,0.395611,-0.3181707,0.138378
0.9508778,-0.1233345,0.03805635,0.3877949,-0.1776709,0.1460117
0.9474786,-0.1100805,0.07419099,0.3420005,-0.1426292,0.2432945
0.9451353,-0.05775035,0.08098578,0.2541696,-0.1541271,0.2895978
0.9741325,-0.02363943,0.06939026,0.1180629,-0.1203684,0.3458416
0.9872792,-0.008502027,0.06834894,-0.003936763,-0.07002822,0.4526103
1.003812,-0.03105453,0.05136141,-0.04821648,0.05719676,0.4439898
1.02389,-0.07864715,0.05599622,0.007992965,0.1608955,0.4205395
1.035977,-0.1439295,0.0792051,0.145144,0.1748585,0.3370324
1.072996,-0.2030574,0.1233431,0.2268447,0.1710944,0.2099252
1.081254,-0.1839405,0.1496675,0.2332148,0.1169536,0.1172433
1.057247,-0.125228,0.134662,0.1266656,0.01953275,0.05708707
1.053694,-0.0546321,0.1370163,0.006857609,-0.1024201,0.08448777
1.075743,-0.01474161,0.1424513,0.0454497,-0.2149446,0.111211
1.151473,-0.1072413,0.1159573,0.1356752,-0.2481706,0.1115724
1.241727,-0.2478727,0.09322631,0.2349817,-0.1478955,0.01417171
1.241367,-0.3248756,0.1146623,0.2582659,-0.05274071,-0.2586275
1.177291,-0.3637254,0.1470668,0.1052228,-0.1625682,-0.5509556
1.117061,-0.3931549,0.1505584,-0.09457525,-0.2664192,-0.7676858
0.9778416,-0.4678081,0.1446212,-0.1519748,-0.2339543,-0.8495749
0.8442728,-0.5722916,0.1416795,0.1333965,-0.209393,-0.8211957
1.017923,-0.5607092,0.1551906,0.5701355,-0.05483526,-0.7149676
1.309371,-0.3843588,0.1771704,0.6759886,0.2646271,-0.4477731
1.304173,-0.1446847,0.1817785,0.4101945,0.4080926,-0.1155955
1.150122,-0.02269959,0.1867569,0.05452002,0.308713,0.0996771
1.03674,-0.09724895,0.19286,-0.2289016,0.2960786,0.05712723
0.9386268,-0.1607067,0.1904423,-0.39129,0.4397558,-0.1150977
0.8996034,-0.1233999,0.1913776,-0.4486839,0.620298,-0.1290638
0.8008802,-0.1108599,0.1950447,-0.5133043,0.8242021,-0.0851805
0.6733631,-0.06434219,0.1988057,-0.6035446,0.8279283,-0.02571114
0.6757279,-0.02279916,0.2022274,-0.637679,0.6443586,0.09310088
0.6876741,-0.0734981,0.2081214,-0.6237705,0.4887157,0.1151721
0.7379861,-0.1165189,0.2309718,-0.5667655,0.2291029,0.1298074
0.8406081,-0.1889605,0.2642981,-0.4589565,0.02284663,0.1758988
0.835977,-0.206208,0.2768565,-0.3167321,-0.02517576,0.2005674
0.8149126,-0.1107805,0.2996233,-0.1725732,-0.1945186,0.2335841
0.8408597,-0.08574648,0.3558416,-0.06436894,-0.3914632,0.1777549
0.8581728,-0.07685076,0.3611809,0.004524661,-0.5096329,0.07447892
0.916103,-0.07674754,0.321677,-0.02473402,-0.5325143,-0.07577365
1.023009,-0.1130161,0.292515,-0.1572203,-0.4559608,-0.2576307
1.08625,-0.1043243,0.2496577,-0.3225592,-0.401949,-0.2793866
1.116298,-0.1071421,0.2548099,-0.3967305,-0.2172438,-0.1666506
1.206661,-0.07139056,0.2948994,-0.2389403,0.03828604,-0.07365415
1.263561,-0.02878662,0.2907087,-0.09722337,0.2150239,-0.1511186
1.31039,-0.07160183,0.318787,-0.1638483,0.4236504,-0.2419702
1.452824,-0.1552008,0.3371424,-0.1700688,0.5008267,-0.1235801
1.459515,-0.3220258,0.2565749,-0.0462863,0.4910091,0.02119121
1.34482,-0.4836462,0.197602,0.152485,0.5513213,0.1134027
1.245831,-0.5160981,0.2460192,0.3296506,0.5154665,0.04330853
0.9742409,-0.4194409,0.2944823,0.1977542,0.3629503,-0.172089
0.7208422,-0.2489028,0.2291289,-0.116755,0.1056344,-0.1803318
0.7161221,-0.1747227,0.127673,-0.3716495,-0.06949494,-0.05704384
0.7862002,-0.1949871,0.04651624,-0.553487,-0.03545938,0.1144592
0.8873707,-0.2210309,-0.003996742,-0.5257874,-0.1592638,0.3456008
0.9368426,-0.2916575,0.0566026,-0.3626644,-0.391677,0.3865437
0.9011047,-0.3936485,0.1090606,-0.1324677,-0.4987979,0.2872199
0.889619,-0.447082,0.09826736,0.1719815,-0.620218,0.1680093
0.8654228,-0.3987825,0.1161887,0.3553048,-0.6644774,0.05268342
0.8944913,-0.324389,0.1030643,0.5286377,-0.5803975,0.01379786
0.9673656,-0.2550204,0.08443839,0.6488493,-0.4516003,0.01606686
0.9764034,-0.137747,0.07882687,0.5624051,-0.3013456,0.08512528
0.9749006,-0.06036943,0.06096346,0.4934924,-0.252961,0.1911075
0.9698941,-0.02829756,0.07456014,0.3557917,-0.1958888,0.252702
0.9676485,0.01997292,0.06988473,0.1349044,-0.08469691,0.2871577
0.9594151,0.02892341,0.06560463,0.003524065,-0.07953534,0.3483503
0.94262,0.009611881,0.07636843,-0.1241643,-0.0868342,0.4619529
0.9673034,-0.009203636,0.06066465,-0.1728926,-0.03861153,0.5048086
0.9902747,-0.0425876,0.0653915,-0.1041392,0.03310636,0.4616646
1.027403,-0.1029343,0.08375599,-0.00355278,0.1349562,0.3882867
1.086166,-0.1989069,0.1133661,0.1066919,0.2086907,0.2564623
1.097976,-0.2594048,0.1374943,0.158564,0.2146079,0.1579248
1.078211,-0.2362334,0.1207637,0.1277091,0.1862339,0.1287825
1.054932,-0.1609991,0.1253138,0.02190266,0.1403019,0.1255118
1.045747,-0.08251002,0.1520777,-0.07167446,0.006982636,0.134005
1.081569,-0.09187644,0.1664052,-0.03231774,-0.1559205,0.1086497
1.183496,-0.2109547,0.1654083,0.07917679,-0.1973575,-0.006773283
1.290094,-0.3413296,0.1493098,0.09234502,-0.1791579,-0.2654685
1.283134,-0.3955658,0.1259156,-0.05417888,-0.1933896,-0.5687195
1.143959,-0.3812716,0.06251561,-0.2370386,-0.2157619,-0.7424294
0.9644117,-0.4114448,0.01748899,-0.2237808,-0.2026171,-0.7663776
0.9050496,-0.4966632,0.06220492,0.05208066,-0.03913759,-0.7154074
0.9888237,-0.5093878,0.1028014,0.3645688,0.3204101,-0.6186984
1.059491,-0.4305886,0.1249827,0.4617546,0.5610421,-0.4095869
1.077433,-0.2603847,0.2070558,0.1957188,0.4196892,-0.1061787
1.060394,-0.08408211,0.2628153,-0.2048257,0.1905299,0.06905555
1.023722,-0.09428969,0.2156277,-0.3869036,0.1098651,-0.04229812
1.043495,-0.1857954,0.1843241,-0.457192,0.1583221,-0.2488405
1.051279,-0.1958483,0.209904,-0.4905979,0.4264818,-0.3253527
0.9673035,-0.1563683,0.2047637,-0.5354134,0.7123245,-0.3476389
0.853685,-0.08547549,0.1984926,-0.6866336,0.7630371,-0.2824529
0.7504272,-0.05456781,0.2163894,-0.7922909,0.6702228,-0.1125759
0.7289242,-0.08551921,0.2172423,-0.860703,0.505736,-0.04266246
0.7746875,-0.1147115,0.2278398,-0.8591827,0.3042354,-0.002583617
0.7932058,-0.1515278,0.2394277,-0.7508257,0.1346965,0.0404289
0.8191576,-0.16846,0.237455,-0.6514097,0.08588872,0.0385324
0.8217071,-0.1426059,0.2530267,-0.5110227,-0.01554489,0.09706841
0.8027133,-0.1095064,0.2710028,-0.3919994,-0.339866,0.118655
0.8422601,-0.07908771,0.2842708,-0.3149861,-0.5390825,0.1146545
0.8878667,-0.08295788,0.284413,-0.2582153,-0.5243124,0.07322462
0.9324145,-0.1134634,0.2750408,-0.2748577,-0.494718,-0.1162111
1.013561,-0.1396496,0.2691926,-0.2668181,-0.4637139,-0.2035123
1.182019,-0.1989969,0.210997,-0.2513439,-0.3976639,-0.1032726
1.364724,-0.2287826,0.146016,-0.1445286,-0.2055958,-0.01597784
1.344549,-0.1772983,0.1783595,0.09339958,-0.0366248,-0.06095793
1.297839,-0.1012021,0.2605703,0.1566709,0.1168737,-0.2145263
1.389658,0.02530419,0.3384631,0.01458577,0.4428069,-0.3444492
1.379846,0.07590589,0.3609384,-0.1358218,0.6032935,-0.3358073
1.234213,-0.06907346,0.2453644,-0.1942141,0.4294921,-0.134295
1.086521,-0.2326135,0.1425116,-0.1849856,0.3194727,0.03071937
1.031103,-0.3549869,0.2136182,-0.1979773,0.4093742,0.00982663
0.9868894,-0.4034026,0.2562408,-0.2122699,0.3945337,-0.02215684
0.8053127,-0.3320064,0.1590986,-0.2703752,0.2702248,-0.01203523
0.7510698,-0.3002816,0.08878443,-0.3872578,0.2026315,0.06776452
0.849348,-0.3102628,0.07958894,-0.4170395,0.02875061,0.2331845
0.854361,-0.3047991,0.1051516,-0.3189918,-0.2773302,0.3602428
0.8924329,-0.33547,0.1461191,-0.1668604,-0.5364343,0.3030434
0.9216477,-0.3567898,0.1385847,-0.004254647,-0.606057,0.1358547
0.8835529,-0.3402958,0.1207107,0.1474271,-0.5968875,0.01332512
0.9024007,-0.2900567,0.1079182,0.2555962,-0.6490872,-0.09678076
0.9187349,-0.2130763,0.07872663,0.3117787,-0.5272891,-0.0471742
0.9512432,-0.1542598,0.0703114,0.3119975,-0.3260403,0.1050504
0.9934619,-0.1369614,0.07014123,0.290694,-0.2277805,0.1982219
1.000591,-0.1410682,0.06650331,0.284423,-0.1004596,0.3755336
1.013452,-0.1214228,0.06686337,0.240155,-0.05928742,0.4158251
1.009967,-0.08561181,0.06350313,0.1425759,-0.09973962,0.3827639
1.041401,-0.0542796,0.05945083,-0.008749653,-0.08942077,0.4991371
1.080037,-0.05047149,0.05212689,-0.1221419,-0.04969802,0.4746177
1.049627,-0.085191,0.06526267,-0.07475749,-0.005521225,0.4161793
1.032056,-0.113344,0.08331506,0.02628143,-0.007522703,0.4002665
1.044212,-0.1657023,0.07490153,0.1786988,0.003798975,0.3099337
1.043088,-0.2469598,0.08767266,0.3902199,0.06337223,0.2251141
1.028198,-0.2565747,0.1341304,0.4232683,0.09208192,0.05972975
1.002646,-0.1522753,0.1643538,0.258162,0.02316648,-0.01866736
0.9874594,-0.0267102,0.1448382,0.06464776,-0.07523905,0.05745764
1.044265,-0.04149796,0.1202318,-0.02945889,-0.04960151,0.06263309
1.171948,-0.1872142,0.1415832,0.02992318,0.003981414,0.0430792
1.258437,-0.3607383,0.1602384,0.1130292,0.002817893,-0.06600944
1.258215,-0.4872032,0.1607798,0.1287763,-0.003783173,-0.3293589
1.157438,-0.4761673,0.1401372,0.05141392,-0.04037411,-0.5695275
0.9671039,-0.439615,0.08338476,-0.04372677,-0.04453714,-0.6767152
0.8219747,-0.4622945,0.07636232,0.1173618,-0.0005940023,-0.6649441
0.8076506,-0.4434606,0.1232743,0.453394,0.1352827,-0.5933924
0.9036508,-0.3969387,0.1568162,0.6359527,0.4328099,-0.4616783
1.019631,-0.2949075,0.1955461,0.6012173,0.5673368,-0.2710367
1.049444,-0.1496584,0.2370164,0.3401225,0.3336985,-0.03471164
1.009933,-0.1250331,0.2578534,0.02772048,0.08355174,0.1206131
0.9921888,-0.1918355,0.2519398,-0.04902545,0.04889337,0.03399716
1.018672,-0.2236303,0.2384042,0.02082706,0.1215101,-0.1080014
1.016978,-0.1802436,0.2298745,-0.006223527,0.2864969,-0.1817627
0.9501609,-0.09793266,0.2031641,-0.1466237,0.5112567,-0.2493037
0.8580117,-0.03956128,0.1960089,-0.3101714,0.5800591,-0.1727461
0.7919628,-0.01865876,0.216249,-0.5108934,0.4995788,-0.02855115
0.7736509,-0.0608873,0.2358119,-0.6519766,0.3958172,0.0303312
0.7565232,-0.1227456,0.2649624,-0.6499079,0.2145858,0.1082475
0.7569884,-0.1484613,0.2677702,-0.5860871,0.07074179,0.1401057
0.801657,-0.1598002,0.2759396,-0.3716782,-0.03865673,0.1361201
0.8275136,-0.1543472,0.3224183,-0.103637,-0.3044185,0.179256
0.852653,-0.150793,0.3251912,-0.01385597,-0.4896761,0.1312476
0.896259,-0.1410912,0.3031833,0.004315994,-0.5675823,0.03927335
0.9505052,-0.1462973,0.2957051,0.04124063,-0.680234,-0.06065753
1.040861,-0.1895458,0.2514228,0.06002144,-0.6107395,-0.1769841
1.130764,-0.1813218,0.2074292,0.0639512,-0.4953478,-0.163879
1.215125,-0.1299917,0.222418,0.1114583,-0.3135536,-0.09737645
1.259007,-0.05909403,0.2610923,0.1858873,0.06372016,-0.07268704
1.180686,0.02359907,0.2956492,0.1698981,0.1868713,-0.06267438
1.110497,0.04207338,0.3221598,0.03853173,0.1215915,-0.06183023
1.229075,-0.06050195,0.3043244,-0.1344211,0.1782103,-0.03066032
1.444285,-0.3340554,0.2306861,-0.192012,0.2826353,0.01686669
1.499097,-0.5631969,0.1797998,-0.08391949,0.4870452,0.07436331
1.219213,-0.5203263,0.2038372,0.1771036,0.5960584,0.05635212
0.8028354,-0.4032144,0.2403537,0.4821793,0.301311,-0.1267553
0.7118413,-0.3473325,0.2423225,0.443803,-0.1008316,-0.2744319
0.8485561,-0.2490828,0.1849315,0.1841994,-0.1868406,-0.2019981
0.8568399,-0.1377752,0.07864481,0.06797944,-0.1802922,0.02452711
0.8955627,-0.1597987,0.05356626,-0.04866367,-0.181507,0.2671962
0.9628421,-0.2677586,0.1037262,-0.04010774,-0.03855853,0.4016398
0.9440877,-0.3185147,0.1153752,0.1068822,-0.1308153,0.367925
0.9582284,-0.338486,0.1276241,0.1340817,-0.3281093,0.264539
0.9046321,-0.3281595,0.1367275,0.2714762,-0.3865609,0.1763635
0.8431698,-0.29695,0.1249072,0.4294359,-0.5830609,0.09718918
0.8866481,-0.2988219,0.1364436,0.5204822,-0.6066965,0.1019104
0.9092354,-0.2734817,0.1302399,0.72071,-0.4584969,0.1309488
0.9504319,-0.2282474,0.114825,0.7625978,-0.4190721,0.130355
0.9851882,-0.163219,0.1056052,0.7409415,-0.3035823,0.2014123
0.9751316,-0.07978434,0.08605015,0.7586186,-0.2194329,0.2597974
0.985781,-0.05514135,0.09214684,0.6575289,-0.174397,0.2874586
0.9792208,-0.02050572,0.09578843,0.5768025,-0.1303828,0.3262694
0.9856288,0.02449858,0.09508412,0.4441718,-0.1191372,0.3669468
1.008605,0.02093498,0.1091702,0.3121311,0.00519584,0.4562604
1.010891,0.0267749,0.104266,0.2724531,0.07794052,0.4661185
1.004327,0.005552572,0.1089476,0.2073601,0.0624286,0.4038565
0.985893,-0.04483348,0.132208,0.1645356,0.01299184,0.3749561
1.003397,-0.06488805,0.1447662,0.07451766,-0.1239483,0.3046761
1.043796,-0.08984859,0.1421823,-0.01068148,-0.1520578,0.2135037
1.075167,-0.1316819,0.1376567,-0.01690401,-0.1217681,0.1178419
1.109622,-0.1739499,0.1606666,-0.01847288,-0.1681801,0.01793164
1.125766,-0.1949317,0.1845675,0.07522636,-0.1900902,-0.04306992
1.135862,-0.1752127,0.1819904,0.2559055,-0.174655,-0.05474935
1.135453,-0.1418577,0.1641573,0.4631629,-0.1304549,-0.03925346
1.142704,-0.1103558,0.1396121,0.5490493,-0.09273048,-0.09812054
1.167442,-0.09231639,0.1361031,0.3706004,-0.1015818,-0.2159792
1.144715,-0.1354674,0.1377972,0.09034176,-0.1167738,-0.338553
1.094795,-0.2366432,0.1099576,-0.1709163,-0.1269108,-0.4767861
1.020713,-0.3416297,0.07675245,-0.2723439,-0.1353147,-0.5594363
0.9506425,-0.4297146,0.07439729,-0.08117465,-0.0555737,-0.5765969
1.01308,-0.457643,0.1011345,0.1836342,0.2109966,-0.5484449
1.159813,-0.4028643,0.1280296,0.2786502,0.5197493,-0.4575638
1.280977,-0.2920974,0.1624822,0.1628419,0.6055327,-0.2868147
1.306123,-0.146065,0.1999782,-0.09283584,0.4778107,-0.09102071
1.154522,-0.09180152,0.2057558,-0.3253816,0.4083604,-0.08604225
0.9622225,-0.1453115,0.2071985,-0.4222744,0.4650427,-0.2113844
0.8803355,-0.1300229,0.2123468,-0.4538238,0.5071292,-0.2396275
0.843302,-0.07718449,0.1935037,-0.5441248,0.626884,-0.2412869
0.7909696,-0.04306646,0.1783736,-0.6596551,0.7976416,-0.1878302
0.7206579,0.0219373,0.1781641,-0.7608487,0.7716598,-0.05234576
0.6780713,0.02793164,0.1812118,-0.8935787,0.6030506,0.006355106
0.6938933,-0.02323065,0.2022886,-0.9390094,0.3880786,0.02011993
0.7181387,-0.07556758,0.2350979,-0.8404509,0.1427129,0.0143561
0.7363357,-0.1508447,0.2675734,-0.7013554,-0.0217906,-0.01032429
0.7286379,-0.1659252,0.3047601,-0.4663338,-0.1989478,-0.007312698
0.7241395,-0.1438421,0.3359877,-0.2064545,-0.4571358,-0.02882866
0.8158786,-0.1728795,0.3463084,-0.1154931,-0.5589927,-0.06089762
0.9503187,-0.2030199,0.339582,-0.1197453,-0.5189127,-0.1177613
1.08246,-0.2353188,0.3088805,-0.1084679,-0.4956922,-0.1474132
1.27456,-0.2573509,0.2309175,-0.07268306,-0.2990781,-0.02734928
1.405404,-0.2146004,0.1766496,0.03490794,0.1065704,0.06682879
1.316792,-0.1276163,0.2508562,0.1782569,0.4000979,-0.001628867
1.191979,-0.02693083,0.3685881,0.1972996,0.4266146,-0.1071722
1.18539,0.02032127,0.3893887,0.1170941,0.3635868,-0.1253769
1.193915,-0.03095369,0.3187741,0.05449578,0.3164184,0.02577644
1.224976,-0.1748303,0.2296271,-0.001680451,0.1967268,0.2694862
1.246208,-0.413836,0.1833501,0.1058018,0.1626758,0.3578909
1.193604,-0.5686039,0.1619332,0.3522209,0.2887229,0.2797355
1.078639,-0.4980262,0.1417285,0.3862185,0.337994,0.2041093
0.8448277,-0.4005153,0.1502513,0.2690208,0.2887076,0.07596666
0.7037991,-0.3390907,0.1445078,0.1722413,0.1773256,0.00265079
0.7505081,-0.2620996,0.1304746,0.06351025,-0.06006841,0.1720012
0.7702743,-0.2838583,0.1448402,0.05568908,-0.4488034,0.3373921
0.8382902,-0.3394568,0.1296054,0.1934263,-0.8253858,0.3553333
0.9341883,-0.3743774,0.09340251,0.418162,-0.8677152,0.2977576
0.9334523,-0.3907272,0.06504444,0.6345267,-0.7345389,0.1852557
0.9233698,-0.2932451,0.05884831,0.7383461,-0.715491,0.1111688
0.9187041,-0.2198717,0.07460134,0.7725413,-0.5965217,0.1014475
0.9406203,-0.2004227,0.05831155,0.7594137,-0.3670865,0.1390076
0.9640851,-0.1146195,0.05779059,0.7248237,-0.2585925,0.1823268
0.9469891,-0.05773091,0.07564177,0.67283,-0.215491,0.2004039
0.9521105,-0.03613088,0.06919424,0.5426247,-0.1798451,0.2213116
0.9679486,0.01988842,0.08462258,0.3420127,-0.1257374,0.2286017
0.9863737,0.07495767,0.08527675,0.08437285,-0.05308567,0.2936063
1.001582,0.07378881,0.06828272,-0.1007457,-0.02855424,0.393482
1.005664,0.0291255,0.06835103,-0.1436318,0.06020328,0.4233563
1.028907,-0.03536158,0.07620809,-0.1352941,0.1662932,0.4247797
1.064306,-0.1449792,0.1144215,-0.04378194,0.170221,0.3603605
1.102288,-0.2278704,0.1521827,0.09316862,0.1957898,0.2122692
1.097607,-0.2329091,0.1758789,0.1392822,0.186283,0.06790026
1.054302,-0.1740812,0.1675258,0.04344186,0.08476116,-0.013226
1.019484,-0.06815623,0.1346953,-0.095708,-0.06538529,-0.01842339
1.002784,-0.008596652,0.15019,-0.1027372,-0.2722165,-0.006789777
1.095,-0.04279538,0.1480837,-0.01956961,-0.3077444,0.008617189
1.258433,-0.1416769,0.1251961,0.03473423,-0.1173101,-0.0008800308
1.301049,-0.2542295,0.1357734,-0.01164101,-0.01062794,-0.1385616
1.209906,-0.3554901,0.1233292,-0.1760833,-0.108468,-0.429025
1.068231,-0.4376604,0.1087523,-0.3211514,-0.2120724,-0.7099622
0.9220846,-0.5128804,0.1041613,-0.3062259,-0.1881636,-0.7937744
0.8770719,-0.6012562,0.1269109,-0.005346818,-0.1364678,-0.7604904
1.027238,-0.608772,0.1810452,0.4577055,0.08885004,-0.6569109
1.23267,-0.4907258,0.1821575,0.6432753,0.4444711,-0.4086785
1.29226,-0.2889702,0.2030315,0.427058,0.4208774,-0.1116416
1.229743,-0.1392378,0.2513791,0.1314561,0.2803996,0.08592838
1.062947,-0.1467689,0.2182289,-0.13995,0.3825658,-0.0004235064
0.8770706,-0.1175121,0.1950588,-0.4367869,0.4076458,-0.1767695
0.8792997,-0.07271934,0.2164356,-0.4444822,0.5795099,-0.1074462
0.8741559,-0.1156182,0.2062206,-0.3960803,0.9148762,-0.1091482
0.7162455,-0.05949006,0.1920059,-0.6676692,0.8727559,-0.1349766
0.6808908,-0.01676968,0.1937792,-0.7429883,0.6864616,0.0542701
0.7052912,-0.08025697,0.2080502,-0.6960991,0.5173607,0.06873458
0.6913299,-0.1149994,0.2346359,-0.7202507,0.192488,0.04587096
0.7650185,-0.1807425,0.2497111,-0.515254,0.01298995,0.1146555
0.7709661,-0.2026351,0.2770609,-0.3590827,-0.07045906,0.05851616
0.7506846,-0.1290631,0.323574,-0.2089903,-0.3053156,0.07976869
0.8385983,-0.09792948,0.3324005,-0.06702819,-0.4738457,0.04278878
0.933588,-0.09692024,0.3196233,-0.1313606,-0.5150014,-0.1257571
1.064888,-0.1377239,0.3122295,-0.1175738,-0.487249,-0.2561041
1.143484,-0.2101031,0.2700146,-0.2140461,-0.3845436,-0.3484347
1.164558,-0.2179899,0.2308948,-0.3415849,-0.2746198,-0.1900008
1.220266,-0.1656055,0.2623859,-0.1876337,-0.09339019,0.01816741
1.176562,-0.1127359,0.3193067,-0.0481388,0.07970508,0.003826739
1.155903,-0.1307201,0.3363625,-0.01923561,0.179949,-0.0880811
1.266116,-0.1707633,0.3010075,-0.07354902,0.3598883,-0.1585392
1.33674,-0.2264738,0.1902589,-0.130812,0.4441835,0.00295738
1.29218,-0.3487498,0.0928685,-0.0737867,0.3757864,0.2638545
1.14763,-0.4084974,0.18303,0.122373,0.3759754,0.2917173
0.9943359,-0.4393329,0.3050363,0.350742,0.3736737,0.1622255
0.9095097,-0.4549484,0.247584,0.2356384,0.3024632,0.002183384
0.8660703,-0.3226385,0.1713716,-0.02737981,0.1793696,-0.05524239
0.7902285,-0.2180521,0.1104708,-0.1555401,0.04182795,0.02936709
0.7739747,-0.214829,0.03038991,-0.3514716,-0.05595815,0.1427182
0.8676681,-0.2261944,0.08040449,-0.392194,-0.2774054,0.2288675
0.8721284,-0.2947637,0.1306359,-0.1889865,-0.5880998,0.2219776
0.8732661,-0.3633713,0.09993012,0.02498721,-0.6848741,0.1296534
0.90263,-0.3972357,0.11125,0.2784469,-0.6286312,0.03907633
0.8550904,-0.3549101,0.09116114,0.441692,-0.6449082,0.007588235
0.9033651,-0.253344,0.08063557,0.5084088,-0.5878678,0.03942834
0.9490438,-0.1851643,0.09619691,0.5730197,-0.3612001,0.08863987
0.9418266,-0.08742077,0.06020235,0.4935299,-0.2080255,0.1673537
0.9727895,-0.03555133,0.07551047,0.3894451,-0.1876708,0.2660923
0.9472647,-0.03464201,0.08813513,0.2896731,-0.164244,0.3030748
0.9604392,0.009296528,0.06526798,0.09883928,-0.1240295,0.3170924
0.9761868,0.006171591,0.07817666,-0.02241184,-0.09888756,0.387284
0.9712593,0.007603401,0.06684978,-0.1023148,-0.0741832,0.4653126
1.025827,0.002283116,0.06590335,-0.1456582,0.01364708,0.4849371
1.026074,-0.06216873,0.08014573,-0.07450253,0.1426972,0.4472061
1.042415,-0.1178766,0.0929932,0.00212409,0.197765,0.3791339
1.081333,-0.2088472,0.147844,0.07825034,0.1710988,0.2549888
1.07756,-0.242984,0.1660106,0.1367944,0.1169731,0.1078555
1.076181,-0.1462169,0.1328802,0.1230989,0.04879127,0.05694802
1.050903,-0.04976438,0.1166371,0.1011696,-0.01800362,0.05726223
1.088078,-0.04124779,0.1257361,0.09792501,-0.1104793,0.05915876
1.201809,-0.1286873,0.1352886,0.09993254,-0.2035512,0.06765074
1.290092,-0.2336122,0.1308217,0.09042959,-0.1639013,-0.0490617
1.269358,-0.3283547,0.1347581,0.002266761,-0.09940769,-0.3382797
1.1479,-0.4163344,0.1345357,-0.2100087,-0.1546828,-0.675186
1.030686,-0.46112,0.1325986,-0.3600998,-0.2011284,-0.8545159
0.9058561,-0.5103446,0.1458909,-0.2043857,-0.2130028,-0.8452367
0.9435967,-0.5818222,0.1530027,0.1777734,-0.1103014,-0.8172491
1.151918,-0.582062,0.1646596,0.5412,0.2178249,-0.7022241
1.241699,-0.4100499,0.1859298,0.6016811,0.4528313,-0.4188046
1.269675,-0.1525649,0.2199977,0.2400518,0.3564229,-0.09424769
1.213781,-0.05977204,0.2442282,-0.1643003,0.2407593,0.07754073
1.046259,-0.1341283,0.222688,-0.3361118,0.3373204,-0.06913599
0.9199486,-0.1532892,0.2100261,-0.4176649,0.414927,-0.2617151
0.8620792,-0.1210561,0.2131392,-0.5059743,0.550739,-0.2565576
0.8750836,-0.1138143,0.1970003,-0.6377117,0.8118702,-0.254165
0.7713446,-0.05562117,0.1903423,-0.7319908,0.7704435,-0.2158251
0.6700711,-0.03592871,0.1945927,-0.731863,0.5887488,-0.09639621
0.7175395,-0.1018242,0.2070896,-0.715485,0.4315019,-0.06863019
0.6833898,-0.1324114,0.2311659,-0.6236791,0.1332513,-0.05878533
0.7160934,-0.1699085,0.2515959,-0.4880229,-0.02815251,-0.007939482
0.751919,-0.1705326,0.2720915,-0.3669007,-0.1858064,0.06078295
0.7104825,-0.0963016,0.2932591,-0.2518207,-0.4672945,0.1573372
0.8075109,-0.05891954,0.3092038,-0.2160819,-0.5950305,0.1866854
0.9068441,-0.05787042,0.3157839,-0.2174302,-0.6422779,0.1238274
1.056373,-0.115548,0.303586,-0.2290011,-0.6096891,-0.007584881
1.210068,-0.1937202,0.2461262,-0.2677752,-0.4611872,-0.1221323
1.237534,-0.2201036,0.1727096,-0.265061,-0.2188126,-0.06459485
1.262629,-0.2024251,0.181583,-0.1315866,0.03867896,0.04442022
1.212777,-0.09934204,0.2660325,0.02512739,0.07920607,0.02546649
1.199586,-0.01325033,0.3460852,-0.05143477,0.1326338,-0.04642496
1.279205,-0.04956682,0.358148,-0.1809433,0.4074503,-0.08908427
1.309462,-0.1387424,0.2693443,-0.1752308,0.5522539,-0.01538236
1.282617,-0.2613621,0.1668916,-0.150175,0.4178809,0.1956971
1.208093,-0.4266374,0.1375689,0.01660717,0.3342681,0.278394
1.154885,-0.5117636,0.1652394,0.1855486,0.4428981,0.1053266
0.9626245,-0.4361807,0.1898123,0.08080112,0.4484756,-0.1075493
0.6768015,-0.3431061,0.1762854,-0.07206819,0.2646091,-0.1420216
0.6419336,-0.2718647,0.1583353,-0.1786601,0.03791294,-0.006271906
0.7571914,-0.2359837,0.1290546,-0.2726938,-0.181874,0.1306147
0.8695687,-0.3291618,0.09897584,-0.1835522,-0.4090412,0.256648
0.9291636,-0.4037957,0.1061608,0.01642008,-0.6875916,0.3239277
0.8997223,-0.4069766,0.09897067,0.220256,-0.7711638,0.2046077
0.885988,-0.3894551,0.08509971,0.463147,-0.6863294,0.06006461
0.8916661,-0.3143088,0.08220009,0.6316715,-0.7518501,0.03512407
0.9108299,-0.2506804,0.06469659,0.7565506,-0.6380945,0.07596236
0.9495822,-0.1887205,0.05504831,0.8692918,-0.3944382,0.1374583
0.9718819,-0.134972,0.04976536,0.8524524,-0.3822832,0.2265527
0.9796158,-0.09856773,0.06815552,0.8106959,-0.2909016,0.306871
0.9736398,-0.01915912,0.09897534,0.718562,-0.2020845,0.3243626
0.9737328,0.002063355,0.09288293,0.5083017,-0.2548537,0.3643787
0.9899736,-0.0101422,0.08051383,0.3433118,-0.1856185,0.4256111
1.015575,0.01758696,0.0713044,0.2259413,-0.08824328,0.4458093
1.026206,0.005460831,0.07200202,0.1656762,0.0126536,0.462602
1.027536,-0.04690758,0.09121408,0.2010164,0.1462267,0.4430821
1.054889,-0.1488052,0.1146193,0.2883877,0.1968666,0.3766699
1.118021,-0.458566,0.1856002,0.3025553,0.4238737,-0.5689321
1.193626,-0.2548723,0.2256811,0.2010519,0.4321004,-0.2978251
1.210854,-0.09684261,0.2441707,-0.02636065,0.2580109,-0.01180036
1.064151,-0.06027982,0.2192274,-0.2316015,0.1982173,0.02864343
0.9852555,-0.1119278,0.1873608,-0.4217856,0.320586,-0.1433477
0.92122,-0.09433879,0.2085459,-0.5222728,0.5569775,-0.2169537
0.7920934,-0.03899145,0.2115083,-0.6351041,0.7491657,-0.2105306
0.7143104,-0.009280745,0.191126,-0.8193804,0.7870072,-0.1615286
0.6468902,0.01197157,0.1977115,-0.9493107,0.7092093,-0.01062883
0.6621947,-0.04795187,0.2149993,-1.034311,0.5143877,0.07207061
0.7361114,-0.1443108,0.2543875,-0.9102756,0.2205487,0.06389114
0.8052313,-0.21411,0.2863212,-0.6167417,-0.029841,0.03730711
0.8497535,-0.2381193,0.2963029,-0.3684964,-0.1215982,0.02157654
0.7989453,-0.1570042,0.3227838,-0.1116548,-0.2065985,0.06488443
0.8062992,-0.0699589,0.3293077,0.01074982,-0.4063648,0.1197715
0.8671488,-0.04606942,0.3168636,0.02866609,-0.5618035,0.1550967
0.9086989,-0.06580076,0.3132417,0.05575185,-0.5726514,0.08539527
1.032936,-0.136823,0.2730089,-0.02096617,-0.4672981,-0.06240817
1.177613,-0.2002157,0.2251301,-0.07987213,-0.3216756,-0.1126677
1.244958,-0.2089033,0.2443093,-0.1102992,-0.1068817,-0.1060926
1.246524,-0.1512324,0.2843319,-0.1219721,0.1524521,-0.1251008
1.296626,-0.08674506,0.2989622,-0.1277891,0.2291104,-0.187856
1.324016,-0.02035697,0.3305558,-0.283543,0.2614386,-0.2640552
1.260491,0.05420345,0.3493743,-0.38769,0.4409119,-0.2418211
1.283383,-0.09199062,0.2921685,-0.3411481,0.5342201,-0.05002766
1.238352,-0.3832008,0.217896,-0.2804307,0.4239157,0.1980039
1.100926,-0.4701298,0.1946271,-0.164271,0.3230567,0.1909864
1.015818,-0.4139881,0.1757087,-0.03182181,0.3758325,-0.03229977
0.838386,-0.3431169,0.1362779,-0.04856813,0.3752106,-0.1670054
0.7604689,-0.2322535,0.1240731,-0.2421363,0.2725331,-0.1813034
0.8416042,-0.1738513,0.1213304,-0.4533393,0.2133626,-0.07844521
0.8444077,-0.1996902,0.1178481,-0.5825633,0.007839031,0.07850774
0.8780083,-0.2548991,0.1240087,-0.5595166,-0.4109912,0.184538
0.9376305,-0.3318771,0.1102017,-0.4027196,-0.720315,0.2174304
0.9131486,-0.3508465,0.1076372,-0.2442795,-0.6833593,0.1287582
0.8900146,-0.2905104,0.1115723,-0.0544831,-0.5795675,0.06045248
0.8977003,-0.2519878,0.1027518,0.09229849,-0.6134933,0.0833389
0.8976636,-0.2072707,0.1078203,0.1943939,-0.4624181,0.1308628
0.9106557,-0.1489044,0.1091904,0.3250139,-0.3011612,0.2405464
0.9476706,-0.13935,0.1174622,0.3404009,-0.3016542,0.314778
0.9600198,-0.102625,0.1158682,0.315794,-0.1855363,0.3393481
0.9676655,-0.02411644,0.09429018,0.2687907,-0.169502,0.401443
0.9763048,0.02607341,0.08471326,0.1192563,-0.2126733,0.4927526
0.9717699,0.04287223,0.06602074,-0.02440117,-0.08743299,0.5980381
0.9925068,0.02335305,0.05885522,-0.1165542,0.02149232,0.6091709
1.026631,-0.0431493,0.06881092,-0.09544078,0.1293538,0.5491665
1.081792,-0.1458155,0.08519802,-0.01233535,0.1865559,0.4675657
1.111528,-0.1893195,0.1107866,0.05340962,0.1702054,0.2874968
1.070034,-0.1328252,0.1083835,0.04858978,0.1622022,0.1080539
1.04251,-0.05910748,0.1078726,-0.1543968,0.07260124,0.003305945
1.034055,0.006017741,0.1169896,-0.4044699,-0.04852424,-0.02730035
1.061098,-0.01789122,0.1115357,-0.484668,-0.1854929,0.01853053
1.194016,-0.1543914,0.1179086,-0.3882106,-0.2558352,0.03132338
1.316381,-0.2387172,0.1188761,-0.2787035,-0.1344631,-0.02440915
1.274409,-0.2729444,0.1069171,-0.2714136,-0.05087009,-0.1627988
1.170031,-0.3388412,0.08452948,-0.3429575,-0.1562474,-0.4024582
1.129767,-0.3884355,0.05210795,-0.5080445,-0.2200301,-0.5843956
1.026673,-0.435832,0.05262782,-0.5287796,-0.03925167,-0.6234959
0.8842239,-0.5200696,0.06707727,-0.2790857,0.2096875,-0.6258798
0.88847,-0.5432477,0.08319274,0.0007020674,0.4017821,-0.5796786
0.963959,-0.4573965,0.144,0.1335793,0.6161085,-0.4469381
1.047353,-0.3496941,0.1988114,-0.02091222,0.6494428,-0.2984228
1.153294,-0.1955258,0.213751,-0.2974739,0.3575518,-0.08855396
1.159875,-0.1081209,0.2171539,-0.4807888,0.1213721,0.0541485
1.083528,-0.226303,0.1844538,-0.5147353,0.3204855,-0.1058772
1.038876,-0.2702148,0.1602503,-0.3787529,0.6379416,-0.2795454
0.9597164,-0.1980919,0.1892269,-0.378796,0.7422003,-0.2411434
0.8231569,-0.164314,0.2060671,-0.464003,0.8231256,-0.2107946
0.7165094,-0.08670341,0.2004862,-0.5080234,0.7449156,-0.1661642
0.6500762,-0.04741579,0.2097227,-0.6439241,0.4879318,-0.05333409
0.6594544,-0.0672483,0.2330108,-0.6058954,0.3378244,-0.01346612
0.7318184,-0.08461339,0.2476641,-0.5154292,0.1534032,0.03852984
0.7878115,-0.1219362,0.255466,-0.5132132,0.003591714,0.1372415
0.8316834,-0.10119,0.2679154,-0.3805451,-0.07730167,0.1458387
0.8622398,-0.05116031,0.2813764,-0.3065605,-0.2662279,0.1017251
0.8913932,-0.02131875,0.3185038,-0.2783452,-0.3652739,0.01634158
0.902417,-0.003818997,0.345152,-0.2815828,-0.3991009,-0.1601217
0.9117482,-0.02620113,0.3280087,-0.4536738,-0.4303499,-0.3037659
0.9859894,-0.08271984,0.2902767,-0.6830949,-0.3748464,-0.2928016
1.082922,-0.1801799,0.2189278,-0.8604269,-0.2502243,-0.09840412
1.224542,-0.2130957,0.1891741,-0.6996818,0.05509286,0.1577697
1.329405,-0.1170428,0.2632538,-0.3836373,0.3296987,0.1722597
1.286431,-0.06206472,0.3636645,-0.341875,0.4006547,-0.05181577
1.285821,-0.09461834,0.4176352,-0.3754062,0.510604,-0.2078741
1.326644,-0.1223329,0.3614621,-0.4139947,0.5754355,-0.1848089
1.230002,-0.1968145,0.2614723,-0.3986948,0.4076194,0.01992182
1.107238,-0.3600892,0.2281962,-0.2635931,0.1979218,0.2349817
1.069585,-0.4423849,0.2006856,-0.2635019,0.1610711,0.1961953
0.9758425,-0.3593419,0.172037,-0.3293712,0.1992578,0.03397908
0.7906474,-0.2856569,0.1431468,-0.4013059,0.1726743,-0.08350399
0.7372135,-0.266333,0.07738915,-0.5595834,0.1355739,-0.1376334
0.8558184,-0.2448517,0.06967051,-0.6966404,0.09822185,-0.02269449
0.9508892,-0.2757875,0.09648545,-0.751757,-0.0134977,0.141674
0.9658642,-0.3236571,0.1000648,-0.6523871,-0.1912652,0.1670576
0.9375613,-0.3559004,0.1315863,-0.4478854,-0.3121268,0.09705687
0.8771066,-0.3670147,0.1297202,-0.2714124,-0.3605092,0.001412582
0.8432842,-0.3217389,0.09976537,-0.1290222,-0.4458913,-0.02826426
0.8685004,-0.292137,0.08858036,-0.02233159,-0.4939574,0.02169179
0.893753,-0.2640443,0.05547714,0.08998415,-0.3901257,0.07690344
0.8846657,-0.2065768,0.04883568,0.1807057,-0.2501921,0.1724963
0.8853142,-0.1719404,0.07013477,0.1707887,-0.2017879,0.2741454
0.9220352,-0.1238027,0.07119587,0.1008836,-0.1824024,0.3125252
0.9657181,-0.07799852,0.0687061,-0.02053212,-0.1287196,0.3473831
0.9984175,-0.06628228,0.06293218,-0.2076285,-0.0626853,0.3969177
1.017047,-0.08992458,0.0671036,-0.3607625,-0.01770786,0.4271245
1.030778,-0.1340974,0.07640466,-0.3814176,0.01200664,0.4269044
1.04207,-0.1366175,0.08795305,-0.3102359,0.06396306,0.3731687
1.045313,-0.1634617,0.1219627,-0.1971184,0.06313827,0.2551487
1.083274,-0.2159585,0.1368833,-0.01136055,0.03049679,0.1301787
1.128995,-0.2101566,0.1121674,0.1495347,0.04198661,0.05442743
1.130055,-0.1732344,0.07953934,0.1530964,-0.01568364,0.0211396
1.117649,-0.08818758,0.07287477,0.08356017,-0.08621513,0.03194445
1.100098,-0.01863275,0.1117321,0.04546662,-0.09497886,0.07528235
1.123532,-0.07415301,0.1525358,0.06109981,-0.1229514,0.105507
1.21294,-0.1983777,0.1584439,0.08777737,-0.1200293,0.06488659
1.283416,-0.3057705,0.1657766,0.03510809,-0.1002963,-0.08751
1.263804,-0.3477828,0.1693298,-0.08351502,-0.1020774,-0.3204297
1.16887,-0.3753544,0.1241952,-0.2554542,-0.06864842,-0.5317757
1.036704,-0.4298671,0.07773621,-0.3771711,-0.01033755,-0.6104457
0.846499,-0.4558198,0.0746445,-0.3027764,0.05385362,-0.6271356
0.7542062,-0.4951587,0.0956188,-0.0686519,0.1402649,-0.6562103
0.8625387,-0.5247513,0.1424201,0.3060001,0.3058928,-0.571917
0.9736285,-0.4722547,0.194006,0.509584,0.4399635,-0.3772459
1.070792,-0.3610137,0.2168146,0.3255024,0.3523198,-0.1092792
1.101815,-0.1876354,0.2070399,0.1725559,0.2294116,0.1644917
1.004145,-0.1353433,0.195103,0.08220995,0.2294175,0.174794
0.9760523,-0.2253077,0.2021119,-0.06118631,0.2900449,-0.006670458
0.9337245,-0.1889817,0.1988876,-0.07880111,0.4561427,-0.1243486
0.8268359,-0.1292378,0.2066327,-0.1562012,0.5882092,-0.1867331
0.7869356,-0.09655373,0.2278066,-0.2698675,0.5709209,-0.1627186
0.7402972,-0.03179196,0.2322568,-0.2561729,0.4933215,-0.1035797
0.7224517,-0.07232296,0.2537594,-0.2131227,0.2923413,-0.09989908
0.7486211,-0.1046979,0.2839028,-0.05270142,0.04330854,-0.06641052
0.7623222,-0.1096587,0.3010407,0.1450954,-0.1351579,-0.04433686
0.7914835,-0.1282643,0.3136051,0.2501999,-0.3343651,-0.04328978
0.7963089,-0.05145075,0.3346577,0.2886562,-0.5383388,-0.02848178
0.8274513,-0.003905473,0.3639974,0.2125253,-0.631889,-0.06978845
0.9191335,-0.01732559,0.3595668,0.1353004,-0.586787,-0.1039437
1.015024,-0.06529743,0.3303253,0.07093392,-0.5314168,-0.1152488
1.128755,-0.1654797,0.2835813,-0.01006987,-0.4523638,-0.09152738
1.23589,-0.1813504,0.2436244,0.002802968,-0.2361983,0.02643551
1.286436,-0.08893035,0.293732,0.06281041,-0.01329719,0.0825852
1.28782,0.04431228,0.3776416,0.079779,0.2191678,-0.01363559
1.299212,0.07165013,0.3839844,-0.07896887,0.4753314,-0.1112315
1.302247,-0.1220143,0.2953996,-0.3627786,0.5418917,-0.02713542
1.246619,-0.3958633,0.2040427,-0.4263783,0.4089354,0.1477177
1.167403,-0.5439167,0.2298383,-0.1921228,0.2934012,0.2160919
1.014514,-0.4950278,0.261115,0.07475096,0.3266403,0.1788965
0.8192363,-0.402166,0.2075299,0.1248535,0.3145193,0.0055757
0.717639,-0.3069598,0.1707224,-0.008865203,0.1238983,-0.158059
0.6934293,-0.1876845,0.112152,-0.1570936,-0.06984155,-0.1121344
0.7813445,-0.2116464,0.05820599,-0.3001865,-0.1951623,0.05918351
0.9456626,-0.26161,0.07924558,-0.3820555,-0.2667534,0.2503466
0.9837062,-0.254236,0.07541971,-0.2950974,-0.367888,0.2882143
0.9448719,-0.3292352,0.08917308,-0.1590956,-0.4585335,0.1752294
0.925121,-0.3371372,0.1147506,-0.08841637,-0.4310522,0.08078823
0.8792746,-0.2856336,0.09436653,0.03340354,-0.4726906,0.006582168
0.8844722,-0.2804561,0.1055017,0.1828528,-0.4890346,0.02324822
0.9197251,-0.2110012,0.0900455,0.3010305,-0.3627914,0.1196189
0.903891,-0.188998,0.07312637,0.4724664,-0.2643779,0.2076524
0.9179663,-0.2218467,0.09861618,0.5968117,-0.1511205,0.3100352
0.932516,-0.1630165,0.09798541,0.6381829,-0.1441799,0.3893226
0.9197053,-0.1230209,0.1196305,0.6499249,-0.2317343,0.4641418
0.9542993,-0.1033495,0.1088087,0.5619229,-0.2105533,0.5595629
1.019225,-0.03621356,0.04397702,0.444394,-0.1760823,0.6080449
1.080701,-0.01179207,0.01361632,0.3747701,-0.04620133,0.5867313
1.097699,-0.04704762,0.02111836,0.3709524,0.1379327,0.4599265
1.11185,-0.09887419,0.06352724,0.4033841,0.1982333,0.2302873
1.150474,-0.1571523,0.09114004,0.3728716,0.217379,-0.0004186665
1.111219,-0.1829855,0.1196977,0.279945,0.2029001,-0.1586174
1.056061,-0.0926736,0.1439878,0.04989898,0.1615833,-0.1820936
1.025403,0.0543498,0.1302026,-0.2385752,0.0297537,-0.07502366
1.010174,0.09030617,0.1488501,-0.3067598,-0.1511465,0.05377016
1.114967,0.006494779,0.1338383,-0.2228666,-0.1430968,0.1543738
1.231146,-0.1194945,0.1084277,-0.1591901,0.002711554,0.1599508
1.239847,-0.2248673,0.1497616,-0.1387567,0.1037019,-0.0196806
1.189,-0.3012001,0.1524944,-0.2503648,0.0260572,-0.3122406
1.08227,-0.3743168,0.1293898,-0.4998414,-0.1160426,-0.5486588
0.9500777,-0.443958,0.1047479,-0.6252195,-0.1275167,-0.6300721
0.8801264,-0.5248276,0.08981249,-0.4612526,-0.1309938,-0.66185
0.9514717,-0.5491783,0.1179189,-0.1786517,-0.0667847,-0.7126161
1.093733,-0.4680175,0.1310637,0.05194765,0.2247952,-0.6434529
1.206683,-0.3147681,0.1591822,0.03272938,0.5039417,-0.4507641
1.228297,-0.1249875,0.1952061,-0.3314358,0.4693517,-0.1513249
1.077069,-0.06648753,0.1933321,-0.6932507,0.3523169,0.09712712
0.9226402,-0.1727107,0.198287,-0.8030215,0.4672045,-0.05243349
0.8692457,-0.2338548,0.2079989,-0.7974784,0.5361131,-0.2665879
0.8211684,-0.2153462,0.2150385,-0.8155603,0.5983257,-0.2141206
0.7932868,-0.1998614,0.2183422,-0.8036377,0.7486575,-0.21776
0.7656384,-0.1863649,0.2179892,-0.7148169,0.6352012,-0.1993258
0.7729259,-0.191039,0.2264334,-0.5985013,0.5043153,-0.06975375
0.7988707,-0.2135079,0.238939,-0.403746,0.3849271,-0.03826283
0.7801028,-0.2124592,0.2564589,-0.2143846,0.11884,-0.004462561
0.7902119,-0.1836477,0.2637623,-0.118497,0.004448239,0.03824584
0.7826839,-0.117162,0.27403,-0.01534667,-0.1989607,0.09751166
0.7856698,-0.02320365,0.2961268,0.02093508,-0.4795734,0.1972349
0.8510606,0.02481004,0.3043381,0.0006307896,-0.5722309,0.1788353
0.9098058,-0.01105733,0.3074977,-0.0139056,-0.628799,0.07688248
0.9965311,-0.08802249,0.298915,-0.0885065,-0.592379,-0.09316353
1.100484,-0.1570554,0.2541736,-0.1788119,-0.5405006,-0.1945519
1.217291,-0.2143819,0.1934804,-0.2207605,-0.3904857,-0.06714052
1.291169,-0.2047052,0.1807299,-0.06813261,-0.007089922,0.005485626
1.252547,-0.08340516,0.2457902,0.1208342,0.2493425,-0.0596324
1.235777,0.05255634,0.3576645,-0.003983874,0.2885005,-0.08271937
1.235519,0.0804275,0.4207833,-0.1876081,0.2082435,-0.06160476
1.224245,-0.06092152,0.2913978,-0.2588304,0.1528427,0.02537065
1.29357,-0.3021121,0.1243773,-0.2892902,0.3020324,0.1831839
1.318173,-0.5036434,0.164779,-0.06493451,0.5360528,0.2284136
1.174848,-0.5381674,0.1919447,0.1618616,0.6571547,0.06596696
0.9272323,-0.3772471,0.1246052,-0.0009074759,0.4683531,-0.1177174
0.6905359,-0.2366699,0.1379142,-0.2742766,0.1295624,-0.1631205
0.6584183,-0.2166739,0.1064592,-0.5055576,-0.03285851,-0.02174464
0.8188439,-0.243353,0.07854359,-0.6558497,-0.1688341,0.1858901
0.9075775,-0.3387364,0.1359279,-0.4266443,-0.3571225,0.2411228
0.9134654,-0.4588916,0.1218794,-0.007635018,-0.4860802,0.219814
0.9086502,-0.5061038,0.1194904,0.3220042,-0.5688926,0.1485446
0.8856533,-0.4307887,0.132644,0.5873281,-0.6163101,0.01616527
0.9176174,-0.3452053,0.1003259,0.6129304,-0.6481562,0.04840518
0.9490958,-0.3093327,0.08543875,0.548375,-0.5000146,0.2054245
0.9648519,-0.1889766,0.02839187,0.581708,-0.2172433,0.3443986
0.9741263,-0.1175563,0.008131051,0.5009062,-0.1482081,0.4338344
0.9404467,-0.154748,0.05031379,0.4260018,-0.1503809,0.4085045
0.9561553,-0.1113007,0.05132371,0.3347056,-0.06651967,0.3753754
0.9703519,-0.05202879,0.06263751,0.08998769,-0.02406107,0.3521127
0.9841027,-0.0570601,0.07083164,-0.06040472,0.008096547,0.2612679
1.054913,-0.06930379,0.07198866,-0.1412744,0.01642757,0.1839621
1.075771,-0.06907269,0.08376144,-0.1856587,-0.01340693,0.1312711
1.085386,-0.08091826,0.0727608,-0.1514948,-0.01352053,0.1101416
1.090637,-0.1166932,0.07752567,-0.1820137,0.1328028,0.09600354
1.057526,-0.1537676,0.1041217,-0.1900828,0.3166813,0.03268507
1.024241,-0.1842861,0.1616556,-0.1510158,0.2364433,-0.008171154
0.9811045,-0.1641303,0.2122433,-0.1462761,0.1143416,-0.03912966
0.9994096,-0.1214108,0.1708331,-0.1300762,0.1023011,-0.04647247
1.052325,-0.1294655,0.1116057,-0.1024195,0.008272115,-0.03037856
1.089439,-0.1833746,0.09925139,-0.07430532,-0.01517565,-0.1084812
1.13337,-0.2905771,0.09019061,-0.1148531,0.01039257,-0.2658624
1.092548,-0.3748932,0.0723416,-0.2413725,-0.06367075,-0.4971251
1.010924,-0.3915118,0.06492241,-0.3757637,-0.1014565,-0.7187753
0.9880534,-0.4294462,0.0899409,-0.4229242,-0.07282171,-0.8280959
1.010146,-0.4811674,0.1223286,-0.2261148,0.08433551,-0.8643549
1.068731,-0.4722259,0.1276488,0.07388401,0.3953528,-0.7147634
1.135049,-0.3492925,0.1657328,0.143895,0.5566964,-0.4585147
1.21988,-0.1955089,0.226132,-0.03322241,0.3951757,-0.2777852
1.226199,-0.1871035,0.2120616,-0.3161861,0.24341,-0.09159657
1.094635,-0.236767,0.191801,-0.5410218,0.3366418,-0.02261644
1.020236,-0.214987,0.219795,-0.5598065,0.3974072,-0.1325524
1.004864,-0.2163566,0.2136263,-0.5163606,0.4680243,-0.1982829
0.933955,-0.2131462,0.1948687,-0.5693,0.6821703,-0.2033672
0.8137002,-0.1485911,0.1925924,-0.5739629,0.6778828,-0.189814
0.7284764,-0.1314869,0.1901318,-0.5395359,0.5133704,-0.1143868
0.7811672,-0.1498172,0.226503,-0.5539352,0.3913811,-0.01183014
0.806405,-0.158126,0.2664436,-0.4551233,0.1788778,0.07242535
0.7884521,-0.194426,0.2679708,-0.2962044,-0.02007124,0.1060764
0.847152,-0.2231251,0.2719084,-0.2067628,-0.1520716,0.109983
0.8276193,-0.2100194,0.2917332,-0.1081868,-0.2811819,0.1217342
0.8193675,-0.1541741,0.3101945,-0.0291721,-0.3230338,0.08398465
0.7506058,-0.005403595,0.1359858,-0.04275438,0.2536405,0.04145691
0.7678358,-0.02935767,0.1458262,-0.08353737,0.07597173,0.07161958
0.8212699,-0.09103837,0.1691064,-0.02621147,-0.06376926,0.1454547
0.8458121,-0.1245681,0.1945076,0.06911042,-0.1507949,0.1837485
0.833687,-0.06820061,0.2323989,0.2109406,-0.4263773,0.2676458
0.8637436,-0.04251114,0.2467925,0.2786898,-0.586395,0.1828767
0.9401872,-0.07249021,0.23113,0.2382211,-0.5657361,-0.02707652
1.012109,-0.1306214,0.2049096,0.1503306,-0.6244369,-0.1101653
1.102926,-0.2092698,0.1589201,0.004267909,-0.6012601,-0.1553191
1.244981,-0.2358478,0.1211183,-0.03991034,-0.4893767,-0.06683023
1.356106,-0.1829667,0.1110099,0.1416461,-0.3265528,0.04199126
1.36438,-0.0768728,0.1496433,0.3472881,-0.1282116,-0.03748735
1.409678,0.01792444,0.2312701,0.3673855,0.07940853,-0.1938894
1.487571,0.0004016699,0.2465438,0.3142206,0.3385471,-0.3201209
1.387352,-0.1923514,0.1406332,0.3451362,0.4138044,-0.1399786
1.251532,-0.4739786,0.04145704,0.4441452,0.4187204,0.2104666
1.216883,-0.6129961,0.07500727,0.6003713,0.5849465,0.232102
1.053069,-0.5040851,0.1319877,0.6842859,0.6128289,0.04395636
0.7793807,-0.3344145,0.1172347,0.542026,0.4051502,-0.1026928
0.6606259,-0.2389663,0.1083547,0.31768,0.06785561,-0.117562
0.7028791,-0.1788071,0.0740577,0.1418515,-0.2929313,0.07933787
0.7854629,-0.2284465,0.01738499,0.04426238,-0.5482474,0.3408221
0.8946467,-0.320428,0.004965167,0.1246238,-0.6989485,0.5182932
0.9577478,-0.3600491,-0.01669429,0.292474,-0.6562386,0.5133046
