accx,accy,accz,gyrox,gyroy,gyroz
1.198963,-0.2153853,-0.695907,0.475949,-0.3176812,-0.1485712
1.236123,-0.2666467,-0.6950822,0.50908,0.04448931,-0.1710413
1.107556,-0.2338858,-0.7036879,0.5443959,0.5713511,-0.2081579
0.8740545,-0.2318044,-0.7899783,0.2953974,1.013196,-0.1976295
0.779382,-0.334502,-0.7330895,-0.137993,1.140099,-0.1540869
0.8443663,-0.4070352,-0.6023476,-0.2830039,1.320524,-0.100834
0.8756986,-0.3639121,-0.5391899,-0.3134717,1.571308,-0.07612751
0.8431964,-0.2927369,-0.4468626,-0.502444,1.443921,-0.07633593
0.8744308,-0.2466944,-0.4586226,-0.5812707,1.203008,-0.01332032
0.9079138,-0.229695,-0.5125915,-0.4756525,1.156503,0.09863205
0.8717858,-0.2254959,-0.4501991,-0.4433573,1.127597,0.2017935
0.8374574,-0.225144,-0.4468246,-0.4639478,1.130349,0.3087816
0.7735457,-0.2771163,-0.4112616,-0.4459681,0.9784641,0.4092134
0.7216107,-0.3794229,-0.3099768,-0.4343531,0.6493732,0.4824934
0.745374,-0.4095493,-0.2796293,-0.3776648,0.4958492,0.489323
0.7530441,-0.3742647,-0.2308462,-0.2722532,0.4402641,0.4932789
0.7761297,-0.3739878,-0.2125071,-0.1400353,0.4250894,0.5098668
0.8195768,-0.3539985,-0.2192767,-0.001424569,0.4172792,0.4424349
0.8189009,-0.322294,-0.2172812,0.03138949,0.3441695,0.3678903
0.8289317,-0.3169594,-0.264166,0.02447833,0.3105902,0.2970765
0.8189222,-0.3086391,-0.2486307,0.06351958,0.1814043,0.2182184
0.7701757,-0.321707,-0.2021633,0.05932508,-0.06285453,0.1725885
0.7573483,-0.3087274,-0.1599471,0.03990955,-0.286262,0.09233889
0.7663132,-0.2832961,-0.09248529,0.04666649,-0.4357928,0.0346408
0.7888002,-0.2892255,-0.08556434,0.02977305,-0.5513066,0.0006861471
0.8468636,-0.272601,-0.09416971,0.007465859,-0.6916829,-0.06121661
0.9215682,-0.2730389,-0.1271726,-0.0233725,-0.6817672,-0.07983908
1.015916,-0.28973,-0.2166744,-0.04902707,-0.5714782,-0.07666137
1.105271,-0.2952641,-0.2907018,0.003995535,-0.4251738,-0.05729946
1.142099,-0.3108281,-0.3214236,0.0958809,-0.2136736,-0.007879002
1.181744,-0.2933682,-0.2582291,0.1700075,-0.1314909,0.02603504
1.236732,-0.2542428,-0.1664869,0.1822587,-0.06741974,0.01511528
1.238749,-0.2371542,-0.1269237,0.02176116,0.1022009,-0.01038498
1.218005,-0.2882143,-0.1209529,-0.1537758,0.2486742,0.003413399
1.162581,-0.380994,-0.1847077,-0.07998906,0.2024102,-0.004904604
1.043949,-0.4124806,-0.2616664,0.04318742,-0.08977923,-0.01729604
0.987328,-0.4766577,-0.3010327,0.1026408,-0.3748206,0.02498783
1.014366,-0.6086438,-0.4024379,0.3654273,-0.5258444,0.0258041
0.9880616,-0.632511,-0.5849609,0.6678543,-0.5040132,-0.05784319
0.8913345,-0.5229676,-0.6940374,0.685102,-0.3220346,-0.1963939
0.8133463,-0.375159,-0.6428301,0.5235604,-0.08564954,-0.2817531
0.7517444,-0.2411396,-0.5591553,0.3196747,0.03851309,-0.2644956
0.679546,-0.1147216,-0.4845425,0.09135767,-0.2501092,-0.2720521
0.6743061,-0.05371966,-0.3789359,-0.1190059,-0.6780285,-0.3106351
0.7457188,-0.1369174,-0.3511965,-0.2390705,-0.9546463,-0.3697658
0.8314218,-0.2308851,-0.3937559,-0.2527562,-1.160518,-0.5054692
0.9138364,-0.2863849,-0.418492,-0.1653128,-1.102805,-0.6770388
0.9246197,-0.3403768,-0.4654963,-0.01491647,-0.9130804,-0.8333647
0.8870502,-0.3000501,-0.4862576,0.05662311,-0.6514366,-0.889239
0.8926801,-0.2443341,-0.4427912,0.185028,-0.2336136,-0.8282848
0.8779095,-0.212441,-0.4145235,0.4416168,-0.07117363,-0.73121
0.8303518,-0.1538733,-0.3903178,0.5436757,-0.1491631,-0.5521896
0.8004075,-0.160551,-0.3513648,0.5591514,-0.3006878,-0.35245
0.7884528,-0.1647261,-0.3313102,0.6339069,-0.5906319,-0.3199279
0.8205584,-0.1217635,-0.3577523,0.6777775,-0.6855567,-0.3410061
0.8478337,-0.092107,-0.4162395,0.6871416,-0.5603006,-0.2954813
0.8492071,-0.02679751,-0.4289847,0.649071,-0.5455817,-0.2781555
0.863536,0.02388841,-0.4198448,0.5843626,-0.5359075,-0.1912272
0.8645992,0.02277192,-0.4374025,0.5017563,-0.461157,0.009264346
0.8927603,-0.003123913,-0.4362285,0.3888154,-0.4086803,0.151944
0.9654484,-0.06222002,-0.4076627,0.3578282,-0.3114512,0.1804175
1.036903,-0.09723009,-0.38844,0.4186864,-0.2822711,0.08452235
1.104086,-0.09113243,-0.4460371,0.4594659,-0.35697,-0.06945043
1.144606,-0.06484908,-0.551292,0.4321252,-0.3570238,-0.1800057
1.164019,-0.001473096,-0.602208,0.3096013,-0.3025155,-0.2020006
1.176574,0.06975042,-0.6500913,0.1010231,-0.2333972,-0.1262236
1.184836,0.04781759,-0.7028005,-0.007909132,-0.136591,-0.08748554
1.171669,-0.05921574,-0.7023777,0.05460404,0.05885771,-0.08812466
1.073095,-0.1402036,-0.7483518,0.01185822,0.4174632,-0.06382638
0.9395242,-0.2425367,-0.8150522,-0.2607193,0.777377,-0.06837903
0.8670469,-0.3970921,-0.711655,-0.5655406,1.065774,-0.039009
0.8512027,-0.5279772,-0.5351548,-0.6638538,1.257733,0.03365352
0.87472,-0.5622548,-0.4703695,-0.5523501,1.354422,0.10202
0.9304346,-0.4681633,-0.4266111,-0.4619981,1.536113,0.1627336
0.9956609,-0.3677078,-0.3748298,-0.3167249,1.661257,0.2265565
1.031414,-0.2706032,-0.3761005,-0.07872151,1.548454,0.3134538
1.000285,-0.1787602,-0.4109429,-0.04164725,1.377207,0.3166172
0.9247856,-0.1755026,-0.4603622,-0.198359,1.107807,0.2699256
0.815195,-0.1713443,-0.4130854,-0.4467287,0.6741895,0.2849293
0.6609484,-0.1919419,-0.315105,-0.6226614,0.3293648,0.349918
0.6265317,-0.2258629,-0.3090056,-0.5671709,0.1173666,0.5421484
0.7159261,-0.2383327,-0.276954,-0.4923452,0.001000894,0.7774491
0.7151756,-0.3172669,-0.202345,-0.408914,0.09786069,0.8756141
0.7481477,-0.3296206,-0.173651,-0.2938488,0.2225195,0.8687432
0.8179532,-0.3035892,-0.1695844,-0.248124,0.2346568,0.7945623
0.7931355,-0.3534763,-0.165297,-0.182713,0.2632224,0.6264115
0.8109421,-0.3990662,-0.1347171,-0.1207607,0.1595552,0.3592045
0.7727148,-0.4331094,-0.1052257,-0.04529123,-0.1498485,0.06166164
0.7114312,-0.3915932,-0.06388009,-0.005538196,-0.4238063,-0.1513277
0.7595777,-0.3111237,-0.0418572,-0.1034233,-0.4889441,-0.2280445
0.7710767,-0.277166,-0.09739999,-0.2120321,-0.3500658,-0.2447052
0.834289,-0.240708,-0.1388589,-0.3073578,-0.22808,-0.2580074
0.9298075,-0.2278718,-0.1818335,-0.3292009,-0.2457101,-0.1900496
0.9711116,-0.2068132,-0.2409861,-0.2422125,-0.4362176,-0.07390302
1.077125,-0.1867966,-0.2593967,-0.142122,-0.7231693,0.02287329
1.211494,-0.2373298,-0.2464471,-0.04763027,-0.6937118,0.1092385
1.311459,-0.2710099,-0.2034841,-0.05674239,-0.3411241,0.1259204
1.295671,-0.276125,-0.2107609,-0.1198624,0.1487099,0.1514788
1.246769,-0.3576967,-0.2601197,-0.1171334,0.6410714,0.2684922
1.238431,-0.4704533,-0.3279571,-0.06951542,0.4775448,0.3413927
1.100195,-0.4702049,-0.4256297,0.08412016,-0.3082789,0.3402372
1.004987,-0.4839978,-0.4236338,0.3124417,-0.8463173,0.3428943
1.058384,-0.6753382,-0.4631722,0.5584134,-0.7757561,0.3298077
1.028737,-0.7712419,-0.6818232,0.7289248,-0.4369146,0.2332851
0.9008683,-0.5842975,-0.7956973,0.5699455,-0.2244864,0.03067091
0.7601762,-0.3350835,-0.6243413,0.2981915,0.1260343,-0.1577323
0.6898588,-0.1948661,-0.3927017,0.2450073,0.2876123,-0.266328
0.6776173,-0.1379984,-0.3676,0.08268236,-0.1213346,-0.4581081
0.6429178,-0.1187252,-0.3511635,-0.238933,-0.5329229,-0.6924921
0.6867124,-0.1598229,-0.2745844,-0.3086371,-1.232988,-0.7480401
0.8178952,-0.2334964,-0.4114776,-0.1618593,-1.641316,-0.7248378
0.9127685,-0.2787489,-0.5481951,-0.002041226,-1.127422,-0.7420324
0.9351476,-0.279138,-0.5448597,0.07395673,-0.8284627,-0.7510238
0.8998394,-0.2434979,-0.536725,0.1412071,-0.3568199,-0.7617327
0.881202,-0.2411181,-0.479234,0.3670603,0.1641409,-0.7049504
0.8689139,-0.2433044,-0.45452,0.5797031,-0.05927452,-0.5733302
0.8220118,-0.2112969,-0.4268918,0.6709879,-0.07268732,-0.4660204
0.8118486,-0.1911708,-0.3877563,0.7033697,-0.1858487,-0.3640689
0.8021185,-0.1512503,-0.4216579,0.6618695,-0.5300891,-0.2711537
0.7827288,-0.1080954,-0.403379,0.5951598,-0.4369771,-0.2259855
0.80079,-0.06669937,-0.3921742,0.5392408,-0.4167261,-0.1948412
0.7982675,-0.01793885,-0.4002139,0.50198,-0.423617,-0.110057
0.8075049,0.005717182,-0.3749838,0.4410856,-0.3745494,0.005760849
0.8248419,0.04844246,-0.3935255,0.3657281,-0.410894,0.08839027
0.8204935,0.03483365,-0.3890907,0.2940363,-0.3983511,0.2126335
0.8782682,-0.07026248,-0.3855918,0.2217145,-0.470643,0.336435
0.9776479,-0.142071,-0.4144958,0.2584119,-0.4669374,0.3131677
1.081309,-0.1555412,-0.4556649,0.286951,-0.3787817,0.22494
1.186004,-0.1142833,-0.5351384,0.2101514,-0.2692326,0.1234433
1.234528,-0.08113445,-0.5748943,0.141768,-0.1421654,-0.04354784
1.238283,-0.1143344,-0.6258043,0.07920989,-0.2389629,-0.1190771
1.273221,-0.1810202,-0.7177027,0.08308385,-0.28478,-0.02802994
1.300332,-0.2705338,-0.7580517,0.1507104,-0.01909768,0.009439841
1.240619,-0.2950705,-0.7795096,0.1575957,0.4415703,-0.05175866
1.151244,-0.2847088,-0.7705273,0.01640976,1.035184,-0.1019853
0.9548891,-0.3921644,-0.7120812,-0.312161,1.516135,-0.1247619
0.6936102,-0.5229356,-0.611992,-0.5432907,1.689548,-0.02869797
0.7401961,-0.515837,-0.4902195,-0.4702541,1.712041,0.1407687
0.9421888,-0.3911475,-0.4405805,-0.4088943,1.74671,0.2082312
0.9867467,-0.2778849,-0.3789401,-0.4483434,1.653473,0.2372075
1.031907,-0.2446649,-0.322155,-0.3460372,1.356642,0.2639865
1.001877,-0.2295365,-0.4094118,-0.3023818,1.047692,0.2040099
0.8507061,-0.1915738,-0.4668162,-0.4929366,0.8304514,0.1431699
0.7744481,-0.191249,-0.4678252,-0.6319456,0.6782629,0.1544421
0.7104114,-0.2554736,-0.438317,-0.6106953,0.5023359,0.2187558
0.6359986,-0.3041654,-0.2783,-0.5329156,0.3742169,0.376961
0.5945823,-0.3254905,-0.203267,-0.4545757,0.4021198,0.5914318
0.6266744,-0.3271069,-0.2134931,-0.3589265,0.4146081,0.756162
0.7062033,-0.3049545,-0.1614631,-0.2749541,0.3821037,0.794666
0.702406,-0.3226524,-0.1686914,-0.284294,0.3197462,0.6763503
0.7274351,-0.3221775,-0.1848605,-0.2730952,0.1189252,0.4998934
0.7428712,-0.3111903,-0.1521932,-0.2393493,-0.1195982,0.3273287
0.7040383,-0.3354129,-0.1088178,-0.2414855,-0.3549538,0.1024649
0.7491259,-0.3128135,-0.05549097,-0.2195132,-0.5744721,-0.1130918
0.780639,-0.3065901,-0.04730959,-0.2537538,-0.5916626,-0.1713733
0.8620083,-0.3180553,-0.09186455,-0.2752495,-0.4306735,-0.1290199
0.9797551,-0.2938457,-0.2117932,-0.1961991,-0.3703388,-0.121793
1.02155,-0.2737837,-0.3669069,-0.09956958,-0.5343903,-0.06630079
1.115621,-0.2425684,-0.3875691,-0.004087116,-0.6691716,0.02674225
1.22315,-0.2515723,-0.278952,0.02881683,-0.5167168,0.003417256
1.311314,-0.2767759,-0.2041961,-0.04001624,-0.1322095,-0.01658939
1.33081,-0.27771,-0.1828799,-0.1340389,0.4095467,0.04574422
1.276836,-0.3219877,-0.213925,-0.1314811,0.771723,0.06844701
1.209834,-0.3541485,-0.3461975,-0.08957592,0.3909741,0.09827465
1.051074,-0.3692985,-0.4386279,-0.0901317,-0.3583514,0.2196613
1.0176,-0.4841149,-0.4359509,0.07358181,-0.7455488,0.43056
1.08469,-0.6753041,-0.5233248,0.4159147,-0.7114512,0.5857514
0.9823468,-0.7058297,-0.6984004,0.5922933,-0.3052598,0.469922
0.8419421,-0.4966039,-0.6942931,0.3235376,0.01745539,0.2240341
0.7265634,-0.3062436,-0.4870959,-0.07373174,-0.008053496,-0.02885816
0.717999,-0.2545057,-0.3339022,-0.1762035,0.0156971,-0.425613
0.7702406,-0.2780075,-0.2569652,-0.3186791,-0.2895611,-0.8612591
0.7006423,-0.3293878,-0.2449691,-0.4506574,-1.053025,-1.1575
0.7181693,-0.3665621,-0.3199005,-0.2216662,-1.461194,-1.204366
0.8094239,-0.3754626,-0.4164719,-0.02663568,-1.360597,-1.070337
0.8480331,-0.3068468,-0.5487695,0.09251735,-1.006519,-1.033149
0.8943564,-0.2186679,-0.565365,0.2755751,-0.4359308,-0.9905311
0.8493181,-0.1812514,-0.4856157,0.3328423,0.01265076,-0.8184229
0.812024,-0.1596235,-0.4623702,0.4102797,-0.02038911,-0.5805148
0.8308652,-0.161182,-0.4138924,0.543602,-0.2018537,-0.2655359
0.8053113,-0.1439214,-0.4200088,0.6194549,-0.2628879,-0.1275947
0.8211757,-0.1245749,-0.4449791,0.6597882,-0.3399512,-0.1600191
0.8151726,-0.1113442,-0.4078736,0.6249066,-0.321604,-0.1407058
0.776797,-0.03284124,-0.4046642,0.5468183,-0.3093032,-0.1509595
0.7730256,0.03494894,-0.3795528,0.446939,-0.3931638,-0.1059995
0.7651738,0.05648606,-0.3871683,0.3403055,-0.3939627,0.02622075
0.795247,0.07529056,-0.4373579,0.2372772,-0.3692175,0.1861228
0.8168644,0.07265851,-0.4222511,0.08894801,-0.3103475,0.3587674
0.854288,-0.002538835,-0.3947787,0.03425814,-0.3009174,0.3886923
0.954699,-0.1110702,-0.3789643,0.1401148,-0.4303921,0.3266963
1.041346,-0.1289854,-0.4350037,0.1822336,-0.4996839,0.2167306
1.177457,-0.1043556,-0.5313588,0.07046527,-0.4155007,0.04561423
1.314271,-0.1010637,-0.5331014,-0.0289878,-0.1957276,-0.02524471
1.342797,-0.1157507,-0.5535459,-0.01586148,0.01104792,-0.01501509
1.319372,-0.1863951,-0.6340233,0.03311639,0.1813814,-0.03068366
1.260975,-0.2430948,-0.6641299,0.1307634,0.4890277,-0.03723097
1.113397,-0.2367595,-0.713396,0.1922048,0.8672253,-0.004761563
0.8769265,-0.2536211,-0.7777441,-0.1810454,1.178478,0.0616048
0.7749512,-0.3607425,-0.7198228,-0.681023,1.414531,0.2066762
0.8687557,-0.4930288,-0.588202,-0.6257287,1.674209,0.3299653
0.8931664,-0.5192157,-0.4760482,-0.5129364,1.840171,0.2998547
0.8868524,-0.3871762,-0.4057642,-0.6960214,1.63901,0.2880442
0.9817195,-0.2044873,-0.4215283,-0.6770886,1.353208,0.3457062
1.023996,-0.1165317,-0.4623281,-0.6368645,1.28383,0.3894943
0.9402029,-0.08691877,-0.479553,-0.7332126,1.145976,0.4454792
0.8005047,-0.1113086,-0.4933015,-0.7742198,0.9139839,0.4419782
0.7015284,-0.2409226,-0.4309204,-0.8721458,0.7722646,0.4409517
0.6686273,-0.3826022,-0.313136,-0.8131342,0.5836058,0.5435302
0.6400979,-0.4472187,-0.2035583,-0.5976077,0.4637483,0.6483355
0.6381185,-0.4061412,-0.1040922,-0.4096649,0.3866853,0.7241346
0.67376,-0.3574537,-0.07836421,-0.1064652,0.1353564,0.7535405
0.7218729,-0.345743,-0.1224555,0.04614767,0.02762092,0.6717391
0.7577199,-0.3229538,-0.1831826,-0.002964175,0.02115417,0.5148182
0.748143,-0.3444207,-0.2048429,-0.01986964,-0.09852856,0.3068801
0.755344,-0.3339207,-0.151042,-0.06728852,-0.276892,0.07077365
0.78809,-0.2976872,-0.1020287,-0.05423151,-0.575494,-0.09362091
0.8224942,-0.3200846,-0.1051045,-0.04716341,-0.6442087,-0.1732886
0.9067413,-0.3208765,-0.143893,-0.1414898,-0.3922022,-0.185731
1.044098,-0.3333854,-0.1971431,-0.1820651,-0.09965538,-0.1337451
1.146943,-0.3179229,-0.2400808,-0.1363133,0.0865012,-0.1064555
1.124214,-0.2561423,-0.2351404,-0.02014383,-0.09339708,-0.1165057
1.145897,-0.2517533,-0.1498001,0.02398403,-0.2598819,-0.1128928
1.276761,-0.2521463,-0.0971769,-0.0788721,-0.03905225,-0.08976411
1.285279,-0.3012916,-0.1969573,-0.1563666,0.3190016,-0.00700825
1.202322,-0.3890687,-0.3507338,-0.110278,0.5721916,0.1400025
1.080188,-0.4167386,-0.3825768,0.00817136,0.2050484,0.2452989
0.9607763,-0.4735945,-0.3260816,0.1886831,-0.4670659,0.2785354
1.012426,-0.5661522,-0.3670529,0.57022,-0.4696682,0.3125569
1.031848,-0.5991358,-0.5651825,0.8581265,-0.2743973,0.2125274
0.8723454,-0.4772973,-0.751384,0.5843999,-0.3294007,-0.0419251
0.7540416,-0.2604233,-0.6742323,0.187683,-0.1586766,-0.179091
0.7528632,-0.1790115,-0.5312927,0.02771081,0.0570568,-0.3279287
0.7686296,-0.1590489,-0.5450395,-0.3299411,-0.02121386,-0.6299058
0.7235903,-0.09922124,-0.3960713,-0.6724289,-0.6155133,-0.8398155
0.7032248,-0.1689116,-0.2304538,-0.5485885,-1.488458,-0.9214187
0.807299,-0.2776586,-0.3250361,-0.3425426,-1.596477,-0.9441807
0.9369411,-0.2775284,-0.4113056,-0.1720057,-1.070665,-1.012738
0.9773957,-0.277775,-0.5348679,-0.03399646,-0.5729285,-1.101905
0.9075767,-0.2632292,-0.6224313,-0.02901111,0.01566073,-0.9572144
0.8098454,-0.2001654,-0.4734066,0.2219841,0.2257945,-0.705724
0.7538485,-0.1525413,-0.379099,0.4784615,-0.141312,-0.456893
0.7309999,-0.1133544,-0.380946,0.5323474,-0.4317775,-0.1766214
0.7615098,-0.09646257,-0.3790097,0.7008464,-0.5779889,-0.0804809
0.8013091,-0.08861243,-0.4048398,0.6820846,-0.579102,-0.1058407
0.8383808,-0.04845869,-0.4056401,0.5605116,-0.3804868,-0.08734714
0.881629,0.01848281,-0.4234391,0.5453323,-0.348449,-0.03848641
0.859757,0.08679304,-0.4310186,0.3911452,-0.4028394,0.08049939
0.8560603,0.09894739,-0.4253008,0.2727154,-0.3848496,0.2273145
0.9044995,0.06755826,-0.4417545,0.1456269,-0.351958,0.3472193
0.9317809,0.02957821,-0.4202566,-0.007694173,-0.2645879,0.3896596
0.9810047,-0.02248654,-0.4149548,0.04116944,-0.3261396,0.3121442
1.038093,-0.04048984,-0.4286563,0.04408147,-0.4056687,0.1832689
1.097356,-0.01015653,-0.4470411,-0.02406847,-0.3426397,0.06003591
1.158315,0.0005224724,-0.5039339,-0.0211236,-0.3288977,-0.0026097
1.182532,-0.04508915,-0.5534648,-0.05472905,-0.2675533,-0.005609545
1.22227,-0.1337754,-0.6014858,-0.04677596,-0.1892325,-0.009835278
1.230076,-0.2017788,-0.6490994,0.02678762,0.03024591,-0.02094489
1.119762,-0.1923156,-0.7511357,-0.01075795,0.6161836,-0.08599098
0.9618197,-0.2178404,-0.864439,-0.3215552,1.178093,-0.1874723
0.8906418,-0.372665,-0.7483595,-0.7695917,1.408666,-0.2004326
0.9203567,-0.5159623,-0.546275,-0.847501,1.422532,-0.1730149
0.93478,-0.5465769,-0.4859214,-0.6257941,1.522808,-0.1568806
0.9674101,-0.4379484,-0.434428,-0.5619061,1.657625,-0.0510173
1.054749,-0.2321658,-0.3835533,-0.4708666,1.523707,0.09399229
1.064804,-0.1180435,-0.3944742,-0.3609045,1.374381,0.1998402
0.9602775,-0.07664219,-0.432867,-0.4929569,1.224093,0.3510857
0.8088838,-0.04367092,-0.4682155,-0.6262612,0.8513428,0.5190599
0.7224552,-0.1140988,-0.423921,-0.6869019,0.603514,0.5615554
0.711056,-0.2169491,-0.3413161,-0.6835954,0.5177281,0.5808044
0.6638474,-0.270785,-0.2678651,-0.5761156,0.3478568,0.7503667
0.6396552,-0.3020979,-0.182278,-0.5106998,0.2264465,0.9120338
0.7008365,-0.3246875,-0.1290668,-0.3795063,0.2254875,0.9283494
0.7698012,-0.3370886,-0.1060599,-0.2049124,0.2723811,0.848471
0.8135464,-0.3307312,-0.1131494,-0.1416023,0.2731688,0.6537319
0.8274336,-0.3632381,-0.1173626,-0.1121262,0.1096193,0.3607913
0.8235827,-0.40079,-0.07727242,-0.07134246,-0.15772,0.03307665
0.8219687,-0.3635221,-0.05206236,0.03541371,-0.3580616,-0.1970538
0.8219737,-0.3058194,-0.0500477,0.08246616,-0.4611546,-0.249317
0.8603213,-0.2549926,-0.09935159,0.02424898,-0.5465622,-0.2313452
0.971275,-0.2232356,-0.207191,0.04084403,-0.5649067,-0.1582834
1.091761,-0.2287602,-0.2878403,0.04810957,-0.4493513,-0.02525624
1.156196,-0.2479938,-0.2841848,0.08318885,-0.308136,0.07808842
1.251247,-0.2683775,-0.1414486,0.2384059,-0.251192,0.1098991
1.362773,-0.2664846,-0.01296772,0.2873655,-0.1673835,0.05287506
1.329822,-0.2674253,-0.1205684,0.07954741,0.1539892,-0.03137257
1.227492,-0.3023054,-0.2859515,-0.1427368,0.4780209,-0.01730206
1.123325,-0.3406384,-0.3173706,-0.04174694,0.3596154,0.073931
1.032164,-0.4207246,-0.3429044,0.1353375,-0.1933408,0.1717717
1.123655,-0.5535475,-0.4041267,0.2361567,-0.8525043,0.3080928
1.183813,-0.5849002,-0.4871927,0.5618262,-0.9985487,0.3734672
0.9701082,-0.4276758,-0.6611342,0.7450245,-0.4757483,0.2390913
0.7803635,-0.24571,-0.7420087,0.4145265,-0.1348206,0.06141573
0.7601406,-0.1870476,-0.5677876,0.01754938,-0.2058383,-0.02483749
0.760047,-0.152981,-0.3647342,-0.1885524,-0.2258294,-0.1849914
0.7319856,-0.1290383,-0.3002003,-0.4509222,-0.4278392,-0.5174035
0.7464007,-0.225519,-0.2980222,-0.6224102,-0.9697647,-0.7403972
0.8399694,-0.3184144,-0.3164634,-0.3388355,-1.296742,-0.782016
0.919319,-0.3219415,-0.4061124,0.02587542,-1.108824,-0.8811774
0.9219394,-0.3020504,-0.5375279,0.187487,-0.6590172,-0.9742434
0.8591807,-0.2425936,-0.5526778,0.2470969,-0.09247999,-0.9377273
0.8152972,-0.1701327,-0.4451571,0.2440945,0.3259062,-0.7665626
0.8110681,-0.101304,-0.3702398,0.4696026,0.2204633,-0.4958233
0.7911265,-0.0540672,-0.3536063,0.6396293,-0.03195096,-0.277642
0.8176192,-0.0455206,-0.3685009,0.5964258,-0.2296653,-0.1488723
0.8429221,-0.006703988,-0.3992689,0.6868312,-0.4995369,-0.09739985
0.826697,0.01066388,-0.4020089,0.577605,-0.5232504,-0.1237132
0.8340749,0.01352273,-0.3986831,0.3791111,-0.505567,-0.1239605
0.8300726,0.0715334,-0.3820275,0.2871223,-0.6131508,-0.0718224
0.8305948,0.08558828,-0.3587264,0.1331935,-0.6012018,0.01796542
0.8497303,0.05243856,-0.3703716,0.1477042,-0.549132,0.1745109
0.9017545,0.01943655,-0.3637377,0.1268249,-0.3793292,0.3076524
0.9686278,-0.02646987,-0.3507553,0.08671562,-0.226415,0.3625176
0.9695797,-0.01588981,-0.3733922,0.2013701,-0.2744513,0.3914839
1.015467,0.04167873,-0.4320033,0.1811506,-0.3785273,0.3329496
1.116882,0.07489812,-0.5122865,0.1071514,-0.4753899,0.2201234
1.136065,0.09288777,-0.5164825,-0.01983338,-0.3841494,0.1634752
1.180892,0.06374236,-0.4722902,-0.1386622,-0.2754796,0.1268583
1.292211,0.008519788,-0.4907461,-0.0666389,-0.3056829,0.1299815
1.3033,-0.02394264,-0.5693147,-0.01942598,-0.1111165,0.142144
1.27272,-0.09860101,-0.6777843,-0.03758342,0.3005447,0.09541325
1.231872,-0.1430425,-0.7323968,-0.1842816,0.6609022,0.05516552
1.018152,-0.1456298,-0.7106154,-0.5462255,0.859224,0.03256562
0.8232379,-0.2935757,-0.6689486,-0.7843247,0.9671411,0.05460492
0.8449741,-0.4888916,-0.5683785,-0.6792627,1.268153,0.1136589
0.8972058,-0.5150635,-0.479173,-0.5035303,1.770511,0.1381702
0.9243783,-0.4144931,-0.4598414,-0.4099829,1.925299,0.1915113
0.9906745,-0.3190874,-0.3753931,-0.231081,1.554791,0.2603026
1.031756,-0.2306035,-0.3267892,-0.1827641,1.281131,0.3055626
0.9612872,-0.1283782,-0.4386398,-0.3604295,1.200226,0.3688382
0.8364325,-0.1156825,-0.4946147,-0.4730684,0.9720417,0.375452
0.7789249,-0.183975,-0.4040528,-0.5351348,0.7015021,0.3598256
0.7301267,-0.2488567,-0.300273,-0.4961965,0.4604175,0.4487399
0.6624909,-0.2933204,-0.2346478,-0.4217047,0.2676083,0.6228758
0.6573041,-0.3013015,-0.1715018,-0.4068909,0.13661,0.8190691
0.7108472,-0.3173738,-0.1227447,-0.2547635,0.1088745,0.89485
0.7841366,-0.3192191,-0.1309422,-0.1508374,0.1898147,0.8160124
0.8133394,-0.3060892,-0.1404863,-0.1187102,0.1515973,0.6853679
0.7958569,-0.3435579,-0.1235537,-0.01838672,0.04940357,0.4257737
0.772568,-0.3554887,-0.1003023,-0.01526877,-0.1661432,0.1271136
0.7455175,-0.3168576,-0.05294853,-0.04189655,-0.5314801,-0.03060188
0.7705913,-0.2749955,-0.04085799,-0.0882258,-0.6498802,-0.1269646
0.8421367,-0.2567206,-0.08122446,-0.1537909,-0.5896513,-0.1136438
0.9228591,-0.2622287,-0.1271598,-0.121892,-0.4698812,-0.02798955
1.05876,-0.2412465,-0.2027791,-0.04284469,-0.3198646,-0.022673
1.199277,-0.2333794,-0.2474728,0.1048266,-0.4601405,-0.01329202
1.271682,-0.2497937,-0.1838075,0.1688366,-0.554774,-0.002194514
1.348413,-0.2682463,-0.1288461,-0.005640643,-0.08767057,0.03313349
1.41373,-0.3313375,-0.1902274,-0.1337928,0.6301777,0.08951583
1.302637,-0.3815834,-0.3020671,-0.02761269,0.8361316,0.07196188
1.08073,-0.37589,-0.3792898,0.0917394,0.14574,0.1623751
0.9948289,-0.412105,-0.3795574,0.1777878,-0.6070492,0.3690463
1.047622,-0.5388543,-0.3932318,0.4683575,-0.5373464,0.4980753
1.051699,-0.5953681,-0.5756785,0.6446503,-0.318341,0.4996983
0.9132675,-0.4442897,-0.7275072,0.3603251,-0.4020427,0.3373993
0.7728697,-0.2544707,-0.6171558,0.06633473,-0.2724204,0.1249639
0.7759689,-0.192777,-0.4656272,-0.07174654,-0.154702,-0.05647684
0.7983058,-0.2008696,-0.4063081,-0.2955966,-0.254011,-0.352569
0.7732405,-0.2541896,-0.3163772,-0.4077352,-0.5650569,-0.7511842
0.7899341,-0.3583703,-0.2672873,-0.2494368,-1.230736,-0.9683128
0.843944,-0.390776,-0.3413624,-0.01461543,-1.389852,-0.9531737
0.8858301,-0.3300083,-0.4359311,0.2035286,-0.8709679,-0.9784786
0.8591335,-0.2760778,-0.5090905,0.3523127,-0.507995,-1.022584
0.7917664,-0.2055063,-0.5160766,0.3543536,-0.2804422,-0.8876215
0.7733615,-0.1466722,-0.4349167,0.4283965,-0.2359491,-0.6323113
0.7802582,-0.141411,-0.3998235,0.643046,-0.3774191,-0.3979535
0.7975468,-0.1220153,-0.4141109,0.7470041,-0.4402838,-0.2473091
0.8360085,-0.1157455,-0.4252793,0.7713182,-0.5374652,-0.1920261
0.8569339,-0.1143152,-0.4428004,0.7685476,-0.5063998,-0.2290426
0.8664403,-0.07744142,-0.4203093,0.7041988,-0.400455,-0.2542673
0.8649361,-0.03143126,-0.4014025,0.6525591,-0.4121755,-0.2147013
0.8466298,0.03487896,-0.4017125,0.5551776,-0.3970812,-0.1757094
0.8446903,0.07122156,-0.3933975,0.4247518,-0.4335262,-0.06171535
0.8578562,0.05590983,-0.4023874,0.3247834,-0.4416797,0.1099296
0.8940366,0.01840362,-0.4016345,0.2246758,-0.3590943,0.2070604
0.9579413,-0.05059549,-0.4020187,0.1911302,-0.3527131,0.2556766
1.0315,-0.07266196,-0.4252486,0.2666064,-0.4254754,0.2469585
1.112436,-0.03008786,-0.4872381,0.3226798,-0.5120499,0.1690474
1.171517,-0.01786024,-0.555684,0.1645881,-0.4243753,0.06095337
1.213122,-0.04998055,-0.5465742,-0.04350115,-0.3029847,-0.07585334
1.246086,-0.09914853,-0.5673738,-0.04383862,-0.3317659,-0.1337205
1.234444,-0.1529578,-0.6519725,-0.01944738,-0.1555203,-0.1054193
1.192507,-0.1888873,-0.6664536,0.05816178,0.2007177,-0.1325747
1.119394,-0.1965055,-0.6972962,0.1914005,0.4741683,-0.1782005
0.9783367,-0.2427536,-0.75349,-0.05687321,0.8246869,-0.1989876
0.8292935,-0.385228,-0.6389149,-0.4564627,1.258602,-0.2127592
0.7810069,-0.4970776,-0.4889501,-0.5062375,1.489361,-0.1644524
0.8224126,-0.4420436,-0.4793007,-0.4271689,1.542777,-0.07285432
0.8815656,-0.3222324,-0.427236,-0.4110837,1.653751,0.04477906
0.9593115,-0.2430586,-0.3380109,-0.3408202,1.614648,0.1971421
1.010205,-0.1433605,-0.3730523,-0.2477454,1.351886,0.3103535
0.9588851,-0.07777491,-0.4393033,-0.2800278,1.100094,0.3642148
0.8835628,-0.1078669,-0.4645283,-0.5178912,0.7585675,0.3782773
0.8516841,-0.1560456,-0.4403958,-0.7548299,0.5232279,0.3233955
0.816503,-0.2314121,-0.3676075,-0.716279,0.5321169,0.2759104
0.7800124,-0.297151,-0.3048704,-0.5830832,0.4916523,0.3953301
0.7390864,-0.3454305,-0.2083267,-0.5316755,0.522185,0.6285476
0.7203229,-0.3840771,-0.1557286,-0.3674012,0.569808,0.7890178
0.7638638,-0.3102424,-0.1995968,-0.2289744,0.4722165,0.8132082
0.7747225,-0.2765509,-0.1619319,-0.2589603,0.4040184,0.7223668
0.765273,-0.3171405,-0.1388455,-0.2143659,0.2654612,0.5880871
0.7710528,-0.2914155,-0.1508945,-0.164167,-0.003831438,0.4099275
0.7381779,-0.2995698,-0.04049367,-0.1418054,-0.3537786,0.1430041
0.7426193,-0.3021473,-0.0002183366,-0.1011072,-0.6803654,-0.1047142
0.804883,-0.279526,-0.0633853,-0.1820693,-0.7536091,-0.2244454
0.934259,-0.289451,-0.1355425,-0.2305592,-0.6384851,-0.1872095
1.085401,-0.2717817,-0.2333217,-0.2396647,-0.3915805,-0.05641752
1.113833,-0.2618486,-0.2418263,-0.2642057,-0.1590541,0.04058838
1.158502,-0.2409551,-0.2390162,-0.163771,-0.2388162,0.06954534
1.231888,-0.2342932,-0.2605618,-0.09370753,-0.3509219,0.054026
1.226869,-0.2724402,-0.2044737,-0.1412124,-0.1329523,0.06456145
1.32202,-0.3011957,-0.2003853,-0.182115,0.2654925,0.09363348
1.37502,-0.3655993,-0.2689374,-0.1344322,0.5514051,0.1173292
1.187376,-0.4037902,-0.3294636,-0.04627007,0.3429635,0.2163284
1.035147,-0.4300914,-0.3626909,0.0638865,-0.2699944,0.3340301
1.052361,-0.5284699,-0.370739,0.3643962,-0.6574853,0.4234932
1.070839,-0.5709306,-0.5169902,0.6178656,-0.7542058,0.4400307
0.9584791,-0.4604481,-0.754913,0.4016076,-0.5512011,0.31301
0.7995562,-0.2492454,-0.7736372,-7.40015e-05,-0.1551676,0.1755386
0.741316,-0.1443271,-0.592056,-0.1499242,-0.06545043,0.03456684
0.7327494,-0.1943635,-0.4259799,-0.3126583,-0.05574189,-0.2134375
0.7185746,-0.2694965,-0.301591,-0.4944116,-0.3485272,-0.5562972
0.7205893,-0.3930791,-0.2198301,-0.2471252,-1.086631,-0.8678507
0.7831242,-0.4678009,-0.2334271,0.1325731,-1.278471,-0.9985747
0.878212,-0.4490011,-0.3391424,0.3995774,-1.00266,-1.104562
0.8908707,-0.3974472,-0.4799668,0.5642236,-0.6574714,-1.20522
0.8629012,-0.2596312,-0.5429356,0.4933886,-0.1436538,-1.04502
0.8484697,-0.1772726,-0.4748921,0.5958865,0.1368659,-0.7639437
0.8299367,-0.1377696,-0.4007971,0.8248447,0.05274971,-0.562287
0.8179889,-0.03857955,-0.3892192,0.8427503,-0.1896657,-0.3746616
0.8168991,-0.03146897,-0.3813638,0.856245,-0.4452373,-0.2634667
0.8362942,-0.02550268,-0.3988498,0.7767037,-0.5854216,-0.2531817
0.8471858,0.02948,-0.4253742,0.6290851,-0.5485397,-0.2088002
0.8596508,0.01581178,-0.409694,0.5571618,-0.4389927,-0.1534999
0.8618967,0.03734832,-0.4010242,0.4103672,-0.3835783,-0.08266939
0.8395282,0.09045985,-0.3948689,0.2787604,-0.3940493,0.08521293
0.8548541,0.09701057,-0.3887419,0.2176033,-0.4834006,0.2450572
0.862746,0.06717259,-0.399973,0.1368162,-0.4628989,0.3493098
0.8702459,-0.009424576,-0.392403,0.09301533,-0.4459362,0.4184229
0.9177444,-0.07306963,-0.3994963,0.1194527,-0.5267723,0.3907356
0.9826458,-0.09089512,-0.442562,0.1317972,-0.4662349,0.2950821
1.097885,-0.08601597,-0.5070737,0.101273,-0.4376271,0.1627363
1.186396,-0.08512034,-0.557093,0.06895233,-0.3753133,0.01852874
1.223427,-0.1173651,-0.5469163,0.01184775,-0.2458963,-0.03959098
1.271307,-0.156623,-0.5645186,0.006519146,-0.1490583,-0.04942513
1.280114,-0.2033961,-0.610166,0.0920745,0.09025622,-0.09134412
1.259206,-0.2432724,-0.6204973,0.1412955,0.1769081,-0.1108534
1.174433,-0.2450855,-0.7245948,0.1119406,0.2831468,-0.1125487
1.016012,-0.2802106,-0.8525203,-0.05600748,0.8449153,-0.1636897
0.9159596,-0.3760443,-0.7515614,-0.3126796,1.450501,-0.2134479
0.8177273,-0.429873,-0.5612448,-0.4226365,1.765569,-0.1532347
0.7424727,-0.3784514,-0.4848006,-0.3884564,1.946807,0.0001380942
0.8161965,-0.2855505,-0.4023426,-0.3516131,2.107246,0.2079637
0.8643987,-0.1996653,-0.3129233,-0.305374,1.864556,0.4816119
0.894494,-0.1286865,-0.3018803,-0.2881247,1.329188,0.5919963
0.9818424,-0.114796,-0.3238243,-0.4449653,1.050321,0.4700682
0.931878,-0.1302268,-0.3538487,-0.7212547,0.7021357,0.381482
0.8516945,-0.1529629,-0.3318298,-0.8989007,0.3038345,0.276948
0.8181591,-0.2152897,-0.3002956,-0.8966025,0.1758719,0.2249417
0.7402937,-0.2742555,-0.3079514,-0.7805621,0.1667184,0.4187548
0.7479569,-0.3136551,-0.2590008,-0.6727624,0.3828712,0.5989494
0.764663,-0.3363511,-0.1985713,-0.6207917,0.5960248,0.6830528
0.7339126,-0.31528,-0.1592996,-0.5848585,0.5746282,0.7159693
0.7418944,-0.3044529,-0.1354633,-0.5386458,0.4994338,0.6474602
0.7075471,-0.3349875,-0.1288938,-0.4495972,0.2804276,0.567955
0.6816848,-0.3653963,-0.06717845,-0.3017164,-0.1183317,0.3966281
0.7010466,-0.3861331,-0.02856247,-0.1511737,-0.5690287,0.1448177
0.7434276,-0.3961658,-0.03675226,-0.09565521,-0.8220808,-0.04364507
0.8503129,-0.3940796,-0.07145155,-0.119278,-0.797132,-0.1292318
0.956024,-0.3778396,-0.1973819,-0.1141926,-0.677352,-0.07064231
1.075408,-0.3189116,-0.306404,-0.04616889,-0.5068015,-0.01688736
1.217586,-0.2492997,-0.3280184,0.0961379,-0.4575756,0.02380502
1.280117,-0.2506605,-0.2950657,0.2805414,-0.5629627,0.1054498
1.304781,-0.2764902,-0.2580528,0.3242249,-0.5152797,0.07797031
1.361241,-0.2755132,-0.2744901,0.08424528,0.01897048,0.03883481
1.339284,-0.3552304,-0.2692856,-0.1371707,0.8663165,0.02843893
1.143202,-0.4869033,-0.2507809,0.01742343,1.023549,0.008975355
0.9428131,-0.5161701,-0.2764141,0.2607986,0.1800069,0.06825573
0.9441585,-0.5000098,-0.3220091,0.3657388,-0.71414,0.10118
1.017814,-0.5130751,-0.4125786,0.4951357,-0.9204482,0.09570099
0.9655441,-0.4702874,-0.5382459,0.5334319,-0.5903408,0.1000307
0.8708625,-0.3390091,-0.6502763,0.4472386,-0.2718928,0.07241279
0.7645291,-0.185717,-0.6547951,0.285862,-0.1039056,0.04397728
0.6606725,-0.08852594,-0.5376159,-0.07966451,-0.1109868,-0.04888951
0.694755,-0.07920726,-0.4356093,-0.3996944,-0.4626416,-0.2316855
0.7358061,-0.1309824,-0.3916486,-0.506976,-0.9098331,-0.4383791
0.8083898,-0.2641346,-0.4023279,-0.5081089,-1.198491,-0.625382
0.9841728,-0.4362431,-0.4051241,-0.2519459,-1.205257,-0.7707786
0.9703205,-0.4477506,-0.3888159,0.1120598,-0.9080882,-0.9011865
0.8836748,-0.3460377,-0.4563217,0.2081112,-0.5282456,-0.9311902
0.8692063,-0.2879646,-0.4978607,0.170972,-0.1119844,-0.8282727
0.792583,-0.1924099,-0.4687299,0.2946455,0.03993371,-0.6886959
0.7983772,-0.1574977,-0.4530058,0.4966486,-0.106454,-0.533449
0.8222178,-0.1788558,-0.4225152,0.6054813,-0.1391108,-0.4171037
0.7706282,-0.08675309,-0.4131981,0.6645109,-0.3252389,-0.345595
0.7966281,-0.0809175,-0.4218226,0.6642007,-0.526878,-0.2661083
0.819465,-0.08226742,-0.4175818,0.6139546,-0.430204,-0.2129969
0.8106085,0.02605834,-0.4145673,0.5507894,-0.4215395,-0.1427959
0.8279049,0.003695366,-0.3994881,0.4177147,-0.4358728,0.007588677
0.8170784,0.02050874,-0.3816489,0.3486933,-0.4233845,0.1638684
0.8226506,0.1063181,-0.3593223,0.3399403,-0.4804858,0.2960184
0.8436813,0.06106447,-0.3862236,0.2450383,-0.4603255,0.4442796
0.8641719,-0.001800296,-0.4632289,0.1847344,-0.4667849,0.5096147
0.9384049,-0.07814493,-0.500232,0.1816096,-0.4666066,0.3896536
1.018759,-0.122061,-0.5082989,0.1440058,-0.3931302,0.1820929
1.107039,-0.1113518,-0.5219063,0.0778074,-0.3375722,0.006194371
1.198039,-0.1578456,-0.5649353,0.02056297,-0.2792604,-0.08109001
1.220279,-0.1996983,-0.6266678,0.04775769,-0.1836585,-0.08766196
1.234676,-0.262277,-0.657956,0.15744,-0.001654736,-0.1334815
1.240312,-0.3185744,-0.6796574,0.2223609,0.2697725,-0.1990874
1.15665,-0.2763722,-0.7556249,0.09171655,0.6862927,-0.1938443
1.022858,-0.2828114,-0.818761,-0.1743183,1.211862,-0.2486538
0.8942802,-0.3880081,-0.6738948,-0.3421918,1.47514,-0.3228267
0.7849749,-0.488404,-0.4500951,-0.3332288,1.420528,-0.207597
0.764394,-0.50645,-0.4063078,-0.168849,1.508834,-0.01858621
0.8646549,-0.4101099,-0.4031194,0.07157216,1.690819,0.132231
0.9532602,-0.2966129,-0.3563662,0.2285742,1.522577,0.2579561
0.9837433,-0.2039017,-0.3694415,0.2178266,1.220003,0.2507447
0.9771178,-0.1034075,-0.400093,-0.02678497,0.9286805,0.1495191
0.9051136,-0.07458485,-0.4068549,-0.4199182,0.510581,0.05680091
0.8424,-0.1162632,-0.3719081,-0.5842927,0.2648472,0.002109973
0.7804224,-0.1534764,-0.3031294,-0.4624025,0.2336123,0.1209315
0.7279742,-0.1858863,-0.2605711,-0.3918856,0.3032001,0.3897386
0.7308663,-0.2333408,-0.2148573,-0.3565033,0.4308167,0.6202199
0.7124713,-0.289852,-0.1598018,-0.281646,0.4355581,0.7463976
0.7316896,-0.3048349,-0.1388093,-0.3051627,0.4394704,0.7435915
0.7672934,-0.291922,-0.1194362,-0.2843416,0.4184516,0.6554132
0.7560619,-0.3034837,-0.09576008,-0.2076563,0.2250812,0.5084593
0.7675569,-0.3161814,-0.07430918,-0.2110111,-0.130698,0.2684263
0.7717981,-0.341405,-0.0381794,-0.1665258,-0.5737189,0.0247134
0.8096858,-0.3790259,-0.03151984,-0.128808,-0.7692865,-0.1530528
0.8892445,-0.3624736,-0.08812149,-0.1305214,-0.7276843,-0.1856784
0.9804163,-0.316106,-0.21658,-0.04054858,-0.6021941,-0.06387183
1.103045,-0.2973355,-0.3478798,0.1018252,-0.3857182,0.03195154
1.159838,-0.2882193,-0.3436442,0.2669497,-0.2837243,0.0868297
1.236935,-0.2874184,-0.2562521,0.2998757,-0.2044715,0.1104699
1.363753,-0.3003118,-0.2191459,0.07267643,0.1955195,0.05041559
1.347039,-0.3294204,-0.2329061,-0.1089411,0.8661539,-0.0378239
1.244174,-0.3729509,-0.2529324,0.03126667,1.071397,-0.195629
1.091299,-0.3731488,-0.254571,0.1882919,0.3817846,-0.3233721
0.9345619,-0.3920495,-0.27798,0.1245354,-0.412402,-0.1380277
1.003197,-0.5039901,-0.3475189,0.2621875,-0.664009,0.1647961
1.069901,-0.5505483,-0.4659226,0.4939351,-0.5396738,0.1744986
0.8918717,-0.4223602,-0.6173085,0.3594674,-0.3745405,0.07543833
0.7552691,-0.2264194,-0.6233051,0.1739525,-0.3129148,0.09360529
0.737481,-0.1056566,-0.4863634,-0.0373308,-0.3110719,0.04016663
0.760181,-0.09585814,-0.3924295,-0.4065623,-0.4628108,-0.1335045
0.8162372,-0.1759819,-0.3054144,-0.5489018,-0.798108,-0.4071458
0.8188766,-0.3131102,-0.2949532,-0.4886174,-1.228973,-0.6754833
0.8565971,-0.3910589,-0.4000741,-0.3792819,-1.399735,-0.80627
0.8875387,-0.3825351,-0.4521309,-0.1404588,-1.051056,-0.9107211
0.8310898,-0.3331926,-0.5057665,0.100022,-0.6460272,-0.9168465
0.816021,-0.2439029,-0.5214213,0.1978977,-0.2664481,-0.8000531
0.795694,-0.1953367,-0.4385429,0.2300585,0.07420152,-0.6423437
0.7797298,-0.1817499,-0.3875192,0.3836229,0.02742425,-0.4117207
0.7973279,-0.1360869,-0.3476348,0.5930993,-0.1461382,-0.2736303
0.7951689,-0.1003465,-0.3637457,0.6369332,-0.3919643,-0.218862
0.8361488,-0.06097606,-0.4168641,0.5723594,-0.6182644,-0.1641863
0.8577807,0.003425557,-0.4364611,0.4940454,-0.5560501,-0.1576771
0.8523452,0.05319246,-0.4805006,0.331001,-0.4986011,-0.09138953
0.8713626,0.07396585,-0.4529606,0.1490961,-0.4328676,0.02498371
0.8658264,0.06981875,-0.4170607,0.1180157,-0.368737,0.1747246
0.8778937,0.05253262,-0.4371895,0.1381395,-0.3778225,0.3403498
0.8909082,0.01406005,-0.4132541,0.0630375,-0.3161368,0.4234763
0.9149919,-0.05593313,-0.4287159,0.01830934,-0.4077277,0.4603082
1.011626,-0.108485,-0.4655067,0.0607976,-0.5103193,0.4020948
1.10137,-0.1007102,-0.4868197,0.0784406,-0.4480668,0.2654581
1.163925,-0.1050401,-0.5267458,0.008635415,-0.3948004,0.1398883
1.227562,-0.170181,-0.5717917,-0.07518173,-0.2924704,0.02721936
1.270915,-0.2229062,-0.6602796,-0.04424361,-0.1715541,0.01527106
1.284697,-0.2368449,-0.7061944,0.0908853,0.06850443,-0.0152494
1.196859,-0.2127708,-0.6956849,0.1858939,0.4961878,-0.159549
0.9489313,-0.1936627,-0.7100699,0.01819956,0.8573564,-0.2087386
0.7307042,-0.2982483,-0.6859221,-0.3619529,1.040978,-0.1805343
0.7384818,-0.4702193,-0.5891529,-0.5303418,1.164643,-0.1268298
0.829056,-0.5397106,-0.4499449,-0.3895593,1.498176,-0.003679879
0.875579,-0.4659579,-0.3768365,-0.2533525,1.777715,0.03700012
0.9502761,-0.3395129,-0.3984317,-0.2334,1.621122,0.06442632
1.025549,-0.2286502,-0.4205305,-0.1447385,1.418981,0.1587534
1.017069,-0.1268913,-0.4738456,-0.05962616,1.213858,0.1382133
0.9512892,-0.1147657,-0.5139938,-0.2300279,0.8899815,0.1167395
0.8784796,-0.1827323,-0.4602762,-0.4878696,0.790022,0.1649974
0.7850018,-0.2173994,-0.3849479,-0.6454111,0.6637782,0.1926306
0.7331048,-0.2443436,-0.3258655,-0.6780199,0.3857541,0.3216724
0.752903,-0.2566275,-0.2785605,-0.5479671,0.3887963,0.5022579
0.7343501,-0.2690278,-0.2161783,-0.3807572,0.4617102,0.7212374
0.7282804,-0.2910651,-0.1703215,-0.2509335,0.3884363,0.9551601
0.7789345,-0.2706554,-0.2028545,-0.2510992,0.3502678,0.9038618
0.8048562,-0.2951406,-0.2015397,-0.3050069,0.2639458,0.7048481
0.8328585,-0.3445687,-0.1507766,-0.223386,0.1706273,0.516785
0.8386186,-0.3514283,-0.1299421,-0.218667,0.06269207,0.1904714
0.8126428,-0.3434169,-0.09710308,-0.247744,-0.1926049,-0.02222183
0.8191844,-0.3084396,-0.1066776,-0.2072135,-0.3431679,-0.06835591
0.8310271,-0.3003003,-0.1460134,-0.2880037,-0.3681045,-0.1514878
0.8437555,-0.2995509,-0.1373935,-0.3580379,-0.4030271,-0.1185305
0.8735271,-0.2827729,-0.1575494,-0.4030674,-0.259085,-0.02208696
0.9745077,-0.2867223,-0.2059051,-0.4344616,-0.05198497,0.02113592
1.107473,-0.2664391,-0.2456764,-0.2772097,-0.05179794,0.04911596
1.094118,-0.2838727,-0.2232511,-0.04858797,-0.1804041,0.01653116
1.112528,-0.3290456,-0.1545862,0.09681895,-0.2041257,0.0542219
1.291151,-0.331286,-0.1980928,0.06168771,0.07152311,0.1434738
1.295039,-0.3665329,-0.2959467,0.004476048,0.3143073,0.1987552
1.116031,-0.4115374,-0.362044,0.1103005,-0.04540978,0.2911984
0.9983833,-0.4449689,-0.3764795,0.2283486,-0.6520688,0.3255877
0.9743842,-0.4866944,-0.367177,0.4006116,-0.7934036,0.2985607
1.009609,-0.4923136,-0.4873656,0.5247037,-0.5417486,0.2135024
0.9536541,-0.4734531,-0.594264,0.498208,-0.2994545,0.07041486
0.8241609,-0.3834892,-0.6093763,0.4357493,-0.2654328,-0.05579249
0.7635503,-0.2059721,-0.6356254,0.1429418,-0.3395507,-0.188375
0.7450276,-0.09064282,-0.5675139,-0.1997473,-0.3720938,-0.3020899
0.7770524,-0.08283287,-0.4805591,-0.3988922,-0.5534852,-0.4725181
0.8010682,-0.1097103,-0.4340485,-0.5195485,-0.8885661,-0.5641359
0.8388436,-0.1734596,-0.4003457,-0.3724486,-1.03462,-0.5112815
0.9211812,-0.256987,-0.4473452,-0.2447242,-0.8628811,-0.6254196
0.8985607,-0.2894087,-0.4796967,-0.1894562,-0.5665203,-0.693984
0.8539401,-0.2718313,-0.4960886,0.02378431,-0.3473156,-0.5898828
0.827656,-0.2362297,-0.5032803,0.1273713,-0.1936655,-0.4893953
0.7945752,-0.1921733,-0.463831,0.2273366,-0.1264814,-0.284484
0.8259705,-0.1543749,-0.4388587,0.3445575,-0.1294576,-0.1250609
0.820985,-0.1339506,-0.3853692,0.3487413,-0.2304535,-0.104221
0.8146374,-0.124941,-0.3784775,0.3820318,-0.4864728,-0.1076944
0.8555331,-0.109385,-0.4340085,0.3477057,-0.537816,-0.1314745
0.8752087,-0.07980293,-0.4370104,0.3154132,-0.3904342,-0.1255355
0.8903911,-0.04223769,-0.4487023,0.2814013,-0.3417319,-0.09637719
0.8610886,-0.001848396,-0.4480803,0.1987625,-0.3049112,-0.01459403
0.826487,0.03515419,-0.427051,0.2249952,-0.3192219,0.09804729
0.8254264,0.04008248,-0.4270255,0.1969855,-0.3247216,0.171631
0.8270502,0.008956972,-0.400742,0.1611945,-0.2630269,0.2628078
0.8539959,-0.0218301,-0.3967462,0.2152531,-0.2794432,0.3470178
0.8809056,-0.04210883,-0.4291093,0.2098811,-0.3382089,0.3921638
0.947366,-0.03510442,-0.4866365,0.1913759,-0.4053601,0.3815727
1.064777,-0.00569451,-0.5687967,0.09332158,-0.3667111,0.2740577
1.144712,0.00224958,-0.5985512,-0.09385761,-0.2812966,0.1186932
1.175752,-0.03508772,-0.5967139,-0.1832666,-0.302896,0.02917171
1.190577,-0.1226118,-0.6425231,-0.1593163,-0.2263228,0.05560288
1.231765,-0.2092587,-0.7126997,-0.1136497,-0.02570177,0.06681104
1.236182,-0.2576563,-0.725645,-0.05898532,0.2675101,0.04313695
1.106196,-0.2819409,-0.751747,-0.01806645,0.7038604,0.06643419
0.9250771,-0.3221837,-0.8179175,-0.2231994,1.140377,0.05472411
0.8208506,-0.411995,-0.7130792,-0.5406689,1.512581,0.04776457
0.8123803,-0.4666863,-0.5393764,-0.5730639,1.75348,0.1123336
0.843609,-0.4438161,-0.5017957,-0.5323058,1.904256,0.199307
0.892447,-0.3842431,-0.4659518,-0.530113,1.987812,0.3063075
0.9443422,-0.2931151,-0.4242242,-0.3870573,1.795613,0.3319221
0.9552751,-0.2217474,-0.4273105,-0.3335334,1.51385,0.2514063
0.9142056,-0.1918681,-0.4194351,-0.4128081,1.289041,0.1918309
0.8202577,-0.1964128,-0.3957414,-0.4327381,0.936429,0.1875553
0.7369074,-0.2241917,-0.3343698,-0.4446522,0.5553794,0.24349
0.7107497,-0.2481526,-0.2702852,-0.4305451,0.227991,0.352657
0.6986657,-0.29027,-0.2293712,-0.3887758,0.09029702,0.5196364
0.7216381,-0.3040735,-0.2041,-0.3776904,0.2180452,0.6866756
0.7859125,-0.2907627,-0.1978302,-0.3246794,0.3042803,0.7081444
0.8211279,-0.3023142,-0.1763383,-0.2765738,0.334621,0.6063463
0.8030006,-0.2891208,-0.1811779,-0.296605,0.3244717,0.4739006
0.7788171,-0.2935873,-0.185169,-0.2980831,0.177618,0.3109611
0.7631292,-0.316789,-0.1241046,-0.2607163,-0.000224241,0.1134924
0.7234752,-0.2941991,-0.07138878,-0.2455169,-0.297722,-0.01829271
0.72086,-0.2945089,-0.05993362,-0.2721218,-0.5836658,-0.003850223
0.8008081,-0.3119553,-0.09745358,-0.2874094,-0.6543409,0.01346911
0.9190532,-0.3140156,-0.1697658,-0.2399248,-0.7347772,-0.02094844
1.050014,-0.3214749,-0.2676332,-0.1424263,-0.7865532,-0.02334819
1.154723,-0.3198296,-0.385563,-0.0400152,-0.6434588,-0.05199628
1.220782,-0.3209504,-0.3865412,0.01901238,-0.356648,-0.1326947
1.244454,-0.2972878,-0.2950592,-0.001348026,0.05441284,-0.2361695
1.230032,-0.2869725,-0.2205838,-0.0872299,0.4722291,-0.287591
1.221087,-0.3940603,-0.16438,-0.1120988,0.7123798,-0.2007052
1.15217,-0.5021642,-0.2310002,0.0742868,0.629704,-0.1335149
1.021591,-0.485598,-0.3496239,0.335088,0.2106442,-0.1535555
0.9833702,-0.4882549,-0.4002397,0.4073924,-0.3511729,-0.04679686
1.024571,-0.5657437,-0.5225324,0.4558802,-0.6231222,0.2245251
1.004293,-0.5318866,-0.6498063,0.5696386,-0.3349212,0.3977925
0.8906438,-0.3730274,-0.6211754,0.4699143,-0.08625615,0.2849441
0.7788146,-0.2156772,-0.513485,0.2846417,-0.1693874,0.1067371
0.7748631,-0.1548073,-0.3869624,0.08691897,-0.1251963,-0.03042206
0.8132585,-0.2211087,-0.288562,-0.2179917,-0.2144521,-0.365318
0.7937108,-0.2683339,-0.2785766,-0.2833599,-0.6716197,-0.7109452
0.8008945,-0.3286208,-0.3207414,-0.1563995,-1.231606,-0.8587727
0.8419666,-0.3986425,-0.3879778,-0.06615821,-1.561479,-0.9671318
0.8285574,-0.3114095,-0.481759,0.1416057,-1.199994,-0.9788666
0.8201385,-0.2684063,-0.5454174,0.3425075,-0.6442476,-0.9407012
0.8193199,-0.2953957,-0.5141934,0.4628671,-0.3267098,-0.938236
0.8056813,-0.258138,-0.4559584,0.6412031,-0.07679269,-0.8511984
0.8209739,-0.2620269,-0.4269686,0.8440974,-0.2273398,-0.7356091
0.8225268,-0.2391422,-0.3563876,1.031857,-0.4019275,-0.6151425
0.8326879,-0.206242,-0.3404993,1.125996,-0.3654551,-0.5348484
0.8648337,-0.1738673,-0.4222689,1.069048,-0.4195978,-0.5603284
0.8774873,-0.05767663,-0.4282934,0.9452511,-0.2679601,-0.5579174
0.8808261,-0.009812076,-0.4121748,0.829409,-0.2369101,-0.4897459
0.8587633,-0.003087498,-0.4116979,0.7167206,-0.336381,-0.3713151
0.8355245,0.07133423,-0.3563506,0.5941892,-0.2704094,-0.2099136
0.8154198,0.1035463,-0.3353179,0.490245,-0.4265211,-0.03579343
0.8021103,0.05318854,-0.3437863,0.4453598,-0.5590014,0.1279593
0.817858,0.0008341657,-0.3533923,0.4572779,-0.6233527,0.2136893
0.8298601,-0.04075717,-0.3709489,0.4552675,-0.7167185,0.2297113
0.9080956,-0.1043141,-0.3894769,0.4514689,-0.6444306,0.1730591
1.031733,-0.1331844,-0.4513608,0.447652,-0.6138281,0.05121137
1.108399,-0.1398139,-0.5040675,0.3469522,-0.4676917,-0.0344645
1.193589,-0.1646959,-0.5171163,0.244862,-0.2974262,-0.07138165
1.251715,-0.1718045,-0.5146824,0.2604225,-0.2496766,-0.08600016
1.253648,-0.1883756,-0.5346224,0.3197094,-0.0491705,-0.09722244
1.271939,-0.2185732,-0.5823111,0.4174073,0.1426755,-0.1300937
1.265524,-0.2438615,-0.6081025,0.5186793,0.3048729,-0.1447215
1.125887,-0.244839,-0.7172566,0.356477,0.4133695,-0.124544
0.9394728,-0.2538442,-0.8316052,0.01254056,0.5643676,-0.1029258
0.9025344,-0.3607063,-0.6991603,-0.1225285,1.083191,-0.05762022
0.9110938,-0.4519823,-0.4672659,-0.1271386,1.607556,0.0654745
0.9139547,-0.412962,-0.3812528,-0.03423318,1.933698,0.2238679
1.000727,-0.3337192,-0.3836066,0.1701655,2.087634,0.2673011
0.9672657,-0.2731817,-0.3841106,0.1656555,1.878909,0.1872035
0.870075,-0.2246731,-0.3858955,0.08793388,1.516694,0.1133388
0.8694221,-0.1967038,-0.3610573,0.006852864,1.164037,0.02124416
0.8011262,-0.1932961,-0.3330157,-0.2480093,0.8194599,-0.027169
0.7387045,-0.2141145,-0.30971,-0.3428184,0.6319477,0.06975212
0.7050361,-0.249509,-0.2638813,-0.2518272,0.5026703,0.1843362
0.6473719,-0.2585266,-0.2419218,-0.2350892,0.2812303,0.3793441
0.6806209,-0.2664612,-0.1950893,-0.1803382,0.134643,0.6131305
0.7106819,-0.2983015,-0.137144,-0.08118532,0.1676504,0.6416335
0.7562062,-0.3021991,-0.1453651,-0.07583985,0.2214959,0.5957625
0.8048706,-0.3249827,-0.1452899,-0.08440402,0.1810266,0.498071
0.7536774,-0.3721657,-0.125677,-0.0199459,-0.003280113,0.2514594
0.7611227,-0.3816327,-0.09469007,0.01800038,-0.3342481,0.01173596
0.7712003,-0.3955527,-0.05155753,0.03904043,-0.5425886,-0.1294332
0.7584767,-0.417423,-0.05757405,0.08068088,-0.5127775,-0.1563678
0.8352611,-0.4162575,-0.1104743,0.080021,-0.4789249,-0.1234734
0.9263559,-0.3755365,-0.1817768,0.108652,-0.4201701,-0.06703534
1.037657,-0.319372,-0.2105088,0.197387,-0.3758233,0.01485662
1.153919,-0.3092824,-0.1776584,0.3578723,-0.5800584,0.03972312
1.327599,-0.3036073,-0.1706418,0.4476251,-0.6478277,0.00438712
1.486259,-0.2908964,-0.205241,0.1011753,-0.02659039,-0.06359394
1.379668,-0.3073378,-0.2301349,-0.3053573,0.7703151,-0.1600663
1.161653,-0.3189067,-0.2363654,-0.1841063,0.7012162,-0.2103541
0.9736475,-0.366109,-0.2454616,0.01476123,-0.06322656,-0.03615106
0.9248031,-0.4837715,-0.2875235,0.05225709,-0.7354504,0.2713185
1.031653,-0.5525869,-0.4097826,0.2941169,-1.043569,0.329848
0.9472757,-0.4820481,-0.5872798,0.417326,-0.8260168,0.2081951
0.8204177,-0.3353779,-0.6499971,0.2504402,-0.6138123,0.101754
0.8011707,-0.2008703,-0.5740981,0.116613,-0.6669043,-0.04892442
0.7522307,-0.1135221,-0.5237981,-0.09187192,-0.4850422,-0.1837756
0.8010185,-0.1288212,-0.4620265,-0.3023435,-0.5136255,-0.3609575
0.8051521,-0.2287362,-0.3696659,-0.3398833,-0.7947103,-0.6090829
0.8227561,-0.3097307,-0.3573853,-0.2844818,-0.9219374,-0.7135605
0.9394471,-0.3424863,-0.354453,-0.09390552,-0.985064,-0.7163828
0.9050178,-0.3197564,-0.3852239,0.1145361,-0.6782943,-0.8081953
0.9107472,-0.2893434,-0.4768441,0.198482,-0.36675,-0.8647628
0.8982213,-0.2445471,-0.5065571,0.1833769,-0.3553191,-0.6774952
0.7850044,-0.1254185,-0.5158888,0.1837242,-0.2629303,-0.387277
0.8281918,-0.07970913,-0.4866556,0.2697877,-0.2213454,-0.213293
0.8368206,-0.09942396,-0.4159607,0.326526,-0.256791,-0.1052059
0.7906686,-0.08482878,-0.4023864,0.3646524,-0.4113264,-0.04365585
0.8063242,-0.1218307,-0.4022954,0.3810523,-0.5307511,-0.06826687
0.7995099,-0.1347881,-0.4197761,0.3706369,-0.4112758,-0.09770303
0.8147864,-0.09348448,-0.4328024,0.3662253,-0.3691244,-0.1126375
0.8132135,-0.05436376,-0.4053929,0.3093185,-0.3508436,-0.06225911
0.81072,0.01280423,-0.3954253,0.3062855,-0.3366994,0.09819748
0.8446203,0.0383195,-0.3966433,0.2945794,-0.3314962,0.2471032
0.8681645,0.01114426,-0.4063319,0.1962568,-0.2621841,0.3710621
0.9144728,-0.04031843,-0.4073972,0.155901,-0.3047937,0.4250843
0.9742035,-0.08816921,-0.4144561,0.1598632,-0.367147,0.3257016
1.06249,-0.06233266,-0.4688742,0.1671376,-0.4212161,0.1896886
1.187492,-0.03772068,-0.5249161,0.04885127,-0.413732,0.04403242
1.279308,-0.07879698,-0.5881475,-0.1771307,-0.3051597,-0.06350937
1.312292,-0.1402158,-0.6937546,-0.248877,-0.1477978,-0.07635556
1.291492,-0.1948316,-0.7785846,-0.1611935,0.1855707,-0.1555598
1.19214,-0.2207014,-0.7769839,-0.1190194,0.4828827,-0.2544288
1.007928,-0.2585782,-0.7657771,-0.3151993,0.8555809,-0.241196
0.8781017,-0.3948653,-0.6951148,-0.5272773,1.376336,-0.200514
0.8535891,-0.5211435,-0.5072669,-0.4764348,1.448798,-0.1013433
0.8319348,-0.4886076,-0.4630929,-0.3609259,1.467767,0.09190643
0.8748923,-0.410502,-0.4637311,-0.2424176,1.763188,0.2516005
0.9902115,-0.3393896,-0.3343396,-0.09569171,1.587541,0.3720004
1.046907,-0.2477686,-0.3463666,-0.005833231,1.301951,0.4715761
1.015331,-0.2148627,-0.4321488,0.02623965,1.370434,0.4647805
0.9310256,-0.1785395,-0.4463441,-0.1095139,1.221276,0.369436
0.8566642,-0.1570549,-0.436582,-0.3738397,1.024198,0.258092
0.7681833,-0.2074878,-0.3573187,-0.5304573,0.8789534,0.2281393
0.6667262,-0.1937367,-0.3070717,-0.5733901,0.530997,0.3906108
0.6521365,-0.1913847,-0.261272,-0.5886274,0.3809395,0.6476674
0.6888264,-0.245403,-0.1804597,-0.573152,0.3615791,0.8151748
0.7299048,-0.2475842,-0.1518106,-0.5401293,0.3118017,0.8319099
0.7624393,-0.2799453,-0.1175636,-0.4897191,0.3213809,0.7299587
0.762567,-0.3235347,-0.1013718,-0.4540039,0.1458401,0.5683747
0.7594314,-0.3486886,-0.08787022,-0.4233383,-0.09850396,0.32916
0.7604479,-0.3783133,-0.05297685,-0.3470559,-0.3193394,0.04514992
0.7801905,-0.3518261,-0.0541253,-0.3434578,-0.5076189,-0.1516559
0.8159086,-0.3519934,-0.05279895,-0.3825922,-0.5349622,-0.274958
0.8814874,-0.3580125,-0.1314654,-0.3716365,-0.532067,-0.3313628
1.013088,-0.3199103,-0.2663213,-0.3829642,-0.3409208,-0.2214013
1.125784,-0.3134374,-0.2750671,-0.2872029,-0.1164838,-0.06302918
1.166536,-0.2984171,-0.1625664,-0.05285561,-0.265159,0.008578724
1.244192,-0.314708,-0.07603119,0.09934537,-0.3570257,0.06288718
1.360907,-0.3957605,-0.1802775,0.09612994,-0.07268325,0.06752567
1.323637,-0.4625603,-0.3546412,0.09488002,0.3837949,0.03374222
1.136998,-0.4765341,-0.3989211,0.2169677,0.5799396,0.07192713
1.001281,-0.464349,-0.3895358,0.3182133,-0.03513808,0.1271367
1.021626,-0.5010761,-0.4296147,0.3945602,-0.7303754,0.1998739
1.091293,-0.5117242,-0.550838,0.4954669,-0.4526142,0.2474309
1.005334,-0.4516966,-0.6246433,0.4851439,-0.1524962,0.181868
0.8688814,-0.3175431,-0.5675631,0.2869058,-0.337886,0.111457
0.7809381,-0.1072105,-0.5223532,-0.1155057,-0.1967923,-0.04504679
0.7545257,-0.08580574,-0.4856726,-0.3867582,-0.2301502,-0.2902038
0.8282107,-0.1978835,-0.4167873,-0.4282284,-0.6418239,-0.4706655
0.7884152,-0.2187617,-0.3511714,-0.5584024,-0.9801321,-0.7616073
0.8155148,-0.3243919,-0.3216726,-0.4361151,-1.27037,-0.974058
0.9451921,-0.4013211,-0.4082135,-0.03003194,-1.012866,-0.9038458
0.852647,-0.3080696,-0.4978678,0.07858772,-0.5374699,-0.9474244
0.8085181,-0.2492105,-0.484765,0.1179043,-0.2270706,-0.9174741
0.7868648,-0.1832681,-0.4603912,0.3286432,0.07298803,-0.5828963
0.7154125,-0.1111727,-0.4257239,0.4214382,-0.09561095,-0.3609142
0.7911347,-0.1088089,-0.3845431,0.446328,-0.2617142,-0.2334053
0.7850508,-0.0746031,-0.3789452,0.4637558,-0.4128511,-0.1440186
0.79012,-0.06242006,-0.4038312,0.4067531,-0.8216721,-0.1573634
0.8685279,-0.07341358,-0.4501115,0.3492864,-0.7802124,-0.1275906
0.8741433,-0.03518672,-0.4653935,0.2818117,-0.6256318,-0.1388719
0.903568,-0.00589385,-0.4482757,0.2137697,-0.4679866,-0.09734238
0.8845832,0.02952661,-0.4317259,0.1633907,-0.2538095,0.04455445
0.8663087,0.04911452,-0.4164149,0.139936,-0.3307743,0.1652206
0.8854796,0.01186516,-0.41624,0.1253456,-0.2879132,0.3551399
0.8982159,-0.03652752,-0.4200156,0.05839607,-0.2817559,0.4895584
0.9952357,-0.07932074,-0.4294983,0.06229571,-0.3672969,0.5066691
1.076778,-0.07785105,-0.4648212,0.1087457,-0.3460568,0.4130432
1.129283,-0.05542931,-0.4986088,0.08406276,-0.4233594,0.1848657
1.190413,-0.07140992,-0.5107603,0.03599556,-0.4265387,0.01925906
1.206655,-0.1096376,-0.5738917,-0.04240707,-0.412371,-0.04672597
1.245719,-0.1905323,-0.6750973,-0.0270583,-0.1972492,-0.0466049
1.295829,-0.2555618,-0.6593418,0.09349958,0.2862989,-0.06308726
1.24715,-0.2216867,-0.6381765,0.1001762,0.5910331,-0.1167388
1.063716,-0.1893931,-0.7641604,-0.1240255,0.9280013,-0.1066114
0.8809188,-0.2356028,-0.8049961,-0.4682498,1.25444,-0.1487338
0.8080018,-0.3892959,-0.6250381,-0.5509706,1.296574,-0.1506129
0.7537213,-0.5661198,-0.4501652,-0.4354366,1.371389,-0.0258251
0.7786195,-0.4948798,-0.4551552,-0.4205318,1.599173,0.1030846
0.9485463,-0.3234066,-0.4420667,-0.2900453,1.659584,0.2660107
1.032891,-0.3136787,-0.3334355,-0.102442,1.465101,0.3515302
1.008235,-0.2465097,-0.3857201,-0.1050761,1.254542,0.3394288
1.010137,-0.1508527,-0.4557699,-0.2594684,1.019625,0.3168194
0.9456551,-0.165483,-0.4212286,-0.5169568,0.8551072,0.2455767
0.8464845,-0.1792626,-0.4097981,-0.5998435,0.8130846,0.2390714
0.7709778,-0.2317624,-0.3108947,-0.5130874,0.6531815,0.3524031
0.6964047,-0.2481715,-0.2667794,-0.4953567,0.5222285,0.5607489
0.6863144,-0.2508062,-0.2618463,-0.3950498,0.4699272,0.7542252
0.6861166,-0.3169932,-0.137327,-0.3101651,0.3957289,0.7635235
0.7124167,-0.2885126,-0.1240733,-0.3300288,0.3063272,0.7136499
0.7553834,-0.2939276,-0.1203902,-0.2773182,0.1456678,0.6532615
0.7414194,-0.3578656,-0.0786641,-0.2172248,-0.02087596,0.4574476
0.7542786,-0.3687765,-0.08244119,-0.1349012,-0.3370271,0.184711
0.7582394,-0.4012449,-0.004076063,-0.05996592,-0.6495139,-0.05592246
0.7875082,-0.3745748,-0.0001592404,-0.08274764,-0.6072834,-0.195368
0.881819,-0.337305,-0.05196591,-0.08201705,-0.5220117,-0.2108917
0.9732628,-0.3135916,-0.1179591,-0.1023898,-0.4982896,-0.1341831
1.109054,-0.2515932,-0.3005459,-0.1456826,-0.3877792,-0.029361
1.228412,-0.2746357,-0.3470638,-0.06030178,-0.3118045,0.03357368
1.328249,-0.294831,-0.2100725,0.04526143,-0.2505926,0.06526996
1.406082,-0.2906174,-0.1155851,0.02505408,-0.02542628,0.05631123
1.355864,-0.340616,-0.1441742,-0.04683042,0.4897777,0.002987675
1.224951,-0.3595299,-0.2158052,-0.09849554,0.8165442,0.01621361
1.03362,-0.3921382,-0.2550872,-0.07220199,0.276338,0.09016315
0.9049077,-0.4592906,-0.3322155,0.102999,-0.5871378,0.1602729
0.9558771,-0.5064852,-0.4165653,0.2621932,-0.8519846,0.2460639
0.9728583,-0.5186922,-0.5015795,0.3493966,-0.6952068,0.2620019
0.8775784,-0.4323781,-0.6310534,0.4714048,-0.5496494,0.2154381
0.7970582,-0.2888773,-0.6792216,0.3399754,-0.4436323,0.1793437
0.7458697,-0.1954435,-0.5929283,0.003596258,-0.4217121,0.03335285
0.7691024,-0.1793634,-0.474821,-0.1109881,-0.4869405,-0.2220765
0.8375767,-0.2196729,-0.4288378,-0.2125009,-0.606105,-0.493548
0.8565776,-0.2771125,-0.4017747,-0.3083552,-0.7754353,-0.7299072
0.9174306,-0.3330874,-0.3643331,-0.1089574,-0.856827,-0.8465891
0.9458897,-0.3503742,-0.4158159,0.1118644,-0.7549278,-0.9272429
0.8645002,-0.312247,-0.4734696,0.2349092,-0.5708775,-0.990603
0.8137236,-0.255887,-0.4656915,0.2880428,-0.3820415,-0.894877
0.7528339,-0.1703815,-0.4569229,0.2935157,-0.252336,-0.6579351
0.7393052,-0.09862096,-0.4445793,0.4374106,-0.2077539,-0.3738951
0.8038367,-0.09441683,-0.4138983,0.5134042,-0.1601826,-0.2059958
0.8014259,-0.08139899,-0.3818283,0.4997498,-0.3100117,-0.175946
0.8275563,-0.06443018,-0.3907021,0.5396377,-0.5855186,-0.1043625
0.8830232,-0.05989464,-0.4201177,0.4713581,-0.5651904,-0.08926446
0.8981761,-0.01246616,-0.4320279,0.4069787,-0.5180926,-0.1381375
0.8986667,0.01358746,-0.4441467,0.3629529,-0.5764183,-0.08035586
0.8707704,0.02633195,-0.4410444,0.2786289,-0.5195965,-0.02156791
0.8716211,0.05912774,-0.4289709,0.2299422,-0.4651494,0.06822237
0.863481,0.02713823,-0.4066557,0.1238097,-0.3742536,0.236417
0.8585487,-0.02841829,-0.3715632,0.07626435,-0.303887,0.3366053
0.9211937,-0.07976219,-0.3676752,0.1416031,-0.3485456,0.3774355
0.9887954,-0.1428727,-0.3894248,0.2040987,-0.3890486,0.3423989
1.060229,-0.1403153,-0.4258464,0.252443,-0.4308169,0.2512304
1.108979,-0.0993324,-0.4896378,0.1837657,-0.3569978,0.1352987
1.188471,-0.08023357,-0.5702879,0.05272479,-0.1809578,-0.03853721
1.277041,-0.1039519,-0.6173599,0.0004356921,-0.06829081,-0.1240322
1.213146,-0.1644473,-0.6374441,0.01501553,0.09290426,-0.144518
1.118893,-0.1824755,-0.6952487,0.04030405,0.3252141,-0.1956528
1.023766,-0.1973955,-0.7304039,-0.01229307,0.5491613,-0.2055495
0.9111188,-0.3199356,-0.696278,-0.1933357,0.9461335,-0.2319884
0.8865474,-0.5163522,-0.5899643,-0.3902477,1.502392,-0.2779861
0.8262103,-0.5864144,-0.4441246,-0.3470244,1.715162,-0.2142821
0.7951038,-0.4635592,-0.4250649,-0.1827078,1.643016,-0.03471759
0.8645531,-0.3863652,-0.4482154,-0.1651128,1.761039,0.1589233
0.9010941,-0.3520476,-0.3726408,-0.1133788,1.676167,0.3290376
0.9910303,-0.206838,-0.3476733,-0.06391021,1.258009,0.4357443
1.026436,-0.1206282,-0.3839812,-0.2108446,0.9651249,0.434737
0.9149639,-0.1326842,-0.3986585,-0.4778628,0.6454344,0.4129548
0.8540205,-0.1343446,-0.3807149,-0.7497164,0.42524,0.3878988
0.7922408,-0.1750919,-0.3247963,-0.7532498,0.4314055,0.4022634
0.7225777,-0.2244021,-0.2871461,-0.6072253,0.3335155,0.5409311
0.7176019,-0.2488504,-0.2627276,-0.6018357,0.373109,0.7299764
0.7095122,-0.2842973,-0.2281531,-0.539243,0.4599137,0.862701
0.7304656,-0.2961038,-0.1690971,-0.4833857,0.3314228,0.8400653
0.7479229,-0.3108396,-0.1040295,-0.4640497,0.278524,0.7244432
0.7447391,-0.3704401,-0.1081654,-0.3103451,0.1566366,0.5452006
0.7545919,-0.4310672,-0.09641982,-0.1724513,-0.1710069,0.2518442
0.743618,-0.4704143,-0.03913617,-0.04360306,-0.49249,0.007075413
0.777304,-0.4650798,-0.04824212,0.04730613,-0.624523,-0.1523062
0.8497212,-0.4317826,-0.09492182,0.04668093,-0.5256844,-0.2251459
0.9322774,-0.4065322,-0.1573767,0.07378831,-0.4672066,-0.1875801
1.033837,-0.3345635,-0.2287442,0.02475447,-0.4322289,-0.1470446
1.109936,-0.2465166,-0.2330744,-0.01292162,-0.3200648,-0.1017413
1.202174,-0.2068122,-0.2357449,0.08959093,-0.2069238,-0.107141
1.251472,-0.1973437,-0.2700584,0.1289344,-0.04141758,-0.127134
1.226238,-0.2338077,-0.2121561,0.01917906,0.09320679,-0.03715932
1.244095,-0.3009172,-0.1587086,-0.09861042,0.3740767,0.05479302
1.222964,-0.3759351,-0.2543876,-0.05181239,0.6548063,0.09065188
1.098555,-0.4167301,-0.3268416,0.03919922,0.1983666,0.08300691
1.012901,-0.4316204,-0.2860105,0.1306316,-0.4942997,0.1148827
1.034948,-0.5331782,-0.3181697,0.4465908,-0.5748854,0.2397219
1.036098,-0.5842374,-0.5273972,0.6620097,-0.478233,0.2784849
0.8922404,-0.4607196,-0.7125277,0.4349978,-0.4620124,0.2064355
0.7392505,-0.3126385,-0.6395211,0.1518608,-0.3094898,0.1060394
0.7200928,-0.2238042,-0.4998614,0.04773059,-0.1569506,-0.06632842
0.7470756,-0.2068434,-0.4677643,-0.1195874,-0.1131209,-0.3114919
0.7473744,-0.22061,-0.3690924,-0.2853425,-0.4139923,-0.5491709
0.788919,-0.2609823,-0.3007789,-0.2014074,-0.9940105,-0.690272
0.9044193,-0.328684,-0.3613373,-0.008557685,-1.126471,-0.7904869
0.968827,-0.3229902,-0.4027602,0.1671239,-0.9031866,-0.9182156
0.9276075,-0.2884187,-0.4898068,0.2245371,-0.7499394,-0.9594365
0.8756339,-0.2544511,-0.5266484,0.157168,-0.408911,-0.8407885
0.8339156,-0.1909019,-0.4602853,0.2740495,-0.1298168,-0.6386762
0.8067358,-0.1538796,-0.4880375,0.4184395,-0.1822929,-0.4372795
0.8080329,-0.1314716,-0.4795441,0.4225066,-0.2151371,-0.265804
0.8101893,-0.1201256,-0.4314908,0.5032114,-0.2790612,-0.1536491
0.8256749,-0.117204,-0.4385129,0.5458334,-0.4234385,-0.1059466
0.8541354,-0.09163727,-0.4073088,0.4878069,-0.4453485,-0.1214008
0.8731545,-0.06671194,-0.4115393,0.3828141,-0.4762414,-0.159085
0.8658069,-0.03818937,-0.4146469,0.2481805,-0.5219129,-0.09986472
0.8375762,0.003983713,-0.3980968,0.1766976,-0.4569176,-0.004991388
0.8339719,0.04305792,-0.4097683,0.1069017,-0.3915491,0.08328464
0.8338015,0.05181768,-0.3802885,0.02150684,-0.3395713,0.2420176
0.8303264,0.0004067148,-0.3665804,-0.02018515,-0.3294989,0.3571263
0.872405,-0.07174425,-0.3541985,0.07229871,-0.4082506,0.4026277
0.9439819,-0.1004065,-0.3713915,0.2204157,-0.4373758,0.4009696
1.038978,-0.09601538,-0.4760652,0.1948555,-0.4368544,0.3083332
1.114514,-0.08401338,-0.5313506,0.08525123,-0.385119,0.1833276
1.132529,-0.06507597,-0.5236519,-0.02834244,-0.2751878,0.02438791
1.168184,-0.07932377,-0.5146425,-0.08943591,-0.2920766,-0.05459784
1.214801,-0.1592027,-0.5489907,-0.0200785,-0.2273806,-0.001604219
1.238923,-0.2446088,-0.5998692,0.09322137,0.03726371,-0.00641036
1.205465,-0.2496591,-0.620658,0.2296443,0.2956212,-0.04252884
1.044973,-0.2261063,-0.7131719,0.1727006,0.5386725,-0.05438708
0.8815046,-0.2922946,-0.7829188,-0.1097935,0.7658177,-0.08860032
0.8315481,-0.4023342,-0.6708478,-0.308376,1.170587,-0.09184021
0.8166267,-0.4521089,-0.5126701,-0.3732383,1.715028,-0.05213542
0.8045808,-0.408937,-0.4477084,-0.3175599,1.901513,0.001180666
0.8479548,-0.3046752,-0.4006016,-0.2997827,1.794605,0.07653157
0.9283687,-0.2189854,-0.3365413,-0.3286182,1.645554,0.1845173
0.9617902,-0.1468136,-0.3547751,-0.2475582,1.41167,0.2559732
0.9413723,-0.1142177,-0.3900523,-0.3226921,1.153969,0.2652089
0.9086594,-0.1578743,-0.3866151,-0.5147218,0.8926311,0.3088663
0.8622011,-0.2121599,-0.3799572,-0.633167,0.687705,0.3404809
0.7930853,-0.2767751,-0.3238131,-0.6854397,0.598973,0.3392509
0.7568024,-0.2898166,-0.2859323,-0.572833,0.5282264,0.4479482
0.7787898,-0.2570793,-0.2578759,-0.4983076,0.4986446,0.6059452
0.7733224,-0.2917081,-0.1979791,-0.4895043,0.5008207,0.6722346
0.7681896,-0.3077143,-0.1947272,-0.4810233,0.4265753,0.6538005
0.7880612,-0.3356244,-0.1761552,-0.5408058,0.3081158,0.5829235
0.7639316,-0.4085154,-0.123589,-0.4197635,0.1201819,0.4740599
0.7517214,-0.3908048,-0.1158955,-0.2479574,-0.1474616,0.3053329
0.7484919,-0.3650139,-0.1032667,-0.2105451,-0.3318923,0.1229878
0.7408959,-0.3650756,-0.08031467,-0.196789,-0.459899,0.0009030608
0.780259,-0.3260479,-0.09125055,-0.247032,-0.5858767,-0.05984491
0.8429322,-0.304391,-0.1249079,-0.2600338,-0.5880595,-0.04572251
0.9572002,-0.27008,-0.1619781,-0.2772238,-0.5482558,-0.02469577
1.093927,-0.2279867,-0.1931185,-0.2997856,-0.5698,-0.04141177
1.153579,-0.2384654,-0.1964041,-0.1382476,-0.5697686,-0.08283271
1.165961,-0.2502167,-0.1940891,0.0473643,-0.545272,-0.16429
1.223652,-0.2691671,-0.2199706,0.08598956,-0.4316127,-0.1571351
1.279661,-0.3183115,-0.2609313,0.009722048,-0.04015204,-0.03189118
1.226326,-0.3395773,-0.3248385,-0.07262747,0.4389058,0.06451615
1.155308,-0.354713,-0.3649563,-0.1213266,0.5185629,0.1103236
1.108745,-0.3956109,-0.347694,-0.09645095,0.187507,0.1803902
1.046102,-0.4438077,-0.3803855,0.04629202,-0.2351574,0.2951564
1.004085,-0.5161047,-0.5156107,0.1801161,-0.5702859,0.363386
0.9397276,-0.5112638,-0.6248974,0.2871215,-0.5459356,0.3738167
0.8646685,-0.3334134,-0.5826091,0.1842261,-0.2081206,0.3415574
0.7731549,-0.1517991,-0.5042008,-0.1456948,0.00530624,0.2287374
0.7183025,-0.1282247,-0.4898335,-0.3721703,0.003785607,0.07353807
0.7608097,-0.1893168,-0.4202003,-0.5991988,-0.2920792,-0.1680805
0.7115047,-0.2247235,-0.3253201,-0.7073768,-0.8736434,-0.3985623
0.7076621,-0.2841641,-0.3194777,-0.5610946,-1.322686,-0.50963
0.8534034,-0.4034384,-0.3720521,-0.3329821,-1.400409,-0.6773743
0.9160124,-0.4831279,-0.4518651,0.06846223,-1.04124,-0.8333606
0.9338455,-0.4694935,-0.5101289,0.3243541,-0.4758282,-0.8646327
0.8994121,-0.3881879,-0.5051672,0.4213523,-0.04894904,-0.8606092
0.8694315,-0.3327183,-0.4756015,0.712764,0.237741,-0.7987308
0.9026423,-0.2885524,-0.4618038,0.8587035,0.2979579,-0.6820242
0.8425171,-0.1799496,-0.4514097,0.8335526,0.0450464,-0.5469235
0.8023437,-0.115686,-0.4365855,0.8036681,-0.3817708,-0.4230994
0.799085,-0.07984023,-0.4560769,0.7048348,-0.6041714,-0.3334803
0.8121838,-0.02484219,-0.4782592,0.648147,-0.4960724,-0.2915329
0.8783665,-0.009945215,-0.4741913,0.5467506,-0.4371252,-0.2826934
0.8604812,0.005587442,-0.4704283,0.4274428,-0.3948786,-0.1984765
0.8469353,0.0008809913,-0.4424593,0.3828817,-0.3033035,-0.08810571
0.8456378,-0.002537709,-0.4056823,0.3019718,-0.3070817,0.01792256
0.8083574,0.006059049,-0.3847428,0.2158545,-0.2812023,0.1988175
0.8304167,-0.03899983,-0.3657739,0.1759319,-0.3177667,0.35158
0.8679815,-0.08685271,-0.3642254,0.2464821,-0.4274238,0.4097822
0.9325488,-0.1193829,-0.3895219,0.3305917,-0.4581478,0.3832595
0.9806351,-0.1125094,-0.4238601,0.2893676,-0.453411,0.2918474
1.010192,-0.09130768,-0.4596374,0.2632169,-0.3643667,0.1701119
1.093712,-0.1106292,-0.5085668,0.2117588,-0.2598589,0.04459347
1.105868,-0.1288188,-0.5231682,0.1067725,-0.2656579,0.006895632
1.117968,-0.1973237,-0.5233488,0.1136015,-0.2592732,-0.01343119
1.19713,-0.2586293,-0.5925505,0.1745256,-0.162678,-0.0682858
1.165166,-0.2200688,-0.6657875,0.2128526,0.04532405,-0.06131828
1.047388,-0.2156356,-0.7358261,0.2009876,0.4370929,-0.07568149
0.935167,-0.3091364,-0.7744228,0.03695913,0.8636213,-0.1525572
0.878614,-0.4550009,-0.6497899,-0.1696326,1.208064,-0.1892311
0.9117129,-0.5695874,-0.5048208,-0.1742939,1.578618,-0.1476357
0.9090608,-0.5507262,-0.4796252,-0.0818885,1.835405,-0.1000508
0.900049,-0.2576223,-0.7319291,0.07886015,1.574893,-0.4860352
0.6823894,-0.3355218,-0.6397157,-0.2160927,1.246187,-0.2737818
0.6656641,-0.4304158,-0.5067722,-0.3170665,1.26217,0.05288543
0.8464902,-0.5075925,-0.4316195,-0.06888606,1.488362,0.09774285
0.9377835,-0.4068191,-0.3379995,0.2200309,1.522279,0.09149294
0.993528,-0.2371269,-0.3293319,0.2788378,1.30817,0.2413827
1.02304,-0.1861838,-0.4187693,0.2949754,0.901294,0.1971158
0.9069961,-0.1434198,-0.4962284,0.1599935,0.6964499,0.07692733
0.8379711,-0.1274287,-0.5348013,-0.1496299,0.6784444,0.08851055
0.7235222,-0.1480106,-0.4389034,-0.2792208,0.6414441,0.1633431
0.6059569,-0.1630365,-0.324756,-0.2774963,0.6732959,0.4049552
0.6300828,-0.2110038,-0.2865036,-0.3137595,0.6528181,0.6338134
0.6183993,-0.2676533,-0.2065142,-0.2811771,0.5989758,0.7099506
0.63572,-0.3229518,-0.1209649,-0.1834395,0.487208,0.7310652
0.6778552,-0.3267311,-0.05720216,-0.1096006,0.164232,0.5942657
0.6830094,-0.3122308,-0.02978736,-0.0898766,-0.1177151,0.3881165
0.6993522,-0.3492639,-0.03590526,-0.09880901,-0.3261139,0.1807424
0.7004087,-0.3459752,-0.01543104,-0.08492121,-0.5270668,-0.06201616
0.7579065,-0.3286734,-0.002475983,-0.09276377,-0.630971,-0.2217935
0.8362056,-0.3343476,-0.02583757,-0.1193757,-0.7278328,-0.2973456
0.9682993,-0.3051687,-0.1341626,-0.0741956,-0.7095956,-0.3113608
1.183648,-0.281828,-0.3044883,0.07120363,-0.5289189,-0.3307241
1.325963,-0.2720247,-0.3790102,0.2877044,-0.3439821,-0.2766032
1.385113,-0.2729166,-0.2694699,0.3815435,-0.1941977,-0.1331131
1.310505,-0.3270893,-0.1589638,0.2801126,0.03524955,-0.1780698
1.206216,-0.4635013,-0.2414584,0.2423789,0.4373448,-0.1925018
1.217824,-0.612995,-0.293905,0.2989871,0.5820392,-0.0583211
1.122763,-0.6152327,-0.2895603,0.3986632,0.1560454,-0.03248811
0.9842608,-0.6077188,-0.4254196,0.6748752,-0.6090872,0.04458972
1.025187,-0.6762054,-0.5864445,0.9939208,-1.150847,0.1756823
1.041901,-0.5516727,-0.7911068,1.081553,-0.7680386,0.2062788
0.9290712,-0.3661316,-0.8928357,0.8281056,-0.2019689,0.1332175
0.8612738,-0.2899912,-0.6150788,0.4942226,-0.3304181,-0.07777224
0.8570203,-0.1875955,-0.3469252,0.3647405,-0.3531941,-0.3907797
0.8570613,-0.2133974,-0.3538161,0.1792028,-0.4279227,-0.872106
0.8523613,-0.3086762,-0.3479699,-0.003938186,-1.012224,-1.303739
0.8267826,-0.2962923,-0.3156719,0.08127321,-1.21803,-1.426425
0.8041543,-0.315969,-0.3927446,0.1475491,-1.093999,-1.457125
0.7285689,-0.2580327,-0.4576584,0.2145175,-1.06356,-1.314713
0.6334238,-0.1311149,-0.466658,0.3690344,-0.8807119,-0.9548929
0.6732711,-0.1350714,-0.4450638,0.4767773,-0.5372993,-0.5940827
0.7270794,-0.156533,-0.3717822,0.724813,-0.2745725,-0.2334325
0.7207676,-0.1534954,-0.3494776,0.9868703,-0.3678331,-0.0831193
0.7663246,-0.1589694,-0.3615353,1.024859,-0.5366601,-0.1042418
0.7934067,-0.1468013,-0.3503323,0.9477782,-0.6286603,-0.05903359
0.7951198,-0.1213216,-0.3729438,0.8471401,-0.7811496,-0.07391176
0.846651,-0.03498507,-0.3842158,0.7861756,-0.6985367,-0.05080873
0.8730084,0.05696694,-0.4086106,0.6455097,-0.5951782,0.04708238
0.8792197,0.06355693,-0.4432488,0.4660213,-0.5767245,0.1041393
0.9480638,-0.004844904,-0.4356414,0.455803,-0.4272043,0.1944668
1.05142,-0.09169403,-0.4635689,0.4659308,-0.3848758,0.1956996
1.144842,-0.1117217,-0.4995341,0.4196673,-0.3836557,0.06405125
1.230516,-0.06904791,-0.5210966,0.3078532,-0.3858745,-0.06583262
1.283317,-0.03436185,-0.5577156,0.09351078,-0.4386159,-0.1189439
1.284626,-0.06348505,-0.6297453,-0.02435282,-0.3840384,-0.07212782
1.298203,-0.1667218,-0.7362432,0.029699,-0.2350764,-0.03440188
1.321666,-0.2401263,-0.7505505,0.1945705,0.1181173,-0.02211047
1.255492,-0.2127238,-0.7410822,0.2975133,0.6660962,-0.07698674
1.050354,-0.227916,-0.751601,-0.02443551,1.223411,-0.1824131
0.7711815,-0.4104569,-0.6301715,-0.505448,1.559296,-0.1025058
0.6917031,-0.5635372,-0.51948,-0.4930431,1.563163,0.07151123
0.808254,-0.5182774,-0.4967092,-0.2814405,1.671421,0.2151013
0.8122597,-0.4512487,-0.4051649,-0.2592085,1.862122,0.33748
0.8986778,-0.4052954,-0.3282401,-0.1569095,1.692422,0.3010847
1.077845,-0.2364182,-0.3725759,-0.09602044,1.378746,0.2049697
0.9965263,-0.1283048,-0.4436866,-0.241874,1.066849,0.090874
0.8710097,-0.1744504,-0.4723102,-0.4862856,0.6741544,-0.05075877
0.7803048,-0.168167,-0.4273968,-0.7398062,0.3891681,0.001773093
0.6483685,-0.2078794,-0.2998792,-0.7280113,0.2945532,0.176745
0.6613962,-0.3043322,-0.2170186,-0.5607382,0.3782947,0.4046785
0.6659303,-0.2898373,-0.2007829,-0.4622844,0.5231616,0.6619089
0.6391448,-0.2911675,-0.1535334,-0.3692312,0.5292523,0.740315
0.6909514,-0.302428,-0.1124197,-0.3785759,0.4321607,0.7366496
0.6812364,-0.2897145,-0.08275195,-0.3939994,0.2843613,0.6780761
0.6801329,-0.3242064,-0.06043003,-0.3122114,0.1041042,0.4818791
0.6993467,-0.3392741,-0.02765168,-0.2492918,-0.2143242,0.2653059
0.6932891,-0.3538014,0.02791069,-0.1993724,-0.631291,0.002233186
0.7851415,-0.3711337,-0.01269032,-0.2000029,-0.6750486,-0.2122794
0.9586246,-0.376091,-0.1006281,-0.1606798,-0.5136376,-0.2721235
1.140729,-0.3652503,-0.2027236,-0.0125047,-0.468311,-0.2881727
1.236459,-0.2901712,-0.2982548,0.05667564,-0.3261624,-0.2288977
1.253073,-0.2111103,-0.2150973,0.01671746,-0.2845461,-0.1180054
1.28552,-0.2154232,-0.1676209,-0.1780419,-0.1653887,0.01870987
1.263022,-0.3995338,-0.3547942,-0.4024816,0.2873553,0.1868846
1.181144,-0.6136873,-0.5094084,-0.2104178,0.3491037,0.2103942
1.032238,-0.5943082,-0.5137315,0.2345548,-0.1293587,0.2102544
0.890458,-0.5389406,-0.5336849,0.4688188,-0.5364371,0.3671329
0.9454858,-0.5514171,-0.6470951,0.5040998,-0.5512539,0.4628832
0.9682183,-0.3863802,-0.7124357,0.4360359,-0.3081804,0.444957
0.8419484,-0.1636145,-0.6388481,0.2271588,-0.2333689,0.3505991
0.8149433,-0.1534496,-0.5207187,-0.1580127,-0.3005503,0.1085593
0.8545024,-0.2490166,-0.4168671,-0.4384971,-0.3421707,-0.2156462
0.8695409,-0.3171504,-0.3406204,-0.4506023,-0.5264427,-0.6940447
0.8483048,-0.4025208,-0.3117005,-0.4556174,-0.8449939,-1.185101
0.7925123,-0.4547791,-0.3467463,-0.277472,-1.056987,-1.32329
0.7661124,-0.3833681,-0.4114381,0.08558851,-0.8869741,-1.246132
0.712035,-0.261895,-0.435762,0.2793739,-0.4965902,-1.093957
0.6576021,-0.1887385,-0.426767,0.4247761,-0.2284352,-0.8096763
0.6598027,-0.1267397,-0.3814902,0.5309635,-0.1597337,-0.5146798
0.6880242,-0.08012701,-0.3333939,0.6302951,-0.4449011,-0.2735838
0.7688022,-0.08492709,-0.3564084,0.7582309,-0.7487769,-0.1410502
0.8057683,-0.07775203,-0.3904456,0.7417697,-0.7526719,-0.1630422
0.7972244,-0.05547158,-0.423744,0.6834596,-0.7730125,-0.1789267
0.8340013,-0.02130434,-0.4879112,0.5720047,-0.6568235,-0.1127232
0.8257996,0.02372422,-0.4723616,0.4430775,-0.3658449,-0.08615274
0.7952083,0.04569854,-0.3818322,0.3697135,-0.3010711,-0.02076914
0.7941923,0.09066211,-0.3468869,0.2472549,-0.3658203,0.1750598
0.7996476,0.09678186,-0.3613189,0.1392876,-0.4024852,0.3447571
0.87434,0.00233742,-0.3896778,0.07770586,-0.4668766,0.4329934
1.003156,-0.1256772,-0.4211939,0.1619333,-0.5784852,0.4063691
1.093744,-0.216503,-0.4385689,0.2540696,-0.6857598,0.2396499
1.16313,-0.1407818,-0.4658097,0.08956047,-0.7029321,0.0354732
1.284496,-0.04526548,-0.5314194,-0.03994261,-0.6611508,-0.07963382
1.36702,-0.1429359,-0.6776378,0.002117396,-0.5246068,-0.05671884
1.385259,-0.2261881,-0.8000888,0.05044692,-0.1131779,-0.09237635
1.419579,-0.238774,-0.7800735,0.1083057,0.4384563,-0.1499249
1.265087,-0.2561299,-0.821895,0.09089948,0.8576421,-0.1374888
0.9904523,-0.2427523,-0.921872,-0.2114287,1.307056,-0.2263847
0.8786692,-0.339186,-0.7517311,-0.6163051,1.601328,-0.1798448
0.7631289,-0.4697731,-0.4716889,-0.6310319,1.469621,0.05303047
0.7290847,-0.4508608,-0.4103578,-0.4607884,1.52545,0.2231004
0.9197358,-0.3523452,-0.3883689,-0.4787626,1.685034,0.3789463
1.029513,-0.2348049,-0.3232363,-0.4090744,1.424071,0.4159019
1.035373,-0.1709156,-0.3768713,-0.3363321,1.184298,0.3560092
1.021856,-0.1406988,-0.4622206,-0.5438878,1.081519,0.2641763
0.9383654,-0.1209456,-0.4827086,-0.7895251,0.9318038,0.09397448
0.8130748,-0.1866836,-0.4306072,-0.8598458,0.7980589,0.09200858
0.6714043,-0.2480152,-0.3196538,-0.7738711,0.6908859,0.2502367
0.6206139,-0.2864633,-0.2413541,-0.6901999,0.7090333,0.4751172
0.6250337,-0.3137572,-0.18838,-0.646342,0.6317643,0.7528173
0.6241037,-0.2963473,-0.1327034,-0.5204278,0.4412976,0.8583372
0.6787942,-0.3070697,-0.100447,-0.4116983,0.3510698,0.8368399
0.6969976,-0.3068714,-0.09143371,-0.354099,0.1806295,0.7695013
0.6891039,-0.3094267,-0.08083899,-0.3046366,-0.02250255,0.5742802
0.7024132,-0.3478349,-0.0387567,-0.2721398,-0.2946257,0.3008651
0.7213906,-0.3434272,0.003840436,-0.2125824,-0.62663,-0.01867082
0.8097928,-0.3529737,0.007714844,-0.2216461,-0.6478482,-0.2701061
0.9465848,-0.3664689,-0.07919992,-0.2299885,-0.4810992,-0.2998344
1.078092,-0.3374794,-0.2667,-0.1156177,-0.3021893,-0.2220859
1.143906,-0.3276221,-0.3710471,0.005710636,-0.1756439,-0.1396434
1.252697,-0.3440331,-0.2833206,0.09772168,-0.2834359,0.02447953
1.478004,-0.4036019,-0.2321758,0.1453772,-0.2340291,0.1534482
1.533098,-0.4608246,-0.3908238,0.1945099,0.3946153,0.1231664
1.39384,-0.4480679,-0.4990308,0.231355,0.9102467,0.005497226
1.184588,-0.4558587,-0.3958698,0.2714887,0.3485678,-0.07778499
0.9619923,-0.5463978,-0.3567085,0.5012369,-0.5224737,0.1567936
0.9677521,-0.5912122,-0.5049821,0.6435731,-0.4957243,0.4452354
0.9870157,-0.467185,-0.6585467,0.5267108,-0.1984887,0.2563175
0.7957339,-0.2886965,-0.6726486,0.3635049,-0.1631648,0.0695145
0.7538108,-0.1920528,-0.5623247,0.09909812,-0.1383519,0.1024199
0.808081,-0.1601816,-0.4312425,-0.1417816,-0.2874726,-0.1418011
0.7525109,-0.2036258,-0.3377817,-0.2782655,-0.6337931,-0.5235948
0.7583313,-0.3098601,-0.3102647,-0.387614,-1.252197,-0.8466519
0.8042365,-0.3845703,-0.3324359,-0.3012103,-1.605544,-1.074585
0.8422817,-0.3918118,-0.3679611,-0.1272367,-1.134203,-1.063679
0.8437864,-0.3220926,-0.4227974,0.05235015,-0.7593415,-1.018379
0.7798356,-0.2158137,-0.4529491,0.2741976,-0.5477848,-0.9592711
0.7631922,-0.174703,-0.4352632,0.3029984,-0.1666839,-0.7360605
0.7476185,-0.1464398,-0.4075145,0.3032552,-0.2239364,-0.4773127
0.7562341,-0.07683696,-0.3737006,0.4459603,-0.4385268,-0.2878886
0.8020101,-0.05387676,-0.3595986,0.4717097,-0.5826946,-0.184849
0.8025149,-0.06486626,-0.3831817,0.4673036,-0.7675561,-0.09888349
0.8395785,-0.05386772,-0.4004539,0.4696734,-0.6256365,-0.02403653
0.8531969,-0.0148791,-0.4068847,0.3696286,-0.4385507,0.03611335
0.8566881,0.03495032,-0.4045301,0.3484806,-0.4413619,0.1629199
0.9025618,0.05603052,-0.3842671,0.2880946,-0.3341206,0.2549737
0.88359,0.04872428,-0.3854235,0.1191226,-0.2868788,0.3146947
0.9072448,-0.01765026,-0.3936821,0.06308192,-0.3900463,0.3923131
0.9750076,-0.1221855,-0.3943662,0.07627414,-0.4393234,0.3653422
1.011592,-0.1509064,-0.4243757,0.09639766,-0.5501668,0.2629222
1.145338,-0.1156727,-0.4840814,0.07500386,-0.6316666,0.1313861
1.307125,-0.1210264,-0.5678343,-0.006921467,-0.5525237,0.009787693
1.315825,-0.1795718,-0.6269732,-0.06814714,-0.4842074,-0.02890215
1.272707,-0.2136127,-0.6692816,-0.04850028,-0.2071052,-0.07241819
1.288177,-0.1881384,-0.7323153,0.1234642,0.2986863,-0.1201958
1.156848,-0.1751766,-0.7461569,0.200978,0.6839801,-0.1091539
0.9317129,-0.2728363,-0.7310295,-0.08895539,1.018238,-0.1088982
0.8701766,-0.4289707,-0.6216375,-0.495187,1.271694,-0.1260528
0.8306224,-0.4803948,-0.4168395,-0.599677,1.334405,-0.1171448
0.8071277,-0.4202379,-0.4112617,-0.4739223,1.44005,-0.04828636
0.8652038,-0.3658201,-0.4629586,-0.4654793,1.607589,0.09960657
0.8662403,-0.333041,-0.3856458,-0.426206,1.630457,0.2461384
0.9138031,-0.2137218,-0.4278362,-0.2911294,1.500184,0.3400922
0.9887828,-0.04726238,-0.48933,-0.3204029,1.277017,0.3860815
0.9425807,-0.04122292,-0.474622,-0.5133423,1.026173,0.3800949
0.8534616,-0.1515616,-0.4714786,-0.7896435,0.7873053,0.3563588
0.7507026,-0.2276315,-0.3704818,-0.8648171,0.5452405,0.3563112
0.6861717,-0.2856107,-0.2921148,-0.7123884,0.4116513,0.4572872
0.6944194,-0.3029004,-0.2756517,-0.6520659,0.3774772,0.6515605
0.6677892,-0.3196201,-0.1979123,-0.5543998,0.3695938,0.7715353
0.6620536,-0.3750133,-0.160037,-0.432059,0.4062706,0.7727662
0.7292516,-0.3564554,-0.1361693,-0.4002101,0.3471344,0.6967782
0.7512493,-0.3417011,-0.09935344,-0.3003477,0.187878,0.5243724
0.7492598,-0.3897044,-0.1141861,-0.1952425,-0.06653491,0.2794846
0.7598358,-0.3783375,-0.09871467,-0.114177,-0.4125321,-0.008635972
0.7550876,-0.3502318,-0.0483773,-0.0601459,-0.5622217,-0.2398736
0.7992616,-0.3219532,-0.04362679,-0.0899316,-0.5195221,-0.2681802
0.8823778,-0.2936907,-0.0904873,-0.07928237,-0.4030776,-0.196486
0.9833285,-0.2947919,-0.1948414,-0.0171466,-0.2475069,-0.1695426
1.068868,-0.2584909,-0.3049968,0.07119922,-0.2531146,-0.1021268
1.110664,-0.2581086,-0.2729874,0.2085498,-0.3512192,-0.01153044
1.246019,-0.2759425,-0.1524865,0.260059,-0.3313468,-0.02023612
1.37057,-0.2572382,-0.1267565,0.1223863,-0.0436565,-0.0468334
1.308251,-0.3043921,-0.2073206,-0.06078008,0.484206,-0.01765617
1.186786,-0.3428596,-0.3161897,-0.02121216,0.6323985,0.04900438
1.066347,-0.371652,-0.3293945,0.1529845,0.0001830818,0.1680975
1.023205,-0.4774077,-0.319211,0.2141272,-0.694925,0.2969297
1.083851,-0.5428772,-0.4650659,0.3773174,-0.6896618,0.3692567
1.043013,-0.4713769,-0.6611178,0.575964,-0.3697179,0.2813419
0.906799,-0.2976403,-0.7547099,0.3165308,-0.2549811,0.116579
0.7933724,-0.1382552,-0.6220296,-0.11055,-0.1757056,0.08635945
0.7547265,-0.09908898,-0.3801714,-0.3374006,-0.1612086,-0.05869154
0.7867468,-0.1939926,-0.285833,-0.6146626,-0.4560652,-0.4434644
0.7600217,-0.3092849,-0.2165557,-0.6803779,-0.9880779,-0.7338285
0.7919788,-0.3703995,-0.205323,-0.3240243,-1.353669,-0.876285
0.9421643,-0.4110796,-0.3470231,0.05219836,-1.16513,-1.00503
0.9812538,-0.3894631,-0.4518558,0.3393688,-0.6532965,-1.148369
0.8941437,-0.3234876,-0.4779177,0.4353883,-0.1367586,-1.168557
0.746086,-0.2233999,-0.418715,0.4091557,0.1069982,-0.9421236
0.6776392,-0.1117114,-0.3667357,0.5770679,-0.1489831,-0.6216185
0.7398537,-0.07530688,-0.371909,0.7274897,-0.3082071,-0.3341849
0.7569789,-0.02896385,-0.3484014,0.7744878,-0.3092957,-0.1315191
0.7969229,-0.003977469,-0.3716813,0.8182299,-0.5572459,-0.0259868
0.8641794,-0.004863107,-0.3839443,0.7511742,-0.5865013,0.02057876
0.8744405,0.05747475,-0.3771168,0.6217174,-0.417427,0.02731329
0.8814306,0.08941362,-0.3870505,0.4162146,-0.350975,0.08462823
0.8647286,0.1284223,-0.353866,0.1655799,-0.377029,0.201445
0.8617844,0.1465923,-0.379599,0.003866665,-0.4992705,0.3320457
0.8635403,0.10928,-0.3959508,-0.08724142,-0.4711159,0.4392353
0.8796326,0.05470438,-0.3663574,-0.1313382,-0.571386,0.4845457
0.9701285,-0.1146489,-0.3865473,-0.08738164,-0.8016235,0.475169
1.078028,-0.1903572,-0.4172707,0.04646643,-0.7213327,0.3582698
1.226958,-0.1444192,-0.4884425,0.07358356,-0.5634354,0.218525
1.329451,-0.2181286,-0.5432462,0.0242117,-0.4040404,0.166271
1.30558,-0.2774944,-0.5846864,0.103743,-0.3540575,0.1340935
1.29669,-0.2729918,-0.6956179,0.2261495,-0.3061864,0.06976001
1.253053,-0.2197623,-0.7724863,0.3342971,0.1594373,-0.01847951
1.074398,-0.1545155,-0.8079682,0.2425691,0.6959297,-0.03280317
0.8866883,-0.2942967,-0.7687449,-0.1071599,1.08746,-0.02946492
0.8106056,-0.4908824,-0.59369,-0.395844,1.283779,-0.0632417
0.823987,-0.5005553,-0.4435776,-0.4655815,1.349368,-0.0134294
0.8891636,-0.4073228,-0.419308,-0.2515493,1.693295,0.05325611
0.9998329,-0.2783136,-0.4388492,-0.03551164,1.972838,0.1405856
1.035576,-0.1072193,-0.4208912,-0.03518584,1.898721,0.1998594
0.9199259,0.01718653,-0.4316644,-0.07388556,1.595239,0.1418723
0.7985175,0.0276252,-0.4797603,-0.3183494,1.062699,0.1520259
0.7636397,-0.0148547,-0.4353668,-0.7209851,0.7238393,0.1780378
0.7312297,-0.1070462,-0.357266,-0.9333579,0.5805079,0.2178365
0.6724418,-0.2486609,-0.2967239,-0.8860944,0.3585422,0.3903837
0.6679449,-0.3007251,-0.2071168,-0.736083,0.3776695,0.563726
0.7012541,-0.2962695,-0.1344204,-0.6476278,0.4555319,0.754841
0.6994629,-0.3437106,-0.07288457,-0.527313,0.3463179,0.8948021
0.7020377,-0.3407558,-0.07575762,-0.461133,0.2966398,0.8489735
0.7196102,-0.3250044,-0.1166031,-0.4025561,0.1145438,0.7042428
0.7258901,-0.3852376,-0.07931646,-0.1980333,-0.1853261,0.4606179
0.7461415,-0.3891889,-0.07672233,-0.1066445,-0.3596572,0.1826667
0.7783434,-0.3361381,-0.08869432,-0.08161878,-0.5113425,-0.04713713
0.8561337,-0.2959658,-0.08725136,-0.1338481,-0.5139517,-0.2363397
0.9906395,-0.2594731,-0.1917262,-0.2730449,-0.3416509,-0.2551052
1.105339,-0.2244533,-0.2984869,-0.2280964,-0.1545453,-0.1569865
1.190227,-0.155933,-0.3424953,-0.1544851,-0.0909108,-0.06659525
1.253124,-0.1420044,-0.330112,-0.02582527,-0.3006642,0.09153493
1.299209,-0.2047804,-0.3046944,0.09684038,-0.4096394,0.1597264
1.38513,-0.2785597,-0.3427412,-0.1222302,-0.08732956,0.173878
1.424658,-0.3825462,-0.3413573,-0.311705,0.43893,0.356419
1.264172,-0.4246663,-0.3419771,-0.1524737,0.6109613,0.4107128
1.032631,-0.5232961,-0.3773341,0.1189328,-0.04084409,0.4099386
0.9533504,-0.7044649,-0.3752304,0.3628941,-0.7153308,0.5489176
0.9931048,-0.6378091,-0.4597136,0.4795451,-0.5017674,0.4288176
0.9758996,-0.4975316,-0.5643928,0.3479106,-0.147558,0.2081297
0.8551607,-0.4086212,-0.5345367,0.1443307,-0.1063754,0.1450488
0.7785288,-0.1828339,-0.4503815,-0.07664847,0.02868347,0.02499213
0.777171,-0.106029,-0.3652756,-0.3909928,-0.1307088,-0.137167
0.7677478,-0.1729341,-0.2872195,-0.5251654,-0.6735678,-0.364291
0.8070961,-0.167895,-0.2773183,-0.5361557,-1.165787,-0.595509
0.8900673,-0.2423872,-0.343039,-0.5376123,-1.411634,-0.6883344
0.9424941,-0.2614575,-0.4145237,-0.3958834,-1.00338,-0.7322856
0.9221343,-0.1917689,-0.4739842,-0.3571905,-0.5105542,-0.741892
0.8230178,-0.1742955,-0.4840713,-0.3989031,-0.5316477,-0.7143754
0.7327916,-0.1237033,-0.4205186,-0.363207,-0.5473461,-0.5296131
0.707598,-0.128429,-0.3801309,-0.2496449,-0.5703263,-0.2052828
0.7574018,-0.1507805,-0.3761041,0.01238133,-0.5445029,-0.09663877
0.7882983,-0.110197,-0.3771076,0.1974547,-0.4660363,-0.1461354
0.7536415,-0.1238437,-0.3782361,0.3004494,-0.6036555,-0.1184993
0.7682263,-0.1162873,-0.3867282,0.3792244,-0.6123417,-0.06552274
0.813743,-0.06338222,-0.4307875,0.3391016,-0.5363958,0.01981261
0.8671012,0.005347354,-0.454272,0.3426654,-0.4494055,0.142076
0.9155953,0.06214892,-0.4478709,0.3355018,-0.3367461,0.2198855
0.9305951,0.006156692,-0.4488905,0.3003653,-0.3341525,0.2706875
0.9802284,-0.06116019,-0.4615815,0.3480714,-0.2796813,0.2699857
1.001287,-0.1266525,-0.4865927,0.4351575,-0.3532605,0.07517482
1.036197,-0.2306889,-0.4944563,0.5409857,-0.4404853,-0.2161931
1.187694,-0.2267354,-0.531411,0.4830969,-0.2858065,-0.3390545
1.28681,-0.1925424,-0.633237,0.3433832,-0.1192851,-0.3284734
1.273549,-0.2078853,-0.7361593,0.3553464,0.07374251,-0.3311539
1.213588,-0.1262653,-0.7980087,0.3138809,0.3683957,-0.3286003
1.120591,-0.06377321,-0.8262131,0.09244353,0.9483115,-0.327875
1.044176,-0.2191496,-0.7648184,-0.189371,1.686621,-0.3567512
0.9524438,-0.4200759,-0.5495813,-0.3335358,1.848559,-0.3475179
0.8453021,-0.4640919,-0.3696729,-0.326061,1.498911,-0.2271541
0.8670565,-0.4317023,-0.3405712,-0.3267321,1.382447,-0.0006485825
0.9754384,-0.3804772,-0.3260912,-0.1768993,1.466032,0.1949137
0.985447,-0.2466489,-0.3273115,0.06825441,1.295101,0.286312
0.9397852,-0.1276474,-0.3800001,0.09992521,1.059889,0.3507788
0.8712951,-0.1101244,-0.4278061,-0.1308855,0.9579403,0.3486519
0.7568788,-0.1086255,-0.3909286,-0.4876078,0.749412,0.3094262
0.709175,-0.1268129,-0.2981944,-0.5714046,0.4477411,0.3465243
0.6829181,-0.185503,-0.2605685,-0.4629082,0.2174161,0.4491337
0.6590634,-0.2644222,-0.2180974,-0.4763319,0.1034408,0.6508636
0.7242307,-0.3502675,-0.1685128,-0.3838146,0.1482822,0.810871
0.7909589,-0.3712312,-0.1376873,-0.2795702,0.3122066,0.7781079
0.8106172,-0.3626098,-0.0766049,-0.2524016,0.4146422,0.6772432
0.7917253,-0.3753296,-0.0580786,-0.1455325,0.3104155,0.4843617
0.7685701,-0.3694804,-0.05824576,-0.06070449,0.01975646,0.1896211
0.7462533,-0.3547699,-0.02508542,0.03188271,-0.3617926,-0.06312709
0.7009885,-0.3374241,-0.001212404,0.05637805,-0.6787179,-0.2195118
0.7630113,-0.3327963,-0.01208036,-0.009384923,-0.7662656,-0.2364018
0.9042286,-0.3402685,-0.08786165,0.01624189,-0.6423422,-0.1748889
1.038731,-0.3290133,-0.2121733,0.1238316,-0.5062263,-0.125955
1.218304,-0.3191462,-0.3100337,0.3145739,-0.4305056,-0.09020504
1.328091,-0.314843,-0.2269939,0.3721869,-0.3567272,-0.057014
1.343261,-0.3221252,-0.1066795,0.1496109,-0.1680149,-0.009866731
1.368004,-0.3567463,-0.2269781,0.01368641,0.3185191,-0.01185923
1.30157,-0.4091905,-0.3459981,0.1700073,0.6498812,-0.03346458
1.093535,-0.471247,-0.3551658,0.3923663,0.1130031,0.03687538
0.9424744,-0.5262907,-0.3858565,0.5079274,-0.7449908,0.1989364
0.9985974,-0.5487954,-0.4303975,0.7052432,-0.8904234,0.3579266
1.055387,-0.5040728,-0.6368076,0.9000684,-0.5461685,0.2916712
0.9168907,-0.3848018,-0.7921484,0.6748421,-0.3660438,0.1023132
0.8032545,-0.2378439,-0.6304247,0.3149714,-0.2833947,0.03510005
0.7974109,-0.1697489,-0.4702262,0.1923486,-0.2125139,-0.1357924
0.7708017,-0.2092901,-0.4061826,0.01442421,-0.3462523,-0.484365
0.7788944,-0.2527597,-0.3106197,-0.1426363,-0.7706959,-0.8383762
0.8148426,-0.3116615,-0.2866939,0.002234326,-1.17057,-1.075456
0.878671,-0.3559906,-0.3619855,0.1888451,-1.103737,-1.098033
0.9271447,-0.3005865,-0.4373755,0.3687223,-0.8256316,-1.101113
0.8373773,-0.2478857,-0.4800274,0.5342356,-0.6207298,-1.088172
0.7601346,-0.1800956,-0.4809603,0.4553408,-0.3538783,-0.9065369
0.7591823,-0.1012551,-0.4127246,0.4430391,-0.2415921,-0.6262527
0.7620476,-0.1136587,-0.3485927,0.606248,-0.3585724,-0.3081435
0.7976989,-0.1182864,-0.3459166,0.7066161,-0.4328265,-0.1826814
0.8308273,-0.1134709,-0.370966,0.7968735,-0.488888,-0.2009204
0.8492832,-0.1022347,-0.3939684,0.7100312,-0.5259235,-0.1495554
0.8687646,-0.03183944,-0.3917102,0.5531594,-0.4427172,-0.1498861
0.8873218,0.0210122,-0.3945161,0.5459184,-0.3598528,-0.1024533
0.8702384,0.08359164,-0.4038121,0.4002927,-0.346446,0.02945497
0.8231363,0.1430339,-0.4208868,0.2087093,-0.4093015,0.1763547
0.8213331,0.1453946,-0.4535554,0.09874018,-0.4957057,0.3666241
0.8616841,0.07504161,-0.4467212,-0.01155542,-0.4784694,0.4692114
0.9636375,-0.09206966,-0.4413876,0.04223596,-0.5056486,0.4954003
1.069125,-0.1722515,-0.4638979,0.09875728,-0.5908093,0.3983309
1.125257,-0.125121,-0.4741072,0.01477353,-0.5275252,0.1971265
1.211932,-0.1370658,-0.5051241,-0.04569137,-0.4388005,0.1078674
1.257317,-0.1866031,-0.5924497,-0.1250247,-0.3027632,0.05614427
1.265764,-0.2200773,-0.6793875,-0.1622241,0.03507587,0.007831222
1.279889,-0.2646838,-0.68712,-0.04306531,0.3068528,-0.01552464
1.143436,-0.2857839,-0.7644152,0.01159507,0.5102713,-0.08320163
0.9465392,-0.3460044,-0.8935434,-0.1586426,1.006614,-0.1694794
0.8807417,-0.5208686,-0.7091658,-0.3575878,1.535357,-0.2076763
0.8221245,-0.5895812,-0.4173201,-0.3572995,1.653187,-0.101364
0.7790478,-0.4633345,-0.3928358,-0.2321905,1.66527,0.08173596
0.911388,-0.3513229,-0.3767272,-0.09402065,1.826943,0.2832128
1.012822,-0.2346718,-0.3160314,0.09963063,1.7607,0.4640412
0.9531745,-0.1197331,-0.3551667,0.1554281,1.366867,0.4614752
0.9041538,-0.09688664,-0.3672167,-0.1587557,0.9018438,0.3498139
0.8540342,-0.08617896,-0.3751888,-0.6296776,0.4820653,0.2009971
0.7908036,-0.135443,-0.3563029,-0.8442683,0.2385034,0.1004622
0.7608347,-0.2421561,-0.2720604,-0.70939,0.1478398,0.2119054
0.7306225,-0.3033027,-0.2508701,-0.5602313,0.1882983,0.4063395
0.7369965,-0.3384503,-0.2067081,-0.4761876,0.3969526,0.6309387
0.7499795,-0.3420944,-0.114696,-0.3158319,0.505697,0.8109761
0.7385499,-0.3377856,-0.09059208,-0.2474803,0.4526464,0.7732577
0.7481086,-0.3560163,-0.1027495,-0.1762196,0.374774,0.6645956
0.7504062,-0.3711112,-0.1014872,-0.02136466,0.2468342,0.4930478
0.7559021,-0.3819078,-0.05167292,0.02709043,-0.02780939,0.188207
0.7856904,-0.387803,-0.009810887,0.09572812,-0.4156519,-0.06730541
0.7994459,-0.3845162,-0.03730146,0.1118237,-0.639613,-0.2919161
0.8344002,-0.3480715,-0.09462821,-0.005231724,-0.6943966,-0.4295458
0.9669341,-0.2963966,-0.1916844,-0.0737667,-0.5058161,-0.2696716
1.138283,-0.2769935,-0.2669427,-0.09314288,-0.1231835,-0.1033714
1.189439,-0.279916,-0.2326449,0.04451026,-0.08845138,-0.1314728
1.167775,-0.3032221,-0.1534919,0.1872455,-0.184334,-0.08925646
1.273933,-0.3650192,-0.1392915,0.122659,-0.0899947,-0.01767201
1.366278,-0.438595,-0.2673991,0.1263819,0.06318006,-0.02296589
1.206914,-0.4638561,-0.4350025,0.219661,0.2015975,0.03403473
1.040716,-0.4906248,-0.4551022,0.2925461,-0.06348461,0.1624351
1.073626,-0.5360142,-0.4748834,0.4514691,-0.3844262,0.3324104
1.04243,-0.4613672,-0.5988938,0.5735164,-0.1805082,0.4099324
0.8763687,-0.318583,-0.6140746,0.4070887,-0.06170061,0.2773951
0.77782,-0.200912,-0.5789399,0.1160588,-0.2372334,0.1419091
0.7540525,-0.08714834,-0.5581076,-0.06545752,-0.3047579,0.02268643
0.7647902,-0.07888346,-0.4535929,-0.365655,-0.535547,-0.2508809
0.7703852,-0.17297,-0.38631,-0.6033876,-0.9771781,-0.5870251
0.7675863,-0.279791,-0.347382,-0.4277224,-1.180091,-0.8535954
0.8322898,-0.3836858,-0.3349145,-0.1878866,-1.158,-0.9538998
0.865032,-0.4312689,-0.4082167,0.03394806,-0.9175628,-0.9131459
0.8374453,-0.387577,-0.4525233,0.2754367,-0.4282723,-0.8701062
0.8117409,-0.2730987,-0.4853387,0.3207283,-0.1030599,-0.7106239
0.7619591,-0.1837423,-0.4918071,0.3970535,-0.04215286,-0.4341427
0.7650041,-0.1218918,-0.4537933,0.4880546,-0.07918388,-0.290705
0.7987054,-0.05324787,-0.4243962,0.4163189,-0.2758718,-0.2296132
0.8025057,-0.04996664,-0.3882834,0.4232676,-0.5976698,-0.1087863
0.8265403,-0.04422005,-0.4235956,0.4387383,-0.7987933,-0.04222499
0.8590694,-0.02210408,-0.463407,0.3805693,-0.6928795,-0.06555642
0.8895122,-0.01929327,-0.4369514,0.3232627,-0.4566349,-0.03388909
0.8828689,0.009302673,-0.4380258,0.1864257,-0.2936885,0.04492394
0.8692867,0.003040274,-0.4196831,0.1355096,-0.2231424,0.1414829
0.897285,-2.998568e-05,-0.3875567,0.1558262,-0.2837121,0.297182
0.8977475,0.007775664,-0.4075963,0.09366239,-0.3556568,0.3965057
0.9149036,-0.03745314,-0.4604353,0.0932455,-0.4352465,0.4081214
0.9985597,-0.06484258,-0.53763,0.08765952,-0.5081156,0.3245924
1.082617,-0.06770827,-0.5753932,-0.03877777,-0.4363772,0.1168278
1.136738,-0.06705363,-0.5204995,-0.168515,-0.4306887,-0.02716309
1.185949,-0.09511144,-0.4915297,-0.1995653,-0.3706615,-0.04213238
1.22556,-0.15608,-0.5950612,-0.1247387,-0.04356315,0.01209614
1.208318,-0.2049174,-0.6855901,0.04192899,0.2800354,0.06701906
1.167355,-0.2598196,-0.6767127,0.2139054,0.541866,0.04599552
1.070376,-0.2723863,-0.7205049,0.05793576,0.8144872,0.01650628
0.9077844,-0.3274207,-0.7728441,-0.2794557,1.194091,-0.04145124
0.8275828,-0.5074954,-0.651332,-0.2955717,1.468262,-0.1066595
0.7960255,-0.5712714,-0.4928308,-0.2330946,1.533801,-0.06315773
0.8144352,-0.4865254,-0.4600503,-0.2187664,1.890653,0.03469118
0.9280434,-0.4161922,-0.4099573,-0.0398503,2.049379,0.1382772
0.9757452,-0.3154183,-0.3454527,0.1249705,1.62332,0.1934245
0.9662799,-0.2153515,-0.3789713,0.1781364,1.260928,0.1341359
0.9250628,-0.16994,-0.3862553,-0.05410795,0.8474758,0.03753799
0.8269481,-0.1335018,-0.3542563,-0.4902358,0.4052897,-0.02131665
0.7805039,-0.1721036,-0.320383,-0.5897146,0.2076842,-0.01762733
0.72526,-0.2488292,-0.23479,-0.422429,0.05485628,0.1630182
0.6619702,-0.2717905,-0.2124071,-0.3066871,0.09059283,0.5119144
0.7068889,-0.3039633,-0.2410925,-0.2692673,0.2295706,0.7599598
0.7616337,-0.3176538,-0.2060012,-0.2687006,0.3750491,0.8121371
0.7825874,-0.304279,-0.179093,-0.245576,0.5642222,0.7637418
0.8039477,-0.3245199,-0.1455542,-0.2237959,0.5148687,0.6050429
0.7832862,-0.3386736,-0.06042956,-0.1852233,0.2158732,0.3160028
0.7660128,-0.3502113,-0.01341912,-0.1593893,-0.3147741,-0.006724778
0.7978184,-0.3543288,-0.01861855,-0.1768431,-0.6932801,-0.217609
0.8545746,-0.3240729,-0.05463173,-0.1808207,-0.6310984,-0.2893849
0.9531986,-0.282226,-0.1538798,-0.1871038,-0.5961068,-0.2194699
1.050181,-0.24866,-0.2662093,-0.1380239,-0.4993132,-0.09858477
1.10482,-0.2542663,-0.2776212,-0.06053744,-0.3353156,-0.05081707
1.208967,-0.2657284,-0.2146991,-0.06240484,-0.3528901,0.0140767
1.339996,-0.2768367,-0.2007834,-0.09768138,-0.07674928,-0.02173321
1.381738,-0.3373561,-0.2386687,-0.1632082,0.6016903,-0.1694389
1.307438,-0.3913556,-0.2689834,-0.2659068,0.999284,-0.1839696
1.097656,-0.4048199,-0.2811755,-0.2500821,0.57624,-0.1931692
0.9152848,-0.4589897,-0.3125753,-0.0374893,-0.1793533,-0.08556637
0.9620568,-0.5561419,-0.3939768,0.1922458,-0.5837497,0.2547416
1.012159,-0.5558558,-0.5091783,0.4224013,-0.6392513,0.4042507
0.8879274,-0.4532504,-0.6412011,0.6030339,-0.3543271,0.3314015
0.7908953,-0.3179913,-0.6662099,0.3776256,-0.1767111,0.2387621
0.7587084,-0.148316,-0.5539292,-0.004575093,-0.3628809,0.09684844
0.7635688,-0.1024504,-0.47887,-0.2245735,-0.4734334,-0.148258
0.8312787,-0.1804282,-0.4076996,-0.525069,-0.7071924,-0.5110305
0.8571562,-0.2242645,-0.365994,-0.6201714,-1.091752,-0.7906564
0.9057248,-0.3059901,-0.4383924,-0.319704,-1.14622,-0.8558585
0.9425255,-0.3505612,-0.4574936,-0.06278465,-0.8578893,-0.856241
0.8731106,-0.2970439,-0.4706236,0.02377691,-0.4730379,-0.8720681
0.84779,-0.281597,-0.4935599,0.04026137,-0.1819097,-0.7649028
0.7971202,-0.2303725,-0.4408759,0.174903,0.00195464,-0.5152662
0.7675891,-0.139815,-0.4201384,0.4362291,-0.04485696,-0.2990176
0.8229463,-0.1035054,-0.3682073,0.580149,-0.2599164,-0.1450464
0.7766022,-0.08195473,-0.3498853,0.6214574,-0.3746037,-0.09769372
0.7832777,-0.08305729,-0.4129511,0.5649336,-0.4600733,-0.1251066
0.8196265,-0.06117911,-0.3925801,0.4628292,-0.405948,-0.09076934
0.7858124,0.001065098,-0.3930792,0.4057329,-0.3260707,-0.07616351
0.8376349,0.03168419,-0.3957555,0.3174547,-0.4490245,-0.01715997
0.8559535,0.06680333,-0.3686284,0.2848663,-0.4644831,0.1446218
0.8783489,0.0906438,-0.4288867,0.2541782,-0.4374045,0.2881877
0.9395109,0.07053019,-0.468768,0.112683,-0.4932549,0.4274301
0.9158567,0.01510348,-0.4729006,0.04074292,-0.5183937,0.4863711
0.9546792,-0.0936219,-0.4822143,0.1126723,-0.5729685,0.4153464
1.051581,-0.1361852,-0.5003028,0.1685741,-0.5537729,0.2728873
1.152714,-0.1048803,-0.5372102,0.07993541,-0.4823899,0.0541841
1.252753,-0.1568706,-0.5380271,-0.01206194,-0.3849564,-0.08125017
1.247388,-0.2216003,-0.5997265,0.01788465,-0.1075349,-0.0591249
1.219944,-0.2182222,-0.7070135,0.1271614,0.3516307,-0.08762609
1.178414,-0.2266182,-0.7118493,0.2281142,0.8644582,-0.1507948
1.021405,-0.2422344,-0.6989395,0.04421411,1.189829,-0.1359397
0.8276978,-0.2689703,-0.7092647,-0.3443061,1.337351,-0.1368318
0.722789,-0.3886062,-0.6081537,-0.5459757,1.422717,-0.08347019
0.7566511,-0.5035856,-0.4509164,-0.5547695,1.520159,0.04107507
0.8625828,-0.4651807,-0.4020705,-0.4367026,1.683496,0.1222891
1.000298,-0.3731776,-0.3649836,-0.2430788,1.622841,0.2140712
1.113487,-0.2970172,-0.3279553,-0.0746734,1.426692,0.209847
1.069633,-0.2016323,-0.4121582,-0.03953919,1.262272,0.09945052
0.9761405,-0.1635428,-0.449263,-0.2856272,0.9271217,0.002254206
0.8958661,-0.16279,-0.3932638,-0.5601984,0.6514482,-0.08319496
0.7512447,-0.1621448,-0.3602496,-0.5902562,0.5135829,0.08162429
0.6692242,-0.2106343,-0.3157577,-0.5696318,0.4180995,0.444799
0.6527361,-0.2478895,-0.2655474,-0.593962,0.4424301,0.7134671
0.6753125,-0.2645783,-0.1843751,-0.5195127,0.4327938,0.9253959
0.7548265,-0.2624132,-0.1086652,-0.3584023,0.3935342,0.9839029
0.755498,-0.2400672,-0.1192329,-0.2808633,0.2915153,0.9025481
0.7558436,-0.3050906,-0.09942785,-0.2725043,0.03737766,0.8235993
0.7850227,-0.3901999,-0.03969866,-0.2190176,-0.2349376,0.5875371
0.7670813,-0.4075663,-0.03140882,-0.1632281,-0.5065297,0.2494872
0.8003154,-0.4002196,-0.04801475,-0.1346581,-0.687567,0.00728158
0.8576384,-0.3633878,-0.09344412,-0.1072982,-0.6760307,-0.1112088
0.9629771,-0.3280078,-0.1918641,-0.07385997,-0.516781,-0.1108473
1.121131,-0.3096731,-0.2708047,-0.03417232,-0.2613276,-0.0955405
1.190306,-0.3143302,-0.2463943,0.03760873,-0.07845731,-0.08018758
1.257591,-0.3262518,-0.1907758,0.1542175,-0.1344093,-0.04545977
1.370912,-0.30474,-0.182297,0.2115476,-0.128715,-0.06818448
1.34842,-0.3157331,-0.1988162,0.149392,0.3375352,-0.09595395
1.12698,-0.3683406,-0.2789075,0.05730113,0.6799778,-0.08093945
0.9126322,-0.4477012,-0.3591621,0.04958525,0.2106903,-0.005548129
0.9113507,-0.5132884,-0.3561824,0.1606805,-0.5415868,0.1520998
0.9787406,-0.5068107,-0.4393075,0.3262851,-0.7931746,0.320188
0.936949,-0.5297987,-0.608863,0.4724538,-0.5859643,0.37006
0.9059661,-0.5196933,-0.6225907,0.5020175,-0.4116736,0.193486
0.8590515,-0.3488967,-0.5551848,0.318595,-0.3546337,0.005584051
0.7264194,-0.1450158,-0.5584703,0.02909494,-0.3407177,-0.05531821
0.7306178,-0.06607815,-0.5062165,-0.2270031,-0.484783,-0.248021
0.790995,-0.1448027,-0.4127394,-0.4159249,-0.7527043,-0.5420794
0.780844,-0.2354914,-0.3641811,-0.4069799,-1.12803,-0.7450145
0.8895831,-0.2961747,-0.3468451,-0.2247538,-1.275183,-0.8257121
0.970841,-0.3656214,-0.4121464,-0.04262532,-0.8488201,-0.8359264
0.9167878,-0.3293513,-0.4679407,0.09429233,-0.3937001,-0.85926
0.8593945,-0.2666436,-0.4858406,0.1893305,-0.2304882,-0.7203936
0.7894358,-0.2257506,-0.507912,0.3081454,-0.1036265,-0.4447688
0.7899324,-0.1537627,-0.4486349,0.3803657,-0.08438073,-0.2959385
0.8161201,-0.1438466,-0.4152857,0.4073703,-0.2421914,-0.2002656
0.7754409,-0.1285706,-0.4218223,0.5114039,-0.4895373,-0.1400782
0.7871922,-0.1123076,-0.4122314,0.5322677,-0.6294161,-0.1719699
0.8189583,-0.1191024,-0.4370182,0.4842049,-0.4707159,-0.2100724
0.8208517,-0.04733786,-0.4106355,0.4414182,-0.3149365,-0.2296623
0.828722,-0.0002519681,-0.3887085,0.342871,-0.3524382,-0.1574674
0.8222081,0.02637953,-0.3987516,0.3205334,-0.3553055,0.0210048
0.840698,0.06823426,-0.3965628,0.3246008,-0.3144125,0.2039053
0.8762205,0.04199138,-0.4326683,0.2450732,-0.3314062,0.3665856
0.8955745,-0.01596454,-0.430794,0.1830804,-0.4238809,0.4265682
0.9531152,-0.07096144,-0.4379562,0.1903191,-0.5565524,0.304229
1.057626,-0.07907956,-0.496457,0.1610267,-0.5732329,0.1084104
1.186373,-0.07773381,-0.5330909,0.01882693,-0.4971733,-0.05459466
1.277685,-0.1374973,-0.5877856,-0.08156476,-0.3981994,-0.1162102
1.285378,-0.2077988,-0.6621065,-0.06883314,-0.04870141,-0.07078381
1.265477,-0.2410725,-0.7423514,0.04553751,0.4764037,-0.08635375
1.173341,-0.2302482,-0.784957,0.1338277,0.8309695,-0.1511912
0.9926167,-0.2736332,-0.7597976,-0.1428094,1.169199,-0.1487434
0.888896,-0.4039764,-0.6577352,-0.4920217,1.549817,-0.1534818
0.8655085,-0.5115559,-0.4978851,-0.4455122,1.601325,-0.1168447
0.8362352,-0.4929978,-0.456994,-0.3543078,1.552885,-0.01394364
0.8852465,-0.3608465,-0.4453559,-0.3704522,1.707119,0.07454594
0.9855962,-0.2584765,-0.3460887,-0.2266947,1.587955,0.2047636
0.9989138,-0.1719534,-0.3634845,-0.1405302,1.311565,0.2854125
0.9403342,-0.1144808,-0.4331346,-0.2397044,1.266934,0.2829977
0.8547318,-0.148361,-0.4341403,-0.3688135,1.022473,0.3289561
0.7788682,-0.1841816,-0.4074743,-0.575252,0.6967191,0.3353046
0.7303401,-0.2685171,-0.3111511,-0.6777331,0.5560824,0.3550299
0.6846165,-0.3338937,-0.2361753,-0.593311,0.4002731,0.5241529
0.6890256,-0.306267,-0.2003734,-0.5457643,0.4119857,0.6938701
0.7265386,-0.3057118,-0.140491,-0.4471608,0.4460768,0.7812054
0.7533752,-0.2872914,-0.1345516,-0.3596668,0.3848294,0.766382
0.7792467,-0.2993217,-0.135578,-0.3958466,0.401428,0.6501528
0.7653865,-0.3447691,-0.09840576,-0.3580782,0.2541764,0.4939627
0.7539822,-0.321321,-0.05721572,-0.322293,-0.0451443,0.2752789
0.7717489,-0.3265177,-0.024653,-0.3228646,-0.3621316,0.08741017
0.7750866,-0.333465,-0.05542754,-0.2687101,-0.6124546,-0.02976862
0.7984419,-0.3208015,-0.1192052,-0.2609577,-0.6459832,-0.1036302
0.8542531,-0.3426032,-0.1684397,-0.2440199,-0.5493216,-0.04010029
0.9944564,-0.3779049,-0.1791498,-0.1594865,-0.3537432,0.02037529
1.188499,-0.4497904,-0.1631111,0.0006699461,-0.2531661,-0.01633046
1.236822,-0.4765892,-0.1823778,0.1995472,-0.4137548,-0.06556434
1.301937,-0.4494677,-0.1840057,0.2208216,-0.4016819,-0.1449638
1.524579,-0.4694039,-0.1955085,0.1631534,0.2214704,-0.1466249
1.480332,-0.4846518,-0.2578304,0.2242102,0.8220635,-0.07447299
1.145315,-0.4798072,-0.3046447,0.2717776,0.3248499,-0.006154026
0.9389416,-0.5057293,-0.3672638,0.3327985,-0.6085798,0.1746835
0.9211598,-0.5344976,-0.4033687,0.5659588,-0.8550183,0.3601134
0.970047,-0.5055143,-0.493553,0.7682234,-0.7211888,0.3393128
0.8765571,-0.4094978,-0.6991634,0.6645805,-0.4487895,0.1541087
0.7444286,-0.3118744,-0.6925918,0.4114326,-0.2335528,-0.03471669
0.7920952,-0.2397723,-0.5532525,0.1596474,-0.3285212,-0.1823257
0.7540828,-0.1423532,-0.520872,-0.1924283,-0.4490453,-0.3718609
0.7072021,-0.09047325,-0.4094291,-0.44743,-0.7145249,-0.5974838
0.7775972,-0.2048433,-0.3220903,-0.4317128,-1.122361,-0.7792046
0.793948,-0.3274644,-0.3473833,-0.2217074,-1.253537,-0.8654234
0.874388,-0.3322433,-0.3610801,0.1073504,-1.050544,-0.932501
0.8972813,-0.3127772,-0.4559446,0.2377322,-0.6805954,-0.9921727
0.8137302,-0.2475472,-0.5223827,0.2120985,-0.3824082,-0.8682186
0.8132,-0.1574758,-0.4800003,0.3061401,-0.2614253,-0.6487722
0.800878,-0.1120842,-0.4568246,0.3224794,-0.2899817,-0.4834429
0.8045387,-0.10303,-0.422818,0.3462639,-0.3720661,-0.3392932
0.8233688,-0.130708,-0.3929759,0.478254,-0.5413675,-0.2762143
0.8111938,-0.1287309,-0.3916925,0.5208209,-0.7501731,-0.2823782
0.8455248,-0.1096896,-0.4059528,0.5331794,-0.67365,-0.2734217
0.8684045,-0.08068796,-0.4379568,0.5091542,-0.4990619,-0.232907
0.8753343,-0.001841216,-0.4410823,0.4452186,-0.3902263,-0.1470023
0.8679827,0.04862087,-0.4248442,0.374974,-0.3091747,0.006832723
0.8534258,0.06041476,-0.4049202,0.2920197,-0.3416628,0.2172228
0.8975537,0.0230141,-0.4045097,0.2720546,-0.2892782,0.3723111
0.9506355,-0.04798325,-0.4222585,0.2488481,-0.3208089,0.3881938
1.021446,-0.0583382,-0.4383434,0.2250964,-0.4576248,0.2937711
1.135629,-0.02273786,-0.4859483,0.1068646,-0.4417042,0.1593349
1.235967,0.006671448,-0.5182597,-0.1544743,-0.4589912,0.04545055
1.277743,-0.03935804,-0.5393181,-0.242505,-0.400252,-0.01585262
1.264597,-0.1370491,-0.6398597,-0.1644061,-0.1460305,-0.04748078
1.264693,-0.207658,-0.7602783,-0.01091171,0.2325836,-0.09838021
1.219608,-0.2678304,-0.7863332,0.1195921,0.6237138,-0.1395044
1.03717,-0.3195331,-0.7534426,-0.1844572,0.9904384,-0.183815
0.8403755,-0.4215987,-0.656533,-0.6298281,1.536125,-0.2258095
0.7743459,-0.5303583,-0.4424881,-0.6043668,1.729772,-0.1605558
0.8175463,-0.4905968,-0.3479338,-0.404319,1.512943,0.001033311
0.8943595,-0.3704951,-0.4114346,-0.3197819,1.623051,0.2130885
0.9924223,-0.2457262,-0.3849044,-0.1860045,1.685372,0.3677344
1.02251,-0.1331988,-0.3949561,-0.1496488,1.447824,0.3782782
0.9281678,-0.1186309,-0.4694636,-0.2373939,1.165873,0.3587335
0.8378574,-0.1568281,-0.4610162,-0.4052654,0.7680976,0.2987409
0.7528636,-0.1981264,-0.4208701,-0.7426823,0.5120445,0.2205226
0.6727686,-0.2796291,-0.3162952,-0.8031255,0.4293825,0.3117035
0.6833136,-0.3234863,-0.2250612,-0.5146144,0.4113584,0.5372661
0.6972355,-0.2998177,-0.1959915,-0.3317278,0.5183424,0.7635092
0.7132645,-0.2928349,-0.1436765,-0.229704,0.5174002,0.8791516
0.7711999,-0.3020456,-0.1433848,-0.2050834,0.451378,0.8133268
0.7847943,-0.32903,-0.1546306,-0.2239426,0.3969213,0.6671791
0.7700746,-0.3704482,-0.1275729,-0.1650347,0.2213698,0.4550006
0.7487647,-0.3616579,-0.07125147,-0.1242111,-0.07332615,0.1751724
0.720853,-0.3458382,0.01660721,-0.04392268,-0.4948267,-0.03256884
0.7537121,-0.3584643,-0.00813946,-0.001128531,-0.7476197,-0.1678548
0.8865426,-0.327493,-0.1290926,-0.05524849,-0.6732847,-0.1971348
1.056456,-0.2819112,-0.2165239,-0.0921883,-0.4753642,-0.1120333
1.11376,-0.2792927,-0.2334517,-0.1610179,-0.1524261,-0.08857621
1.113846,-0.2848607,-0.1863029,-0.1371633,-0.01207028,-0.08096048
1.227944,-0.2879136,-0.1461306,-0.02582035,-0.2987861,-0.01190707
1.300495,-0.311127,-0.1319854,0.06815438,-0.4568208,0.1098777
1.223529,-0.4093185,-0.2492771,0.2465536,-0.1506686,0.2581688
1.159154,-0.5600477,-0.4678559,0.3057049,0.1007908,0.2683442
1.103702,-0.5986346,-0.4821847,0.2981371,-0.07846531,0.2393978
1.060426,-0.5432333,-0.4282173,0.5021359,-0.3476952,0.2613778
1.010682,-0.5118251,-0.5355063,0.6447175,-0.4779571,0.1611391
0.8182823,-0.3966223,-0.5965797,0.5903862,-0.4430244,0.001834177
0.6878916,-0.2049649,-0.5745262,0.4146943,-0.2927192,-0.1208135
0.7072818,-0.1351078,-0.55613,0.1042396,-0.3425584,-0.1981219
0.6983807,-0.1513732,-0.4882571,-0.1904823,-0.4205175,-0.2469529
0.714662,-0.1579421,-0.3711803,-0.38299,-0.5357343,-0.4009158
0.757963,-0.2040231,-0.2981978,-0.4050991,-1.066368,-0.5724855
0.8321171,-0.2724451,-0.355003,-0.2683965,-1.390769,-0.6535326
0.9231764,-0.3100631,-0.4306052,-0.1316509,-1.144318,-0.7548136
0.8890006,-0.3004686,-0.4737751,0.01030245,-0.8269705,-0.8078809
0.8275459,-0.2665518,-0.5298742,0.1722962,-0.5275156,-0.7147145
0.8127445,-0.2358869,-0.5151536,0.3049193,-0.2236053,-0.5439366
0.8122113,-0.1771204,-0.4671622,0.3996519,-0.02354914,-0.3394784
0.8338789,-0.1225342,-0.4019931,0.4918889,0.0233585,-0.1862591
0.8135808,-0.1076397,-0.3309004,0.5466933,-0.1131786,-0.1306626
0.8000101,-0.09779532,-0.3545858,0.5163417,-0.3197816,-0.1080603
0.8241134,-0.07559279,-0.3805694,0.5067617,-0.4530897,-0.1111333
0.8230431,-0.01607417,-0.3917764,0.4502991,-0.4735912,-0.1226376
0.8267142,0.05461969,-0.4112241,0.2882355,-0.4578762,-0.09228144
0.8460256,0.07800423,-0.3957621,0.1729582,-0.4664008,-0.008926933
0.8766732,0.05102424,-0.4161578,0.1260198,-0.4457971,0.1307572
0.9008327,0.007153267,-0.4310013,0.1455642,-0.3707122,0.2627674
0.895976,-0.05252285,-0.4422,0.1804333,-0.3449034,0.3522147
0.9246212,-0.1468852,-0.4947281,0.2106005,-0.4389945,0.4075937
1.005141,-0.1619532,-0.4917778,0.2687046,-0.5388063,0.3335275
1.146176,-0.1029075,-0.4682716,0.1839809,-0.521329,0.1587607
1.301155,-0.1244515,-0.492646,0.03498379,-0.4619727,-0.002206375
1.290486,-0.1633928,-0.5899404,0.00568898,-0.3762011,-0.1100594
1.253215,-0.2055234,-0.7377947,-0.02540573,-0.07553957,-0.1349588
1.346001,-0.2574407,-0.7864188,0.007170039,0.3823861,-0.1885026
1.254308,-0.2126448,-0.7838674,0.0660144,0.8706799,-0.2378186
1.001272,-0.2079806,-0.8120907,-0.1754901,1.303689,-0.2064092
0.8353434,-0.328183,-0.7088662,-0.5030326,1.423724,-0.2102569
0.6842501,-0.4487835,-0.5282371,-0.5368483,1.42838,-0.08331683
0.6698694,-0.4860416,-0.470805,-0.4418267,1.618611,0.156783
0.7988579,-0.4174741,-0.4362136,-0.3679647,1.769079,0.2657166
0.9257082,-0.3354728,-0.3425474,-0.236766,1.702524,0.3637493
1.042092,-0.2567586,-0.3249992,-0.161746,1.477133,0.4007551
0.9892423,-0.1904561,-0.4056123,-0.2737734,1.207005,0.2644835
0.8993326,-0.1886891,-0.4484857,-0.4513713,0.9547521,0.1078425
0.866399,-0.178886,-0.3981254,-0.6049362,0.7042306,0.03257035
0.7314974,-0.2035696,-0.3243777,-0.6756457,0.4154201,0.1084861
0.6775423,-0.244135,-0.2742079,-0.6099298,0.2615186,0.3115565
0.7050956,-0.243579,-0.2518462,-0.5455179,0.4033418,0.5790766
0.6976583,-0.298573,-0.2227946,-0.4383886,0.456125,0.7997706
0.724135,-0.3290757,-0.1600249,-0.2816938,0.3820429,0.8027735
0.7433884,-0.32153,-0.1296475,-0.2700737,0.4158842,0.7051457
0.7589943,-0.3575927,-0.1184109,-0.2373745,0.2350186,0.5871614
0.7637793,-0.3856826,-0.06923259,-0.1235657,-0.1648649,0.3227554
0.767064,-0.4029555,-0.03749035,-0.06772304,-0.5188803,0.02979461
0.794016,-0.3923683,-0.04628518,-0.03121821,-0.688527,-0.1314933
0.8332037,-0.3682154,-0.07790223,-0.04354172,-0.6413968,-0.1788485
0.9390713,-0.3312167,-0.1527671,-0.05303252,-0.5683668,-0.1681163
1.057744,-0.2650566,-0.2617109,-0.01797458,-0.4072181,-0.1468288
1.158565,-0.259175,-0.2953661,0.08066393,-0.3044245,-0.09239724
1.247027,-0.2979507,-0.2075632,0.2219818,-0.3929882,-0.0409337
1.316186,-0.3326506,-0.1579503,0.1750197,-0.2165092,-0.05974797
1.338895,-0.3580633,-0.2206808,0.1004405,0.3710575,-0.1023781
1.147153,-0.3762382,-0.3044231,0.1624555,0.8905803,-0.1618417
0.9208229,-0.4065823,-0.3507226,0.1650698,0.5601322,-0.1918978
0.9445675,-0.4384405,-0.3445508,0.2480969,-0.3075882,-0.01740145
1.03929,-0.5163674,-0.3911167,0.4821321,-0.6506162,0.2665305
1.038114,-0.5469143,-0.5804704,0.631864,-0.6168789,0.3224096
0.9288371,-0.4014108,-0.7143955,0.542895,-0.3741666,0.2066431
0.7760877,-0.2262633,-0.6232274,0.2451534,-0.08698632,0.160378
0.7378764,-0.1427847,-0.4750253,-0.02744354,-0.1659737,0.06500514
0.7683884,-0.1493243,-0.3763051,-0.2793109,-0.2161337,-0.2031449
0.7579427,-0.2357647,-0.280584,-0.4863953,-0.5315737,-0.5368727
0.7895893,-0.3377237,-0.2852095,-0.4627122,-1.208538,-0.802828
0.8631316,-0.3646516,-0.3528537,-0.3248949,-1.339439,-0.9381082
0.866954,-0.3131315,-0.386282,-0.07980377,-1.079298,-0.9598618
0.8372106,-0.2720919,-0.4510142,0.1188483,-0.8026709,-0.9121866
0.8249693,-0.2246764,-0.4437617,0.1140201,-0.3849961,-0.7943458
0.8336457,-0.1811871,-0.3712537,0.2738549,-0.09530557,-0.5878887
0.8508066,-0.185913,-0.3605878,0.5576343,-0.1860292,-0.4413291
0.8364817,-0.1565011,-0.3400224,0.7019917,-0.3937324,-0.4056181
0.8357933,-0.1350084,-0.3513852,0.7460751,-0.5271873,-0.329883
0.8478613,-0.1217739,-0.3812756,0.7020452,-0.6205608,-0.3100721
0.8529646,-0.02361202,-0.3885762,0.6458309,-0.5217802,-0.3241116
0.8762713,0.06981092,-0.4430213,0.5744232,-0.4239255,-0.2068298
0.8653069,0.08847255,-0.4332626,0.4529105,-0.4213245,-0.09263483
0.8355056,0.07166296,-0.4009339,0.3227581,-0.417504,0.05899838
0.8251831,0.09139733,-0.4244994,0.1751126,-0.5474595,0.29495
0.8361581,0.0889278,-0.4074123,0.04024952,-0.5150993,0.4285696
0.9085718,-0.02011524,-0.4027127,0.00923324,-0.4598148,0.4638538
1.014026,-0.09817581,-0.4194798,0.1259731,-0.5561483,0.4021355
1.122414,-0.09884322,-0.4694155,0.1898487,-0.453011,0.2696607
1.224127,-0.08196168,-0.5593069,0.0455081,-0.3715817,0.1592773
1.260979,-0.08958573,-0.5712473,-0.09350391,-0.3049387,0.07057374
1.245654,-0.1469016,-0.5905755,-0.03873824,-0.1859287,0.04451744
1.245785,-0.2243268,-0.6407442,0.08007229,-0.02556804,-0.002375547
1.212886,-0.3008219,-0.6373384,0.1238461,0.4164516,-0.07263424
1.074548,-0.2375047,-0.7071464,0.06844474,0.7373077,-0.07335883
0.904362,-0.1742365,-0.7755198,-0.204335,0.9522239,-0.1049525
0.7913361,-0.3755154,-0.6520881,-0.4996693,1.273482,-0.09455778
0.7664983,-0.5477327,-0.5017745,-0.4640226,1.409932,-0.0025858
0.8391182,-0.4996446,-0.4592061,-0.3250334,1.647717,0.06566228
0.973249,-0.3961411,-0.3984882,-0.268542,1.829007,0.1638161
1.074922,-0.2982162,-0.3412662,-0.1209309,1.591287,0.2343034
1.057293,-0.2015476,-0.4048145,-0.05912363,1.356708,0.2232679
0.9833023,-0.1125881,-0.4777447,-0.2872142,1.08588,0.2061313
0.8950586,-0.1025837,-0.4734883,-0.5432096,0.7541309,0.2276157
0.7821765,-0.1640846,-0.4224262,-0.6040511,0.6441119,0.2836981
0.7179826,-0.2243014,-0.3149172,-0.5058731,0.5714409,0.3533218
0.6648303,-0.2730227,-0.250999,-0.4053132,0.5486069,0.5026538
0.6275056,-0.294912,-0.2294145,-0.4177704,0.5605345,0.6749744
0.6723666,-0.3082424,-0.1648703,-0.4237547,0.4274405,0.7926228
0.7140133,-0.3111482,-0.1614479,-0.4035138,0.3212559,0.8660436
0.7467448,-0.3197649,-0.1802565,-0.3717296,0.243877,0.8129049
0.7757397,-0.3646195,-0.1472856,-0.2396657,0.09848133,0.6439697
0.7612147,-0.3819035,-0.1188569,-0.1312523,-0.1693358,0.3255581
0.779813,-0.3518004,-0.05637584,-0.1053629,-0.5104075,-0.05803694
0.8378666,-0.316741,-0.01857617,-0.1057761,-0.6367529,-0.2172351
0.8881639,-0.2936418,-0.07864747,-0.1214553,-0.6251365,-0.2196482
0.9673219,-0.2893025,-0.1797977,-0.1567883,-0.5406878,-0.1615667
1.102308,-0.3160529,-0.2794795,-0.1982034,-0.2673079,-0.03882025
1.210504,-0.3626696,-0.2654006,-0.06951722,-0.1181456,-0.0187268
1.204677,-0.3846331,-0.1269763,0.133372,-0.3538151,-0.04036604
1.22601,-0.3811542,-0.06629018,0.1486636,-0.5289592,-0.004389057
1.296021,-0.4024922,-0.1779083,0.1205761,-0.04871732,-0.005689207
1.198634,-0.4591038,-0.3477299,0.2058573,0.4910981,0.004972176
1.059485,-0.4973988,-0.4034138,0.334976,0.2883339,0.03196366
1.034345,-0.5038867,-0.3708035,0.4134103,-0.2006524,-0.003055997
1.01453,-0.510122,-0.4325429,0.4443212,-0.5253342,-0.006413875
0.9792203,-0.4832247,-0.577354,0.5136197,-0.5008524,0.02841014
0.8708251,-0.3467161,-0.6706716,0.5293015,-0.1860239,0.02139563
0.7440466,-0.1313756,-0.6319883,0.2923229,-0.1354316,0.0109528
0.7531753,-0.04081913,-0.5027082,-0.09621671,-0.2295578,-0.0506556
0.7851256,-0.111409,-0.3949725,-0.3853141,-0.3341423,-0.270772
0.7751066,-0.1923457,-0.312649,-0.607073,-0.7168309,-0.6016831
0.8174577,-0.3293068,-0.2917516,-0.6593451,-1.171319,-0.8717695
0.8923283,-0.4273735,-0.3548517,-0.3235309,-1.399321,-0.9846349
0.9031876,-0.3398828,-0.4512902,0.0215688,-1.170199,-1.052476
0.8688834,-0.2948266,-0.5313315,0.0960525,-0.6786796,-1.090615
0.8319149,-0.2736638,-0.4839561,0.1705166,-0.226427,-0.9456351
0.7722799,-0.141798,-0.4155658,0.3392318,0.1477045,-0.6969996
0.7687804,-0.1056188,-0.4233162,0.4986469,0.1222939,-0.5178967
0.7822189,-0.117952,-0.3755369,0.5685362,-0.1433119,-0.3919101
0.7251378,-0.04969809,-0.3343733,0.5860585,-0.4891434,-0.2399445
0.7254574,-0.04040021,-0.3569861,0.6125755,-0.8506059,-0.08328955
0.7985574,-0.0487438,-0.3934526,0.5645751,-0.7171276,-0.02463548
0.8450119,0.02868206,-0.4357325,0.4346312,-0.5012121,0.01476933
0.8406577,0.08914999,-0.4344159,0.2748958,-0.4798572,0.1565168
0.8435392,0.08452827,-0.4257043,0.2042232,-0.3878244,0.3032397
0.9151037,0.07390901,-0.4449681,0.2082578,-0.3708504,0.4043582
0.953926,0.05419312,-0.4624151,0.09160752,-0.2648095,0.4654253
0.9631891,0.003424656,-0.4741436,0.02289664,-0.3084975,0.4375404
1.059304,-0.04846239,-0.4763999,0.05495814,-0.492739,0.3367831
1.165214,-0.0749513,-0.4847594,-0.02208466,-0.3370283,0.1992335
1.202022,-0.08400867,-0.5163329,-0.07230042,-0.2781807,0.09472306
1.209345,-0.1385239,-0.6063487,-0.04930436,-0.28943,0.0537707
1.248163,-0.2513858,-0.6988236,-0.02891585,-0.06295939,-0.009482537
1.282282,-0.2755812,-0.6956456,0.04865953,0.2347443,-0.06006187
1.207367,-0.1871282,-0.717059,0.05275254,0.7303237,-0.106509
1.042441,-0.1722729,-0.77983,-0.2096581,1.155885,-0.2492477
0.852644,-0.2931193,-0.6904408,-0.6039889,1.213665,-0.2875564
0.7394427,-0.4556359,-0.5110624,-0.7067834,1.192663,-0.175394
0.7641903,-0.520079,-0.4023086,-0.5058881,1.367654,-0.11689
0.846389,-0.4639204,-0.3679767,-0.3425012,1.689981,-0.02156393
0.966356,-0.3925653,-0.3883741,-0.1650752,1.799199,0.1085247
1.056307,-0.2574566,-0.4053047,-0.03175583,1.652409,0.1754784
1.03335,-0.09957093,-0.4412732,-0.1531897,1.44655,0.2221832
0.9779807,-0.07285846,-0.4943682,-0.3748156,1.162569,0.2272512
0.9010861,-0.09898011,-0.4303051,-0.6458875,0.7953602,0.277345
0.8019361,-0.1270371,-0.3399269,-0.8043832,0.4853791,0.427458
0.7428414,-0.1859302,-0.3112802,-0.6355161,0.4052187,0.6379916
0.7129624,-0.263985,-0.2473292,-0.4703684,0.4172575,0.8560189
0.7164848,-0.3367874,-0.1791373,-0.4064255,0.4332452,0.9156822
0.7306571,-0.3433568,-0.1420042,-0.3276266,0.507275,0.842531
0.7157117,-0.3412502,-0.1144232,-0.32407,0.4288105,0.7466425
0.7019384,-0.3772172,-0.09056901,-0.2275285,0.1761329,0.5631076
0.6788052,-0.3981893,-0.05701089,-0.09089071,-0.2095766,0.2861593
0.6735454,-0.3927532,-0.02669326,-0.0556216,-0.627838,0.06945283
0.7402683,-0.3632791,-0.006479917,-0.004410396,-0.8070732,-0.001346048
0.8442145,-0.3380564,-0.03244996,-0.02154702,-0.8672092,-0.03363739
0.99733,-0.3035016,-0.120002,-0.01361914,-0.8084002,-0.06818245
1.163805,-0.2698841,-0.2407543,0.09302616,-0.5908389,-0.09776651
1.239823,-0.2918525,-0.3158992,0.1756563,-0.4992903,-0.1547153
1.314183,-0.3102222,-0.2305932,0.223895,-0.3967893,-0.1970549
1.422331,-0.3092227,-0.1622559,0.1395697,-0.1465656,-0.2332619
1.370392,-0.3358453,-0.3132324,0.06835666,0.2139084,-0.2187478
1.182265,-0.3943449,-0.4619946,0.09895944,0.5614727,-0.1249931
1.074815,-0.4662554,-0.4615228,0.1347917,0.23489,-0.04983899
1.090048,-0.5163008,-0.4626733,0.322075,-0.4886877,0.06277198
1.121346,-0.559584,-0.5558634,0.5903399,-0.6384429,0.1436072
1.033173,-0.5216025,-0.6533395,0.7048981,-0.494071,0.03986952
0.8563598,-0.2873183,-0.6181953,0.4672152,-0.3618692,-0.07852123
0.7173485,-0.04757988,-0.5418247,0.04777324,-0.1513664,-0.1312034
0.7087155,-0.04201305,-0.525846,-0.1852852,-0.1533935,-0.2137326
0.7805846,-0.1416586,-0.4372067,-0.455196,-0.350109,-0.3778494
0.7063609,-0.2086658,-0.2997163,-0.6134383,-0.7609776,-0.5912836
0.6840085,-0.3223391,-0.257454,-0.2893455,-1.308288,-0.6963321
0.8317103,-0.378005,-0.319745,0.09063981,-1.355342,-0.7701958
0.8523829,-0.3347851,-0.4295784,0.3196382,-0.8365719,-0.8903661
0.8444294,-0.3254659,-0.5240768,0.484965,-0.3133307,-0.8710298
0.83225,-0.2459947,-0.5685484,0.5195838,-0.09747188,-0.7072151
0.7990765,-0.1836618,-0.5094447,0.5561681,-0.07031907,-0.4830685
0.821872,-0.1877903,-0.4342472,0.6312939,-0.06229615,-0.3245598
0.7809375,-0.08800154,-0.4272622,0.6576377,-0.2732696,-0.2648469
0.8031643,-0.07435285,-0.3854765,0.659886,-0.6482195,-0.1556291
0.830021,-0.08326505,-0.3891237,0.615276,-0.6572822,-0.1259288
0.825055,-0.01417095,-0.4386077,0.5075546,-0.4295105,-0.1494774
0.8855398,-0.02055019,-0.4099587,0.4031209,-0.3697404,-0.05080883
0.8520564,0.0512304,-0.3959444,0.3094836,-0.3247092,0.04485231
0.8550818,0.09826837,-0.3831284,0.2161293,-0.3279254,0.1969459
0.8867437,0.04157989,-0.3704005,0.151356,-0.3673359,0.390668
0.8938694,-0.005066021,-0.392403,0.1046741,-0.327715,0.433125
0.9868951,-0.1061831,-0.3741815,0.1192472,-0.4309967,0.3858447
1.021309,-0.1085613,-0.3971561,0.1511689,-0.508078,0.2822497
1.09097,-0.06012022,-0.4704215,0.08865499,-0.4267644,0.1192844
1.196174,-0.08743904,-0.528002,0.03368161,-0.3883575,-0.02985337
