accx,accy,accz,gyrox,gyroy,gyroz
1.349438,-0.06967125,0.01295455,0.3089626,0.04786731,-0.3889521
1.403326,-0.08871837,-0.02165956,0.3114484,0.2574612,-0.08279289
1.324907,-0.0597172,-0.05047888,-0.1455712,0.2082865,0.14465
1.095399,-0.1025269,-0.05652726,-0.7757305,0.05610808,0.112377
0.8091156,-0.213332,-0.04421323,-1.069574,-0.07286871,0.01583764
0.745015,-0.3512225,-0.0297293,-0.8023038,-0.1585981,0.02099625
1.009023,-0.4641837,-0.01529838,-0.5268562,-0.1828403,-0.2828149
1.238886,-0.4852083,-0.02503525,-0.2847571,-0.1578166,-0.7992882
1.230881,-0.2909622,-0.04911885,0.02253333,0.1480633,-0.9178734
1.165878,0.06174999,-0.04205704,-0.1085275,0.5845889,-0.5696045
1.080313,0.2344072,-0.01865781,-0.545814,0.6222273,-0.07089428
0.9742725,0.1410642,0.006539618,-0.9523611,0.3546365,0.2144218
0.8919599,0.04123529,0.0305551,-1.227157,0.220874,0.2693431
0.8597842,-0.05011759,0.03263535,-0.9979359,0.3690548,0.2210227
0.8550391,-0.160149,0.0458884,-0.7556175,0.5329348,0.09225516
0.8047406,-0.1462833,0.08830738,-0.8548879,0.4857655,0.04368122
0.8026359,-0.1210501,0.1404973,-0.719364,0.2941009,0.01728824
0.8287189,-0.1333883,0.1701629,-0.6096637,-0.02192616,0.01699967
0.8268027,-0.06568387,0.1297699,-0.6218062,-0.2383953,0.08841989
0.8626135,-0.005515232,0.07869249,-0.5316069,-0.2147088,0.1000868
0.847231,0.01056855,0.07190578,-0.5966642,-0.1807019,0.1377173
0.8192046,0.03673065,0.07574621,-0.5963154,-0.1656612,0.1084265
0.8396675,0.07306692,0.08759192,-0.6091261,-0.1698215,0.01889276
0.852597,0.08673097,0.09632218,-0.7217993,-0.203988,0.010449
0.9115254,0.05110887,0.1127896,-0.7026738,-0.1919056,-0.04161745
0.9683781,0.03796836,0.1249979,-0.7967587,-0.2316395,-0.06790385
1.014819,0.04040796,0.08579151,-0.8492733,-0.2839503,-0.08713141
1.146523,0.02853438,0.06062575,-0.7024082,-0.2543685,-0.1016847
1.276195,0.06917552,0.07537201,-0.4895126,-0.2163363,-0.05856382
1.323533,0.1612671,0.07243926,-0.3087618,-0.1530487,-0.1242366
1.34426,0.2348008,0.03904252,-0.4482469,-0.1473574,-0.09781459
1.354999,0.171281,-0.02002747,-0.6021546,-0.37396,0.2531142
1.376738,-0.01325356,-0.08586722,-0.4644166,-0.5850248,0.7676472
1.431622,-0.1679927,-0.1318038,-0.2917195,-0.3349023,0.9849598
1.395909,-0.2924329,-0.1313044,-0.1309363,0.2087695,0.7012618
1.223963,-0.4283347,-0.1098079,-0.1142355,0.5062546,0.3648915
0.9870336,-0.4631993,-0.07356489,-0.3202006,0.4144715,0.009901748
0.7731872,-0.3206325,0.001003916,-0.5442552,0.07268813,-0.3378508
0.7509578,-0.2012411,0.0004202465,-0.7186518,-0.2957775,-0.2969114
0.8471231,-0.1809044,-0.05984589,-0.6252948,-0.4441493,-0.1230034
0.9599514,-0.1634297,-0.06837466,-0.2709663,-0.2846814,0.06293887
1.10277,-0.230581,-0.1024807,-0.02453047,-0.04224096,0.2014161
1.058558,-0.2778655,-0.12587,0.1212036,-0.01800893,0.02647475
0.9061748,-0.2395549,-0.1016695,0.1473878,-0.1749679,-0.104763
0.859729,-0.2287316,-0.1170099,0.1485407,-0.4262535,-0.07810435
0.8365495,-0.1805429,-0.1296279,0.2697986,-0.5183489,-0.03150982
0.8964755,-0.141217,-0.1461247,0.2759849,-0.2780942,0.1126839
0.9730674,-0.1240052,-0.1694065,0.3389098,-0.09830142,0.1577746
0.9656209,-0.093298,-0.1553314,0.3635444,-0.06593441,0.1250737
0.9981024,-0.1053973,-0.1507457,0.2123741,-0.08799721,0.1202087
1.005156,-0.09818039,-0.1451217,0.267212,-0.11809,0.08290878
0.99242,-0.08120171,-0.1496699,0.274474,0.004483128,0.1015801
1.011665,-0.0590827,-0.1670573,0.2382148,0.1243848,0.1383058
0.9878888,-0.02382858,-0.1427839,0.3100346,0.2511045,0.1634733
0.9739684,-0.01692302,-0.1049896,0.2855109,0.3838291,0.1791328
0.9635996,-0.0002734732,-0.0607217,0.3884619,0.3977864,0.1310067
0.9571609,0.001204711,-0.0327107,0.4892159,0.3781908,0.08665044
0.9910274,0.00731246,-0.04563293,0.5228023,0.2682394,0.04594187
1.028438,0.04998465,-0.05095482,0.5985483,0.1958633,-0.01196014
1.103872,0.07482275,-0.05323597,0.5017647,0.266716,-0.0730144
1.169433,0.101077,-0.04698356,0.339846,0.350252,-0.1936577
1.177926,0.1456482,-0.00792271,0.1336747,0.3774348,-0.3951833
1.184409,0.1716855,0.03506368,0.03709677,0.2547166,-0.5788656
1.221592,0.1445978,0.05634477,0.1968569,0.1523455,-0.5547117
1.30013,0.1012663,0.04823848,0.1988249,0.1990121,-0.2390008
1.305617,0.08944939,0.02830136,-0.0938759,0.1549993,0.2130536
1.178276,0.06409132,-0.0129833,-0.5738736,-0.1620037,0.4452476
1.005696,-0.03492929,-0.08921457,-0.9586687,-0.4177937,0.336401
0.8759605,-0.2433009,-0.1257228,-0.9348112,-0.08251631,0.2161135
0.8728565,-0.4573131,-0.08719129,-0.6789396,0.3955917,0.1127436
0.9280564,-0.5074078,-0.03157468,-0.3161246,0.3391478,-0.2091592
0.9974657,-0.4040024,0.008214197,0.0736372,0.07383156,-0.6097592
1.121407,-0.2042452,0.01588057,0.2106807,-0.03200401,-0.7687104
1.158111,0.03974529,-0.0111465,-0.003373026,0.04797638,-0.443358
1.107005,0.1558132,-0.0197173,-0.4423175,0.2480939,0.1146303
1.092043,0.1012197,0.009276986,-0.8484967,0.2900558,0.4308992
1.04937,0.05482919,0.03236916,-0.9497129,0.2461222,0.4723919
0.982349,-0.0334436,0.04669799,-0.7399008,0.3160258,0.2991775
0.9027527,-0.2268399,0.07415614,-0.5234767,0.3800725,0.105254
0.7966053,-0.2346909,0.1072069,-0.3924554,0.4002883,0.03284741
0.7696404,-0.1278522,0.1434733,-0.2604199,0.2604692,-0.004933709
0.7789515,-0.1281276,0.169478,-0.2491594,-0.02214269,0.03426082
0.7779264,-0.0469339,0.1548549,-0.261939,-0.2117855,0.02597848
0.8096743,0.03450602,0.1259766,-0.2409987,-0.310135,0.02712923
0.7991834,0.02700253,0.1082068,-0.3173351,-0.3199794,0.1073608
0.7834053,0.07388542,0.079613,-0.3648253,-0.3298399,0.08239883
0.8067978,0.06612969,0.07209281,-0.4108866,-0.3694845,0.1051059
0.8575581,0.01111077,0.07913973,-0.4495162,-0.3330605,0.1079285
1.017647,-0.05020354,0.04884907,-0.3927392,-0.2989304,0.008566862
1.188141,-0.1446924,0.02866059,-0.3441835,-0.177944,-0.08274542
1.248367,-0.1575497,0.04132023,-0.1580626,-0.01481467,-0.2687557
1.265507,-0.1020617,0.0728116,0.1333926,-0.03130204,-0.4245564
1.321216,0.08643605,0.1147154,0.2234234,-0.1172807,-0.51003
1.412681,0.3884889,0.1121058,0.0834876,-0.2632627,-0.4137426
1.431518,0.4345338,0.06477471,-0.1219129,-0.491809,0.1543149
1.443723,0.1446126,0.01033683,-0.1583026,-0.5044199,0.9288164
1.490143,-0.1708067,-0.02622881,0.06573198,-0.2381551,1.199543
1.294819,-0.3574003,-0.03285714,0.3409785,-0.01790369,0.683019
0.8941299,-0.4961438,-0.03017414,0.3660889,0.01628233,0.1976231
0.6865964,-0.5294028,-0.0299211,0.2526079,-0.03180293,0.07186948
0.7526321,-0.3926333,-0.05114562,0.151326,-0.06277041,-0.206783
0.8539796,-0.2522716,-0.09521564,-0.03906125,-0.06975221,-0.333872
0.9180349,-0.1616144,-0.1252294,0.07761743,-0.09229799,-0.1858683
1.007761,-0.1224177,-0.1173682,0.4155912,-0.09111712,-0.03086436
0.9894939,-0.1505108,-0.08587368,0.4435352,-0.1652671,0.1515803
0.8788551,-0.1482988,-0.07826091,0.4562297,-0.3462293,0.1567246
0.855574,-0.1452852,-0.1112862,0.402994,-0.4636839,0.06731604
0.8657622,-0.1536298,-0.1600902,0.1915292,-0.5149825,0.06358884
0.909091,-0.1294176,-0.1842249,0.2214502,-0.4179892,0.06402629
0.969888,-0.132991,-0.1813541,0.3691051,-0.1597393,0.1003834
0.9752747,-0.1262299,-0.1806847,0.5221726,0.05020299,0.1304696
0.9921813,-0.0870583,-0.1572006,0.5484729,0.1327634,0.101773
0.9858346,-0.05457851,-0.1188112,0.4095162,0.1182706,0.04708079
0.970279,-0.02713727,-0.09648845,0.3862383,0.1526283,0.02476153
0.9705721,-0.02957802,-0.08409401,0.3470577,0.1908709,0.03224978
0.9570784,0.01045269,-0.08947454,0.3370526,0.1560129,0.01810388
0.9783552,0.0913568,-0.08681744,0.4135627,0.2032728,0.006045385
0.9809855,0.08655752,-0.08003332,0.430515,0.2431681,-0.005459655
1.020854,0.04890705,-0.08396186,0.5257079,0.2555797,0.009508884
1.127521,0.04396816,-0.06123648,0.5623021,0.3083935,0.02291239
1.16832,0.04832291,-0.04054798,0.4671214,0.3156511,-0.06165312
1.174252,0.08076111,-0.03886886,0.2647804,0.3742985,-0.2423201
1.180201,0.1248852,-0.01666909,-0.04892992,0.3966942,-0.4218651
1.163562,0.1341496,0.02052267,-0.00487114,0.1972722,-0.4413986
1.142313,0.09617937,0.04006434,0.3952939,0.02455359,-0.3203619
1.202062,0.009861268,0.02387297,0.6055118,0.1297298,-0.09428051
1.288723,-0.09500553,-0.03558295,0.417275,0.2649929,0.2443873
1.207681,-0.1435869,-0.1141971,-0.06619513,0.2090145,0.3173126
1.029482,-0.1752826,-0.1192265,-0.531487,0.1442777,-0.001327419
0.8234658,-0.3089649,-0.06181518,-0.6809724,-0.1206115,-0.2541945
0.7439083,-0.4539175,-0.05149422,-0.3556334,-0.5933276,-0.4138032
1.047596,-0.4639573,-0.07088334,0.07701386,-0.5584849,-0.727666
1.409299,-0.326713,-0.1100934,0.09323172,0.03480083,-0.8553378
1.441059,-0.07670466,-0.1491963,-0.07673699,0.7125702,-0.4871511
1.218834,0.1186566,-0.08266094,-0.3795315,0.9572082,-0.05411481
0.9545141,0.1407959,0.03248651,-0.8558168,0.4550345,0.09214589
0.8373943,0.08259403,0.07085447,-0.9939016,0.02276429,0.189045
0.848181,0.005506171,0.04483297,-0.8696095,0.140437,0.2662008
0.8628772,-0.07925621,0.0221127,-0.8102417,0.308259,0.2200197
0.8504192,-0.134991,0.02329047,-0.7239535,0.4033338,0.2019772
0.8246121,-0.1466189,0.0351335,-0.6684889,0.3083687,0.1735101
0.8024326,-0.1495286,0.0598045,-0.6327891,0.04737551,0.1371684
0.7845436,-0.1556494,0.06467011,-0.4729489,-0.05170917,0.1592985
0.7897905,-0.1327411,0.04907191,-0.3400908,-0.09096341,0.130349
0.7945249,-0.1079552,0.05760051,-0.3341172,-0.0992016,0.1101136
0.7923849,-0.07916958,0.06930462,-0.2782035,-0.06647611,0.08989084
0.8198643,-0.04507521,0.09306706,-0.1900378,-0.1049335,0.004985896
0.8657872,-0.03281843,0.1245073,-0.1318571,-0.1141363,-0.072842
0.9561809,-0.006320605,0.115013,-0.08694583,-0.2056271,-0.165644
1.070934,0.01477174,0.08947736,-0.174744,-0.3789861,-0.1977048
1.149967,0.02840348,0.04494667,-0.2987203,-0.3876511,-0.1010512
1.198003,0.0458302,-6.268403e-05,-0.2919412,-0.303798,0.03502214
1.240701,0.05371512,0.02193276,-0.1032651,-0.2163287,0.06202239
1.317951,0.1411609,0.05900988,0.1570664,-0.09994731,-0.1712276
1.340762,0.288618,0.07213059,0.1265152,-0.00356103,-0.3939537
1.223367,0.3433774,0.08694091,-0.1335931,-0.09946553,-0.2208958
1.131249,0.2362016,0.06930309,-0.2641949,-0.4807148,0.2701968
1.196611,-0.008585062,-0.001254904,-0.1588927,-0.7839102,0.8394242
1.290538,-0.3212919,-0.1110325,0.1207834,-0.6257255,1.140208
1.279392,-0.5514016,-0.190346,0.3144908,-0.06811746,0.980173
1.183143,-0.5557604,-0.1570754,0.2900851,0.5662236,0.6109977
1.025678,-0.4775222,-0.08474668,0.1527676,0.8250375,0.0124391
0.915645,-0.4464086,-0.03650594,-0.0204241,0.5114316,-0.6635052
0.8903158,-0.3520237,0.0122033,-0.07850241,0.02851227,-0.7728328
0.8072753,-0.2167651,0.05019208,0.1773894,-0.4322559,-0.4456175
0.8196206,-0.1540481,0.06089178,0.6379109,-0.8296317,-0.09092738
0.9609398,-0.1698885,-0.01568867,0.8732182,-0.6998648,0.154969
0.9704184,-0.148332,-0.1310339,0.8085332,-0.4483307,0.1363025
0.9388037,-0.08855569,-0.1728214,0.6087448,-0.4756891,0.07884583
0.9126035,-0.09001098,-0.1840945,0.3575483,-0.3258832,0.06467681
0.8603485,-0.07034057,-0.1739969,0.3592388,-0.2394051,0.09098298
0.9057584,-0.0757446,-0.1627507,0.4764407,-0.1339144,0.1799959
0.9490011,-0.1264244,-0.1670729,0.4082508,0.07081062,0.113103
0.9641872,-0.1061914,-0.144489,0.3815486,-0.02532664,0.01198113
1.006179,-0.07717881,-0.1480819,0.3516799,0.06502234,-0.05853949
1.007501,-0.01401565,-0.1458704,0.2877019,0.2558447,-0.04655443
0.9992325,0.04564,-0.1018136,0.3240503,0.3139659,0.09109015
0.9747785,0.04652093,-0.05497131,0.3282589,0.4216495,0.110535
0.9297977,0.07762368,-0.008977755,0.3758257,0.2761987,0.151311
0.9254779,0.0606703,-0.01561724,0.4687472,0.1208438,0.1882613
0.977433,0.02153809,-0.04557304,0.5260656,0.06570195,0.1096809
1.083874,0.01325518,-0.05682684,0.627785,0.0873486,0.05976177
1.179987,-0.00119753,-0.06103617,0.6247533,0.3066407,-0.1232839
1.199176,0.05885028,-0.03304336,0.4396516,0.3598271,-0.3431208
1.154342,0.1499552,0.00179045,0.1543888,0.3556632,-0.4328593
1.138298,0.181071,0.04963295,0.01775256,0.2437491,-0.443303
1.20443,0.1093894,0.08088768,0.27053,-0.0489198,-0.2861015
1.290327,-0.01848884,0.03793037,0.4727573,-0.07600079,-0.01537782
1.316588,-0.07161616,-0.02212627,0.313964,0.001005269,0.2718967
1.206918,-0.1296654,-0.09491796,0.06035766,0.06129082,0.371161
1.04504,-0.2375993,-0.1475872,-0.2346657,0.1365845,0.1855057
0.9801349,-0.3261516,-0.09627924,-0.3837886,0.08708717,-0.05528406
0.9759559,-0.4217963,-0.01452022,-0.1655487,0.01791152,-0.4083997
1.043351,-0.4346186,0.01086232,0.08087436,-0.03286584,-0.8475524
1.177709,-0.2653398,-0.01655782,0.2229824,0.03860247,-0.9765809
1.201734,-0.02536385,-0.04901561,0.2713428,0.2545816,-0.613585
1.095424,0.128858,-0.02910158,-0.04573733,0.3642993,-0.03058325
0.9843836,0.1325425,0.008538794,-0.4883996,0.226743,0.3186645
0.9173629,0.009877057,0.02789958,-0.6207705,0.05968043,0.3985669
0.9042729,-0.1461511,0.04112777,-0.4360445,0.1823367,0.3346743
0.8981738,-0.2181192,0.03175967,-0.2036188,0.3712338,0.148442
0.8521512,-0.192558,0.04705828,-0.1734157,0.4293631,0.03325542
0.8087967,-0.143844,0.102134,-0.1449323,0.3904698,0.02710473
0.8035871,-0.08385675,0.130149,-0.1305843,0.1554464,0.04643463
0.8205525,-0.02600472,0.1346464,-0.2369594,-0.04882197,0.06235784
0.8243796,0.002652948,0.1148518,-0.2229889,-0.152579,0.08210189
0.8169216,0.0377303,0.08907042,-0.2519211,-0.2237414,0.1340581
0.8216611,0.06063411,0.08446143,-0.2903669,-0.1638542,0.1121142
0.8337334,0.04992149,0.08018228,-0.2024057,-0.137913,0.06176815
0.8848391,0.0385255,0.09320733,-0.1990508,-0.07388772,-0.008235027
0.9818616,0.01695505,0.09730032,-0.1846226,-0.004568944,-0.1452535
1.069848,0.01264269,0.08423417,-0.2339933,-0.1769878,-0.1816906
1.145919,0.03249521,0.07581287,-0.3322201,-0.327836,-0.1621967
1.236137,0.06034851,0.06371076,-0.2358707,-0.31702,-0.1637794
1.32167,0.1604683,0.09478306,-0.07355362,-0.2328713,-0.2092692
1.337415,0.298566,0.1351539,0.03424091,-0.1614209,-0.2831063
1.25539,0.3467913,0.1254341,-0.1093941,-0.2458975,-0.1843842
1.174503,0.2588429,0.09050965,-0.3237758,-0.5069701,0.1783527
1.200578,0.06639285,0.02174169,-0.1453891,-0.8671596,0.7763352
1.266787,-0.2532188,-0.09733177,0.1373562,-0.9135499,1.164763
1.277802,-0.6005223,-0.2238019,0.3312691,-0.4396962,1.048777
1.227997,-0.6225936,-0.2321576,0.4493149,0.2617536,0.7088471
1.081106,-0.4314328,-0.1192819,0.2764562,0.8520453,0.0775676
0.9108271,-0.3761671,-0.03470559,0.06046983,0.8499941,-0.577345
0.8294679,-0.2592386,0.0167262,-0.006360199,0.3471924,-0.6759608
0.7882677,-0.09411451,0.05819027,0.1198542,-0.2575786,-0.4135563
0.8218009,-0.08793627,0.04209524,0.5034731,-0.9067561,-0.0361923
0.9257476,-0.09444446,-0.0332112,0.7284588,-1.021465,0.314114
0.9627751,-0.1118083,-0.1450972,0.7141752,-0.6185428,0.3784091
0.9517824,-0.1309585,-0.1981693,0.5829338,-0.4530578,0.2060099
0.9265922,-0.1030904,-0.1713026,0.3524385,-0.3368468,0.07468932
0.8916406,-0.1005161,-0.1787156,0.3708478,-0.1831422,0.1134437
0.9025271,-0.08205952,-0.1949563,0.4377662,-0.1461484,0.1095578
0.9321532,-0.08441655,-0.1672974,0.3681971,-0.0541999,0.06047022
0.9729053,-0.0887349,-0.1635344,0.4029072,-0.02102132,0.110294
1.029202,-0.0534379,-0.1690909,0.3539792,0.09440127,0.1113114
1.031163,-0.046739,-0.1441633,0.2693775,0.2771933,0.09673827
0.9853628,-0.02274717,-0.1146198,0.2904436,0.2895677,0.09835759
0.9428986,-0.008091766,-0.07624234,0.3299608,0.3116655,0.0395884
0.9259475,0.0001786795,-0.0522296,0.443391,0.2984091,0.01064615
0.9514933,0.04702539,-0.05768492,0.5350733,0.2293415,0.01651737
0.9935703,0.05353075,-0.06110097,0.5587945,0.1811968,0.02413524
1.06169,0.05006123,-0.06929922,0.5594482,0.1560224,-0.02806755
1.169656,0.08065155,-0.07047154,0.502906,0.2433505,-0.1917862
1.217526,0.1284272,-0.06196809,0.3264057,0.3278153,-0.3866435
1.174697,0.1889059,-0.05228563,0.05547677,0.3676367,-0.4820354
1.146931,0.2140534,-0.01231078,0.02847344,0.2561071,-0.4248902
1.17069,0.1382192,0.03064784,0.2995071,0.06035805,-0.3204401
1.22728,-0.01533946,0.03320098,0.4577138,0.1227442,-0.0895575
1.276318,-0.1052938,-0.02786934,0.2646265,0.1680925,0.2295416
1.182323,-0.1231281,-0.1219132,-0.2359732,0.09253196,0.2633846
0.9712434,-0.1742291,-0.1357266,-0.7111165,0.08113909,0.0488766
0.8729677,-0.2895169,-0.07001529,-0.728659,-0.1323776,-0.1489998
0.9532904,-0.4393331,-0.02933073,-0.3887317,-0.4374016,-0.3685229
1.177317,-0.4668756,-0.04840914,-0.1502207,-0.4355321,-0.7799825
1.40035,-0.3076969,-0.1037495,-0.06124076,-0.0003856723,-1.049496
1.337557,-0.1369868,-0.1314979,-0.1156841,0.6454734,-0.6535972
1.090015,-0.009311942,-0.06487421,-0.4634916,0.8150062,-0.08485233
0.9148018,0.1218026,0.0355348,-0.8569914,0.3763018,0.1842942
0.8145952,0.0670444,0.04100869,-0.9796155,0.103252,0.3561677
0.8392522,-0.1401591,-0.004382859,-0.808453,0.2840324,0.346636
0.8734626,-0.1505146,-0.002230611,-0.6475873,0.4621816,0.2677578
0.8012627,-0.1260253,0.02053037,-0.6224663,0.5042404,0.2094917
0.7928235,-0.1818888,0.06897702,-0.5054828,0.4704661,0.07034285
0.784498,-0.09843793,0.123348,-0.4516052,0.2071667,0.05176331
0.7619251,-0.05889951,0.1210239,-0.4244011,-0.09063564,0.05589045
0.8095222,-0.04759948,0.1005796,-0.3284889,-0.2072725,0.05280926
0.8033543,0.03157166,0.08328549,-0.3521188,-0.268713,0.1123842
0.8125702,0.04655626,0.06936346,-0.2771351,-0.2692692,0.08919401
0.8556445,0.07795106,0.07600501,-0.2047341,-0.19488,0.101938
0.9186667,0.04687556,0.08634247,-0.2467589,-0.07416156,0.1063887
1.066774,-0.01564598,0.08972416,-0.2323436,-0.02013601,0.00764065
1.149346,-0.02768406,0.06882268,-0.3177043,-0.1758145,-0.1210045
1.183989,-0.05763305,0.04324564,-0.3500719,-0.3196409,-0.2301221
1.226609,0.01712299,0.05995711,-0.1985513,-0.2813138,-0.2247445
1.251289,0.1487872,0.1036135,0.06655857,-0.1664027,-0.3289728
1.294901,0.3457524,0.1387933,0.2494241,-0.07624206,-0.5099007
1.246091,0.4645768,0.1349492,-0.07020277,-0.1302971,-0.3548854
1.142756,0.3063955,0.08992219,-0.5326149,-0.4591192,0.1438427
1.117363,0.1620509,0.02882303,-0.5589602,-0.9117338,0.8150554
1.193571,-0.1001088,-0.08142612,-0.2217515,-0.9647962,1.250185
1.341571,-0.5101679,-0.2546113,0.1853218,-0.460967,1.194441
1.374172,-0.6701224,-0.3490208,0.3111337,0.3195643,0.863531
1.231304,-0.6688037,-0.241873,0.1813065,1.108061,0.1235573
0.9906634,-0.5303771,-0.05559128,0.09512012,1.320163,-0.7506225
0.7406589,-0.2814103,0.06118415,0.04234726,0.7094777,-0.9658946
0.6657256,-0.1442699,0.1228468,0.07369619,-0.1285662,-0.6688358
0.780538,-0.08542621,0.1074009,0.3929444,-0.8369253,-0.2263103
0.9365415,-0.08320321,-0.01212969,0.8431719,-1.213351,0.3240814
1.055554,-0.1225728,-0.1598214,1.017958,-0.9602881,0.5136985
1.070296,-0.1348269,-0.228266,0.8047151,-0.5327492,0.180843
0.9591306,-0.1097246,-0.1783058,0.5606411,-0.2857666,-0.0762154
0.8674323,-0.07668336,-0.1595657,0.5150346,-0.03224051,-0.06893691
0.8814477,-0.08058675,-0.1820784,0.5433154,-0.01106654,-0.05702686
0.9085798,-0.06379217,-0.1289774,0.6088992,-0.122673,0.009484349
0.9402586,-0.01521003,-0.1138058,0.5927116,-0.06641198,0.05006872
0.9836326,-0.003574236,-0.1301526,0.4969296,-0.01245845,0.04006412
0.987641,-0.0122711,-0.11427,0.4688212,0.1685831,0.09649483
0.9913219,-0.009480317,-0.1110962,0.4326449,0.3896999,0.0155838
0.9971688,-0.000966357,-0.08105771,0.5108389,0.4719156,-0.1070141
0.9638836,0.02060022,-0.05831561,0.6109133,0.5062365,-0.2189393
0.9194574,0.08356174,-0.03542441,0.5537574,0.2650994,-0.3137608
0.9070529,0.1568918,-0.01662362,0.5580927,-0.08112315,-0.1414293
0.9634357,0.1812403,-0.05207792,0.5082176,-0.1827632,0.01550898
1.08388,0.1691295,-0.05791747,0.2780667,-0.03083421,-0.006886032
1.181142,0.1597257,-0.06023223,-0.02897146,0.2174829,-0.1625934
1.207889,0.1580576,-0.05510326,-0.1981644,0.2452136,-0.4610472
1.218011,0.1341919,0.001311568,0.03834056,0.1635291,-0.5399942
1.2405,0.08473523,0.02461914,0.3642528,0.1188861,-0.2966616
1.281318,0.02146665,0.02654496,0.4382598,0.08642076,0.1261502
1.312958,-0.04026718,0.01483298,0.1937535,0.05302692,0.4429914
1.230006,-0.07530755,-0.02323195,-0.3157387,-0.0895358,0.3323673
1.068256,-0.1747934,-0.06479818,-0.5896852,-0.1339392,0.08963567
1.006586,-0.346185,-0.0896106,-0.4443442,-0.141394,-0.1280143
1.061772,-0.408227,-0.05318806,-0.186979,-0.2052289,-0.5095691
1.130477,-0.3585958,-0.03124105,0.08801928,-0.05734915,-0.6961692
1.166054,-0.2257841,-0.04959051,0.2246503,0.1786063,-0.480851
1.120996,0.0373,-0.03418174,-0.02973005,0.3409663,-0.1978162
1.012591,0.1919759,-0.01273469,-0.4642979,0.2823188,0.1210812
0.9403821,0.1053222,0.005354489,-0.7784059,0.08564253,0.3152354
0.9105204,0.008977785,0.01377014,-0.9232071,0.09714891,0.2359552
0.9034102,-0.07588606,0.002496754,-0.8232012,0.2366581,0.2249722
0.8902438,-0.1794073,0.01015841,-0.6797321,0.4542802,0.1936982
0.8243634,-0.1494477,0.04127738,-0.5936027,0.5106522,0.1236394
0.7995788,-0.09793211,0.08475926,-0.4174066,0.2305557,0.201637
0.8396122,-0.08909819,0.09565496,-0.3621877,-0.01338488,0.1887058
0.8616254,-0.00846214,0.06380974,-0.3546914,-0.1811003,0.1759673
0.8938603,0.02608029,0.04533893,-0.311153,-0.199598,0.2336548
0.911637,0.01948782,0.04388945,-0.3626831,-0.02784378,0.2352845
0.8991168,0.03408168,0.06133638,-0.3000727,0.07155203,0.2493364
0.9169502,0.001607332,0.1002622,-0.2567292,0.1062801,0.1430365
0.9513318,0.002948364,0.134459,-0.2885327,0.002273848,-0.05890864
0.9939352,0.01591385,0.1466962,-0.2759052,-0.1726923,-0.1841587
1.034258,0.000419352,0.1027954,-0.3923353,-0.2501056,-0.1556845
1.101152,-0.0007846623,0.04321854,-0.4113068,-0.231703,0.02652689
1.19838,-0.0197905,0.05443089,-0.1635015,-0.05662303,0.09077295
1.209848,0.02823075,0.09293817,0.1348546,0.03932734,-0.09904846
1.187034,0.1349124,0.1100226,0.1734546,-0.06223446,-0.3452307
1.200922,0.1966792,0.1123792,-0.09210989,-0.2842876,-0.3051727
1.18937,0.1893534,0.05322738,-0.2371898,-0.5360973,0.05924858
1.222771,0.03947368,-0.0538099,-0.1862208,-0.5185778,0.4435139
1.2655,-0.199862,-0.1377404,0.01441064,-0.3147087,0.6529642
1.166981,-0.3630407,-0.175855,0.2660554,-0.03360666,0.5465216
1.023923,-0.3688012,-0.1668507,0.1873848,0.3441421,0.2822673
0.9411983,-0.2611385,-0.1460561,-0.1265949,0.4635031,-0.090797
0.8976696,-0.130377,-0.114401,-0.3957939,0.2606722,-0.4594707
0.9104338,-0.0500455,-0.06618021,-0.4224043,0.003734106,-0.2246695
0.9688473,-0.0900848,-0.06362662,-0.2284455,-0.2901246,0.1917981
1.022024,-0.1369736,-0.07142364,-0.0594899,-0.5549715,0.3306696
1.027819,-0.1216242,-0.05783433,0.1892784,-0.5697793,0.4443324
0.9854767,-0.1311739,-0.09132067,0.3219073,-0.4388213,0.2220735
0.9234299,-0.1006617,-0.131192,0.1528394,-0.3759766,-0.02902311
0.8684719,-0.05664334,-0.1350398,0.09328331,-0.3816617,0.02965555
0.8805639,-0.04730295,-0.142111,0.1118079,-0.4105257,0.08075406
0.9207242,0.005294629,-0.1569183,0.06227013,-0.3659609,0.2687025
0.9185699,0.0179563,-0.1817207,0.04950168,-0.2539354,0.374243
0.9574459,-0.02563891,-0.1934259,-0.01220681,-0.09124934,0.2992055
1.015615,-0.05060131,-0.1963222,-0.03709673,0.06704752,0.2771396
1.004342,-0.07803999,-0.2038736,0.001378268,0.09291669,0.1377504
0.9912214,-0.08075959,-0.1702868,0.03670316,0.1705218,0.02689328
0.98734,-0.05833893,-0.132518,0.1590222,0.279006,-0.02058328
0.9692623,-0.04590851,-0.1193134,0.2409574,0.2283535,-0.08761097
0.9724677,-0.03430989,-0.1175832,0.2590674,0.1229166,-0.09689159
1.000238,-0.02394952,-0.1399099,0.342011,0.03201289,-0.1482389
1.062673,-0.007289113,-0.1461503,0.388951,0.122653,-0.1895843
1.15356,0.0314535,-0.1442037,0.3111358,0.3778047,-0.2718834
1.210125,0.0870446,-0.1341228,0.1331352,0.4623446,-0.358083
1.164502,0.1181504,-0.07893893,0.03322474,0.2814974,-0.3110678
1.108932,0.1029678,-0.02114548,0.2029739,0.04660194,-0.3020952
1.181637,0.04038248,-0.004181089,0.5102857,0.06464118,-0.2611551
1.289748,-0.05538646,-0.03548481,0.6215024,0.1740465,-0.07526339
1.337232,-0.07696859,-0.05683098,0.3410783,0.1355696,0.1238432
1.263223,-0.05369341,-0.06643313,-0.1463502,0.1266454,0.1801591
1.042596,-0.1417114,-0.1166234,-0.4989129,0.1020567,0.03593257
0.8953972,-0.2679112,-0.1236772,-0.541562,0.08237006,-0.06923158
0.9239762,-0.3492427,-0.06827936,-0.2174846,0.123996,-0.08809923
1.029885,-0.3959081,-0.03512252,0.2308641,0.08577379,-0.272614
1.141295,-0.3045732,-0.04562972,0.3729705,0.1254629,-0.470232
1.15763,-0.1035204,-0.0606534,0.2310095,0.2389505,-0.329236
1.069043,0.03671742,-0.04224925,0.01291397,0.2873702,-0.01286467
0.9622726,0.06126274,-0.02845828,-0.2584617,0.2798275,0.2088868
0.9126124,-0.01116311,-0.01562395,-0.3179372,0.2413977,0.353446
0.9046385,-0.1006421,0.002871709,-0.1178245,0.3761911,0.2659493
0.8755553,-0.1263514,0.0007841084,-0.04024967,0.5805012,0.06849816
0.853749,-0.1180136,0.03621829,-0.04317875,0.6222616,0.04050838
0.8378397,-0.09759727,0.09241707,-0.01276291,0.5167453,-0.02967965
0.8327133,-0.05727892,0.1276707,-0.03410692,0.262301,-0.06909002
0.8515437,-0.0204686,0.1446457,0.000954605,0.03219504,-0.0291098
0.8536405,0.00894648,0.1161784,0.03955396,-0.04997242,-0.07252851
0.8595967,0.02699656,0.0977501,0.06898113,-0.004783811,-0.01427108
0.8639844,0.0399883,0.1109957,0.1890112,0.05488603,0.0002572884
0.8779545,0.06927295,0.123563,0.2608497,0.02184737,-0.110455
0.935041,0.1013643,0.1387545,0.2378471,0.03771848,-0.1729489
0.9938968,0.1124215,0.117654,0.07020602,-0.005432696,-0.1937107
1.054826,0.07644929,0.08951709,-0.2390175,-0.1312019,-0.05547349
1.139058,0.00776022,0.1017977,-0.3444736,-0.1552972,0.02677728
1.23433,-0.02190771,0.1124536,-0.06663261,-0.175326,-0.1685955
1.277957,0.06010395,0.1198763,0.2568177,-0.1221178,-0.4367796
1.256684,0.2397699,0.1313687,0.2219782,-0.05716267,-0.523885
1.238797,0.3568024,0.1139983,-0.05354178,-0.2024012,-0.1791147
1.208754,0.2926909,0.06593461,-0.2426046,-0.4711503,0.4266986
1.200136,0.07007274,-0.005302447,-0.1937216,-0.64515,0.890849
1.222904,-0.2334395,-0.094701,0.04068184,-0.3966696,0.9469522
1.178835,-0.4337775,-0.1530249,0.1505545,0.1263873,0.5737941
1.099307,-0.4136038,-0.1433214,0.04340772,0.4738815,0.07503967
1.002221,-0.3006685,-0.08394975,-0.1984815,0.5586398,-0.4130832
0.9155181,-0.1782699,-0.01141135,-0.4118426,0.2622462,-0.6326478
0.9024239,-0.07828597,0.02535618,-0.2864325,-0.2292076,-0.3252332
0.8976562,-0.08937321,0.01873768,0.04699582,-0.5414005,0.09323802
0.9140552,-0.1176836,-0.01702192,0.3329761,-0.7148474,0.2483555
0.9310183,-0.1116361,-0.09528975,0.4205483,-0.7039346,0.2082258
0.8901494,-0.1300888,-0.1673971,0.2338733,-0.5601315,0.119902
0.8680169,-0.09823316,-0.1858476,0.1278436,-0.4373351,0.09891876
0.8617014,-0.05284688,-0.1884186,0.1502722,-0.2246864,0.1322324
0.8681883,-0.04995027,-0.1775012,0.09762986,-0.0615683,0.1826515
0.9056286,-0.05334792,-0.1456909,0.07881295,-0.052915,0.2314881
0.9562664,-0.07484575,-0.1406863,0.03880831,-0.0494045,0.1983093
1.012994,-0.07994517,-0.1583667,-0.02046624,0.004113738,0.1294414
1.010724,-0.07838355,-0.1582923,0.02288424,0.1778076,0.09005394
0.9762871,-0.06075188,-0.1279839,0.1598598,0.3630087,0.0154144
0.9558172,-0.004394327,-0.0751124,0.3885628,0.4349234,-0.05138223
0.9526455,0.02358754,-0.04464443,0.5241511,0.4216651,-0.07293189
1.008971,0.04379399,-0.04331609,0.5208968,0.3105144,-0.08806586
1.083553,0.07001836,-0.03756691,0.5501748,0.1975143,-0.0793044
1.139404,0.1108344,-0.03907991,0.5180219,0.1765678,-0.08627301
1.157382,0.1959059,-0.03484844,0.2784601,0.3089138,-0.1544527
1.153455,0.2346218,0.008775899,-0.07010816,0.4237475,-0.2929323
1.191119,0.1914865,0.0499837,-0.1484392,0.2122954,-0.4649041
1.259256,0.1097597,0.03714753,0.1401187,-0.07418795,-0.5012804
1.335882,0.01110834,0.01163487,0.2936596,-0.1409528,-0.225291
1.300274,-0.03737218,-0.007539453,0.1066768,-0.1281119,0.2167656
1.122155,-0.06492582,-0.1064676,-0.2640715,-0.1054996,0.3560536
0.9980075,-0.1789072,-0.2182175,-0.7288443,0.05686404,0.1644188
0.9892301,-0.2728818,-0.1738689,-0.9034917,0.3041703,0.02411337
1.050415,-0.3301592,-0.05232231,-0.5246114,0.2742579,-0.1504701
1.132688,-0.4631111,0.02140199,0.02340888,0.02938191,-0.5157183
1.206428,-0.4199299,0.04393764,0.3677888,-0.03848231,-0.7086955
1.19337,-0.1474328,0.004006701,0.3833922,0.07626647,-0.4920058
1.05316,0.0717682,-0.01648355,0.04151278,0.2411048,-0.1535625
0.9965325,0.1680423,0.01193699,-0.3751696,0.2738132,0.08959509
0.9819851,0.09033319,0.01208058,-0.6145325,0.2100437,0.2599637
0.889557,-0.004389917,0.03145864,-0.6058806,0.2633223,0.2462913
0.8528085,-0.03466916,0.05826667,-0.438894,0.3081567,0.142774
0.8211872,-0.1303453,0.05924738,-0.3706254,0.3268772,0.1132725
0.794442,-0.08378485,0.08695489,-0.3275299,0.2730792,0.04439416
0.8058105,-0.01877738,0.09368707,-0.2966466,0.06844953,0.07262921
0.8072631,-0.07248158,0.08778034,-0.3377006,-0.0390959,0.1815496
0.8363244,-0.03055816,0.09904277,-0.2574688,-0.08199311,0.1447009
0.8495485,-0.04061439,0.09935394,-0.1612166,-0.1062274,0.08359402
0.8650362,-0.0447093,0.1144081,-0.06541814,-0.07502159,-0.05649579
0.8983958,0.03000545,0.1129154,0.04389136,-0.1114306,-0.2422759
0.9510178,0.04302151,0.1032366,0.0136024,-0.1069423,-0.2687602
1.046847,0.09766817,0.1122517,-0.08377543,-0.09990963,-0.2422737
1.097312,0.09185416,0.09822617,-0.2975817,-0.1454789,-0.1626997
1.133852,0.02141194,0.09686001,-0.4438334,-0.1368969,-0.06746104
1.189947,0.01880177,0.1220781,-0.2977008,-0.1785463,-0.08661523
1.24736,0.06874396,0.1375411,-0.07413475,-0.2206832,-0.2171905
1.289856,0.2021797,0.1236137,0.07894768,-0.1788386,-0.3251116
1.26258,0.2448745,0.08514057,-0.03098041,-0.1757465,-0.1084521
1.255741,0.1582184,0.05345621,-0.2880089,-0.2892339,0.3221785
1.264898,0.009127548,6.842746e-05,-0.277647,-0.4367175,0.6245866
1.218936,-0.2450105,-0.06624743,-0.03525216,-0.4097573,0.7023028
1.167635,-0.3522895,-0.08765252,0.2501786,-0.1813148,0.5386363
1.052257,-0.2923883,-0.07728747,0.3405859,0.136893,0.3032487
0.9009005,-0.3226131,-0.06967295,0.1762259,0.3195012,-0.004707717
0.893378,-0.3194937,-0.07242921,0.00672043,0.1630516,-0.4140609
0.965843,-0.1500892,-0.04983697,-0.142202,-0.07767417,-0.490937
0.9601132,-0.01944613,-0.02091495,-0.06987767,-0.2707554,-0.1434727
0.9656071,-0.05500967,-0.03429633,0.2544078,-0.4467197,0.2024907
1.000905,-0.1141045,-0.04344748,0.3797064,-0.3972906,0.3072761
0.9819222,-0.1140163,-0.05047031,0.386744,-0.3473873,0.1995768
0.9691218,-0.1174815,-0.08001007,0.30547,-0.4595112,0.06334019
0.920408,-0.1044968,-0.09688852,0.08565258,-0.4861547,-0.006638273
0.8702234,-0.05072832,-0.1218862,0.0783679,-0.5042684,0.004095883
0.9119664,-0.02771098,-0.1615305,0.1034511,-0.3956959,0.1779167
0.9298965,-0.02805253,-0.1758464,0.04727964,-0.1027764,0.3303291
0.9474141,-0.02960071,-0.1693901,0.04038609,0.01078548,0.3103241
0.9722039,-0.06604852,-0.1543845,-0.02972318,0.009615964,0.2840793
0.9403646,-0.09756507,-0.1315617,-0.03443049,-0.007843903,0.2532281
0.9402703,-0.1027538,-0.1229472,0.03115293,-0.03673477,0.1652193
0.9669882,-0.08620589,-0.1345976,0.1188395,0.07167997,0.1076228
0.9941628,-0.05967415,-0.1341892,0.2361385,0.2358734,0.08345993
1.01477,-0.04181761,-0.1078982,0.3229258,0.3873629,0.02060981
1.010269,-0.012043,-0.08212805,0.4478016,0.4193361,-0.03560172
1.015262,-0.0101818,-0.07991005,0.4985127,0.2816074,-0.02777288
1.023074,-0.009083552,-0.08541752,0.506939,0.1803044,-0.0927134
1.076344,0.03880713,-0.08611191,0.5020997,0.2100269,-0.2580535
1.175459,0.09920381,-0.09320382,0.2735871,0.3904784,-0.4109377
1.213151,0.1987245,-0.07458458,0.000571528,0.5135571,-0.4790296
1.194785,0.2447307,-0.007915692,-0.01487766,0.2875302,-0.4185405
1.204092,0.1487505,0.05626502,0.2409948,-0.01940204,-0.3190836
1.239551,0.0586864,0.06322796,0.3933015,-0.05664935,-0.1373579
1.237303,0.05186879,0.002508553,0.1266022,-0.04592831,0.1762494
1.1892,0.03715751,-0.07786827,-0.2816772,-0.1081478,0.3728234
1.091946,-0.06518353,-0.1351342,-0.553496,0.08624904,0.3388012
0.9721615,-0.2653133,-0.1425038,-0.636537,0.5116315,0.1848815
0.9246274,-0.4830358,-0.05815302,-0.4823665,0.7018989,-0.005845959
0.9575438,-0.5378749,0.0503302,-0.08099892,0.3066162,-0.2866221
1.077112,-0.3697776,0.06581717,0.4529132,-0.23067,-0.6757409
1.212543,-0.159774,0.01453184,0.6772005,-0.1310618,-0.8132857
1.182996,0.006663509,-0.01678304,0.3677621,0.1971042,-0.4548377
1.083588,0.1538699,-0.01237445,-0.04254643,0.2723228,0.02973706
1.034868,0.1609129,0.02187538,-0.3407197,0.306023,0.3026763
0.9459165,0.0274643,0.06579356,-0.5357437,0.2491738,0.365142
0.8790659,-0.06853466,0.06626183,-0.4106418,0.3168422,0.2279974
0.8462519,-0.1053938,0.06972728,-0.2885534,0.4341044,0.06946915
0.7725342,-0.1010819,0.126685,-0.3464068,0.3233822,0.05536138
0.7792951,-0.06193229,0.161055,-0.2540967,0.2502176,0.08975315
0.8339181,-0.05105247,0.1620685,-0.2410532,0.07645165,0.1239574
0.840269,-0.0296921,0.1506512,-0.2561986,-0.09661628,0.1034569
0.8469954,-0.0004465912,0.1251962,-0.1352081,-0.07862475,0.04054712
0.823942,0.01887161,0.1245105,-0.146721,-0.1485603,0.0001318769
0.813426,0.06412253,0.1225752,-0.1348456,-0.1627362,-0.06071192
0.8397099,0.07112021,0.1102954,-0.1283982,-0.1701964,-0.06683336
0.8913789,0.04553926,0.1058479,-0.2181737,-0.2397401,-0.05693872
1.029127,0.01783936,0.07096609,-0.254777,-0.2160501,-0.1026533
1.121981,-0.01109768,0.03374483,-0.2984822,-0.2278193,-0.113121
1.116408,-0.008039873,0.04622086,-0.2071405,-0.1537887,-0.1417919
1.145721,0.01359905,0.1057264,0.02491168,-0.05858046,-0.276362
1.211573,0.1261244,0.1804142,0.2009749,-0.1824936,-0.51652
1.273795,0.3209059,0.203611,0.1467758,-0.3733327,-0.5797046
1.333947,0.4007219,0.1526826,-0.2102681,-0.5468577,-0.184593
1.386581,0.2758545,0.07512111,-0.5134188,-0.6778784,0.3992408
1.394479,-0.007387875,0.001900773,-0.503356,-0.6881737,0.8082996
1.307081,-0.3545288,-0.05353671,-0.116371,-0.5504364,0.8399702
1.095993,-0.5732525,-0.0826312,0.3278911,-0.2828024,0.5471248
0.8622197,-0.5554035,-0.1019854,0.3918279,0.07477428,0.2458569
0.8091546,-0.4936244,-0.09204605,0.3666385,0.3336452,-0.007789307
0.8799523,-0.3840099,-0.04973875,0.2729515,0.182358,-0.3048997
0.9081627,-0.1388866,-0.02387574,0.07862991,-0.1394825,-0.4484744
0.9718658,-0.07584913,-0.01355789,0.2837168,-0.3084041,-0.169813
1.054127,-0.1434378,-0.02266854,0.5807532,-0.4988751,0.163517
1.018513,-0.1005776,-0.04866456,0.5549653,-0.5496163,0.1120741
0.956802,-0.09590271,-0.07636352,0.5441325,-0.4172778,0.04758414
0.8977668,-0.07764413,-0.1065037,0.5363004,-0.4349288,0.1157331
0.8013097,-0.009762485,-0.1107441,0.4330733,-0.4486591,0.1596036
0.8037777,-0.009966332,-0.1357953,0.4633897,-0.4119998,0.2821868
0.8615875,-0.02735405,-0.1800844,0.5278445,-0.361859,0.3079913
0.9187562,-0.06290017,-0.1797335,0.5505891,-0.1202915,0.2232241
1.027057,-0.09369146,-0.1808568,0.603817,0.1111917,0.162574
1.031035,-0.06775749,-0.1690642,0.5641728,0.2356719,0.02762487
0.9781785,-0.01660235,-0.1263127,0.5080056,0.324101,-0.0167928
0.9928332,0.04368154,-0.09589001,0.4976769,0.3543768,0.03366657
0.9532323,0.07290447,-0.07104247,0.4886817,0.3629086,-0.00324237
0.9237028,0.07132926,-0.06178884,0.5679726,0.29864,0.009243962
0.9633887,0.07224859,-0.05875643,0.683307,0.2315111,0.05173223
0.999626,0.06083031,-0.04965136,0.8068991,0.1898906,0.02234738
1.091279,0.05699275,-0.04251571,0.824776,0.1413119,-0.04344383
1.210008,0.098839,-0.03267285,0.5437008,0.157103,-0.2384297
1.263536,0.1740115,-0.03165463,0.1965436,0.1552483,-0.4489888
1.272838,0.208796,-0.02039448,0.1455632,0.1190769,-0.4618546
1.292715,0.1393022,-0.001976889,0.4099025,0.09657654,-0.3674795
1.318208,0.03836715,-0.01427821,0.5504148,0.09775538,-0.1577297
1.253903,0.01186761,-0.0494081,0.2256412,0.1153233,0.1784182
1.089215,0.009565002,-0.09373257,-0.2567525,0.1130184,0.3198068
0.9251304,-0.1116301,-0.1295376,-0.5196165,0.1758884,0.1904779
0.8702569,-0.3716254,-0.1008762,-0.5274241,0.2162475,0.01419721
0.9788596,-0.5352767,0.02589647,-0.3721277,-0.004982438,-0.2972421
1.094002,-0.4518003,0.1344835,-0.09212878,-0.459616,-0.7236289
1.142882,-0.3016004,0.05698864,0.1333397,-0.6956835,-0.8533919
1.235815,-0.1140274,-0.09060311,-0.04073224,-0.287624,-0.5684954
1.226287,0.13131,-0.1093181,-0.4511068,0.2916579,-0.08662468
1.08266,0.1818648,-0.09439274,-0.7740804,0.4624273,0.321117
1.001469,0.07734523,-0.08779378,-0.9977817,0.5195792,0.5009626
0.89614,-0.007778001,-0.02841914,-0.9391821,0.6372836,0.4646506
0.7850497,-0.1305419,0.008743442,-0.785901,0.6300245,0.2759305
0.7582396,-0.1794596,0.05531741,-0.8101365,0.4981552,0.1216846
0.7186126,-0.1282495,0.1102096,-0.6937136,0.2272567,0.02007493
0.7439161,-0.1077335,0.1047633,-0.5691226,-0.05857298,-0.01479929
0.7959413,-0.05535401,0.09934636,-0.5662767,-0.217594,0.04802507
0.8074364,0.001423041,0.08730159,-0.4766337,-0.2818384,0.01091683
0.8526845,0.01224178,0.08074771,-0.4461693,-0.2224165,-0.002953914
0.8438826,0.04714691,0.09260713,-0.3638778,-0.189143,0.02297403
0.8606976,0.05641173,0.08544309,-0.2893515,-0.224149,-0.006461643
0.9541086,0.02370756,0.09304621,-0.3800167,-0.2098851,0.0523931
1.025295,0.008576809,0.07829885,-0.380855,-0.2562742,0.0417554
1.13657,-0.01288095,0.02785424,-0.3434108,-0.2426109,-0.04694688
1.244679,-0.04069084,-0.0134986,-0.135453,-0.02582759,-0.1734481
1.294728,-0.02299809,-0.01548754,0.1864644,0.1731419,-0.3557979
1.303308,0.07943996,0.04095452,0.135189,0.1388474,-0.4214174
1.308076,0.2485321,0.07488577,-0.07567106,-0.08450569,-0.4177053
1.323785,0.3339919,0.05981304,-0.2775859,-0.3493447,-0.0708213
1.283199,0.210023,0.01799094,-0.4438569,-0.5641037,0.6554698
1.269118,-0.04432889,-0.05518596,-0.1441323,-0.4147525,1.064643
1.20061,-0.3017104,-0.105994,0.2476551,-0.01050194,1.028988
1.003266,-0.4598436,-0.1065083,0.1004456,0.2675458,0.6642403
0.9274974,-0.4570547,-0.07304116,-0.09869174,0.5324149,0.01287265
0.9586155,-0.3730557,-0.03624424,-0.1050527,0.4059085,-0.4425742
0.9616756,-0.2645715,-0.008896139,-0.1416699,-0.02373901,-0.5486771
0.9565551,-0.1775213,0.0007787467,0.1229128,-0.1712937,-0.4451408
0.9564057,-0.1415921,-0.02134941,0.526511,-0.4658295,-0.1793839
0.9529666,-0.07431146,-0.04303998,0.6393951,-0.6873018,-0.05335933
0.9141436,-0.04645443,-0.08289556,0.554996,-0.5835206,-0.04895775
0.8859701,-0.04458487,-0.149293,0.4005309,-0.5414827,0.03455525
0.8471144,0.01717672,-0.1822449,0.2997377,-0.2775728,0.0971558
0.817744,-0.009645908,-0.1728535,0.2000354,-0.08525672,0.1822024
0.8796297,-0.05941769,-0.1485011,0.2439271,-0.0923801,0.2364165
0.9220592,-0.05304886,-0.1336137,0.3919219,0.07081583,0.2095064
0.9496168,-0.05903786,-0.1218141,0.2630325,0.1133418,0.147183
0.9916123,-0.003998611,-0.1172398,0.1908683,0.1726406,0.04510117
0.9805468,0.04970208,-0.1157492,0.1864739,0.3004453,0.08520469
0.96356,0.06476771,-0.08788666,0.09708388,0.3250489,0.1224024
0.9513154,0.07428554,-0.07453331,0.2349697,0.355593,0.04557995
0.9596963,0.03757647,-0.07336469,0.3676317,0.2456337,0.02670388
0.9991446,0.01925691,-0.05926604,0.4477901,0.1243497,-0.05786589
1.045511,0.03636,-0.0629423,0.5129699,0.116897,-0.1577178
1.142875,0.1074244,-0.05739439,0.341397,0.209968,-0.1791778
1.23596,0.2193118,-0.02141144,0.06674411,0.3444011,-0.2395198
1.221855,0.2381008,0.01245796,-0.1490502,0.2106071,-0.3457357
1.188284,0.1698607,0.01499104,-0.03329613,-0.04724638,-0.4525195
1.249047,0.05610654,0.01075338,0.2918406,-0.1712763,-0.4092819
1.282212,-0.04880552,0.008851351,0.3796723,-0.04308984,-0.1011673
1.23089,-0.04161084,-0.05790421,0.2101972,0.2191147,0.2646445
1.160214,-0.04937081,-0.1290339,-0.2636462,0.1976418,0.259362
1.008216,-0.1818582,-0.1039993,-0.7339134,0.1074926,-0.03520165
0.8785435,-0.2991777,-0.03985468,-0.751193,-0.01652418,-0.2056603
0.9042674,-0.4090588,0.01303613,-0.3872691,-0.4628164,-0.4503952
1.097686,-0.4571543,0.02000177,0.1251668,-0.6259489,-0.7678258
1.373685,-0.2262215,-0.06427317,0.3337657,-0.08128932,-0.7386925
1.370668,0.06846058,-0.1326409,0.1327094,0.6281393,-0.4111865
1.145726,0.1906638,-0.06302463,-0.2455346,0.7919132,-0.02654212
0.9964373,0.1876774,0.03968483,-0.7694676,0.4160029,0.1825178
0.8307926,0.07754594,0.06393065,-0.9966431,0.1434041,0.2072319
0.764727,-0.02750355,0.05851472,-0.7673915,0.1460471,0.2387637
0.8079425,-0.09497681,0.0460226,-0.6537136,0.259462,0.2356539
0.7866459,-0.1266037,0.03958596,-0.6438696,0.3639548,0.2164337
0.8195284,-0.1154748,0.06302913,-0.516086,0.2977905,0.2118239
0.8267356,-0.1389746,0.08817665,-0.4829449,0.1831863,0.1590619
0.7803124,-0.1285451,0.1106972,-0.3735818,0.05251526,0.1142122
0.7906841,-0.09351116,0.1221469,-0.1589831,-0.1500724,0.07101567
0.7821892,-0.04207912,0.1151258,-0.1256074,-0.2623782,0.02053891
0.8012589,0.05154807,0.1008947,-0.09538765,-0.3156353,0.03612749
0.8367566,0.08745975,0.07191014,-0.07354213,-0.3288393,0.1399394
0.8951834,0.08930826,0.0475675,-0.1029798,-0.1732865,0.2954022
1.051272,0.02153087,0.03425238,-0.1015445,0.03320815,0.3672255
1.153417,-0.1005519,0.02147671,-0.2449032,0.08727129,0.2604761
1.166425,-0.1076627,0.03922233,-0.3122944,0.01435876,-0.007940344
1.235939,0.01628969,0.1076558,-0.1481032,-0.008519795,-0.4258661
1.37734,0.2181299,0.1672306,-0.05646061,0.02637946,-0.6845703
1.386756,0.405041,0.1450243,-0.2577493,-0.01216221,-0.4329708
1.250594,0.4856353,0.1102228,-0.613852,-0.1624641,0.1844743
1.218377,0.3001593,0.1077804,-0.6313802,-0.4658716,0.873551
1.256172,-0.1965915,0.02055657,-0.1633425,-0.7581474,1.122774
1.25661,-0.5990553,-0.1156203,0.4861338,-0.7314929,0.8578379
1.152062,-0.6259142,-0.1478015,0.8709507,-0.3959176,0.664431
0.9563608,-0.4646754,-0.1129501,0.8586637,0.1374414,0.2087619
0.8762896,-0.3140048,-0.06052566,0.6614196,0.4983725,-0.4378598
0.8342312,-0.1239407,0.02790193,0.2192853,0.287691,-0.5148402
0.7978278,0.01444302,0.06438588,-0.06263903,-0.1057572,-0.44628
0.8732236,-0.04781994,0.0368061,0.1597045,-0.4793839,-0.1472248
0.9165369,-0.06291336,0.02497062,0.3934871,-0.8869913,0.4728811
0.9130473,-0.0584769,-0.04876404,0.5404062,-0.8404034,0.5708738
0.9274157,-0.1511742,-0.1636136,0.5406695,-0.5247414,0.3679425
0.9199138,-0.1116256,-0.1540578,0.2765536,-0.3844436,0.1987383
0.8675,-0.08628718,-0.1187491,0.1472734,-0.3121662,0.04313476
0.8184825,-0.112927,-0.157503,0.2256936,-0.3820883,0.09453488
0.8592952,-0.06555123,-0.1620464,0.3148369,-0.3502027,0.1459943
0.9465075,-0.08506327,-0.1636695,0.3549943,-0.1296957,0.08676275
1.038756,-0.07740039,-0.1947418,0.344094,0.06442969,0.005973728
1.083835,-0.02669901,-0.1830947,0.290603,0.3436643,-0.07190831
1.014596,0.008648685,-0.1438175,0.1968041,0.4127111,-0.1195146
0.9424239,0.08901116,-0.08725446,0.2072757,0.3502222,-0.09034308
0.9170868,0.113708,-0.04904329,0.3115232,0.3803213,-0.04256359
0.8951661,0.1044164,-0.05847446,0.409118,0.1990742,-0.03285283
0.9177252,0.09355718,-0.05701029,0.4957148,0.03539916,0.033048
1.029136,0.05068932,-0.06910718,0.4638637,0.05107031,0.002159376
1.211024,0.06610048,-0.0994386,0.2840607,0.2540403,-0.1225977
1.297435,0.121734,-0.08017348,-0.05486754,0.5299885,-0.2894112
1.195113,0.1642697,-0.00582154,-0.3117216,0.4104424,-0.5293949
1.123933,0.1628547,0.07440703,-0.07826987,0.06739003,-0.5171303
1.166601,0.04720948,0.0684254,0.3731483,-0.1987094,-0.2972974
1.179839,-0.08624332,0.01015285,0.5779549,-0.1800003,0.02629286
1.184859,-0.1224318,-0.0557209,0.3598453,0.2138534,0.3637494
1.146137,-0.1811015,-0.1591424,-0.1659698,0.478314,0.2584988
0.9979892,-0.3152782,-0.121484,-0.4839721,0.3407773,-0.1563676
0.9347944,-0.4081798,0.02890631,-0.4819646,-0.2228518,-0.5691587
1.102076,-0.4283463,0.03062669,-0.2553563,-0.7573809,-0.8806211
1.378174,-0.3299172,-0.06304615,0.0768728,-0.4470887,-0.8932671
1.474597,-0.09717347,-0.1529966,0.04314404,0.3705432,-0.6206381
1.276714,0.09667922,-0.1421213,-0.2209709,0.8780062,-0.1713078
1.003562,0.1372016,-0.02482356,-0.5207787,0.7860164,0.1313026
0.818142,0.07080414,0.01535258,-0.8661202,0.327611,0.1911205
0.7328649,-0.01619046,0.03203174,-0.8056771,0.1914511,0.2858442
0.7255762,-0.1124765,0.0171018,-0.5867742,0.3644111,0.2611231
0.7275175,-0.203738,-0.02262493,-0.5144893,0.5029731,0.159432
0.7235382,-0.1957113,0.05055178,-0.3448488,0.6102038,0.103363
0.7331436,-0.1379003,0.104075,-0.2769464,0.3760191,-0.05658878
0.7528473,-0.07320452,0.1323156,-0.2581756,-0.02637742,-0.07620247
0.7871155,0.01462926,0.1388613,-0.2011594,-0.2140858,-0.02697828
0.8254221,0.051526,0.08442267,-0.2486493,-0.2866426,-0.0508184
0.853128,0.09115559,0.09286705,-0.1864495,-0.1779688,0.02428972
0.8962527,0.1214596,0.09287418,-0.1420501,-0.0280565,0.0253691
0.9749819,0.0845592,0.1045578,-0.2865894,0.02156406,0.02274969
1.078766,0.06559985,0.1312954,-0.442133,-0.07367349,0.08361835
1.18587,0.02824703,0.07377604,-0.5380108,-0.3417629,0.06587134
1.261506,-0.007262541,0.0522833,-0.4397465,-0.4052227,0.05032603
1.294183,0.03891617,0.06662829,-0.1060459,-0.3042809,-0.1471643
1.281763,0.1629822,0.08444391,0.2291154,-0.2388231,-0.5018597
1.247853,0.3725699,0.09840913,0.1794583,-0.2043182,-0.5326469
1.221348,0.4954427,0.06331787,-0.1975726,-0.4221375,-0.03939813
1.196363,0.3632795,0.02066824,-0.3270074,-0.7975521,0.725328
1.215789,0.001895009,-0.07808651,-0.1807296,-0.9541194,1.221413
1.244835,-0.3801075,-0.1805035,0.02770884,-0.545449,1.195127
1.218095,-0.4751134,-0.1575669,0.1765724,0.496273,0.87265
1.166349,-0.4821142,-0.08353165,0.1134819,1.454078,0.3098542
1.020712,-0.5702587,-0.01108811,0.08583146,1.367376,-0.4708689
0.8528837,-0.4407219,0.09518808,0.1694783,0.5159618,-0.8712811
0.8284858,-0.2910453,0.1472526,0.3450908,-0.2097693,-0.6649252
0.8002019,-0.1526574,0.1267374,0.6462472,-0.9084793,-0.3772106
0.7779132,0.09212933,0.08448542,0.7517095,-1.226361,-0.0249895
0.8850643,0.03071348,-0.08955388,0.6746502,-0.8527741,0.3649392
0.9227803,-0.03326643,-0.2186688,0.6087255,-0.5217371,0.4094391
0.892962,0.02868632,-0.1757364,0.5035148,-0.05864015,0.3517024
0.8841359,-0.08555153,-0.1737405,0.4196354,0.2440209,0.3079578
0.8170624,-0.04732758,-0.1227861,0.4136015,-0.05110549,0.1169255
0.8324041,-0.02581134,-0.07340446,0.3891271,-0.1218964,-0.003724129
0.9359468,-0.0591504,-0.1131824,0.3105315,-0.1369106,-0.006470941
1.003278,0.03857292,-0.09823429,0.2575648,-0.0206086,0.03563015
1.038263,0.02166611,-0.1176187,0.2258969,0.4532562,0.09626613
0.9833827,0.05765196,-0.1036192,0.2711026,0.4353237,0.1084401
0.9351201,0.07478941,-0.03984834,0.4167847,0.2624581,0.1081427
0.9306544,0.02192759,-0.03123535,0.5513902,0.2353078,0.07289929
0.9373199,0.06542936,-0.01038274,0.6613047,0.03090533,0.03080896
1.054776,0.05137874,-0.03960391,0.6253986,0.03789277,0.003578534
1.187247,0.1207327,-0.06894506,0.3472533,0.189077,-0.07290474
1.262196,0.2236939,-0.05512546,-0.07344071,0.256782,-0.1860148
1.254611,0.2053082,-0.0386135,-0.2812919,0.2593478,-0.3259344
1.205038,0.1621725,0.02439847,0.006721278,0.09548865,-0.368227
1.241737,0.03448656,0.03024318,0.3458999,0.004963797,-0.2563252
1.219999,-0.1157519,-0.02602545,0.4073748,0.1338782,-0.09257024
1.113423,-0.2090833,-0.05487934,0.2379543,0.2789115,0.05677712
0.9526971,-0.2440292,-0.03418679,-0.1464971,0.2211503,0.00580351
0.8166001,-0.2866228,0.0128545,-0.3724374,-0.1250385,-0.3077894
1.030421,-0.3461536,-0.009803861,-0.3512848,-0.5962419,-0.6490381
1.370766,-0.231478,-0.0798703,-0.2881252,-0.72161,-0.7913898
1.454134,-0.01485006,-0.1386219,-0.2121603,-0.09626981,-0.7275306
1.316667,0.1301333,-0.1161916,-0.3090675,0.7142466,-0.4572797
1.047703,0.1573638,-0.006622498,-0.5982547,0.8531639,0.01926435
0.8353549,0.08479027,0.05507976,-0.9639427,0.4124814,0.2458534
0.7489485,0.02634915,0.06874739,-1.128375,-0.02614507,0.1982546
0.7554792,-0.04175476,0.03317986,-0.9119085,-0.04384393,0.3303174
0.7994383,-0.136629,-0.01042738,-0.7701013,0.2683416,0.3310552
0.7685282,-0.168533,0.02757205,-0.7592507,0.4785127,0.1755595
0.761186,-0.1385,0.05000548,-0.704537,0.3503141,0.1492328
0.7600338,-0.0933675,0.07090472,-0.7098593,0.02444422,0.0319361
0.7470109,-0.05324721,0.08974748,-0.5975537,-0.1983872,0.005785482
0.8083915,-0.02867421,0.04638742,-0.4778595,-0.2669666,0.08471694
0.8318048,-0.02171625,0.0433226,-0.4196102,-0.1574728,0.06991771
0.851587,0.02491255,0.06375641,-0.2679281,0.002390738,0.1076673
0.8934346,0.07577418,0.07911825,-0.2513472,0.05051533,0.09096698
0.9531934,0.0331326,0.09784354,-0.2961152,0.08221464,0.07152028
1.093727,-0.02428945,0.07841553,-0.2879843,-0.1001205,0.08275118
1.159145,-0.04396107,0.06438601,-0.3163522,-0.329783,0.02732674
1.192292,-0.04509769,0.04852952,-0.1994266,-0.2897939,-0.005401641
1.332594,0.04881158,0.03540421,0.09228325,-0.2461267,-0.2292714
1.482118,0.2177347,0.03022684,0.2962079,-0.2013053,-0.4922447
1.509987,0.2862382,-0.0009415449,0.1128343,-0.1755591,-0.338578
1.405328,0.2068999,-0.004650129,-0.122378,-0.2778417,0.1320201
1.352048,0.06022037,-0.01922544,0.04897712,-0.3243189,0.7595681
1.303811,-0.1495298,-0.06857696,0.1791322,-0.1456014,1.136085
1.142208,-0.3467964,-0.08810192,0.1807065,0.2486717,0.7409029
1.003601,-0.4460511,-0.09450728,0.2335781,0.4348945,0.2016756
0.9446795,-0.4805064,-0.07277655,0.09261732,0.277475,-0.03649311
0.9861659,-0.4045932,-0.03579398,0.06878338,0.1381269,-0.5198397
0.9952093,-0.2801407,-0.01705376,0.3035968,0.004959292,-0.6819344
0.9043627,-0.1931506,0.01732612,0.5461425,-0.3636522,-0.2533616
0.8595417,-0.09026687,0.02561265,0.7328567,-0.7565781,-0.09146136
0.8146369,-0.05481481,-0.01525775,0.6502816,-0.7853348,0.07635749
0.8187997,-0.04474983,-0.07644656,0.5071105,-0.5952454,0.2208005
0.8488288,0.02025016,-0.1471302,0.4160503,-0.3620572,0.06318235
0.8125512,0.03049622,-0.1692761,0.1788848,-0.1543136,0.09687175
0.8542583,0.02103131,-0.1589767,0.1134179,-0.1431872,0.0738559
0.9157684,0.009789111,-0.1712624,0.1215937,-0.1183192,0.008653745
0.9787204,-0.006266745,-0.1757263,-0.02048864,0.06673292,0.08368429
1.038927,0.008955376,-0.1757307,-0.07200292,0.3280565,0.0348675
0.9889059,0.0002318064,-0.1602376,-0.06731155,0.5204284,0.06356609
0.964455,-0.001193726,-0.1037734,-0.005800279,0.5125249,0.07818846
0.9333882,-0.008334379,-0.06391019,0.1293962,0.4397191,0.01388765
0.8798089,-0.03367785,-0.05137394,0.2999935,0.2782364,0.004902219
0.9659123,-0.02017098,-0.05044797,0.5432461,0.1187299,-0.07561065
1.107998,0.005435124,-0.06751275,0.6592103,0.1701993,-0.1164569
1.207188,0.07468447,-0.07611372,0.5684344,0.2718676,-0.128681
1.220209,0.1856563,-0.06956915,0.2693483,0.3266925,-0.1315544
1.191124,0.2504288,-0.01229793,-0.1246747,0.2223878,-0.1116622
1.214185,0.2154403,0.08982288,-0.1478525,-0.08858902,-0.1956709
1.21993,0.1006881,0.1065353,0.1863642,-0.2869219,-0.2077038
1.238684,-0.002085365,0.001517891,0.3447821,-0.148273,-0.006048445
1.277827,-0.05378017,-0.1036104,0.149195,0.1872891,0.2903875
1.193035,-0.0839638,-0.1090475,-0.2301867,0.4812768,0.3754875
1.034898,-0.2004274,-0.06305322,-0.6216242,0.5359914,0.1353517
0.959403,-0.3671388,-0.02271612,-0.7248042,0.0110426,-0.1973015
1.056399,-0.3971294,0.02192572,-0.3561512,-0.7231248,-0.5420591
1.283015,-0.3050606,-0.01565552,0.05490499,-0.6872019,-0.6526619
1.413348,-0.1271402,-0.1184327,0.09065328,-0.01935203,-0.435366
1.301421,0.05167299,-0.1253806,-0.07932389,0.5889218,-0.1920868
1.041539,0.07864636,-0.04524115,-0.328121,0.7198392,0.09466038
0.8138906,0.02485945,0.04432998,-0.6552242,0.2970909,0.2402439
0.6947452,-0.0350896,0.0714558,-0.7338994,0.0733848,0.142278
0.6738239,-0.09100516,0.03685678,-0.49197,0.268296,0.1733369
0.6851869,-0.1216211,0.06011774,-0.3536714,0.349705,0.1919676
0.679219,-0.1226148,0.1055814,-0.4016888,0.3106343,0.1259836
0.7270974,-0.08800627,0.1260105,-0.4073083,0.1175102,0.1333591
0.7842953,-0.05101362,0.1383909,-0.366147,-0.2236687,0.03524678
0.8060932,-0.02007237,0.09955567,-0.3095724,-0.3245536,-0.03603452
0.8509262,-0.007124924,0.07209005,-0.2155318,-0.227704,-0.04501002
0.8612269,0.02200752,0.07553614,-0.1537215,-0.1935925,-0.1144461
0.8889804,0.0740293,0.08154252,-0.162917,-0.1115367,-0.06081149
0.9793642,0.06836223,0.1009377,-0.1846149,-0.02569609,-0.009324862
1.063518,0.05307668,0.07708998,-0.223082,-0.1518142,-0.0486311
1.133597,0.04429137,0.05270998,-0.2738572,-0.2553612,-0.03553723
1.192822,0.01620451,0.05050168,-0.178433,-0.1894833,-0.06167323
1.305574,0.02190266,0.03308784,0.07376249,-0.1006069,-0.2006895
1.381217,0.1120986,0.0654676,0.2221978,-0.01678894,-0.3644572
1.374007,0.2754315,0.1016892,0.114072,-0.124415,-0.2986785
1.408434,0.2959143,0.05886573,-0.007487093,-0.4220516,0.1844496
1.390605,0.07225671,-0.01532426,0.1255526,-0.5644994,0.877657
1.326625,-0.2305418,-0.08717423,0.3564399,-0.3862221,1.148665
1.195717,-0.4521436,-0.1336701,0.5077453,0.05629274,0.6450448
0.9497346,-0.468954,-0.1056476,0.4424807,0.4660704,0.1099908
0.8873546,-0.3715784,-0.05263123,0.1458798,0.5392396,-0.02067589
0.9573875,-0.2983188,-0.03136672,0.02560135,0.320951,-0.2253828
0.9403516,-0.223342,0.01169981,0.1126895,0.05105705,-0.3255707
0.9467634,-0.1732028,0.03390106,0.2974704,-0.2451233,-0.1314619
0.9175766,-0.1371804,0.001139451,0.6167148,-0.5699506,-0.0590514
0.8406121,-0.1064004,-0.01996404,0.6918639,-0.7024634,-0.0629238
0.8525292,-0.1083121,-0.07806244,0.5738772,-0.7057956,0.03490953
0.8700427,-0.07754047,-0.1591091,0.5247037,-0.5981854,0.1451254
0.8533444,-0.04810147,-0.1776035,0.4328906,-0.3107808,0.187552
0.8689954,-0.07080091,-0.168005,0.4201013,-0.1409319,0.1996876
0.8923448,-0.08839301,-0.164343,0.4942303,-0.03148745,0.2380911
0.9326882,-0.09775977,-0.1559163,0.5037664,0.07543108,0.1640469
0.9986002,-0.0947796,-0.1403367,0.4575761,0.07595372,0.04445247
1.013925,-0.03918464,-0.1323182,0.3944168,0.2362847,0.02600798
0.9993491,0.05297686,-0.1019483,0.376973,0.4174809,0.0262079
0.9917696,0.1112006,-0.0490673,0.3958352,0.4147253,0.04271487
0.9464687,0.09749476,-0.04058347,0.4246061,0.3331387,0.03614137
0.931882,0.07622685,-0.04545362,0.4785146,0.1098333,0.02296607
1.019925,0.08091725,-0.05062846,0.5573311,-0.05011289,0.03026226
1.147828,0.07591722,-0.07580325,0.5491607,0.0816651,-0.04713028
1.219922,0.1101233,-0.06387021,0.311063,0.3060633,-0.2061415
1.187077,0.1921109,-0.01982849,-0.06273132,0.3873356,-0.4339532
1.12761,0.2111326,0.03432147,-0.2225423,0.2695065,-0.5649914
1.106721,0.1425416,0.08236492,0.06282066,0.02311538,-0.4820083
1.111769,0.06736091,0.07098741,0.4580299,-0.1171084,-0.2489965
1.154283,0.001090296,0.01430218,0.5224562,0.1063048,0.1366245
1.178335,-0.1449759,-0.06535633,0.1355439,0.4094076,0.2736788
1.147668,-0.2831714,-0.1039395,-0.5143386,0.3258821,-0.01842999
1.085593,-0.2970496,-0.008604234,-0.766016,-0.1555108,-0.309612
1.074259,-0.3516482,0.05645286,-0.4873767,-0.8457831,-0.5501272
1.313867,-0.371634,-0.07345511,-0.2629258,-1.073498,-0.737286
1.572119,-0.2273704,-0.1829618,-0.116473,-0.2670641,-0.7138623
1.391944,-0.04894999,-0.1279635,-0.009069446,0.7207743,-0.4419037
1.078744,0.1757642,-0.1025043,-0.2866354,0.8812723,0.02871051
0.9973833,0.1878974,-0.1203784,-0.7850511,0.4519737,0.2256116
0.8851815,-0.004778404,-0.005581669,-1.00437,0.01835828,0.191308
0.7251007,0.004699494,0.09712552,-0.8431216,-0.1120197,0.3314243
0.7206995,-0.07151271,0.0258971,-0.6463847,0.1541699,0.3080578
0.7736604,-0.1797795,-0.02703754,-0.6328456,0.5225417,0.1885738
0.7743482,-0.09120184,0.02439233,-0.623772,0.5516024,0.1500349
0.7505927,-0.1272015,0.06087034,-0.5969596,0.2383933,-0.03048261
0.7435052,-0.08835052,0.08117248,-0.5691073,-0.1238879,-0.04345279
0.720518,-0.005210565,0.08706513,-0.4223211,-0.3183435,0.05424548
0.7254226,-0.04219884,0.05630769,-0.3063025,-0.2223843,0.02558628
0.8027224,0.03341351,0.06104071,-0.1931547,-0.08456605,0.05787345
0.8616278,0.03513901,0.08361974,-0.02378741,-0.03495324,0.0367518
0.9444588,0.01465147,0.08808248,-0.01594604,0.03295208,-0.001544288
1.060337,0.04912991,0.1024658,-0.07171674,-0.1368348,0.01894744
1.169501,0.006714326,0.06136397,-0.1401087,-0.3215684,0.01088479
1.272509,0.03624044,0.01400847,-0.1999556,-0.2037673,0.01872448
1.332,0.06722464,0.03919891,-0.004486371,-0.1091648,-0.1178519
1.411039,0.1294876,0.05487312,0.1875924,-0.06885855,-0.3404568
1.408359,0.2701266,0.06476019,0.04566841,-0.12817,-0.3093284
1.312951,0.3115388,0.07276603,-0.0757511,-0.3745921,0.1539852
1.290583,0.1984557,0.04000989,0.09968906,-0.4886971,0.8668201
1.25347,-0.09691755,-0.01486199,0.2922193,-0.3712284,1.117099
1.178835,-0.3675116,-0.08278449,0.3832727,-0.07350757,0.7234613
1.053852,-0.4594037,-0.1277225,0.3562419,0.3323562,0.3339382
0.961615,-0.4467879,-0.1347293,0.1343407,0.5384384,0.04612
1.01552,-0.350191,-0.09411345,0.004769374,0.3941335,-0.3643744
0.9613701,-0.2352381,-0.008744836,0.07246632,0.1562602,-0.4996127
0.8533599,-0.1516465,0.03403189,0.3160248,-0.1471226,-0.1938722
0.858544,-0.1553178,0.01428511,0.720848,-0.6232899,0.07907182
0.8455799,-0.1545205,-0.02793357,0.8635233,-0.829934,0.1100518
0.8697316,-0.09342525,-0.09192285,0.7096183,-0.7186361,0.07104887
0.9152565,-0.08527262,-0.1617653,0.5539151,-0.5571817,0.06666216
0.8852605,-0.03346475,-0.2078844,0.3925649,-0.212077,0.03299607
0.8565223,0.004321712,-0.2084905,0.2908689,0.01095995,-0.005310512
0.8660017,-0.02997399,-0.1750238,0.3223558,-0.005337438,0.03774773
0.9148281,-0.008044448,-0.1520168,0.3279416,0.05200965,0.06365265
0.9922941,-0.0082027,-0.1419184,0.2496375,0.1369647,0.06520281
1.021783,0.003430321,-0.1345727,0.2078649,0.2969307,0.06522933
0.9765646,0.05956698,-0.1187288,0.1394073,0.4246523,0.04545897
0.9363959,0.08571916,-0.065084,0.1052003,0.3718774,0.1028092
0.9169085,0.108921,-0.0256125,0.2400322,0.2936783,0.1756973
0.9295463,0.08622795,-0.04034452,0.3809411,0.1494283,0.178199
1.047104,0.05210031,-0.06536409,0.4901582,0.04333536,0.1192598
1.211314,0.05506264,-0.09159592,0.4794952,0.1315214,-0.01245617
1.28865,0.09022645,-0.09075223,0.2317909,0.3174415,-0.1765077
1.214919,0.1688177,-0.02452354,-0.1351211,0.4637536,-0.3632186
1.133875,0.1692337,0.06180565,-0.3329534,0.2871966,-0.5176438
1.167656,0.05880647,0.07871365,-0.01279251,-0.1067017,-0.5260333
1.209376,-0.06767411,-0.0009463623,0.3940246,-0.1885273,-0.2981221
1.252682,-0.1273709,-0.07047575,0.3367339,0.08356712,0.1070347
1.22879,-0.1166479,-0.08623505,0.001121359,0.3330656,0.2891016
1.05399,-0.163542,-0.1173673,-0.4150194,0.2924542,0.03692299
0.9021397,-0.234211,-0.1067841,-0.5402932,0.01004275,-0.3079703
0.9278629,-0.2826277,-0.0217846,-0.292824,-0.3868957,-0.5053064
1.218623,-0.3515294,0.000120384,-0.09703098,-0.6582044,-0.666692
1.501702,-0.2804337,-0.07169325,0.07183842,-0.1977194,-0.72432
1.416686,-0.08087705,-0.1241302,0.06408675,0.6348074,-0.4410271
1.206213,0.05963564,-0.09348169,-0.3101262,0.7958336,-0.006243825
1.030342,0.1055349,-0.01531153,-0.6709736,0.4934498,0.1675268
0.8185493,0.03873002,0.04532144,-0.8000364,0.2398169,0.1924883
0.7467077,-0.03328255,0.07348492,-0.6534906,0.1701414,0.2660859
0.762932,-0.0705138,0.06108484,-0.4899447,0.3338069,0.2069529
0.7071001,-0.1351713,0.05545415,-0.5263229,0.3842357,0.127783
0.6981758,-0.123571,0.0905131,-0.4758663,0.2316751,0.1221464
0.7292202,-0.08540528,0.09693298,-0.4088565,-0.006858001,0.04830972
0.7421343,-0.06442001,0.09917471,-0.3664651,-0.1805421,0.06526436
0.7899975,-0.01345385,0.09651173,-0.2560051,-0.1647351,0.06694315
0.8150969,0.01056394,0.07186399,-0.2469765,-0.1726906,-0.0422363
0.8409661,0.07647333,0.09066391,-0.2281014,-0.1744822,-0.04023369
0.9185352,0.1225186,0.0921651,-0.2566228,-0.1088198,-0.002168078
1.0221,0.06848528,0.07335001,-0.396401,-0.09815781,0.05781471
1.162682,0.0382109,0.06535767,-0.4877869,-0.2032647,0.08834247
1.259365,0.0179378,0.03134912,-0.5139953,-0.3399316,-0.0287815
1.297731,0.02820699,0.03347857,-0.2971055,-0.2352051,-0.1857852
1.30926,0.1190785,0.07264888,0.04061121,-0.07671331,-0.3315804
1.283251,0.2180938,0.09549189,0.1619325,-0.1249932,-0.2766102
1.295556,0.2349536,0.05856528,0.01127516,-0.3105126,0.09404522
1.331011,0.08954807,-0.03018191,-0.1346714,-0.5512477,0.5632718
1.364229,-0.1399855,-0.0894604,0.06591638,-0.4937963,0.7736573
1.355019,-0.3009765,-0.127693,0.213601,-0.0976101,0.6188749
1.179297,-0.3531615,-0.1194392,0.09622737,0.3686358,0.4332436
0.9730916,-0.3931987,-0.07646419,0.008615082,0.687201,0.1501512
0.9353163,-0.3812195,-0.06276014,-0.130814,0.509002,-0.2236674
0.952076,-0.2356937,-0.01544635,-0.1634573,0.1850982,-0.2561744
0.9069341,-0.2077091,0.01394387,0.1041202,-0.06025936,-0.1356486
0.8850779,-0.2316155,-0.01674515,0.4863911,-0.5295383,-0.05613455
0.8712712,-0.1419809,-0.03865408,0.7395047,-0.7134173,0.0150553
0.8403125,-0.1505383,-0.09754442,0.7305169,-0.6210467,0.05061902
0.866712,-0.1161035,-0.1699823,0.668815,-0.6131134,0.1680621
0.8676109,-0.02909695,-0.1933572,0.6066832,-0.3614053,0.1693659
0.8716654,-0.05049316,-0.1949815,0.5098746,-0.1715358,0.1163858
0.9396637,-0.02084631,-0.1872572,0.5100144,-0.05337454,0.193842
0.9489699,-0.02407359,-0.1829889,0.4949412,0.198255,0.1547042
0.9631969,-0.04038701,-0.1582504,0.4133679,0.1902014,0.1208584
1.002864,0.002046944,-0.1093398,0.3320143,0.1893815,0.148904
0.9929442,-0.01201577,-0.09247934,0.2726446,0.2813074,0.118837
0.9673738,0.01903907,-0.09089034,0.2815553,0.3013215,0.1371814
0.9099017,0.06429406,-0.05473641,0.3167856,0.3751651,0.1041419
0.8795689,0.07204395,-0.0198804,0.3748139,0.298068,0.0243028
0.9327554,0.07744594,-0.04394382,0.4458706,0.1807902,-0.0346998
1.034899,0.05917578,-0.06881678,0.4443476,0.1615038,-0.1209603
1.134789,0.08852992,-0.05660357,0.3001401,0.2344941,-0.1883831
1.159248,0.1411839,-0.05660278,0.00367848,0.4392088,-0.2745964
1.139596,0.206113,-0.02110837,-0.2296391,0.4321107,-0.3422419
1.131116,0.2182986,0.05736164,-0.1663394,0.2001771,-0.3559059
1.141799,0.09097083,0.07983753,0.1350868,0.005877044,-0.3349503
1.178694,-0.02691486,0.03826051,0.3623121,-0.0207453,-0.116434
1.200927,-0.1063031,-0.04061286,0.1631493,0.06928537,0.2068898
1.090074,-0.1763488,-0.1079449,-0.3756151,0.0236112,0.2491226
0.8627653,-0.2277921,-0.07260975,-0.7507253,-0.03918439,0.001811307
0.7995075,-0.3203285,-0.006706112,-0.7225189,-0.169664,-0.2000176
1.014722,-0.3906206,-0.03161845,-0.4967933,-0.42328,-0.3466703
1.324973,-0.3584115,-0.07977412,-0.2714032,-0.3331541,-0.5899813
1.455678,-0.1952104,-0.102948,-0.06770531,0.0922271,-0.648722
1.253537,0.02824752,-0.08971858,-0.1394264,0.5920765,-0.3439034
0.9661424,0.1097185,0.002406322,-0.5687287,0.7707997,-0.01545661
0.8515119,0.04709188,0.05836623,-0.9501983,0.3281547,0.136423
0.8555841,-0.00930617,0.02593284,-1.128186,0.04165094,0.2171133
0.8678921,-0.08948004,-0.002212483,-0.9886422,0.2509066,0.2325611
0.8349299,-0.178512,-0.005762552,-0.7198044,0.4105681,0.1596507
0.8052353,-0.1672865,0.01720853,-0.6976472,0.4685477,0.07455591
0.8016436,-0.1524091,0.0409187,-0.599589,0.3387699,0.0149054
0.7921871,-0.1170271,0.05788577,-0.5009238,-0.02353875,0.01465779
0.8008944,-0.0150252,0.08030532,-0.4780505,-0.2026365,0.0850365
0.8013015,-0.00914051,0.07463967,-0.3223581,-0.1958,0.1546072
0.8083311,-0.01365826,0.05768428,-0.3235293,-0.2120024,0.1748364
0.8416807,0.03893216,0.05283094,-0.2605349,-0.1617331,0.107079
0.8492296,0.03359917,0.06009961,-0.1388635,-0.05924882,0.004014532
0.9046723,0.01459741,0.07903796,-0.1618827,-0.009521382,-0.04958662
1.032742,0.008199978,0.102068,-0.1217872,-0.05267761,-0.14404
1.106812,0.01138341,0.1039095,-0.2682362,-0.215961,-0.2407853
1.110561,0.03593307,0.06714015,-0.3856624,-0.3635671,-0.2024149
1.175885,0.08620584,0.04114128,-0.186059,-0.325366,-0.1970918
1.27591,0.1602857,0.04612519,0.02051698,-0.1747582,-0.3465105
1.230438,0.22635,0.06424292,0.03845743,-0.1149055,-0.4338388
1.157259,0.3230366,0.07550364,-0.2133349,-0.2495898,-0.230731
1.166572,0.3353056,0.05469673,-0.4020897,-0.6046601,0.3167397
1.177887,0.08766281,-0.006204639,-0.3043254,-0.8803377,0.9482685
1.282706,-0.2885751,-0.136382,-0.1262436,-0.4773085,1.144621
1.371557,-0.5863134,-0.2724716,0.02778156,0.4703639,0.8012442
1.288058,-0.7054113,-0.2688871,0.1806429,1.22058,0.1386764
1.123578,-0.6618478,-0.0937388,0.3694158,1.303159,-0.7455017
0.8809966,-0.5076828,0.1243792,0.4893583,0.6007109,-1.177424
0.7247516,-0.237303,0.1867761,0.6452189,-0.4094665,-0.8227535
0.7917681,-0.0205202,0.08978212,0.937419,-1.224495,-0.4187088
0.9160838,0.01983965,-0.02959259,1.115635,-1.534888,0.09023575
1.053885,0.01444773,-0.1736158,1.107205,-0.9600775,0.5657648
1.114301,-0.01374262,-0.2560346,0.9745479,-0.1563356,0.3784794
0.9824228,-0.06042414,-0.1799198,0.7479381,0.0946389,0.2135062
0.8653178,-0.07406753,-0.1352676,0.5953221,0.07248567,0.1396897
0.8564632,-0.07960551,-0.1346459,0.6177863,-0.1516475,-0.03072409
0.8504115,-0.05714849,-0.08502242,0.5965852,-0.4307134,0.0836372
0.9121549,-0.02253545,-0.1254806,0.4867583,-0.3282508,0.02964655
1.056783,0.009110374,-0.1977387,0.4689228,0.003440208,0.02948234
1.133743,0.04604314,-0.2069077,0.4126325,0.3918505,0.1509061
1.058648,0.04110311,-0.1636956,0.3445714,0.6340092,0.01293689
0.9401469,0.02937825,-0.03742873,0.4038042,0.5257861,0.03566338
0.9185021,0.04108712,0.008021442,0.4563518,0.4239789,-0.06263498
0.9135222,0.05450621,-0.03629496,0.4889669,0.3213103,-0.2255125
0.9091634,0.08486502,-0.03940589,0.4765615,0.07153545,-0.1722436
0.9914483,0.1123364,-0.05788684,0.4030796,0.1302933,-0.2104295
1.093699,0.1189918,-0.06097557,0.351683,0.4014924,-0.1613519
1.139293,0.1317582,-0.02661834,0.1912449,0.5473798,-0.2601596
1.079905,0.1712529,0.02182474,-0.02009684,0.5890112,-0.4308284
1.028619,0.1961327,0.0771824,0.03144528,0.2965424,-0.3194544
1.093308,0.1148015,0.06939072,0.3687343,0.01852868,-0.1886283
1.178446,-0.05268016,0.03448271,0.7696515,0.169618,0.06329658
1.282257,-0.1828076,0.02050707,0.8872121,0.2212539,0.2354019
1.286287,-0.2400756,0.009844047,0.6599007,0.05362801,0.1329098
1.082601,-0.2709779,-0.01713194,0.4587385,-0.09604707,0.01935156
0.8763913,-0.316968,-0.07114894,0.3330341,-0.2817827,-0.1055869
0.7582173,0.004897082,0.06621472,-1.152433,0.07845412,0.144842
0.7496719,-0.09685154,-0.0007221976,-1.162888,-0.08312878,0.2331288
0.7878639,-0.194591,0.01493836,-0.9380813,0.192215,0.2386796
0.7855242,-0.178827,0.001661803,-0.8203144,0.4560464,0.07534395
0.749138,-0.1530055,0.03632302,-0.7836042,0.429139,0.09155891
0.7322707,-0.1175053,0.08777991,-0.7467911,0.2165012,0.0342571
0.6943486,-0.07896283,0.08004486,-0.801878,-0.05264629,0.03048383
0.7083852,-0.07495926,0.08227394,-0.6869602,-0.2005632,0.1240271
0.7319658,-0.01551375,0.05672823,-0.6711239,-0.2039672,0.04936464
0.7279204,0.02188647,0.04780372,-0.663278,-0.1287136,0.0200437
0.821945,0.02467111,0.0844617,-0.5155486,-0.09361386,-0.04878013
0.9465239,0.06328354,0.1105309,-0.5685773,-0.08652059,-0.08811711
1.023911,0.05716449,0.1096942,-0.6471001,-0.09641483,0.007694965
1.106483,0.02563394,0.06960011,-0.7821557,-0.1830259,-0.01533602
1.289233,0.02079549,0.04833865,-0.8159144,-0.2206479,-0.06215542
1.431899,0.03315474,0.04063946,-0.5268552,-0.1961303,-0.2229797
1.345743,0.1380694,0.05129436,-0.3491565,-0.06585599,-0.4702068
1.318678,0.3465593,0.08593044,-0.3606148,0.0232092,-0.3806148
1.374349,0.4271268,0.06984648,-0.4077053,-0.2904704,0.1582356
1.319131,0.1987418,0.03207449,-0.3045275,-0.725139,0.9118451
1.311894,-0.1836976,-0.05653289,0.01065813,-0.747977,1.201892
1.276183,-0.4849176,-0.1774108,0.3293583,-0.239512,0.9088949
1.168383,-0.6014712,-0.1922228,0.4280912,0.5451357,0.6199283
1.092862,-0.5657034,-0.1113181,0.1977125,0.9693651,0.1122075
0.9953628,-0.4895284,-0.0137949,0.02873835,0.5590359,-0.5985685
0.9530035,-0.3542256,0.03051584,-0.004719023,-0.02854329,-0.7251215
0.9151266,-0.1740437,0.04675978,0.1023009,-0.2372096,-0.4065728
0.8615329,-0.1072098,0.04566492,0.4613948,-0.6145014,-0.09257465
0.8716653,-0.09375645,-0.01831822,0.5290142,-0.8726427,0.1755229
0.8168906,-0.07436951,-0.06462811,0.4926805,-0.6806216,0.2727777
0.7903559,-0.1299529,-0.1080836,0.6042542,-0.5505639,0.3105745
0.8184222,-0.1452131,-0.164014,0.5529253,-0.2929488,0.2799739
0.7848562,-0.1143215,-0.1784169,0.5828753,-0.09645949,0.1208982
0.8202556,-0.1106807,-0.1986538,0.5737647,-0.1109731,0.01755746
0.8986396,-0.06694165,-0.1810847,0.4858987,0.1084335,-0.07737973
0.977434,-0.03866422,-0.1419763,0.4787803,0.2552386,-0.08731796
1.046431,-0.01226247,-0.1400501,0.2870908,0.4186056,-0.02794101
0.9962626,0.03586629,-0.1073961,0.127482,0.6477781,-0.06536957
0.8849275,0.06376617,-0.04446822,0.1531178,0.5517941,-0.05170322
0.7646227,0.1352289,0.03295783,0.2542535,0.3700335,-0.03818795
0.7904941,0.1519628,0.03491413,0.4010398,0.01559322,-0.0514248
1.050383,0.09433254,-0.06066071,0.457896,-0.2593645,0.01232105
1.251377,0.09594549,-0.08903582,0.463094,0.1162244,0.02979172
1.305115,0.1018021,-0.06853863,0.3693891,0.5437348,-0.0365982
1.346122,0.1114829,-0.03276713,0.1165273,0.5403141,-0.2298885
1.304272,0.1705859,0.05935515,-0.1338519,0.296611,-0.4951224
1.172505,0.2116221,0.1496763,-0.1808526,-0.08672767,-0.5322231
1.18656,0.1716829,0.167856,-0.1130877,-0.3613728,-0.2267302
1.278875,0.06166731,0.0398177,-0.304286,-0.3061878,0.2228369
1.221434,-0.05273097,-0.1319566,-0.6485965,-0.1349847,0.4352303
1.150839,-0.2002054,-0.1806031,-0.8324575,-0.02270699,0.2640879
1.082572,-0.3815411,-0.1337339,-0.7825998,0.05600805,-0.1051317
1.10437,-0.4878572,-0.06789327,-0.5393008,-0.01636612,-0.6419039
1.315869,-0.4607839,-0.03511716,-0.3102028,-0.05897936,-1.0401
1.372404,-0.2582227,-0.04402167,-0.2056626,0.1703079,-0.7847934
1.256056,0.02962936,-0.06337863,-0.3485524,0.379173,-0.3537074
1.076908,0.1768801,-0.03245889,-0.6946124,0.3679534,-0.128488
0.8982772,0.1621459,0.00851041,-1.003744,0.2198035,0.2346568
0.8707656,0.1137208,-0.01914992,-1.144087,0.1533135,0.3864748
0.8168547,-0.02228474,-0.01427188,-0.9218831,0.3330774,0.3038167
0.7243546,-0.2294231,0.01864537,-0.6619526,0.4861052,0.2979762
0.6480486,-0.2423884,0.04420119,-0.616253,0.3797488,0.1048141
0.5919128,-0.1460964,0.1024809,-0.493865,0.1244347,0.02510314
0.6185425,-0.1454714,0.1060292,-0.4614934,-0.1330106,0.08733794
0.6353626,-0.08685017,0.07990981,-0.5084418,-0.2400941,0.03910575
0.7310042,-0.01694122,0.06693389,-0.4705889,-0.1546573,0.08801718
0.820941,-0.01242957,0.04780267,-0.4418554,-0.09937808,0.03817906
0.8144468,0.03896443,0.07141504,-0.3265141,-0.07003605,-0.04374911
0.8884852,0.06374061,0.1058693,-0.287502,0.1011,-0.03725483
0.9729888,0.07740296,0.1248245,-0.4074615,0.1414768,-0.06629761
1.066897,0.1038808,0.1216778,-0.5663493,-0.06122673,-0.01432082
1.206775,0.0786895,0.100453,-0.6873178,-0.3037969,-0.01656121
1.339945,0.05801123,0.09193257,-0.5179229,-0.4303993,-0.04201605
1.465489,0.02026853,0.06538703,-0.1097443,-0.3782432,-0.01474301
1.531449,0.009607817,0.04036734,0.3339613,-0.4607506,0.0668721
1.544107,0.02009043,0.007409699,0.6542482,-0.5748321,0.3755028
1.513581,-0.1047046,-0.06506826,0.787849,-0.3501419,0.656968
1.425801,-0.2767034,-0.09985373,0.8554745,-0.007704341,0.6256445
1.187807,-0.3510011,-0.08227417,0.67483,0.325144,0.2564378
0.891365,-0.2914906,-0.03798977,0.2306974,0.4397509,-0.2020164
0.8426155,-0.1969932,0.004844375,-0.2046458,0.06792203,-0.3027182
0.9528126,-0.1874121,-0.02571766,-0.3708431,-0.3366574,-0.1425935
1.047413,-0.188012,-0.07582112,-0.01926104,-0.3507232,-0.02430988
1.105314,-0.2071723,-0.0740648,0.4104483,-0.2740757,0.04036857
1.001508,-0.2272165,-0.07558331,0.5353223,-0.3567143,-0.0212588
0.8046584,-0.2013683,-0.07942939,0.5794606,-0.3897262,-0.1496394
0.7282243,-0.186213,-0.07380564,0.5534905,-0.4003405,-0.03232864
0.73716,-0.1171797,-0.1151451,0.5232799,-0.4356799,0.1593911
0.7420808,-0.05670585,-0.1699134,0.500283,-0.3163011,0.1752314
0.8074723,-0.07065225,-0.1787696,0.4206667,-0.1322775,0.2145276
0.8947123,-0.08595622,-0.1647767,0.4234247,0.08710582,0.1690374
0.9251064,-0.1151831,-0.1582341,0.3863132,0.2769066,0.0175737
0.9228597,-0.1000431,-0.1488675,0.2959332,0.3341892,-0.0895433
0.9175024,-0.04734602,-0.1133675,0.2586396,0.379449,-0.1900245
0.9208973,0.01442344,-0.07863636,0.2282388,0.3305576,-0.1202713
0.8998434,0.1072283,-0.05917548,0.2486083,0.2540147,-0.03856009
0.9245588,0.130176,-0.04331339,0.3116762,0.2209107,-0.0440187
1.02637,0.1116073,-0.05118943,0.4379219,0.06671071,0.01038074
1.137502,0.1083614,-0.06302283,0.5473313,0.01835905,-0.06787164
1.261652,0.1047331,-0.06156257,0.4846701,0.2110556,-0.1887564
1.264012,0.1700948,-0.03685758,0.20917,0.3694574,-0.3034915
1.147402,0.2764928,0.02977648,-0.2286114,0.270437,-0.4680643
1.100496,0.2934661,0.08097675,-0.3521652,-0.04658988,-0.4357296
1.142681,0.1568002,0.07380208,-0.03049791,-0.3112373,-0.2054571
1.25372,-0.03018149,-0.008673082,0.1081898,-0.2697761,0.1674266
1.300211,-0.1364471,-0.1238816,-0.1390354,0.1455832,0.4805426
1.165729,-0.2271904,-0.1306138,-0.5055638,0.5414935,0.381441
0.9707741,-0.3767227,-0.04792307,-0.7968927,0.441538,-0.06515756
0.9434043,-0.5125273,0.01530938,-0.7950265,-0.1708302,-0.5835237
1.210185,-0.5150912,0.02593551,-0.4538295,-0.835538,-0.851312
1.499635,-0.3297903,-0.08570924,-0.09372585,-0.7361041,-0.8296775
1.492675,-0.06225287,-0.1979123,-0.006917842,0.1303667,-0.6174221
1.257019,0.08948381,-0.09848528,-0.1144486,0.7853124,-0.1788709
0.9886456,0.07896101,0.04014137,-0.3742115,0.6849841,0.06380811
0.7856436,0.04011303,0.04213394,-0.7291922,0.2450222,0.07946976
0.6871571,0.01049183,0.02269165,-0.7322737,0.1445674,0.2246882
0.6598292,-0.0440677,0.01527417,-0.4718544,0.274077,0.215079
0.6347266,-0.07294364,0.01924264,-0.4225382,0.3787925,0.2038527
0.6566985,-0.08858737,0.05943263,-0.3919163,0.4827096,0.2962546
0.6887615,-0.1071027,0.09830163,-0.3480566,0.3078374,0.1523438
0.6667138,-0.07805435,0.1320758,-0.3437912,0.0005979569,0.05995521
0.6900342,-0.04303414,0.1278215,-0.1647596,-0.1917209,-0.005386475
0.7529208,-0.009267588,0.1132127,-0.0869524,-0.2681432,-0.1224947
0.8420933,0.07962634,0.1317842,-0.1053666,-0.1822857,-0.1088383
0.9268998,0.1486885,0.1158899,-0.09687327,-0.1595639,-0.1159282
0.9704851,0.1416157,0.0942198,-0.268107,-0.1513657,0.003843535
1.10929,0.1217303,0.06299433,-0.4022245,-0.2135049,0.1557379
1.265719,0.1017638,0.005999996,-0.445721,-0.3663158,0.1139865
1.316024,0.06103133,0.02498632,-0.3881504,-0.175507,-0.05270366
1.366948,0.04132738,0.07346444,-0.09487015,0.001664053,-0.3855038
1.394837,0.1185067,0.1142702,0.1399596,-0.1101808,-0.5108325
1.332895,0.2459198,0.1656817,0.1133772,-0.2175307,-0.132422
1.286175,0.2389384,0.1224478,-0.07185503,-0.5004648,0.5612543
1.281291,0.08320158,0.01627581,-0.08416961,-0.8283712,1.182961
1.255778,-0.1340579,-0.06729256,0.1374308,-0.6678485,1.220338
1.234875,-0.3974536,-0.1649196,0.2861889,0.04192024,0.7173966
1.166694,-0.5294195,-0.2088044,0.2454105,0.8053452,0.1658679
1.071356,-0.4312831,-0.1159036,0.07576258,0.9121841,-0.1649308
1.027293,-0.3146743,0.003539379,0.05035399,0.3866638,-0.3002692
0.9611876,-0.2424521,0.03253564,0.1513294,-0.05378181,-0.235562
0.9202028,-0.1094346,0.02912958,0.2713962,-0.3766953,0.03206181
0.8894823,-0.03527394,0.0248981,0.4326932,-0.7027272,0.2626415
0.8410346,-0.08577354,-0.03698603,0.4126832,-0.6878027,0.3374142
0.8517091,-0.1005088,-0.08343536,0.4138284,-0.5584212,0.3335692
0.8351706,-0.1119326,-0.09682411,0.4697838,-0.4381312,0.355584
0.8068298,-0.1407904,-0.1373446,0.425369,-0.2482411,0.3235841
0.7881778,-0.1106305,-0.1518271,0.4916429,-0.2480619,0.151255
0.8003897,-0.1189415,-0.1629801,0.5027579,-0.204344,0.08000306
0.9212814,-0.1168687,-0.1732638,0.4855162,-0.004093258,0.02545803
1.01173,-0.06908979,-0.1601372,0.5003618,0.2337199,-0.09946804
1.015406,-0.04299469,-0.1636402,0.3770572,0.4993528,-0.09579175
0.9716982,0.03305762,-0.1271257,0.2989743,0.5501788,-0.1211719
0.9197169,0.106173,-0.06378052,0.2745613,0.4641269,-0.1513033
0.8923299,0.1465477,-0.01762642,0.3275762,0.3257737,-0.08940427
0.8959196,0.1734343,-0.006226387,0.4368506,0.08596356,-0.04538388
1.044061,0.1409562,-0.05149125,0.409034,-0.03024302,0.03252683
1.242153,0.125641,-0.07358345,0.3463155,0.1158146,0.01452416
1.307546,0.1400116,-0.06582738,0.1346892,0.3720241,-0.1639018
1.248479,0.1672918,-0.01193214,-0.2624831,0.4284192,-0.3744828
1.18903,0.1921152,0.09076954,-0.3905123,0.1890333,-0.5243795
1.218511,0.1010844,0.1034479,-0.1346933,-0.2486855,-0.4503899
1.208348,-0.04703577,0.00720631,0.02186156,-0.4945796,-0.1357984
1.175101,-0.1119868,-0.1178293,-0.2160064,-0.2492848,0.2799004
1.137761,-0.1608873,-0.1681755,-0.5604573,0.06108494,0.4139126
1.05273,-0.3162291,-0.1158623,-0.7733844,0.2815652,0.1382069
1.117423,-0.5126784,-0.05541943,-0.7571326,0.4146364,-0.2045951
1.267753,-0.5639025,-0.009266372,-0.4151128,0.1357008,-0.7137137
1.342016,-0.3609484,-0.01141032,0.03839824,-0.1279164,-1.086197
1.29841,-0.03978618,-0.05656786,0.2621077,0.09758708,-0.7557702
1.121173,0.1218102,-0.05895988,0.0007218149,0.3719435,-0.3201086
0.9829325,0.1213992,-0.04616787,-0.5414414,0.4104551,-0.03516182
0.8637621,0.07866631,-0.02542824,-0.9092686,0.2992113,0.2724949
0.7677698,-0.02775317,0.01352987,-0.9984267,0.1588815,0.2366302
0.7575823,-0.1279574,0.01466038,-0.8178971,0.3021984,0.1501856
0.6864614,-0.1584925,0.03463486,-0.6574743,0.4840035,0.1788761
0.6397763,-0.15339,0.1048952,-0.6055539,0.3161512,0.02952878
0.65321,-0.1337273,0.1269119,-0.4292586,0.07974545,0.01866446
0.6655695,-0.08995332,0.1029308,-0.371094,-0.1819836,0.07009116
0.72881,-0.002232692,0.09286717,-0.3522374,-0.3286525,-0.01265387
0.7654172,0.04808846,0.08834689,-0.2138283,-0.2331212,-0.01431545
0.8043321,0.07556762,0.08477546,-0.1158084,-0.2504329,-0.04421537
0.865071,0.1301978,0.08863198,-0.02427956,-0.1439902,-0.03297115
0.960979,0.1104047,0.0875995,-0.123518,0.02100115,0.1052902
1.154592,0.08590836,0.08118677,-0.3143201,-0.1187423,0.1921055
1.234704,0.09686892,0.07811067,-0.4338706,-0.2045049,0.1929228
1.250021,0.03681439,0.06847845,-0.4915762,-0.2366664,0.02543089
1.406854,-0.004282048,0.06150615,-0.1976122,-0.2602068,-0.2173957
1.470305,0.04836705,0.07549507,0.1791078,-0.196304,-0.3040636
1.414738,0.1489376,0.08888055,0.2884245,-0.2481402,-0.07553811
1.439138,0.1807979,0.06776219,0.2829039,-0.2924708,0.4593482
1.367849,-0.02408422,-0.006119593,0.3449855,-0.304014,0.8147077
1.152591,-0.2975669,-0.08332922,0.4679337,-0.1826857,0.7026969
1.009609,-0.3216228,-0.08016214,0.3691439,0.2514545,0.4518236
0.9596353,-0.2460624,-0.04198564,0.1306287,0.5295647,0.2681239
0.9768839,-0.2858657,-0.04652145,-0.1347081,0.3647025,-0.003913923
1.024347,-0.2837037,-0.04019545,-0.3132621,0.07747969,-0.216176
1.037843,-0.2430012,-0.02477491,-0.001354883,-0.1239753,-0.1628758
0.9989857,-0.2289498,-0.04314873,0.4426198,-0.351721,-0.1329628
0.894309,-0.1505927,-0.04437935,0.6513702,-0.5672991,-0.1284262
0.8430557,-0.1352914,-0.05621305,0.7657231,-0.6576663,-0.04771638
0.8366,-0.1399795,-0.1001118,0.7086303,-0.6739723,0.005679202
0.7781057,-0.05540268,-0.129401,0.6538842,-0.5281974,0.1605225
0.7781902,-0.06395607,-0.1449419,0.6751585,-0.344171,0.2774263
0.8287395,-0.0941745,-0.1440956,0.6353967,-0.239836,0.2542364
0.8697631,-0.07677028,-0.1618449,0.6500331,-0.05491906,0.1834466
0.9226613,-0.1037732,-0.1680954,0.6435602,0.1019293,0.02598277
0.954218,-0.07031988,-0.1335886,0.5765915,0.2199884,-0.04718041
0.983882,0.0071669,-0.1295498,0.5055657,0.366792,-0.05005981
0.9803542,0.04591186,-0.1099514,0.3988773,0.4231315,-0.07805152
0.9047147,0.0871982,-0.06608904,0.3800831,0.3734139,-0.0387527
0.8572607,0.1325112,-0.03338908,0.4328707,0.251046,-0.01468292
0.8829367,0.1452117,-0.01399324,0.488386,0.08708646,-0.01623876
0.9814737,0.1192047,-0.04500979,0.5440995,-0.02602357,-0.01514605
1.157407,0.1172068,-0.05307167,0.475443,0.1076083,-0.07273722
1.270478,0.1338974,-0.04797265,0.229723,0.3807297,-0.1754002
1.218946,0.1714507,-0.04753106,-0.1545064,0.445235,-0.2790633
1.117764,0.2405604,0.02876356,-0.3143659,0.1454337,-0.296577
1.078962,0.1803029,0.08441598,0.03646492,-0.3767074,-0.2142757
1.135364,0.01984459,0.05902153,0.3407426,-0.4855904,0.003156495
1.215311,-0.1003051,-0.04086075,0.1940536,-0.1199944,0.3600166
1.174252,-0.2000106,-0.1720858,-0.1365526,0.1274518,0.4401026
1.084321,-0.2493101,-0.1769086,-0.4569031,0.1759485,0.07960041
1.030529,-0.3125172,-0.08090493,-0.4984715,-0.02829687,-0.3073254
1.01613,-0.4044565,-0.001506063,-0.2012333,-0.4415715,-0.6089709
1.208834,-0.3788157,0.009008576,-0.02273976,-0.6282115,-0.8369844
1.425862,-0.2274425,-0.07626812,-0.05751342,-0.2212959,-0.7780696
1.340284,-0.004609885,-0.1373848,-0.2223176,0.4977663,-0.4515404
1.15683,0.1241508,-0.06151028,-0.5699548,0.6244653,-0.0534782
0.9980837,0.09172751,0.03076208,-0.8163691,0.2760011,0.1876214
0.8555906,0.05903329,0.01596353,-0.8218934,0.1638707,0.2300213
0.856741,-0.009266357,-0.01070834,-0.7260716,0.2870316,0.2576276
0.8535078,-0.119495,-0.009304342,-0.6301243,0.5274761,0.1887816
0.7758799,-0.1492631,-0.01388071,-0.5968248,0.6134946,0.0284747
0.7259969,-0.1287679,0.03866221,-0.5365893,0.3608474,0.003843011
0.6468062,-0.08666921,0.1014116,-0.4619765,-0.04143203,0.03259424
0.6226316,-0.03800429,0.1000765,-0.4091973,-0.3013266,0.06261035
0.6991278,-0.01027345,0.07096956,-0.3550099,-0.27926,0.1172743
0.7494492,0.02165407,0.04117062,-0.3503485,-0.2154439,0.07736551
0.7949823,0.06881282,0.03376304,-0.3245148,-0.1307698,0.003850775
0.8244433,0.1054117,0.05818947,-0.2898543,-0.07659771,-0.01048695
0.8577249,0.09857792,0.09447423,-0.2964926,-0.1421769,0.05422863
0.9970606,0.04955616,0.09551043,-0.306884,-0.1539882,0.1682123
1.15628,-0.01512151,0.05781112,-0.3259799,-0.2120521,0.1661902
1.272044,-0.02983948,0.03881766,-0.2546994,-0.2101725,0.02614319
1.362857,0.0333756,0.04656224,-0.05626166,-0.1286965,-0.1716428
1.423206,0.129088,0.0574686,0.103463,-0.1439087,-0.2943729
1.448462,0.2383431,0.04770369,0.07524126,-0.1216681,-0.1207506
1.415133,0.2548178,0.02351324,0.01378014,-0.2259318,0.3188468
1.377295,0.08772029,-0.01454298,0.1106096,-0.3406892,0.7314931
1.30335,-0.1437089,-0.05764389,0.2127925,-0.1109482,0.7549731
1.08017,-0.2827768,-0.04550852,0.2764895,0.2063833,0.4533945
0.8682441,-0.2764262,-0.03781621,0.2194889,0.2898505,0.2875086
0.8768886,-0.2340341,-0.0676624,-0.07273339,0.08932138,0.1781423
0.9767241,-0.2425637,-0.06627665,-0.2281494,-0.1058461,0.02121656
1.00434,-0.2449786,-0.06359582,-0.08886077,-0.09468503,0.03398206
0.9996289,-0.252141,-0.04342407,0.2167403,-0.1383332,0.04465173
0.9273962,-0.2575208,-0.00659205,0.6102436,-0.3258497,0.01114066
0.8158301,-0.2131519,-0.02503085,0.7842132,-0.5360636,0.02182559
0.8140094,-0.1389826,-0.06758187,0.6854089,-0.7233061,0.02971882
0.8403484,-0.04427451,-0.1335259,0.5655464,-0.7620012,0.09773829
0.8285597,0.01904724,-0.2085875,0.4648878,-0.5808689,0.1635141
0.8555168,0.01759485,-0.2196377,0.3691529,-0.2915461,0.2804981
0.9038038,-0.0160163,-0.2042263,0.3580407,-0.01207336,0.368834
0.9467026,-0.06179329,-0.1890868,0.3509228,0.1234652,0.2467137
0.9768632,-0.06969236,-0.1535857,0.2693882,0.136543,0.135963
0.9787665,-0.03364729,-0.1354974,0.2262903,0.2315527,0.06830887
0.963365,0.007142245,-0.1266162,0.1834391,0.321951,0.0393987
0.9410598,0.06787582,-0.08078991,0.1440855,0.2958253,0.08725154
0.9169548,0.1461563,-0.03373321,0.1582297,0.2329014,0.04879526
0.9420497,0.1538681,-0.04443538,0.1679727,0.1152941,0.04133711
1.073402,0.07186456,-0.1081311,0.2241116,0.05930761,0.1043342
1.224583,0.01302064,-0.1547458,0.2596092,0.1831464,0.1108238
1.255352,-0.00484986,-0.1342783,0.2501041,0.382655,0.04058983
1.186805,0.01454011,-0.07052516,0.15825,0.5406274,-0.19328
1.123486,0.1002429,0.03492573,-0.05732884,0.4827183,-0.476859
1.076852,0.1429283,0.1286747,-0.06939524,0.1059583,-0.6239712
1.108941,0.06111047,0.08366693,0.1683619,-0.3331151,-0.5753791
1.266071,-0.08823893,-0.02464736,0.3331772,-0.3756844,-0.18488
1.33441,-0.1616437,-0.0700723,0.2119244,-0.02291674,0.4057679
1.215384,-0.1755628,-0.104463,-0.1401244,0.2186701,0.5591746
1.037395,-0.3266303,-0.1126428,-0.4692821,0.1832302,0.09741562
0.9383185,-0.5129602,-0.04236727,-0.5766888,-0.01757034,-0.3687192
0.9870368,-0.5497059,0.03111553,-0.2503079,-0.3172633,-0.6778167
1.041186,-0.4578282,0.005210743,0.1741311,-0.36317,-0.9384324
1.135376,-0.192871,-0.08738332,0.1570708,0.1111771,-0.7727188
1.275826,0.1429709,-0.1046244,-0.1805853,0.680743,-0.2926611
1.099838,0.1894069,-0.04919981,-0.6941724,0.6922928,0.07465425
0.7835129,-0.01208004,0.01974213,-1.04285,0.3287671,0.2445927
0.7453349,-0.08761523,0.0429674,-0.9207179,0.217607,0.2243478
0.7748,-0.138837,-0.01177063,-0.6503633,0.3236616,0.2519094
0.7205784,-0.2527045,-0.01082982,-0.3523066,0.4517816,0.2403241
0.6945245,-0.2254019,0.03146576,-0.1543908,0.4998213,0.03445739
0.66147,-0.1671208,0.06902591,-0.1689951,0.2847966,-0.03766848
0.6496121,-0.1012614,0.1178728,-0.1245499,-0.06979678,-0.05669987
0.7091932,-0.01832998,0.09678436,-0.08466116,-0.3240463,-0.07753349
0.7885623,-0.004911834,0.07743495,-0.06725437,-0.3513163,-0.02162082
0.8550889,0.07032087,0.06762762,0.09277265,-0.2930694,-0.1079986
0.8869459,0.1334568,0.04658173,0.1988392,-0.2085824,-0.1487545
0.9278004,0.1282111,0.08349387,0.1544774,0.06200285,-0.09364973
1.016685,0.1254303,0.109162,-0.0008309555,0.1729938,-0.05440615
1.132388,0.08076798,0.1264345,-0.2175887,-0.07351151,0.05957457
1.267783,0.06086339,0.116762,-0.2478117,-0.3170028,0.05995793
1.396835,0.0609007,0.07242414,-0.01085932,-0.3727767,0.0005019489
1.494272,0.08071663,0.06610002,0.2957508,-0.2924745,-0.01503813
1.51803,0.1108926,0.02017874,0.4410358,-0.2536129,-0.001461195
1.490411,0.01682519,-0.04495053,0.4016232,-0.245653,0.2866267
1.490773,-0.1592855,-0.07430948,0.448245,-0.06186195,0.6304975
1.435437,-0.2878851,-0.08661528,0.6194014,0.2840368,0.5516707
1.194562,-0.2934173,-0.04356056,0.5852465,0.4761885,0.1482418
0.8945395,-0.2704173,-0.009692007,0.2067732,0.1825437,-0.225183
0.8314032,-0.2385199,-0.033124,-0.2361341,-0.2517872,-0.3217938
0.9266581,-0.1045521,-0.06885947,-0.2771433,-0.2949648,0.02288882
0.9722526,-0.1172009,-0.1005818,0.09043223,-0.1317447,0.4395883
1.073154,-0.2557773,-0.09987213,0.4526354,-0.08328475,0.3950149
1.032593,-0.2799982,-0.06564935,0.7653792,-0.250355,0.07635313
0.807636,-0.2939926,-0.04494135,1.000085,-0.5374699,-0.1746459
0.762629,-0.2258654,-0.06322906,0.9914045,-0.7092112,-0.1562226
0.7560326,-0.08807372,-0.110549,0.8593411,-0.7605747,0.01065864
0.7615158,-0.01848272,-0.1777602,0.6840913,-0.6010214,0.04833282
0.8758037,0.04802121,-0.2285501,0.6073883,-0.2231138,0.1723688
0.9119382,0.04096892,-0.2293354,0.5724387,0.06749512,0.1770076
0.9658842,0.009995331,-0.2177673,0.4108839,0.237239,0.008775184
0.983974,-0.02231896,-0.1838025,0.4160675,0.2630824,0.05381607
0.9565658,-0.09612447,-0.1194105,0.4414594,0.2633349,-0.02538998
0.9853329,-0.02064676,-0.09372128,0.323463,0.4408557,-0.101556
0.9139413,0.08945257,-0.07885684,0.3593678,0.4779328,0.01779265
0.8960264,0.0962564,-0.04032226,0.3879871,0.4070308,-0.01978433
0.9378954,0.1031142,-0.03012366,0.4051243,0.3356938,-0.02080116
0.9633266,0.08095885,-0.03113089,0.5232265,0.07726117,-0.03219411
1.105951,0.06691169,-0.02658833,0.527939,0.007919436,-0.1389842
1.195094,0.1288025,-0.04004727,0.396424,0.2270024,-0.2047823
1.219635,0.2270787,-0.0443026,0.06961262,0.4246073,-0.3754783
1.206198,0.2647142,-0.01888101,-0.2928054,0.4614033,-0.4510808
1.144228,0.1812045,0.0634992,-0.2815575,0.1101059,-0.356959
1.199564,0.07257263,0.1414806,-0.0502785,-0.3784569,-0.1804806
1.224717,-0.01111278,0.03899872,-0.01568777,-0.4933265,0.1490027
1.165354,-0.1075612,-0.142743,-0.2842197,-0.2784372,0.3179488
1.116028,-0.2204111,-0.1716094,-0.6370452,-0.04412602,0.1805912
1.053548,-0.3618226,-0.1197285,-0.7065619,0.07067732,-0.05553074
1.123922,-0.4880312,-0.07294429,-0.5248013,0.02754104,-0.4521788
1.289666,-0.4752426,-0.02581371,-0.3708231,-0.09164985,-0.8951572
1.342923,-0.3037643,-0.05436907,-0.1991573,-0.003289305,-0.867577
1.240676,-0.07791794,-0.09426491,-0.1719667,0.2524,-0.4697962
1.050623,0.07288621,-0.05507702,-0.4751236,0.4320565,-0.1143007
0.9210138,0.06896436,-0.02552519,-0.7799814,0.4126218,0.1942348
0.8559931,-0.003765009,-0.02343095,-0.8984855,0.2790566,0.2751487
0.8116021,-0.08288747,-0.01356851,-0.7727688,0.383328,0.2204043
0.8006343,-0.1576269,-0.007925073,-0.5526596,0.523554,0.2090658
0.7413786,-0.1483555,0.03466114,-0.46266,0.4912883,0.06865688
0.6851454,-0.1207992,0.09312362,-0.3063448,0.3109017,0.0294454
0.7037389,-0.1153194,0.1023884,-0.2064266,-0.08459587,0.07030136
0.7472243,-0.07507866,0.09179716,-0.1942777,-0.1391846,0.03197715
0.8123981,-0.03818649,0.08896886,-0.02257204,-0.08309134,0.06003272
0.8424693,-3.212308e-05,0.08974111,0.1022803,-0.2677789,0.01707749
0.848646,0.05032467,0.09095959,0.1582758,-0.1395529,-0.04671303
0.8873251,0.1130184,0.09223936,0.1855756,-0.09207381,-0.0446793
0.9312797,0.1640019,0.09691272,0.08056047,-0.1325099,-0.03024092
1.038949,0.1353061,0.09147202,-0.09546303,-0.008899789,0.0251773
1.184285,0.06576028,0.07684161,-0.3076049,-0.1246957,0.001313302
1.265051,0.02309824,0.06630489,-0.3371484,-0.125351,-0.08447863
1.303949,0.08424372,0.0832168,-0.04756134,-0.1150505,-0.2564445
1.35095,0.2440618,0.1067035,0.2179482,-0.2396439,-0.4063731
1.394062,0.3458013,0.07159567,0.11206,-0.1827072,-0.1215895
1.371624,0.3035214,0.009557565,-0.07150968,-0.2914518,0.5130723
1.344277,0.08631067,-0.05065066,-0.006846236,-0.3937067,1.024916
1.32738,-0.2387119,-0.1151683,0.06193475,-0.1863137,1.01978
1.17976,-0.4405814,-0.1260171,0.1478956,0.1499513,0.5802836
0.9838425,-0.4249969,-0.08958266,0.153859,0.4268687,0.16784
0.9252218,-0.3216844,-0.05097379,-0.07880986,0.372723,-0.1078272
0.9764093,-0.2270686,-0.02085313,-0.156479,0.1734419,-0.1887656
0.9800763,-0.1706234,-0.0131301,-0.09703188,-0.006065586,-0.0879288
0.9287702,-0.1746182,-0.006413982,0.1025356,-0.245965,0.006994458
0.9042217,-0.1757207,-0.004290422,0.5089109,-0.4582466,0.1779021
0.8418997,-0.1672117,-0.03235667,0.6919356,-0.6456994,0.260259
0.8188525,-0.1704197,-0.06841413,0.6734305,-0.6860623,0.2197669
0.8634483,-0.1291975,-0.1114251,0.6428115,-0.5445195,0.3055361
0.843398,-0.09037718,-0.1606877,0.5939525,-0.4260617,0.2552257
0.8557701,-0.082469,-0.1824379,0.5532935,-0.3470158,0.1284657
0.890442,-0.08020492,-0.1818994,0.5276654,-0.2141487,0.1163261
0.9260279,-0.08705826,-0.1820396,0.5239623,-0.01775066,0.01018971
1.017478,-0.07056282,-0.1796233,0.3994725,0.1427555,-0.02994746
1.003733,-0.03832255,-0.1613958,0.2805652,0.2092293,0.02044176
0.9585665,0.01865382,-0.1316435,0.273775,0.2026294,0.0630053
0.9870729,0.07332673,-0.1218665,0.2447402,0.1809338,0.1756894
0.9850338,0.07326882,-0.1289055,0.3007153,0.2384673,0.1716915
1.018288,0.05790742,-0.1221807,0.3875112,0.3483047,0.07271888
1.072067,0.02319141,-0.1103351,0.4377591,0.4555209,-0.02256766
1.072112,0.003265725,-0.08991103,0.4788221,0.4858559,-0.1926857
1.076226,0.05241617,-0.04456485,0.4190429,0.3890677,-0.3057634
1.068174,0.1377885,-0.006836179,0.2234654,0.3280009,-0.3279769
1.048894,0.2200771,0.008622884,-0.1315415,0.3011518,-0.3624622
1.070459,0.2182496,0.03260384,-0.2800959,0.166639,-0.3746324
1.150695,0.08547481,0.05045054,0.001779992,0.04421025,-0.2870224
1.283263,-0.1171475,0.01421642,0.157132,0.0711952,-0.06201854
1.320513,-0.2372925,-0.05717359,-0.1092747,0.1096941,0.1606144
1.143421,-0.21591,-0.09650666,-0.5423593,-0.01980552,0.1675148
0.9645128,-0.2459599,-0.08055346,-0.8335223,-0.1831005,0.008141301
1.026836,-0.373666,-0.04053336,-0.7455549,-0.2891517,-0.2513888
1.251424,-0.4033221,-0.02613887,-0.4405006,-0.3306221,-0.6501879
1.401891,-0.2739961,-0.06569869,-0.1875083,-0.06150518,-0.7916537
1.309267,-0.0836501,-0.1017829,-0.07130775,0.3963356,-0.4227956
1.076932,0.05367162,-0.04856318,-0.4180433,0.5884666,-0.06201998
0.9262291,0.1093334,0.03633817,-1.060713,0.4068627,0.06210996
0.8338214,0.06571052,0.05901629,-1.269395,0.1663599,0.1525289
0.7902922,-0.07411616,0.06019248,-1.116421,0.1303005,0.1842091
0.7966472,-0.1628539,0.0587868,-0.8945374,0.1473888,0.1610329
0.77,-0.170913,0.04706018,-0.5970507,0.1660135,0.1179489
0.7920048,-0.1662273,0.05557602,-0.4232385,0.1712644,0.06359321
0.8090977,-0.1279365,0.0585433,-0.3700188,0.07764326,0.05668453
0.7853362,-0.07905302,0.05915764,-0.3228443,0.0219071,0.06422256
0.8056346,-0.03974594,0.07423147,-0.298217,-0.0147693,0.04819322
0.7742627,-0.01491094,0.08829042,-0.2684891,-0.05174667,0.01599441
0.767462,0.03002895,0.1139648,-0.1771316,-0.100252,-0.03421699
0.8209079,0.1033751,0.1254698,-0.09306808,-0.16626,-0.06671724
0.8940191,0.1061416,0.1131056,-0.1345468,-0.1172667,-0.005206116
1.056705,0.06650838,0.09762144,-0.2086694,-0.1136165,0.07479224
1.144404,0.04250586,0.08034965,-0.3019958,-0.1707694,0.04486921
1.200398,0.04560328,0.07958616,-0.3388636,-0.1842537,-0.05946242
1.33539,0.06625755,0.07987958,-0.1567939,-0.232159,-0.2565713
1.346098,0.07380633,0.07467463,0.08719569,-0.23799,-0.4492777
1.31365,0.1757533,0.08036201,0.178011,-0.2226007,-0.3763993
1.367713,0.3158323,0.07804857,-0.02664086,-0.2534745,0.004881323
1.336322,0.281212,0.06171265,-0.2052022,-0.4120506,0.5737396
1.260979,0.04727019,0.008379915,0.02774433,-0.5981244,0.963244
1.275839,-0.2855887,-0.1058681,0.2082446,-0.3655841,0.8882417
1.221112,-0.4951345,-0.1994897,0.07380985,0.2535143,0.544266
1.109308,-0.488647,-0.1787446,-0.05508227,0.7321418,0.01916798
1.070845,-0.4310131,-0.08632735,-0.114422,0.653102,-0.5040867
0.9847841,-0.380452,0.004469924,0.0179593,0.2037434,-0.5860037
0.9015835,-0.3064162,0.06216895,0.4615711,-0.2311835,-0.3227148
0.8904405,-0.2312339,0.04066062,0.8681669,-0.7316037,-0.05375896
0.851142,-0.160974,-0.01821841,0.9908408,-0.9560023,0.06625525
0.8372141,-0.1371427,-0.05942484,0.9442215,-0.7809945,0.102014
0.8661348,-0.1438617,-0.1080846,0.8742809,-0.6376571,0.2141664
0.8671712,-0.09364428,-0.1494823,0.8041099,-0.3336488,0.2142463
0.8437533,-0.05360132,-0.182086,0.6883552,-0.1601358,0.1401437
0.8410604,-0.059368,-0.1828913,0.647217,-0.2193569,0.1611194
0.9013579,-0.0550215,-0.1534317,0.6412746,0.01945131,0.08759379
0.9831217,-0.0598617,-0.1606607,0.5283081,0.1068964,0.038983
1.009184,-0.03244777,-0.1455585,0.4344881,0.1550742,0.07458329
1.004909,0.01603101,-0.1146567,0.3170615,0.4222436,0.06345902
0.9951,0.04064706,-0.103927,0.235261,0.4116511,0.09716005
0.9307038,0.0816953,-0.04509508,0.3255904,0.3754214,0.06429702
0.8896741,0.0969307,-0.009954313,0.3897112,0.2941154,-0.05515207
0.9494752,0.08755383,-0.03414133,0.4200707,0.08096336,-0.1420138
1.068708,0.1059809,-0.04777576,0.3948922,0.08082008,-0.2162811
1.205817,0.1388512,-0.04809916,0.2101581,0.1590714,-0.2243692
1.221967,0.1876931,-0.04038976,-0.08715875,0.3262278,-0.2346788
1.133675,0.236588,-0.006777154,-0.4188915,0.4180635,-0.2984336
1.102921,0.2301613,0.0651101,-0.4152007,0.1213387,-0.3571682
1.093615,0.1171446,0.09117949,-0.01109161,-0.2510638,-0.3732046
1.140003,-0.05421635,0.02484683,0.3923254,-0.2433402,-0.1473832
1.221788,-0.1647125,-0.0551482,0.511301,0.1182806,0.2527506
1.162285,-0.2051349,-0.09287914,0.06967318,0.3773939,0.3530739
1.036744,-0.2739084,-0.06477359,-0.6707551,0.3092658,-0.0133508
0.9630687,-0.3869232,-0.0227968,-0.9622697,-0.1671572,-0.4745565
1.043046,-0.4295601,-0.02562741,-0.5880097,-0.7729949,-0.7127234
1.348612,-0.3545945,-0.08448638,-0.07588522,-0.7394342,-0.7951793
1.560954,-0.1684847,-0.1741418,0.03449466,0.07528812,-0.6875123
1.435525,0.07415891,-0.1596745,-0.03339895,0.9811071,-0.3415454
1.150274,0.1758142,-0.02854462,-0.2616492,1.053119,-0.01697995
0.8835074,0.1194159,0.06849145,-0.7636817,0.362256,0.1579236
0.7296618,0.06942758,0.06220824,-0.859257,-0.04986986,0.2330122
0.7392552,0.007558679,-0.003647715,-0.6425667,0.07205326,0.259337
0.7530046,-0.06800477,-0.02676645,-0.6049599,0.364814,0.2585359
0.6861884,-0.0629557,-0.003318008,-0.5482594,0.5808511,0.220541
0.6726986,-0.05030138,0.04685087,-0.5721356,0.5451705,0.1778631
0.657575,-0.06168436,0.136212,-0.6170871,0.2396764,0.07592745
0.6714238,-0.03768003,0.1493529,-0.4905905,-0.1893945,-0.02539437
0.8039504,-0.01997014,0.09820045,-0.3474336,-0.3714982,-0.05571125
0.8550559,0.01300079,0.08761375,-0.1961277,-0.2387541,-0.1120645
0.8891087,0.06791649,0.08351382,-0.09005506,-0.1024538,-0.1064174
0.9832416,0.09654791,0.0995691,-0.07450904,-0.005877426,-0.04689144
1.044692,0.1110388,0.1186282,-0.1364103,0.04373684,0.007258697
1.151149,0.07611733,0.09261828,-0.2629711,-0.05152712,0.08749777
1.229272,0.02498657,0.06716831,-0.2838116,-0.09469869,0.05027972
1.2675,0.03860531,0.06633906,-0.09633537,0.02801739,-0.1113286
1.304894,0.1304226,0.1057421,0.1895136,0.0813008,-0.3471537
1.317089,0.2783738,0.1437024,0.2285626,-0.03219144,-0.4152224
1.355241,0.3290817,0.1056016,-0.08863021,-0.2764227,0.06424711
1.336342,0.170071,0.02308171,-0.2869677,-0.4875672,0.7068701
1.306442,-0.1178068,-0.06866279,-0.01641573,-0.4163645,0.8820552
1.24422,-0.3818025,-0.1528204,0.3669089,-0.1504639,0.6802529
1.065696,-0.4535396,-0.1650331,0.3996171,0.2777291,0.4580651
0.9969421,-0.359456,-0.1097617,0.2292883,0.6638464,0.1156435
1.018612,-0.2882681,-0.04637132,0.02002745,0.4940967,-0.3490153
0.9879003,-0.2120559,0.0223285,-0.1529162,0.1375258,-0.4615735
0.956061,-0.1188499,0.06435212,0.07378648,-0.09807926,-0.2239998
0.9217215,-0.1274095,0.05369896,0.4945637,-0.6237529,0.01072167
0.8728352,-0.1291893,0.008810085,0.6915427,-0.9791655,0.09432553
0.8234779,-0.0929769,-0.06279628,0.755122,-0.8749206,0.09177964
0.850223,-0.08128171,-0.1110872,0.6618391,-0.7332652,0.1872382
0.894694,-0.03246817,-0.1487509,0.4896847,-0.3818044,0.1976807
0.8252956,-0.02504925,-0.1711477,0.4322746,-0.07125206,0.1482727
0.77781,-0.03677009,-0.1417239,0.4209435,-0.06193185,0.2008358
0.8078074,-0.01124426,-0.1559587,0.4042912,0.04313027,0.1272238
0.8307321,-0.02970083,-0.1672529,0.3379619,0.1522736,0.06550831
0.9236401,-0.01373453,-0.1377501,0.3019738,0.2854644,0.05255166
1.030845,0.03658128,-0.139752,0.3175475,0.4813151,-0.04666568
0.9590827,0.0741147,-0.07652434,0.2873719,0.4681378,-0.04058129
0.8611428,0.1177717,-0.001906002,0.3746947,0.2917337,-0.0001382529
0.9355094,0.1081396,-0.003527606,0.5246166,0.03438101,0.009171994
1.046584,0.1014772,-0.02203171,0.6032802,-0.1218397,0.02672957
1.176263,0.1309273,-0.07213085,0.6321868,-0.06389263,-0.02900745
1.283917,0.1821225,-0.08566954,0.428319,0.06413755,-0.165168
1.223453,0.2739149,-0.04751332,0.07573758,0.1605596,-0.3624371
1.211669,0.2779045,-0.003224305,-0.1356115,0.1368583,-0.468481
1.270219,0.1528867,0.03457768,-0.1226202,0.01637512,-0.3861375
1.247922,-0.01630757,-0.01991511,-0.03755526,-0.03563059,-0.1091472
1.255344,-0.1871251,-0.08157628,-0.1147488,0.1532348,0.3098919
1.141032,-0.3131347,-0.06138646,-0.3178647,0.3639162,0.4172933
0.9026595,-0.4178099,-0.02719838,-0.5531258,0.2628939,0.02839983
0.8947299,-0.4828945,0.01317934,-0.5428917,0.02173495,-0.3938165
1.158922,-0.4240449,0.02328049,-0.1457329,-0.2129868,-0.7087862
1.407419,-0.2594717,-0.03446333,0.2157139,-0.3273295,-0.9233275
1.329864,-0.04868008,-0.07976732,0.3740572,-0.07353542,-0.636538
1.117346,0.1000522,-0.04359411,0.2832149,0.269766,-0.06299467
1.025433,0.1297043,0.004316104,-0.1035141,0.3331367,0.1952556
0.8877635,0.08598671,0.009978794,-0.5416244,0.2465632,0.2529203
0.7780211,-0.02355737,0.02668193,-0.7070914,0.1995058,0.2126225
0.7258858,-0.09216202,0.04225793,-0.4674075,0.2947954,0.09132344
0.6542282,-0.08539863,0.04778744,-0.3244254,0.4302139,0.1076322
0.6757099,-0.09986201,0.07315508,-0.3362843,0.4196101,0.1109823
0.6971166,-0.07944204,0.1074015,-0.2100718,0.2877183,0.07677502
0.721712,-0.05853772,0.1456603,-0.2387663,0.02320541,0.08328127
0.7821809,-0.0668781,0.1400797,-0.1799201,-0.1954321,0.01907297
0.8110784,-0.02706282,0.106862,0.01822952,-0.1980166,-0.01325098
0.8658201,0.01358163,0.1136292,0.05957639,-0.1421647,-0.05460788
0.8818826,0.08196541,0.1092386,0.1332877,-0.05649913,-0.09037678
0.9168361,0.1531831,0.1048774,0.03898281,-0.0226524,-0.004789608
1.017516,0.1454038,0.1204306,-0.1673192,-0.1007097,0.04748286
1.110677,0.1056775,0.09319495,-0.2366922,-0.1545923,0.04567645
1.236264,0.045684,0.080613,-0.222932,-0.1668962,-0.09892986
1.279059,0.04164923,0.1139613,0.006834192,-0.2034351,-0.4066172
1.26763,0.1566491,0.1306867,0.1620923,-0.3134864,-0.5233035
1.284121,0.3158208,0.109368,0.007355354,-0.4034618,-0.2370101
1.263897,0.3635259,0.04781914,-0.1740815,-0.4886606,0.3593712
1.274174,0.1454226,-0.02721872,-0.1699858,-0.6050328,0.9071643
1.264221,-0.2187326,-0.1111007,-0.009604096,-0.4743067,1.024326
1.232875,-0.4880539,-0.1877857,0.1071984,0.08271674,0.6224836
1.223676,-0.5534985,-0.1964911,0.1606576,0.7522081,-0.01509096
1.149942,-0.4599392,-0.1145766,0.1836507,0.7811229,-0.5785366
1.040873,-0.319902,0.01521579,0.222158,0.2867296,-0.8398361
0.9111562,-0.1065062,0.07362857,0.3166366,-0.03354247,-0.5158834
0.8272292,0.07131696,0.04778527,0.3901684,-0.5220974,-0.02624853
0.8382793,0.04614647,0.01085997,0.4371946,-0.9882551,0.2320952
0.8644245,-0.01573003,-0.05837826,0.4016077,-0.8667588,0.4942792
0.8960198,-0.05064025,-0.1245976,0.4036054,-0.5885651,0.5139733
0.8766636,-0.1083983,-0.1368506,0.4740045,-0.2194887,0.3790203
0.8192906,-0.1107775,-0.1362298,0.4837592,0.02263613,0.3314551
0.7985681,-0.1161178,-0.1399751,0.5327078,-0.09549963,0.05168317
0.810885,-0.09889075,-0.1400809,0.4987089,-0.08567471,-0.124808
0.9045357,0.009014976,-0.141383,0.3680026,-0.02593575,-0.05350526
1.002607,0.08620536,-0.1488359,0.2317516,0.1246562,-0.01646629
0.9847519,0.10976,-0.1390179,0.1202658,0.4340653,0.1446601
0.9142502,0.1068618,-0.08235338,0.2471137,0.4049668,0.2658789
0.8901812,0.08186546,-0.02178741,0.39816,0.1996165,0.237017
0.9646087,0.05329071,-0.03112153,0.4903874,0.09057244,0.1987154
1.101055,0.03980438,-0.07299243,0.6710442,0.02678919,0.08013682
1.207456,0.08554659,-0.08205721,0.6813744,0.09381586,-0.1005022
1.228097,0.1570483,-0.08969903,0.489842,0.21018,-0.2962051
1.169555,0.2512145,-0.0721448,0.2009092,0.278967,-0.3897968
1.131781,0.2974338,-0.03366007,0.009471765,0.2173757,-0.3673864
1.193737,0.1791412,-0.04754226,0.09208692,-0.02916692,-0.3279016
1.268439,0.02412876,-0.05341612,0.1162545,-0.1581466,-0.145642
1.239108,-0.07185172,-0.05612744,-0.04955063,0.04882185,0.1448095
1.090049,-0.1339609,-0.09046284,-0.362853,0.2627965,0.254269
0.8726482,-0.2059112,-0.07776951,-0.7657638,0.1514926,0.09281351
0.8267308,-0.2871566,-0.06594598,-0.7822701,-0.1529615,-0.1351077
1.123162,-0.272606,-0.08541605,-0.5115029,-0.5677803,-0.4320076
1.460237,-0.2557655,-0.08861167,-0.4519861,-0.868365,-0.781037
1.4973,-0.2438737,-0.1033929,-0.3906702,-0.3885623,-0.7573681
1.277778,-0.02492391,-0.1050291,-0.3619744,0.4439053,-0.4082307
1.08851,0.2013671,-0.09238141,-0.668693,0.6224478,-0.04808037
1.059007,0.1570517,-0.09119376,-1.024898,0.4666901,0.247115
0.9490002,0.04658009,-0.04658248,-1.183032,0.3807104,0.325525
0.7265639,0.009819059,0.002388538,-1.133265,0.3007803,0.3397079
0.6944081,-0.07797386,-0.007553394,-1.007612,0.331765,0.3775334
0.7772642,-0.1171767,0.005039056,-0.9045935,0.3284283,0.3293381
0.748647,-0.09470363,0.0587081,-0.8056887,0.2081777,0.3223307
0.7502532,-0.1446595,0.06004151,-0.7832135,0.004317778,0.2476121
0.7990615,-0.1083148,0.04028823,-0.6734462,-0.1924691,0.08895301
0.7828747,-0.05011691,0.0545551,-0.531957,-0.2248526,0.02457652
0.8109627,-0.05606122,0.05184995,-0.4442401,-0.167489,-0.02775045
0.8579863,0.03648499,0.05031909,-0.2586343,-0.03897904,-0.07924481
0.8972985,0.0810488,0.06942654,-0.2549398,0.1001955,-0.1232276
0.9750493,0.06789491,0.07387793,-0.3590249,0.0913461,-0.1456628
1.031164,0.06646016,0.07950047,-0.4144765,-0.1432363,-0.07792957
1.123797,0.01188958,0.06529307,-0.4959891,-0.3806927,-0.002215045
1.205335,0.02790978,0.02722322,-0.210452,-0.2490521,-0.006304059
1.2753,0.0841105,0.01406081,0.2466238,-0.03165648,-0.1449818
1.404544,0.1668266,0.02328039,0.2983301,-0.005475581,-0.2778403
1.402996,0.2792658,0.03421037,-0.0004970126,-0.04296146,-0.1483029
1.351481,0.2805193,0.02402232,-0.2538326,-0.228067,0.2387227
1.355001,0.129581,-0.006480303,-0.154026,-0.3710704,0.6809529
1.264188,-0.1671341,-0.05754036,0.07665219,-0.1920129,0.8334022
1.139077,-0.3605248,-0.1141717,0.2159101,0.1873153,0.6472737
1.004119,-0.355085,-0.1133569,0.2206098,0.5219384,0.437915
0.9092284,-0.3465348,-0.07931566,-0.03037366,0.512395,0.02137653
0.9208738,-0.2946904,-0.03590963,-0.2066588,0.2122407,-0.5397372
0.9040742,-0.2102976,0.02376622,-0.04491772,-0.1089138,-0.5158092
0.901076,-0.1385514,0.0316752,0.250688,-0.4899856,-0.1191703
0.9360118,-0.0787544,-0.01225483,0.5252355,-0.7804438,0.0925222
0.925717,-0.07380729,-0.07172128,0.6116142,-0.741998,0.176488
0.9290758,-0.05704221,-0.1351032,0.5019666,-0.5041818,0.1051407
0.9152196,-0.03706259,-0.1519751,0.4106025,-0.2502926,0.04544919
0.8690685,-0.02140076,-0.1386084,0.3447766,-0.1672439,0.0461177
0.855172,-0.01318576,-0.1429781,0.3219667,-0.2020385,0.02817461
0.8681066,-0.02988088,-0.1453915,0.3638791,-0.1377924,0.1503173
0.9225686,0.005837258,-0.1429253,0.287215,-0.0781424,0.165563
0.9843374,0.02946332,-0.155595,0.166829,0.04393688,0.1146079
1.009595,0.01676693,-0.167975,0.1204206,0.2950796,0.1657272
1.001819,0.02925528,-0.1528683,0.09013622,0.3740473,0.1227809
0.9430168,0.03421732,-0.08871066,0.1859012,0.3008267,0.1165818
0.8881189,0.04481009,-0.01886343,0.3335155,0.2445382,0.104015
0.9232758,0.04469922,-0.03231086,0.421047,0.154394,0.04514794
1.010119,0.0381038,-0.07431041,0.4928798,0.0740856,0.02027966
1.074182,0.06429351,-0.06562275,0.4597739,0.09824858,-0.1030482
1.160213,0.1155968,-0.06096055,0.2921768,0.1774352,-0.1844807
1.235698,0.2018997,-0.0479184,-0.03712583,0.236513,-0.2335167
1.210606,0.2341916,-0.001467104,-0.2390226,0.2380857,-0.3059793
1.195555,0.1599886,0.03702238,0.05856046,0.0721878,-0.2759463
1.226541,0.07294217,0.06427329,0.4840942,-0.09274841,-0.1571632
1.24228,0.001971604,0.02267063,0.6156748,0.03183819,0.1361117
1.2578,-0.06296688,-0.0733345,0.3378372,0.2063523,0.3906661
1.17984,-0.1234024,-0.1144998,-0.2057995,0.2185122,0.2946713
0.9947494,-0.2210851,-0.1089153,-0.5213368,0.1145676,0.001016078
0.9038564,-0.341319,-0.0717764,-0.4865307,-0.2082004,-0.3492892
1.021289,-0.3915489,-0.03924767,-0.255372,-0.5204351,-0.6633587
1.261736,-0.3439321,-0.06937056,0.03512678,-0.3585492,-0.7436385
1.419217,-0.1860079,-0.1179676,0.1180281,0.1819928,-0.4959804
1.315774,0.05725674,-0.1359465,-0.0362635,0.6415048,-0.1042653
1.066128,0.1694641,-0.07217385,-0.3553448,0.6431939,0.118835
0.9014284,0.1063144,0.02771825,-0.7752207,0.2147747,0.2211224
0.8077813,0.04212717,0.03006553,-0.916237,0.000673064,0.3156747
0.7821068,-0.04772678,-0.01147474,-0.6635181,0.2518421,0.2844514
0.7996645,-0.1299973,-0.007542304,-0.4760458,0.5034383,0.2551983
0.7502517,-0.113681,0.01928915,-0.4615471,0.5325582,0.2489496
0.7389374,-0.1176715,0.07234733,-0.3776325,0.3095844,0.1281287
0.7488284,-0.1193933,0.1176693,-0.2729461,-0.05318327,0.08785175
0.7498701,-0.06150819,0.1083371,-0.1695107,-0.2518657,0.08328049
0.8359249,-0.01606213,0.08409524,-0.09954913,-0.2396248,0.004035567
0.8705267,0.04222057,0.07352951,-0.09248751,-0.1827478,-0.026924
0.8706351,0.07580293,0.08063,-0.02210927,-0.172877,-0.07959461
0.9277705,0.07520892,0.09373395,-0.01828326,-0.1328391,-0.09604027
0.9981383,0.07587197,0.07694073,-0.09336681,-0.1367174,-0.02544997
1.097904,0.01444387,0.0417834,-0.1378074,-0.2239796,0.05204306
1.172878,-0.02381064,0.01894619,-0.1379227,-0.213954,0.0844012
1.249811,0.01137763,0.03889784,0.08837239,-0.1508168,-0.1813515
1.324627,0.08668002,0.08602507,0.3235533,-0.03427934,-0.6539561
1.310566,0.2783541,0.09779369,0.1850934,0.07180432,-0.7821056
1.249828,0.4987636,0.1044457,-0.2283228,-0.02832931,-0.3084919
1.171981,0.5177017,0.1085819,-0.5747274,-0.2755016,0.4301403
1.155501,0.2244114,0.05051525,-0.4890088,-0.6246851,0.9012177
1.191712,-0.2415068,-0.05333204,-0.07658669,-0.7943198,1.016787
1.1997,-0.5289976,-0.1683151,0.2408982,-0.5420447,0.9721852
1.24532,-0.519267,-0.2399189,0.341364,0.03991355,0.7948429
1.258566,-0.4873633,-0.2495571,0.2175584,0.9280465,0.3029388
1.08666,-0.4356423,-0.149635,-0.03650223,1.312614,-0.4372771
0.8020868,-0.1758683,0.07747966,-0.2015296,0.6469641,-0.7452095
0.6729824,-0.05187246,0.1687091,-0.09048933,-0.1511088,-0.3766456
0.7792766,-0.119632,0.08519195,0.2885553,-0.8727901,0.07373805
0.8948733,-0.06566599,0.00883528,0.5376999,-1.382657,0.3378122
0.9827507,-0.09272117,-0.1352132,0.5362411,-0.9392849,0.4078695
1.048538,-0.1555557,-0.2304803,0.5152645,-0.3638584,0.1880497
0.9489906,-0.08703716,-0.1677618,0.4962678,-0.1733255,-0.002627335
0.838403,-0.08124917,-0.1496213,0.5264053,0.01261707,-0.003368745
0.8318939,-0.08610673,-0.1537928,0.5376262,-0.1296362,-0.02778012
0.8246916,-0.07355533,-0.127381,0.5173757,-0.1843269,0.005227914
0.8900644,-0.06265122,-0.1484279,0.5165619,-0.006831484,0.08401684
1.00204,-0.01106598,-0.1579072,0.409322,0.04923463,0.1158517
1.022584,-0.005925947,-0.1407776,0.3770971,0.3034199,0.1556742
0.9396229,-0.007588483,-0.1042473,0.4215156,0.3012063,0.1190468
0.8546187,0.01253383,-0.04176557,0.4601969,0.09587484,0.05536048
0.9160934,0.03155618,-0.04789439,0.5948455,0.1830114,-0.01835136
1.004017,0.05768218,-0.07695207,0.6245287,0.1263306,-0.1155284
1.085851,0.09301466,-0.05802913,0.5782742,0.1602941,-0.1101808
1.247201,0.1623114,-0.07354841,0.4804878,0.3349736,-0.1053706
1.231188,0.185759,-0.07481018,0.1681216,0.3461353,-0.1388525
1.129104,0.1822693,-0.02257339,-0.1651731,0.3838422,-0.2012947
1.165126,0.2152718,0.01909227,-0.2286408,0.1920016,-0.3721133
1.139695,0.1685583,0.05720859,0.0727455,-0.09666106,-0.4681715
1.154525,0.05743445,0.04570248,0.4532748,-0.1026596,-0.3168
1.258174,-0.001341498,-0.01715857,0.5391652,0.06364148,0.02813273
1.223332,-0.03039114,-0.08189801,0.2212967,0.2766751,0.367146
1.121267,-0.09807574,-0.1345528,-0.2537639,0.3387432,0.3976224
0.9529929,-0.2318639,-0.1127766,-0.4430011,0.264508,0.07235694
0.8292038,-0.3764077,-0.05201913,-0.3386993,-0.1159683,-0.270667
1.001352,-0.434522,-0.01709932,-0.07700426,-0.7250237,-0.5402961
1.300034,-0.378323,-0.05282319,0.220378,-0.635087,-0.8262497
1.492437,-0.1995756,-0.1652885,0.2118243,0.212823,-0.7671394
1.39728,0.05402408,-0.1878193,-0.03040786,1.026049,-0.3539142
1.094752,0.1664019,-0.07725105,-0.2742247,1.182348,-0.002575856
0.9029738,0.08304496,0.05296875,-0.5386103,0.5665913,0.2607603
0.7766933,0.01080762,0.09551284,-0.5833604,0.1149266,0.2999694
0.7545115,-0.04385846,0.03757513,-0.3970896,0.2588971,0.1565642
0.8092325,-0.09764698,0.02688669,-0.3697275,0.4246522,0.1177441
0.7472451,-0.0406154,0.04146511,-0.4440195,0.4981452,0.05009492
0.7532558,-0.01210093,0.04576524,-0.4647258,0.3615166,0.02981504
0.7678569,-0.0337864,0.1088428,-0.4610267,-0.02542587,0.1048042
0.7352838,0.001717391,0.1261626,-0.3944642,-0.2693651,0.1030126
0.8105056,-0.001937453,0.08782151,-0.3437532,-0.3293921,0.128216
0.8425389,0.0344981,0.06121275,-0.2742173,-0.2845272,0.104404
0.8573571,0.1045423,0.05161551,-0.1931803,-0.2080967,0.04080509
0.9001946,0.07205325,0.08729844,-0.2035992,-0.1328736,0.05119193
0.9353908,0.0631412,0.1183593,-0.2420824,-0.06748707,0.06844441
0.9959233,0.06799193,0.1145543,-0.3339947,-0.1894896,0.1336397
1.04287,0.0005432162,0.07936672,-0.3543601,-0.2945554,0.1390471
1.196626,-0.04504933,0.04627026,-0.1761578,-0.2582415,0.04640045
1.33254,-0.004778938,0.07290873,0.0945593,-0.2747304,-0.1534962
1.340836,0.06987201,0.09080776,0.2648985,-0.2714898,-0.4604562
1.415303,0.1487176,0.05913852,0.1005426,-0.2436772,-0.4096929
1.45606,0.2829009,0.0211125,-0.08903998,-0.2278928,0.1263841
1.402343,0.28943,-0.01179176,-0.01244718,-0.1997421,0.7132201
1.326922,0.04192876,-0.03139283,0.1097194,-0.1697813,0.8745782
1.226549,-0.2191964,-0.03532353,0.2424687,-0.04417801,0.5331197
1.068483,-0.3571927,-0.03391665,0.2512621,0.09122106,0.2688676
0.8870068,-0.3471286,-0.04140575,0.06548964,0.08590823,0.1243183
0.8993584,-0.2624671,-0.07042601,-0.1152685,0.05193082,-0.1982757
0.9846049,-0.2165104,-0.09601699,-0.2347367,0.05407128,-0.2822885
0.9772296,-0.1691835,-0.06656169,-0.04138856,-0.04867517,-0.08764235
0.9709809,-0.1736918,-0.01277016,0.3673102,-0.2507327,0.003042842
0.8961744,-0.186652,-0.007589818,0.5373853,-0.430886,0.01323041
0.8466022,-0.1405404,-0.04182049,0.5525922,-0.5628223,0.00934378
0.8771176,-0.112369,-0.09487644,0.4121212,-0.546065,-0.01420173
0.8680826,-0.04020262,-0.1450248,0.1886816,-0.3942782,-0.04977816
0.8690923,0.01406481,-0.1654708,0.2137541,-0.2140606,-0.01461391
0.8698267,-0.002347962,-0.1665201,0.2749424,-0.01946731,0.07139212
0.8841486,-0.0038468,-0.1480656,0.2581335,0.05958388,0.0575975
0.9301741,-0.02104721,-0.1272108,0.2688741,0.06934757,0.03502727
0.9641558,0.007877026,-0.1202966,0.215331,0.155408,0.02761399
0.9838321,0.06772975,-0.117016,0.1527996,0.2348299,0.009839681
0.9557722,0.08268797,-0.11263,0.124951,0.2688917,0.05860045
0.9273686,0.09559369,-0.08512309,0.1823663,0.236384,0.0894164
0.9104303,0.07786724,-0.0543692,0.3502878,0.1539071,0.09017903
0.9198298,0.06441346,-0.06031297,0.5194036,0.1069189,0.08932314
1.046088,0.08490779,-0.07323276,0.6136851,0.1021505,0.04443231
1.225618,0.1125881,-0.07023008,0.5178009,0.1497425,-0.08196597
1.312238,0.1667327,-0.06608357,0.2692065,0.2223889,-0.2958958
1.24785,0.2232696,-0.04604186,-0.02011406,0.2483045,-0.4203396
1.200498,0.2662544,0.002812495,-0.1295815,0.1230602,-0.3762142
1.241092,0.2144581,0.04408714,0.1710769,-0.07054995,-0.1809151
1.231336,0.06986665,0.0385479,0.3828078,-0.04474105,0.2105606
1.227644,-0.0126385,-0.03770224,0.1187148,0.1308007,0.4993816
1.170234,-0.09262097,-0.1299624,-0.2838998,0.3021427,0.370893
0.9841488,-0.2353974,-0.1183329,-0.6410699,0.4047798,0.04057643
0.8918817,-0.359618,-0.04163146,-0.7164294,0.164861,-0.2643869
0.968438,-0.4353079,-0.0004886594,-0.3259621,-0.290494,-0.5343734
1.187887,-0.3772006,-0.004746893,0.1307212,-0.4686238,-0.7541362
1.414108,-0.183712,-0.0972625,0.2763955,-0.1242402,-0.8839196
1.371045,0.03278456,-0.1845255,0.04571661,0.5200911,-0.5761749
1.148712,0.1576922,-0.1057573,-0.361177,0.7889158,0.02376875
0.9611274,0.0897107,0.01074068,-0.6734734,0.5241954,0.1862095
0.8090906,-0.01654209,0.04257027,-0.7785415,0.2596951,0.155724
0.7544376,-0.07965033,0.05558997,-0.5650976,0.2311119,0.1719896
0.7542688,-0.1426592,0.05239918,-0.3036354,0.3002866,0.01918003
0.6903108,-0.0983171,0.05132117,-0.284703,0.3165295,0.02723263
0.6871358,-0.07601971,0.07838181,-0.2719826,0.2193836,0.08177503
0.7275741,-0.08182438,0.08872084,-0.258942,0.03898056,0.03852372
0.7261255,-0.00566191,0.1001783,-0.2684673,-0.1123325,0.05794152
0.7677874,-0.001590836,0.1059129,-0.1751876,-0.195963,-0.05195515
0.7958607,0.05544484,0.08939235,-0.1115336,-0.2394459,-0.1660223
0.815818,0.1635684,0.09574322,-0.08393147,-0.1843287,-0.1812828
0.8742474,0.1449595,0.09498197,-0.1273728,-0.1089645,-0.08740181
0.9549649,0.1450964,0.0750045,-0.2687131,-0.07580005,0.1451648
1.093493,0.1197052,0.05160428,-0.4103095,-0.07915469,0.25105
1.203876,0.02051994,0.02675162,-0.4935332,-0.1459455,0.2250219
1.301339,-0.009950925,0.05955748,-0.2598043,-0.2064826,-0.01639967
1.408725,0.05485332,0.0928381,0.1288891,-0.2946831,-0.4641743
1.429082,0.1789,0.05263381,0.2105923,-0.3240442,-0.5316077
1.407079,0.2078889,0.003427128,0.09479672,-0.2465742,0.06442958
1.358251,0.02815704,-0.02947331,0.06351905,-0.2091426,0.8158691
1.234803,-0.2391274,-0.03279594,0.177894,-0.1101997,0.9211808
1.028254,-0.3580966,-0.01534538,0.260676,9.153034e-05,0.4984708
0.9164306,-0.3156585,-0.03668743,0.1854355,0.07141428,0.2575545
1.015825,-0.272113,-0.09034777,0.03866982,0.1531997,0.1136923
1.077194,-0.2020511,-0.1391557,-0.141443,0.12722,-0.1602327
1.06307,-0.1573343,-0.1185131,-0.1711146,0.1491453,-0.2833339
1.009982,-0.151729,-0.02730465,0.04492712,0.08369778,-0.1192384
0.8654391,-0.08143689,0.01987061,0.2738801,-0.2764568,0.005436685
0.8465115,-0.08634311,-0.0007538561,0.4007832,-0.5951784,-0.04229804
0.8714557,-0.1175189,-0.04657355,0.4059261,-0.726294,0.04777039
0.7972496,-0.05316617,-0.09937544,0.2973605,-0.593957,0.1689225
0.8216504,-0.02871604,-0.1444325,0.2083519,-0.3294105,0.1448153
0.8621489,-0.01417632,-0.1796288,0.220542,-0.1604928,0.1810556
0.8639578,0.002478198,-0.1858241,0.2688864,0.03046632,0.1928137
0.9318299,-0.04114029,-0.1719295,0.2613815,0.09756754,0.1177949
0.9594271,-0.05749709,-0.1549199,0.2281978,0.1366371,0.05267608
0.9685976,-0.02987951,-0.1409989,0.1997378,0.2965964,-0.02113276
0.9873416,0.02028268,-0.1288745,0.181482,0.3189009,-0.004014581
0.9377432,0.07382818,-0.09623529,0.2159041,0.3192096,0.0489271
0.8908631,0.09466631,-0.07717417,0.2869486,0.2662065,0.04055843
0.8830118,0.09377752,-0.0663828,0.4072867,0.09808911,0.06047006
0.9508688,0.06800498,-0.05536009,0.4862706,0.07542777,0.03663186
1.114402,0.05073746,-0.07186798,0.4023941,0.1502511,-0.08260534
1.231909,0.08459574,-0.07116669,0.1848605,0.2675637,-0.2518635
1.239177,0.1670457,-0.07026799,-0.1781703,0.331909,-0.4109987
1.178923,0.2329686,-0.06683764,-0.3196862,0.1800409,-0.4207449
1.151291,0.1679026,-0.01851343,0.1177216,-0.07562512,-0.3419619
1.237993,0.02571342,0.01099809,0.6044566,-0.1843447,-0.1690582
1.318803,-0.05501032,-0.02582385,0.6186094,0.04042434,0.194551
1.28028,-0.07157913,-0.09652771,0.1707603,0.3173749,0.3577568
1.139928,-0.1004248,-0.1103322,-0.4793913,0.3306642,0.1114011
0.928035,-0.2055492,-0.05898758,-0.7807326,0.1924419,-0.1404517
0.8147541,-0.3336326,0.0046442,-0.565525,-0.1976103,-0.2839593
1.008304,-0.3827672,0.04202988,-0.1914757,-0.7890143,-0.5151626
1.344992,-0.3169519,-0.05025079,0.1710437,-0.8008902,-0.6831144
1.486709,-0.1377322,-0.1775663,0.2682352,0.01740158,-0.5466267
1.357332,0.05788918,-0.1575121,-0.1386508,0.8367595,-0.255854
1.086388,0.1254369,-0.0442357,-0.6241197,0.9726925,-0.06241432
0.8514785,0.06975415,0.06821809,-0.9002588,0.4983943,0.02483099
0.7245247,0.02685944,0.0945626,-0.9989927,0.1309982,0.08266014
0.7105232,0.0006996072,0.03806852,-0.8305477,0.2278672,0.1680297
0.7490371,-0.04379641,0.02811185,-0.7139092,0.3308323,0.2303361
0.7387471,-0.03220872,0.04808255,-0.7456296,0.3390403,0.1933272
0.779933,-0.04256829,0.05610473,-0.6821681,0.2325321,0.1516096
0.8180661,-0.08055145,0.0816783,-0.6019019,-0.0553541,0.09720497
0.7649827,-0.04667375,0.0782976,-0.4255177,-0.2039941,-0.008626186
0.771173,-0.02242191,0.06301755,-0.212869,-0.2997268,-0.06974584
0.7808102,0.03491759,0.07305759,-0.1007072,-0.3527517,-0.0934798
0.8008169,0.1072897,0.06592668,-0.01338628,-0.2154662,-0.02489818
0.8993832,0.07985835,0.07295575,-0.02640745,-0.1236575,0.1465291
1.008753,0.04566243,0.08788285,-0.04940696,-0.1314003,0.2415638
1.142426,0.01457091,0.05216817,-0.09154986,-0.2747856,0.2050491
1.243844,0.008125616,0.006542096,-0.2236524,-0.4349147,0.09629572
1.328976,0.07421218,-0.01094403,-0.236274,-0.3180886,-0.05037129
1.392267,0.1494109,0.002236286,-0.107872,-0.08815597,-0.264337
1.381576,0.2181447,0.02354831,0.002342539,0.008963432,-0.3343946
1.409491,0.2443152,0.04600621,-0.04395434,-0.1217488,0.04531362
1.422848,0.2076801,0.07159953,-0.08978981,-0.3112125,0.5925786
1.329228,-0.02018901,0.0115043,0.05335787,-0.2423478,0.7954183
1.134672,-0.3678681,-0.0719482,0.2087363,-0.09767841,0.602108
0.9111616,-0.380033,-0.03959557,0.2938664,0.01757599,0.3544362
0.8507345,-0.2507228,-0.0261875,0.2263575,0.173287,0.1747306
0.9080219,-0.2887244,-0.08927724,0.02074153,0.06643388,0.01722511
