accx,accy,accz,gyrox,gyroy,gyroz
1.019669,-0.2842424,-0.0820759,-0.4626653,0.3935667,-0.1620148
1.010707,-0.2564713,-0.08082855,-0.5941093,0.2113755,-0.0906703
1.085746,-0.387973,-0.06399687,-0.6416597,-0.07707824,0.04610051
1.21635,-0.5222549,0.006301058,-0.3407632,-0.2494617,0.1563904
1.28792,-0.5454132,0.01979545,0.1117938,0.1305289,0.09139373
1.277225,-0.592864,-0.1042796,0.1604388,0.361511,0.02808498
1.305887,-0.7119857,-0.2773692,0.2761456,0.0768801,0.190033
1.371943,-0.7378633,-0.3204047,0.78863,-0.05660002,0.3607746
1.278313,-0.6874205,-0.3460769,1.187246,0.3606063,0.3407786
1.044868,-0.6403493,-0.4679129,1.162853,0.8805566,0.2015446
0.7702668,-0.4370127,-0.4546992,0.5730735,0.854092,0.008426164
0.6081313,-0.1605591,-0.3628896,-0.2401506,0.1695105,-0.1028571
0.682926,-0.1161447,-0.3662345,-0.615678,-0.8665513,-0.1108979
0.8075926,-0.3062307,-0.3457007,-0.5044574,-1.292758,-0.1522686
0.9012725,-0.547646,-0.3083357,-0.1068855,-0.6561993,-0.2350293
0.9245019,-0.6601279,-0.2662043,0.3949421,-0.1296357,-0.401966
0.7985887,-0.5462724,-0.2141193,0.6042335,-0.2527172,-0.5519062
0.730353,-0.3472063,-0.2602038,0.4228642,-0.434392,-0.5385956
0.7560678,-0.2279638,-0.3003337,0.2702978,-0.6112038,-0.4705513
0.7981022,-0.1697601,-0.2853008,0.2108977,-0.6828003,-0.3349652
0.899232,-0.1791234,-0.2944785,0.1470135,-0.4020382,-0.1669556
0.9386854,-0.227555,-0.276134,0.261481,-0.1293369,-0.1108505
0.9199802,-0.2284904,-0.2502137,0.3068699,-0.1083411,-0.08991011
0.8935077,-0.2262317,-0.2169039,0.2887612,-0.191504,-0.02953207
0.8472681,-0.1982993,-0.1728001,0.3861211,-0.2839911,0.04847719
0.8960244,-0.1729071,-0.1935021,0.3401191,-0.2927568,0.09046645
1.002488,-0.2412751,-0.2107485,0.3897642,-0.112836,0.07528548
1.065949,-0.2902892,-0.1855781,0.522851,0.2168815,0.02954984
1.047873,-0.2625765,-0.1721666,0.4816595,0.3225524,-0.06743781
1.008775,-0.1757881,-0.1701768,0.4012899,0.04640417,-0.1735342
1.076803,-0.07360916,-0.1986041,0.1161792,-0.20799,-0.2313548
1.175943,-0.08208732,-0.2452256,-0.1314846,-0.2235368,-0.2499533
1.274057,-0.2491484,-0.2671176,-0.04240517,-0.04429704,-0.2236105
1.303185,-0.4714742,-0.3241663,-0.05100112,0.102513,-0.2161383
1.092194,-0.5354544,-0.4257225,-0.3662831,-0.02589648,-0.3440386
0.807555,-0.487718,-0.4398778,-0.7051507,-0.2025492,-0.5387712
0.7455512,-0.5332217,-0.3598723,-0.7335436,-0.2969764,-0.5592888
1.037759,-0.5927823,-0.301833,-0.372834,-0.3354398,-0.3152431
1.39821,-0.5684349,-0.3206432,0.1007918,-0.0792286,0.01685287
1.395042,-0.4761498,-0.3955857,0.2023792,0.3608512,0.1825659
1.209899,-0.3232373,-0.42683,-0.03566014,0.519917,0.2183034
1.028707,-0.2032741,-0.3473202,-0.1671859,0.3952846,0.4355391
0.7566906,-0.1981537,-0.2107784,-0.2805096,0.2806172,0.6745813
0.5961304,-0.2300141,-0.149654,-0.4732654,0.1605254,0.5821944
0.5754287,-0.2545219,-0.1852502,-0.5922661,0.07114515,0.4911818
0.5525894,-0.3272616,-0.1974587,-0.5957172,0.2022702,0.5495161
0.6085385,-0.3965704,-0.1931276,-0.5017647,0.321545,0.436475
0.6846316,-0.3932487,-0.1891279,-0.4297045,0.2261618,0.3510378
0.7184679,-0.3467672,-0.1616708,-0.39915,0.05891001,0.3838865
0.7646152,-0.3216766,-0.1672342,-0.4640146,-0.1643809,0.3124775
0.7906377,-0.3614089,-0.1551741,-0.5462548,-0.2559807,0.2662402
0.8554181,-0.4241599,-0.1008854,-0.3977947,-0.06845597,0.1994611
0.9783984,-0.4398362,-0.08408502,-0.1975666,0.1734122,0.05245968
1.041177,-0.3670476,-0.09303527,-0.1589145,0.470136,-0.02153786
1.048442,-0.2626462,-0.09840275,-0.2813286,0.5827125,-0.0463185
1.053128,-0.2668155,-0.08595533,-0.4384579,0.2297541,-0.008875218
1.08531,-0.3965099,-0.02676249,-0.3428301,-0.009641396,0.0132019
1.152457,-0.5033442,0.05573055,0.004452742,0.1193486,-0.03004397
1.203811,-0.5092684,0.01619402,0.3005966,0.129397,-0.06496693
1.300926,-0.6064807,-0.2737202,0.294824,-0.07771633,-0.09361692
1.42456,-0.8248863,-0.5944587,0.3689959,-0.127374,0.07587182
1.324231,-0.8266,-0.6305987,0.9673392,0.2739019,0.3342863
0.9976729,-0.6115595,-0.5431105,1.260979,0.8711948,0.3185869
0.7021782,-0.4224123,-0.5259656,0.6379223,1.020763,0.1613432
0.6196563,-0.3216903,-0.4186651,-0.1277582,0.5792556,-0.01097304
0.7390574,-0.3821718,-0.3203083,-0.4308337,-0.01739388,-0.240855
0.8404974,-0.4669781,-0.2967179,-0.373926,-0.4762961,-0.3719024
0.896081,-0.4943114,-0.2092516,-0.07679572,-0.5629504,-0.4274721
0.8988827,-0.5622408,-0.2274368,0.4117873,-0.2932938,-0.5655938
0.7563337,-0.4879757,-0.2453943,0.6511218,-0.2235634,-0.6505313
0.7106448,-0.3248814,-0.2015028,0.5009699,-0.4127058,-0.6109394
0.7288842,-0.2310398,-0.2859335,0.3985783,-0.6039057,-0.5148639
0.7041888,-0.1433117,-0.2815499,0.2948486,-0.7298717,-0.3078788
0.8114025,-0.1583657,-0.2664184,0.2837364,-0.5454858,-0.1225441
0.8851182,-0.2139141,-0.3027684,0.4761361,-0.2729332,-0.07063213
0.9039531,-0.2547762,-0.2246992,0.5395862,-0.2367332,-0.02930062
0.9125018,-0.2758265,-0.2087942,0.6107413,-0.3064865,0.04419046
0.8703679,-0.1680889,-0.1869231,0.6313193,-0.4423094,0.1574521
0.9334308,-0.121831,-0.1686163,0.5571939,-0.4859839,0.2051544
0.9855255,-0.1916899,-0.2006242,0.6077002,-0.2228883,0.1178811
1.022991,-0.2668778,-0.1188779,0.5661788,0.2268213,0.04627392
1.057279,-0.2947823,-0.07481718,0.5425578,0.3864702,-0.03098692
1.014417,-0.1705692,-0.08665662,0.4946215,0.02192337,-0.1803142
1.098367,-0.04626853,-0.1270495,0.155172,-0.2990567,-0.2992297
1.216323,-0.07182625,-0.1990087,-0.1127345,-0.2144181,-0.3304581
1.287247,-0.243269,-0.2032167,-0.1135605,-0.006469749,-0.2976796
1.290266,-0.4402545,-0.2906261,-0.1593776,0.06930416,-0.3154182
1.050503,-0.4604979,-0.4276323,-0.6513892,-0.1518274,-0.46922
0.7498976,-0.4346132,-0.4641514,-1.233831,-0.5205764,-0.6236709
0.6677148,-0.5304594,-0.4497595,-1.1378,-0.6678266,-0.5502928
0.9639382,-0.6611923,-0.4393587,-0.554542,-0.5264278,-0.2079381
1.420967,-0.6969026,-0.4675819,0.05317981,0.126773,0.1761182
1.551464,-0.5493915,-0.4652599,0.2922924,1.063618,0.3157983
1.233465,-0.3045251,-0.3915533,-0.09373547,1.057742,0.3161108
0.7551701,-0.1674368,-0.2350457,-0.4165464,0.3363498,0.5715322
0.5896182,-0.1762892,-0.0932999,-0.3804961,0.01639743,0.817675
0.6549994,-0.2292169,-0.1567751,-0.5046592,-0.1168008,0.693636
0.6240051,-0.3079452,-0.2342381,-0.5793764,0.07782406,0.6224681
0.6320869,-0.3633288,-0.1893582,-0.3986264,0.5203279,0.5732312
0.6645014,-0.352208,-0.1704312,-0.3335383,0.4845235,0.343633
0.6770551,-0.3230646,-0.123445,-0.3179003,0.2351359,0.3230261
0.7258807,-0.2782452,-0.085537,-0.2932809,-0.117591,0.361703
0.7383255,-0.2771052,-0.123646,-0.396165,-0.3059087,0.2744321
0.7560306,-0.3261904,-0.1008621,-0.4463815,-0.1726541,0.2334005
0.8163445,-0.3725006,-0.0813695,-0.3281046,-0.1807658,0.1040004
0.9340129,-0.4138337,-0.110209,-0.2177932,0.1116517,-0.04272505
1.044399,-0.3812796,-0.10973,-0.3768314,0.5543185,-0.1032969
1.059379,-0.3341419,-0.1258995,-0.5955107,0.5563106,-0.1377509
1.06231,-0.3567031,-0.1086058,-0.5278206,0.2184035,-0.05347109
1.109029,-0.404138,-0.04398875,-0.2784271,-0.1829166,0.03706136
1.178876,-0.464403,0.0001162436,0.07717081,-0.01118009,0.01644178
1.190871,-0.4840529,0.01236515,0.2475814,0.1688043,0.0131366
1.169879,-0.5153809,-0.1008262,0.1493687,-0.1095856,0.08690901
1.208638,-0.6474588,-0.3184586,0.4048616,-0.0604732,0.1914523
1.20214,-0.7315509,-0.4988525,0.9983295,0.1466536,0.2814519
1.049126,-0.6604565,-0.559058,1.243354,0.5464098,0.3304399
0.8016911,-0.4554815,-0.4946457,0.83258,1.032683,0.3041426
0.6775867,-0.1968372,-0.4251731,0.1089814,0.651263,0.1954321
0.7603943,-0.1184631,-0.3686461,-0.4545202,-0.2294017,0.03179981
0.8489791,-0.3266763,-0.2836754,-0.7085294,-0.8043503,-0.1383587
0.8995572,-0.586958,-0.2295938,-0.3552804,-0.7392788,-0.2820337
0.8813115,-0.6588087,-0.1911938,0.309122,-0.3008536,-0.4731659
0.7609351,-0.5414271,-0.1804296,0.535909,-0.3049134,-0.6424914
0.7158708,-0.3514012,-0.2356792,0.5433754,-0.5057388,-0.6191682
0.7254259,-0.2186085,-0.2764254,0.4688391,-0.6684726,-0.551682
0.7266234,-0.1859727,-0.2807317,0.3390295,-0.868849,-0.4570051
0.7899532,-0.2057182,-0.2761013,0.4348874,-0.6154505,-0.1901008
0.8763376,-0.221821,-0.2606558,0.4359165,-0.345539,-0.05660201
0.9410833,-0.2088501,-0.2422033,0.3973674,-0.3635688,-0.08476945
0.9274219,-0.2214689,-0.2134206,0.4640456,-0.3285666,-0.0006540713
0.9005708,-0.2156741,-0.2003324,0.4192196,-0.4037261,0.03566737
0.9414108,-0.1767093,-0.1997546,0.4435955,-0.38586,0.04877067
0.9501269,-0.2128387,-0.2039783,0.4896177,-0.2435175,0.09171604
0.9752458,-0.2527698,-0.2239382,0.5146532,-0.07037669,0.01762044
1.010776,-0.2682609,-0.1699235,0.5830632,0.2102791,-0.05281355
1.013927,-0.2433839,-0.09413004,0.5355536,0.2168598,-0.1534024
1.088715,-0.1090109,-0.1197723,0.3282448,-0.001297085,-0.2824367
1.167866,-0.03340049,-0.1796705,-0.05153497,-0.1759497,-0.2728318
1.231254,-0.1271565,-0.2505308,-0.2716737,-0.1281861,-0.1772268
1.262313,-0.3372809,-0.3224328,-0.2981888,-0.009943746,-0.1056937
1.142803,-0.5351407,-0.3744973,-0.5693052,-0.2076052,-0.2673205
0.9230181,-0.5854547,-0.4635362,-0.8624702,-0.3737995,-0.5438226
0.7190778,-0.5702954,-0.4979833,-0.8407006,-0.4831743,-0.5624095
0.7630861,-0.6008336,-0.398698,-0.4407261,-0.4901802,-0.387327
1.099615,-0.6256135,-0.3331369,0.1379928,0.01889903,-0.1153936
1.349781,-0.5484374,-0.4067348,0.3392186,0.5728575,0.1406375
1.26989,-0.379773,-0.4544996,0.1821979,0.6550242,0.2268176
0.9765161,-0.1964184,-0.3474055,0.06005653,0.1867858,0.4025495
0.725385,-0.1385318,-0.2197275,-0.02400126,-0.3163048,0.7086477
0.6107492,-0.2488897,-0.1891142,-0.08507167,-0.2803972,0.748915
0.6093658,-0.3161453,-0.2137494,-0.0992403,0.006047437,0.5705425
0.6570483,-0.3451926,-0.2238379,-0.1487077,0.3756838,0.4584819
0.6611747,-0.3781258,-0.1817827,-0.1480835,0.5786655,0.3268959
0.70373,-0.3096819,-0.1390733,-0.1142801,0.3865264,0.2186905
0.7350301,-0.2693389,-0.1155259,-0.1749481,0.1193394,0.2482602
0.7173739,-0.2665792,-0.08641472,-0.1946189,-0.2055705,0.2495765
0.7694262,-0.2742511,-0.08952837,-0.2019357,-0.3767342,0.2107981
0.8319889,-0.3515793,-0.1009405,-0.2112733,-0.09716059,0.1143134
0.9461498,-0.3782366,-0.09858152,-0.1698062,0.2664694,-0.07813134
1.044324,-0.3379817,-0.1076688,-0.3386926,0.4419889,-0.1474955
1.023501,-0.2791276,-0.1090394,-0.5976824,0.4030095,-0.06730368
1.04404,-0.2795229,-0.1003071,-0.6291817,0.1179033,0.01521947
1.0932,-0.3941543,-0.05571649,-0.3568108,-0.08013727,0.06631471
1.163857,-0.4999094,0.03204339,0.09763777,0.1121751,0.0616369
1.226309,-0.5519122,0.04434294,0.2729332,0.2782736,0.03548116
1.215541,-0.6009777,-0.1428276,0.2343717,0.1029805,0.07661456
1.258388,-0.7275388,-0.4392604,0.5466461,0.07647796,0.1656562
1.250391,-0.8146091,-0.5864982,1.146245,0.4919851,0.236725
1.011166,-0.6235163,-0.5589624,1.302431,0.8562355,0.2485768
0.6949689,-0.3105169,-0.5033538,0.608866,0.7233399,0.1727125
0.6325121,-0.1521232,-0.4066395,-0.3154729,0.2279682,0.06219176
0.793458,-0.1895922,-0.3085561,-0.7371554,-0.3327939,-0.06804503
0.8712859,-0.3722827,-0.2916689,-0.6365445,-0.586246,-0.1768776
0.9037765,-0.5905754,-0.2405781,-0.2533683,-0.3231654,-0.2697728
0.8431374,-0.6230071,-0.1599788,0.245998,-0.1512797,-0.4752801
0.6759014,-0.4446046,-0.1923329,0.4949126,-0.3892366,-0.5994066
0.701962,-0.2926961,-0.2552091,0.2947898,-0.506717,-0.5652021
0.7810056,-0.1904313,-0.2889975,0.1330973,-0.5339236,-0.5077376
0.8075519,-0.1584713,-0.3237651,0.1273962,-0.5278702,-0.3038971
0.8976967,-0.2421598,-0.2823878,0.1302699,-0.2890629,-0.1023498
0.8969705,-0.2752321,-0.2241128,0.3355736,-0.194105,-0.05779637
0.8796232,-0.2667616,-0.2033609,0.4535245,-0.251861,-0.0271449
0.9334674,-0.2306248,-0.1797034,0.4526832,-0.293115,0.01620933
0.9790215,-0.1689854,-0.2200784,0.5062221,-0.3399134,0.05990826
1.038062,-0.1955927,-0.2422886,0.3938208,-0.1778922,0.05607464
1.0329,-0.2340537,-0.1574942,0.3707735,0.08154953,0.02062671
1.009319,-0.2294435,-0.08680438,0.4574228,0.2244637,-0.02695971
1.042935,-0.1551523,-0.103826,0.4244179,0.1160627,-0.1216146
1.104904,-0.053524,-0.1954728,0.2726791,-0.1534167,-0.2122325
1.229951,-0.09128876,-0.2731934,-0.0389181,-0.2389055,-0.2645131
1.273461,-0.1796488,-0.2956917,-0.1416001,-0.09346372,-0.1955438
1.175793,-0.3266969,-0.3572303,-0.1517374,0.1863267,-0.1445725
1.072292,-0.5606273,-0.4554827,-0.4791049,0.2422167,-0.3305177
0.9815561,-0.5637157,-0.4390528,-0.7942697,0.03104254,-0.561518
0.9255792,-0.5257656,-0.3040698,-0.871288,-0.1758514,-0.6134838
0.8852498,-0.7143915,-0.2434452,-0.6202141,-0.4882499,-0.4216914
0.9186338,-0.6987871,-0.2928534,-0.1714633,-0.4382968,-0.0813937
1.168492,-0.5190766,-0.4036824,0.06941148,0.3603219,0.1812102
1.379529,-0.404947,-0.5059335,0.1056542,1.084727,0.2885574
1.24039,-0.2317551,-0.4326278,0.006825298,0.8946187,0.4000006
0.8735939,-0.2495948,-0.2325107,-0.1464832,0.3035441,0.6362048
0.5745227,-0.3076846,-0.09026032,-0.2269416,0.1069051,0.7002366
0.5578811,-0.2239318,-0.1212624,-0.3148764,-0.01132191,0.5334511
0.6560358,-0.3070857,-0.2068059,-0.3778619,0.1113334,0.4489133
0.6105456,-0.3120148,-0.1639641,-0.3643935,0.3920194,0.3439333
0.642145,-0.2496073,-0.1613055,-0.3605121,0.1299218,0.2349537
0.7664311,-0.3105175,-0.1735175,-0.3725465,0.01152202,0.2414311
0.7536548,-0.2832102,-0.08955266,-0.3790057,0.03832055,0.1659998
0.7604987,-0.3273996,-0.07948283,-0.3827945,-0.1075393,0.0545296
0.7963464,-0.3852229,-0.06121575,-0.3579164,0.01673863,-0.03014428
0.8607718,-0.3287342,-0.04277751,-0.3338638,0.04866186,-0.1082461
1.028245,-0.3154691,-0.09723302,-0.3969728,0.1460799,-0.1108669
1.064207,-0.2858923,-0.08270853,-0.4942281,0.2444772,-0.06234078
1.09414,-0.3525255,-0.07837973,-0.4607789,-0.03272573,0.04989397
1.241265,-0.5113848,-0.06034991,-0.2197933,-0.0654737,0.1006679
1.266124,-0.5556267,0.03773425,0.1131114,0.1989502,-0.001533699
1.245614,-0.5291265,0.06295064,0.2232611,0.436107,-0.05111585
1.267742,-0.5086446,-0.01986789,0.1458511,0.3308752,0.05637088
1.245588,-0.5326533,-0.1758573,0.3971754,0.1158951,0.2085989
1.113157,-0.5413377,-0.3919175,1.00624,0.3341774,0.2617109
0.8983781,-0.5354372,-0.6509991,1.318154,0.5784544,0.2717781
0.7984422,-0.5135325,-0.6710928,0.8713844,0.8722609,0.3127711
0.8063755,-0.3296516,-0.3913991,0.09508837,0.8886125,0.2745342
0.761024,-0.1580148,-0.2770299,-0.3742125,-0.01635248,0.1018084
0.7438237,-0.2408158,-0.2673605,-0.5368,-0.8431117,-0.1541933
0.817845,-0.4602209,-0.2107294,-0.200754,-0.8431251,-0.3385477
0.8297309,-0.6350074,-0.1963485,0.478528,-0.6143935,-0.5023679
0.8020475,-0.6673926,-0.1326751,0.6819746,-0.7524011,-0.759258
0.8041806,-0.4877718,-0.2222498,0.6220046,-0.8823175,-0.8208466
0.7672636,-0.2325368,-0.3441971,0.6188688,-0.7820811,-0.6425578
0.7758299,-0.1494714,-0.2979681,0.5629958,-0.8587469,-0.4081472
0.8205552,-0.1958109,-0.3032875,0.6641268,-0.7519663,-0.1262251
0.854049,-0.2167504,-0.2731294,0.7092057,-0.5677993,0.003999254
0.9162275,-0.196616,-0.2519978,0.6450731,-0.5690866,-0.02793639
0.9201558,-0.1924072,-0.2498496,0.6344391,-0.4652514,-0.02802409
0.9256487,-0.1967193,-0.1749282,0.5773017,-0.5172654,-0.03274981
0.9716506,-0.1594485,-0.2029549,0.5279632,-0.4055241,0.008855624
0.9780937,-0.1782773,-0.1901855,0.4750928,-0.0608109,0.1011124
0.9773221,-0.2151671,-0.08080918,0.5281261,0.08674987,0.1109287
0.973144,-0.1925215,-0.02171143,0.5921423,0.1597438,0.07320477
1.003585,-0.1455479,-0.04479422,0.416144,-0.00249621,0.006932291
1.087453,-0.04226284,-0.1613937,0.09775563,-0.1675453,-0.1154015
1.184692,-0.03964116,-0.2104275,-0.2064831,-0.1664651,-0.1884012
1.250488,-0.1631155,-0.201154,-0.1722648,-0.1213454,-0.119131
1.20894,-0.320384,-0.257621,-0.09146443,0.08688316,-0.08549446
1.08023,-0.522847,-0.3932514,-0.4006879,0.129668,-0.3097967
0.9106358,-0.5569673,-0.5236889,-0.6882894,0.07498573,-0.5943899
0.8439574,-0.5214113,-0.4810016,-0.8429761,-0.07213137,-0.6390945
0.9780106,-0.6374545,-0.3871302,-0.7278378,-0.4853788,-0.4663997
1.200236,-0.6857827,-0.3761336,-0.2719638,-0.4620592,-0.1947868
1.490643,-0.5836832,-0.4672299,0.04476559,0.3949581,0.1009874
1.571907,-0.4043928,-0.5828511,0.1458309,1.273208,0.3351379
1.172041,-0.2130844,-0.4249289,-0.1190064,1.055515,0.5497418
0.7341293,-0.133484,-0.1887925,-0.5181564,0.3822527,0.7692288
0.5915078,-0.1565761,-0.1805935,-0.5623549,0.2325199,0.7659432
0.582669,-0.2162412,-0.1968564,-0.6511215,0.1184854,0.6254473
0.5873726,-0.2946786,-0.1905328,-0.7079325,0.342357,0.5783795
0.6053627,-0.3701076,-0.1947056,-0.55323,0.6894384,0.41743
0.6712794,-0.3738105,-0.1426697,-0.4828962,0.3627727,0.2587835
0.7283871,-0.3141011,-0.09428189,-0.4067819,0.1118002,0.2859073
0.7467526,-0.2816196,-0.08384271,-0.43112,-0.1069231,0.276814
0.7632963,-0.2825364,-0.103157,-0.4612182,-0.3344342,0.2549488
0.8073263,-0.33815,-0.1075127,-0.3340179,-0.09046581,0.179734
0.920821,-0.3963789,-0.102545,-0.3101953,0.07311536,0.01159778
0.9824453,-0.3679365,-0.1281266,-0.3720909,0.2764263,-0.08165913
0.9655627,-0.3547447,-0.1265497,-0.5096611,0.3640814,-0.09011635
1.01135,-0.3994716,-0.09347513,-0.5540599,-0.1095913,0.01318454
1.124359,-0.4703208,-0.03130712,-0.2094136,-0.3214633,0.08950741
1.252313,-0.5452598,0.05202347,0.2919668,0.04177053,0.02479645
1.288296,-0.5318609,0.06010285,0.5001417,0.3338341,-0.003461189
1.271043,-0.5120693,-0.09523925,0.3951509,0.01585636,0.06294026
1.342879,-0.6024283,-0.3565468,0.6088861,-0.2498514,0.1994548
1.353225,-0.6707385,-0.5082072,1.188128,0.2938756,0.3192599
1.1597,-0.6226344,-0.5555203,1.327805,0.9192756,0.3100791
0.8363302,-0.4462264,-0.5461506,0.7466089,1.113826,0.2162491
0.6076426,-0.19036,-0.4103859,-0.1009158,0.6081688,0.1045411
0.6754325,-0.1408866,-0.3326127,-0.5479441,-0.470173,-0.04009194
0.8428002,-0.3690935,-0.3168355,-0.5119286,-0.882396,-0.1731134
0.9158606,-0.6075061,-0.2374435,-0.228921,-0.4048196,-0.2734657
0.9170637,-0.6944464,-0.1852428,0.2614027,0.05948153,-0.4653705
0.807908,-0.5386376,-0.1674895,0.4898103,0.005373832,-0.621731
0.71708,-0.2764749,-0.2199665,0.3496802,-0.2582447,-0.6189121
0.7198089,-0.1572978,-0.2746822,0.1812631,-0.4703927,-0.5659207
0.7500036,-0.131124,-0.2594956,-0.005174197,-0.7117431,-0.3885533
0.8454361,-0.1881558,-0.2594908,0.06997117,-0.52964,-0.1621905
0.9141946,-0.281364,-0.2186237,0.3233672,-0.2126666,-0.06000337
0.9157577,-0.25845,-0.1915118,0.3669049,-0.2284655,-0.02139518
0.8968863,-0.2164796,-0.1862157,0.3893879,-0.1979502,0.03125973
0.8820577,-0.181925,-0.1531475,0.3808007,-0.3005473,0.1080227
0.9546907,-0.1545232,-0.1884362,0.3190411,-0.3455993,0.1184256
1.024149,-0.2083008,-0.193733,0.3037934,-0.06155613,0.08933326
1.025495,-0.2468636,-0.141961,0.2427049,0.1248942,0.08758334
1.025348,-0.2456822,-0.1141358,0.304633,0.1194497,0.03829384
1.073855,-0.186583,-0.1137866,0.3651913,-0.05820761,-0.07125811
1.181107,-0.08913386,-0.1348553,0.191511,-0.1746467,-0.2128241
1.230511,-0.1097773,-0.1344524,0.006583824,-0.2011078,-0.2783892
1.245052,-0.2035016,-0.2237329,-0.1485885,-0.2214516,-0.2355038
1.262336,-0.3357818,-0.3921301,-0.3333783,-0.135201,-0.2515605
1.106067,-0.5088029,-0.4769296,-0.5581598,-0.2096322,-0.3978695
0.8079708,-0.588572,-0.4920757,-0.715917,-0.2686646,-0.5774336
0.7056643,-0.6057398,-0.4498852,-0.5859353,-0.3023876,-0.5911805
0.9477753,-0.6106998,-0.4101469,-0.3058796,-0.3869201,-0.3492264
1.283726,-0.5456688,-0.4296304,-0.02908748,0.02441129,-0.01970695
1.446697,-0.4282354,-0.442558,0.1071709,0.6456994,0.1683048
1.320014,-0.2959744,-0.4252604,-0.02186728,0.8363071,0.231544
1.014828,-0.2187959,-0.3375172,-0.1232014,0.5253621,0.4367473
0.751628,-0.2080558,-0.1743401,-0.1808095,0.1449085,0.6904472
0.5817142,-0.2083451,-0.1003721,-0.3890795,0.05687077,0.6738265
0.6102251,-0.2621181,-0.1794736,-0.5404931,0.03113874,0.5925866
0.6921357,-0.3370231,-0.2160574,-0.5565285,0.2105054,0.5827731
0.6594474,-0.3735677,-0.1685578,-0.4933645,0.4679753,0.4321972
0.7426198,-0.3798116,-0.1549333,-0.3957708,0.3670398,0.3018638
0.7967087,-0.3316516,-0.1187157,-0.3923227,0.2180062,0.3040029
0.7478452,-0.2976093,-0.07997077,-0.4194127,0.08217807,0.2763133
0.790419,-0.3071886,-0.09340614,-0.4348342,-0.03623215,0.2059079
0.819982,-0.3240126,-0.08177051,-0.4469919,0.09629772,0.05449976
0.9063223,-0.3464775,-0.07882133,-0.4579817,0.2816754,-0.08601424
0.9909031,-0.3220597,-0.1044899,-0.5591701,0.3744682,-0.08848597
0.9726603,-0.306286,-0.09890904,-0.6239899,0.3000492,-0.01939237
1.045544,-0.3525217,-0.05459802,-0.5204979,0.01669725,0.1329907
1.147944,-0.4078522,0.01148533,-0.255265,-0.1292211,0.2047598
1.210641,-0.4375323,0.03291813,0.01329791,0.127184,0.03623416
1.211733,-0.4001034,0.01931687,0.04473148,0.3455345,-0.07222185
1.195458,-0.41836,-0.02131594,0.1544532,-0.001892537,0.134584
1.337005,-0.6430148,-0.2327836,0.6425739,-0.2910134,0.4053731
1.390858,-0.843292,-0.4688036,1.187908,0.2103169,0.4040629
1.076456,-0.6870848,-0.4408076,1.362914,0.9478734,0.2550648
0.6537911,-0.368516,-0.3722911,0.8707432,1.202676,0.1288203
0.5458356,-0.214196,-0.391824,0.07643071,0.6118567,-0.02275147
0.6742387,-0.1726999,-0.2903044,-0.4049732,-0.5452676,-0.1466868
0.7779254,-0.3332908,-0.2755313,-0.5411164,-1.023307,-0.2070769
0.9256014,-0.5652461,-0.3475525,-0.189442,-0.5817253,-0.2551649
0.926542,-0.5456643,-0.2371903,0.4056973,-0.1979371,-0.4092212
0.7874006,-0.5600337,-0.195257,0.5697632,-0.224081,-0.6111957
0.809393,-0.5175362,-0.2282775,0.5195859,-0.4245019,-0.6436127
0.7565311,-0.2309386,-0.232753,0.4102937,-0.637757,-0.566189
0.7227541,-0.1658539,-0.3131233,0.2331496,-0.6980355,-0.3949879
0.8534093,-0.2085295,-0.2720481,0.3677837,-0.4751414,-0.1623838
0.8764197,-0.1841047,-0.217236,0.5342905,-0.2784143,-0.08270312
0.9181076,-0.2591238,-0.2383486,0.5176775,-0.2994591,-0.08843553
0.9171648,-0.2279911,-0.173765,0.5381427,-0.3662089,-0.03594205
0.8616486,-0.1670269,-0.1683895,0.4974542,-0.4609488,0.04365993
0.9474998,-0.1854806,-0.1941146,0.4402625,-0.3993179,0.06642894
0.9856104,-0.1853102,-0.1917215,0.4499316,-0.1620504,0.03781903
1.039388,-0.254644,-0.1679733,0.4712866,0.09137116,0.01956234
1.095929,-0.2574588,-0.0739196,0.503666,0.2587473,-0.04756546
1.074033,-0.1468387,-0.05457794,0.4165826,0.1412646,-0.1549449
1.128617,-0.05055926,-0.1093457,0.06977024,-0.0761569,-0.1984108
1.160205,-0.01952485,-0.1765228,-0.3801285,-0.2691438,-0.1720268
1.239719,-0.1935238,-0.2515497,-0.5201245,-0.3321089,-0.1757027
1.293688,-0.435623,-0.3239944,-0.4884616,-0.3315709,-0.2547905
1.077561,-0.5379918,-0.4413731,-0.7392153,-0.6820242,-0.3624968
0.8206602,-0.5566713,-0.5268144,-0.9058428,-0.8523585,-0.4546281
0.7786043,-0.5904204,-0.5212515,-0.6376061,-0.4607821,-0.4358014
1.05803,-0.6618066,-0.4295738,-0.1508319,0.1265927,-0.3450614
1.361488,-0.611276,-0.3506069,0.3294926,0.737716,-0.218956
1.293793,-0.4224288,-0.3781318,0.3926255,0.8936231,0.01473986
1.064411,-0.224702,-0.3660671,0.05402967,0.4412165,0.2409016
0.8627684,-0.1208315,-0.294545,-0.1444098,-0.05781891,0.5135321
0.7199852,-0.2080492,-0.2502353,-0.1458045,-0.08669936,0.7707494
0.6948688,-0.2896978,-0.2270277,-0.1850876,0.2583598,0.7089202
0.6586098,-0.3188993,-0.2173473,-0.2875912,0.4621809,0.5824997
0.6260689,-0.3787118,-0.1769281,-0.3060122,0.4820201,0.5165496
0.6718053,-0.3182968,-0.1346779,-0.273596,0.3720143,0.3590967
0.7046642,-0.2693355,-0.1135139,-0.3410021,0.1491126,0.3447866
0.7493213,-0.2828851,-0.09602431,-0.4108981,-0.0990186,0.3910115
0.8094834,-0.2869515,-0.1172513,-0.4889096,-0.2613063,0.3202398
0.844162,-0.3892347,-0.1371777,-0.5294755,-0.1217469,0.2434853
0.9260758,-0.4189964,-0.1179652,-0.4015057,0.05975611,0.09600791
0.9951875,-0.3537125,-0.0953556,-0.3393789,0.2825717,-0.03971541
1.005683,-0.3226394,-0.07950468,-0.4565148,0.5217238,-0.07136868
1.016188,-0.2955756,-0.06100556,-0.6012564,0.3099015,-0.06759144
1.034075,-0.3756449,-0.03236018,-0.591795,-0.006665207,0.004151123
1.135926,-0.4930859,-0.003578185,-0.2558658,-0.1519356,0.05576767
1.279143,-0.5455847,-0.05352126,0.2339072,-0.01917748,0.06525434
1.356984,-0.6178438,-0.2100256,0.4748216,0.3102975,0.1160474
1.378724,-0.6914546,-0.3458665,0.5320783,0.2326813,0.1953375
1.264224,-0.7050751,-0.4233055,0.8895126,0.4134824,0.2778418
1.054877,-0.6812468,-0.5072936,1.214695,1.043248,0.2703244
0.9327068,-0.6366595,-0.5007083,0.8016225,0.958453,0.1783475
0.789666,-0.3698016,-0.3730145,-0.03660793,0.224709,0.02766286
0.6073611,-0.07526045,-0.3198553,-0.6191929,-0.4054887,-0.1510473
0.7673677,-0.26021,-0.3386499,-0.4951308,-0.4461684,-0.1621084
1.027441,-0.5300149,-0.2836174,-0.08080829,-0.3098952,-0.1930324
0.8706876,-0.5193471,-0.1959688,0.04784071,-0.4104755,-0.4375167
0.7419214,-0.5454099,-0.1482401,0.450971,-0.1709934,-0.5713598
0.7632945,-0.4552704,-0.1963667,0.6403259,-0.3131652,-0.605059
0.6360353,-0.2017693,-0.2862605,0.2164652,-0.8802595,-0.6104483
0.7013817,-0.1744844,-0.3006352,0.2431719,-0.7661839,-0.3874206
0.8352492,-0.2435462,-0.2866847,0.3328814,-0.6344123,-0.150778
0.8518476,-0.2559826,-0.2642972,0.3287166,-0.4466368,-0.05515224
0.9603479,-0.2931858,-0.2514329,0.5880698,-0.05382956,-0.02370276
0.9478964,-0.2446942,-0.2426881,0.4980155,-0.1165369,-0.02556383
0.9148965,-0.160531,-0.1927292,0.4247263,-0.141849,0.01555319
0.9769871,-0.1466704,-0.1850921,0.4209992,-0.1496583,0.01485419
0.9633649,-0.174086,-0.179743,0.2778841,-0.1492288,0.009179717
1.000568,-0.2267302,-0.1259803,0.3608313,0.05679433,0.0252728
1.020918,-0.2276567,-0.08601595,0.3777226,0.07233879,-0.02681031
1.041385,-0.1517208,-0.08318908,0.3555508,0.01971725,-0.07944387
1.157929,-0.07681298,-0.1645893,0.1626085,-0.1568773,-0.2018872
1.225674,-0.1262351,-0.2620532,-0.2470708,-0.2427476,-0.2969218
1.264642,-0.3041319,-0.3146936,-0.3488995,-0.04079829,-0.2497103
1.20984,-0.4824021,-0.3891138,-0.4429917,-0.0104531,-0.286048
1.006903,-0.5855057,-0.475954,-0.6539123,-0.156053,-0.4383753
0.7575422,-0.5800776,-0.4958444,-0.7420499,-0.3457554,-0.5576615
0.6776807,-0.6029213,-0.40435,-0.6396231,-0.3062172,-0.5282814
0.9759886,-0.6559722,-0.3298477,-0.1952119,-0.08314053,-0.3616421
1.30274,-0.5449209,-0.3752584,0.2507908,0.1979238,-0.1453465
1.362634,-0.3767584,-0.4194403,0.276626,0.5975901,0.04989671
1.268897,-0.2646369,-0.3949853,-0.04273974,0.4694227,0.200695
1.050169,-0.1956916,-0.3236185,-0.2758551,0.1554121,0.4900048
0.8209527,-0.1530914,-0.2259655,-0.2662232,0.1510122,0.7552684
0.7147865,-0.1613203,-0.1914855,-0.3889124,-0.02132963,0.7028077
0.6806771,-0.2880734,-0.2111885,-0.5877444,0.07838273,0.5932637
0.6336538,-0.3463623,-0.1916684,-0.5525661,0.3971882,0.4967268
0.6504304,-0.3582924,-0.1794979,-0.4560607,0.4093034,0.3627633
0.7210934,-0.4142093,-0.16349,-0.4345449,0.3930281,0.3605567
0.7204938,-0.331512,-0.1131562,-0.4151204,0.1750886,0.3639527
0.7683838,-0.2853743,-0.1156766,-0.4580054,-0.1324958,0.3299564
0.800707,-0.3297899,-0.1153727,-0.5010238,-0.1458644,0.2880519
0.8012432,-0.3356981,-0.09153027,-0.403285,-0.02621829,0.1340265
0.9248474,-0.3823361,-0.09375755,-0.3336293,0.2223999,-0.01396857
0.9990067,-0.3650182,-0.08797927,-0.4024173,0.4765904,-0.08911332
1.03439,-0.3135843,-0.1067761,-0.5028973,0.5191876,-0.07497827
1.050589,-0.3118738,-0.1099274,-0.5494928,0.2510798,0.02580602
1.039394,-0.3339515,-0.05408169,-0.4163921,-0.02129469,0.07767516
1.153627,-0.4042936,0.007635278,-0.1507325,0.1981747,0.04249345
1.219503,-0.4105952,0.02714862,-0.01975257,0.4534529,-0.06563375
1.214749,-0.4294217,-0.04909984,-0.04746052,0.382249,-0.09736919
1.266038,-0.5679657,-0.1871309,0.1514077,0.1434443,0.07294946
1.292155,-0.7071463,-0.3610784,0.7019028,-0.07796909,0.2975561
1.171052,-0.7430758,-0.5237526,1.020656,0.3381984,0.3579409
0.8985046,-0.6140797,-0.5793069,0.7953769,1.020036,0.235607
0.7486913,-0.4282096,-0.4940364,0.3670709,0.9138746,0.1443177
0.7393653,-0.2539948,-0.3105733,-0.125474,0.1352179,0.03014699
0.7757076,-0.1920981,-0.2453555,-0.4223467,-0.6902108,-0.1800394
0.8997012,-0.3980481,-0.2797443,-0.1352112,-0.8302822,-0.3044446
0.9345021,-0.5936277,-0.2137717,0.2785131,-0.3140273,-0.4415937
0.8666659,-0.5631376,-0.1779123,0.4731965,-0.1988762,-0.6098779
0.7698051,-0.405567,-0.2378989,0.5500093,-0.4404976,-0.6543188
0.7110547,-0.237487,-0.2883161,0.370932,-0.5916733,-0.63444
0.779855,-0.227722,-0.2884538,0.3294316,-0.7418393,-0.5100947
0.8429243,-0.2831518,-0.2635723,0.5293177,-0.6088242,-0.2639898
0.8874018,-0.2566227,-0.2631737,0.6247937,-0.387619,-0.1367029
0.9183122,-0.2397333,-0.2283608,0.7759732,-0.3389668,-0.1445847
0.9017531,-0.1990889,-0.1829786,0.7612494,-0.3325575,-0.07822598
0.9235038,-0.1187988,-0.1829629,0.6174451,-0.4912248,-0.00554833
0.956903,-0.1220092,-0.1817515,0.5641401,-0.5478712,0.02150249
0.9908682,-0.1830855,-0.1695145,0.4309307,-0.3366166,0.06058831
1.011628,-0.216846,-0.1384114,0.4805318,-0.1077793,0.03770473
1.013518,-0.2114046,-0.1217066,0.5279461,-0.01272192,0.02529303
1.074988,-0.1441468,-0.1207216,0.4298347,-0.04375857,-0.005780349
1.146239,-0.06060973,-0.1289479,0.366024,-0.03226051,-0.1368292
1.195168,-0.06851479,-0.1636008,0.09750924,-0.070962,-0.2070542
1.253037,-0.1774675,-0.1610335,-0.05971094,-0.08729888,-0.2078651
1.259778,-0.3120614,-0.1922746,-0.04415656,-0.04138853,-0.1993467
1.183976,-0.3862988,-0.3093794,-0.2425205,-0.1974105,-0.2188755
1.064294,-0.4229127,-0.3787318,-0.5224739,-0.3653913,-0.335056
0.8506425,-0.5121316,-0.3636472,-0.7260828,-0.4366825,-0.4812238
0.6066436,-0.6139645,-0.3486705,-0.5713488,-0.3957102,-0.5249381
0.7219644,-0.6230899,-0.3776929,-0.1339879,-0.2060999,-0.4023856
1.211158,-0.5177507,-0.4018044,0.09791289,0.1192292,-0.2090286
1.519359,-0.3619376,-0.4335466,0.1302939,0.6699964,-0.004457012
1.398531,-0.2388224,-0.453764,-0.02779129,0.792828,0.2193764
1.086488,-0.2096571,-0.3564292,-0.2830152,0.3258803,0.5116723
0.8167568,-0.2056348,-0.2271462,-0.3531961,0.06321237,0.8531042
0.6457282,-0.1823189,-0.1714774,-0.4444521,0.04541123,0.8960456
0.6476234,-0.2713057,-0.2038421,-0.6087562,0.1683777,0.7204643
0.6964273,-0.3638832,-0.2500703,-0.6166402,0.4279997,0.636473
0.6314232,-0.3622003,-0.2070266,-0.5479532,0.5562197,0.4544226
0.7024299,-0.3945231,-0.1731411,-0.4582611,0.4394253,0.3183317
0.7673315,-0.3588567,-0.1233752,-0.3785946,0.1178182,0.3659096
0.7181639,-0.3039371,-0.05051769,-0.3594074,-0.1046467,0.3277737
0.8235245,-0.3584507,-0.08936229,-0.3442927,-0.1641626,0.2431041
0.8422113,-0.397927,-0.0991777,-0.2733611,-0.1131512,0.1502099
0.8792591,-0.4125565,-0.07809867,-0.1423055,0.1286591,0.0460114
1.023924,-0.3731694,-0.1168182,-0.1678022,0.3668143,-0.009552276
0.9969581,-0.3100418,-0.1183089,-0.4073308,0.4605458,-0.04091029
1.016319,-0.3504412,-0.1176749,-0.5430548,0.1654337,0.02064243
1.055235,-0.4359661,-0.07917188,-0.2858879,-0.166109,0.07090255
1.118383,-0.4971629,0.01277758,0.2363733,0.09165486,0.008845329
1.240817,-0.4756193,0.01738316,0.4634637,0.2377306,-0.0218646
1.216075,-0.4350879,-0.07943885,0.3465203,0.02045956,0.01201465
1.259559,-0.514045,-0.2692631,0.4323107,0.04068402,0.08257426
1.287259,-0.6178768,-0.4721269,0.8504709,0.2749648,0.1628337
1.108323,-0.6416324,-0.5343198,1.128393,0.6743837,0.1694418
0.8696048,-0.5368482,-0.4923495,0.7741562,0.9239008,0.1232826
0.6662366,-0.3214786,-0.4460961,0.03706387,0.5641236,0.1190446
0.650535,-0.2012199,-0.3937399,-0.5172506,-0.08096346,0.1300284
0.7887134,-0.2397456,-0.3575344,-0.6797535,-0.4498235,0.09210543
0.9486902,-0.3940735,-0.3296688,-0.373164,-0.3354867,-0.03259821
0.9903624,-0.6032012,-0.2270997,0.09166914,-0.07412745,-0.3088519
0.8664369,-0.610623,-0.1576392,0.3569517,-0.07472982,-0.5611119
0.7817461,-0.4218766,-0.204126,0.3819045,-0.2438343,-0.5839276
0.7622876,-0.2714084,-0.2321815,0.1332494,-0.5034481,-0.5229143
0.7761995,-0.1852665,-0.2422337,-0.01777208,-0.675622,-0.435307
0.8119604,-0.1894904,-0.2480577,0.1052787,-0.5170859,-0.2328285
0.8447625,-0.2429709,-0.2220163,0.1874971,-0.3689356,-0.06069898
0.9179102,-0.2561797,-0.224693,0.266137,-0.2871184,-0.02682858
0.9347516,-0.2498768,-0.2080597,0.3234595,-0.1841181,-0.001948241
0.9222254,-0.2009305,-0.1747531,0.3092533,-0.2996402,0.06829799
0.9703221,-0.1650012,-0.1911456,0.3129422,-0.3243482,0.1309571
1.011487,-0.1874941,-0.1938418,0.2728052,-0.1500325,0.1605986
1.033496,-0.2075967,-0.1630369,0.2822439,0.02013383,0.13619
1.021168,-0.2142485,-0.1086673,0.3055884,0.1859408,0.07812975
1.016823,-0.1641732,-0.06725611,0.2303908,0.1044196,-0.03171611
1.077322,-0.06789669,-0.1531758,0.0321092,-0.1504311,-0.1616693
1.182242,-0.04826636,-0.2840912,-0.3185401,-0.2793543,-0.1698099
1.317928,-0.196842,-0.3075255,-0.4512656,-0.08167717,-0.08266455
1.327506,-0.4348196,-0.3299467,-0.3651803,0.2517614,-0.03570426
1.129148,-0.5547062,-0.4109397,-0.5987226,0.1315058,-0.1379483
0.8879574,-0.5611564,-0.4392687,-0.9888191,-0.1754295,-0.3522164
0.7314544,-0.5938601,-0.4050135,-1.027748,-0.385381,-0.4802749
0.7040333,-0.6545177,-0.3342452,-0.6903665,-0.5676024,-0.4400782
0.8896859,-0.6762925,-0.3012529,-0.1836767,-0.2920465,-0.1966521
1.298067,-0.602718,-0.400497,0.2455733,0.3771183,0.1009754
1.515,-0.4522807,-0.4911032,0.3336848,0.918721,0.1692042
1.205261,-0.283762,-0.4104531,0.05030744,0.7290042,0.2210909
0.827839,-0.1793708,-0.2396122,-0.2124599,0.122681,0.5032519
0.7344814,-0.2175059,-0.1303703,-0.1881445,0.1396626,0.6965351
0.6642136,-0.2913576,-0.1360321,-0.2269311,0.1587326,0.613889
0.601294,-0.3094699,-0.1868517,-0.432831,0.05967058,0.4681909
0.6503864,-0.3354161,-0.1901297,-0.4763019,0.3666552,0.3371227
0.670394,-0.3400327,-0.1839851,-0.4451581,0.3195288,0.2500301
0.7321033,-0.3223729,-0.17374,-0.4014288,0.2310872,0.3005016
0.8485552,-0.3331265,-0.1161589,-0.2919171,0.2218949,0.3170757
0.8226346,-0.3331205,-0.1047081,-0.3279407,-0.04269309,0.1892022
0.8208436,-0.3520797,-0.08609251,-0.362923,0.01020378,0.04760886
0.9335912,-0.3755664,-0.03107916,-0.2696181,0.1053686,-0.1143717
0.9491002,-0.3527138,-0.06595524,-0.2788963,0.2697546,-0.2414659
0.9502892,-0.3283165,-0.07254598,-0.3872278,0.4456577,-0.2337737
1.00316,-0.3017348,-0.05371753,-0.5094412,0.09154832,-0.1282285
0.9999899,-0.322198,-0.09037248,-0.4567754,-0.2797214,0.07489551
1.05446,-0.424835,-0.08134008,-0.06570769,-0.3421449,0.1805397
1.213843,-0.5185185,-0.07473096,0.3219847,0.01417758,0.04891794
1.311181,-0.549873,-0.1138328,0.3660477,0.3796293,-0.02008479
1.328985,-0.5892282,-0.2805867,0.3771476,0.2520683,0.1493677
1.357642,-0.7316982,-0.5229364,0.8089998,0.4294136,0.36331
1.297152,-0.7889062,-0.5210259,1.159099,1.02654,0.4069003
0.992822,-0.5886868,-0.4015181,0.7624055,1.21451,0.2449001
0.6169813,-0.3339726,-0.3609309,0.08124565,0.7668244,0.0222915
0.5378694,-0.1826478,-0.273391,-0.3553975,-0.02209539,-0.07745904
0.7365446,-0.1778473,-0.2662439,-0.4911607,-0.676322,-0.07854678
0.899069,-0.3431365,-0.3358762,-0.2289122,-0.7123038,-0.1461038
0.9706394,-0.567491,-0.2843023,0.206747,-0.2126683,-0.2730542
0.9307305,-0.6434199,-0.2327563,0.4682111,0.02724478,-0.3941675
0.7808827,-0.4672676,-0.2050103,0.4718238,-0.1877435,-0.4854789
0.7527976,-0.2691883,-0.2028152,0.2026355,-0.449159,-0.5160115
0.7832438,-0.2212192,-0.2717042,-0.03570877,-0.6073485,-0.4836826
0.7873712,-0.2236479,-0.2351467,0.05026881,-0.5620225,-0.3586249
0.8636169,-0.2469515,-0.2074837,0.2162963,-0.4293866,-0.1736025
0.8878628,-0.262738,-0.2475962,0.318571,-0.3503954,-0.02979418
0.904239,-0.240668,-0.2075525,0.3804355,-0.3157221,0.01875125
0.9537129,-0.2121845,-0.2109372,0.3723636,-0.3428422,0.05533573
0.963933,-0.1928348,-0.2017681,0.4031726,-0.3236888,0.13758
1.013251,-0.2251084,-0.1516194,0.404045,-0.2095207,0.1232572
1.011991,-0.2706754,-0.1302202,0.3772519,-0.02401033,0.04769633
0.9750391,-0.2551993,-0.0726301,0.4611358,0.09732612,-0.007494283
0.9880933,-0.1815005,-0.109124,0.4807662,-0.01221288,-0.1133015
1.009295,-0.08409525,-0.1852193,0.296375,-0.1658748,-0.180949
1.117533,-0.08507855,-0.2128012,-0.01150359,-0.1787122,-0.1969446
1.266203,-0.2653829,-0.2823324,-0.2073035,-0.09268956,-0.2214807
1.30238,-0.4648384,-0.3152371,-0.2258192,-0.04162214,-0.2600014
1.113122,-0.516346,-0.373867,-0.4359453,-0.3143605,-0.392585
0.802754,-0.5316179,-0.4771713,-0.789027,-0.7905719,-0.5019346
0.7214957,-0.6218713,-0.4679756,-0.7502953,-0.8869958,-0.4392128
0.9123398,-0.6982672,-0.3867755,-0.2534003,-0.4522662,-0.3419372
1.199248,-0.7199649,-0.3443795,0.3482162,0.3071349,-0.2796384
1.370963,-0.6082112,-0.3827764,0.6128513,0.900103,-0.1771874
1.187309,-0.3370356,-0.402737,0.3865611,0.7226433,-0.1217916
0.8821947,-0.1729656,-0.3015178,0.2177149,0.1477917,0.03147983
0.7918129,-0.2068956,-0.185475,0.3008488,-0.1600819,0.490808
0.7472421,-0.2770467,-0.1664393,0.2326296,-0.1754862,0.687823
0.6824912,-0.3164198,-0.1956996,0.1125632,0.02715701,0.4364613
0.6974898,-0.3237195,-0.1875798,-0.01139096,0.2007437,0.3004633
0.6700922,-0.3386145,-0.175527,-0.1300906,0.3106127,0.2267114
0.6658169,-0.3305984,-0.176727,-0.03566249,0.4492365,0.1753478
0.7403398,-0.2538852,-0.1330804,-0.06238652,0.2785199,0.2695265
0.7563041,-0.1975044,-0.08450026,-0.2044198,-0.01838044,0.2677888
0.7539137,-0.2177319,-0.07963288,-0.2784089,-0.1876638,0.2322135
0.7647735,-0.2763921,-0.08379732,-0.4155587,-0.2750168,0.2046422
0.8427646,-0.3335446,-0.07271055,-0.4211112,-0.03984236,0.09381171
0.9888001,-0.3799992,-0.07680056,-0.47242,0.2889281,0.0002626457
1.060975,-0.3731467,-0.1006694,-0.6456772,0.4231792,-0.05305637
1.094532,-0.3481957,-0.0977931,-0.6191824,0.3013949,-3.57579e-05
1.095627,-0.4007114,-0.07433544,-0.4399818,-0.006238914,0.1356877
1.088243,-0.4901742,-0.03431673,-0.04120738,-0.0562756,0.2127068
1.170433,-0.6009565,-0.01573198,0.3595154,0.02842933,0.1984635
1.252059,-0.6820423,-0.1524157,0.444901,0.1417898,0.1717717
1.278154,-0.7269685,-0.4222072,0.6742211,0.4089749,0.2811572
1.226918,-0.7927329,-0.5966566,1.190517,0.6429478,0.3693138
1.031416,-0.6693599,-0.5473756,1.285817,0.9549135,0.2905823
0.7686399,-0.4008907,-0.4237365,0.7063478,1.021959,0.2068399
0.6585812,-0.2305905,-0.3497297,-0.0301028,0.4709614,0.05080607
0.7463975,-0.1602688,-0.2909204,-0.5664672,-0.1798322,-0.1842979
0.7940928,-0.2571328,-0.2936069,-0.6250773,-0.4077357,-0.250951
0.8160577,-0.4147012,-0.2852577,-0.2436065,-0.224401,-0.2014266
0.8810945,-0.4873446,-0.213512,0.05410536,-0.1457696,-0.2477425
0.806564,-0.4658684,-0.226552,0.17764,-0.2362645,-0.3508784
0.7134097,-0.3330291,-0.2367275,0.1536021,-0.266746,-0.4180239
0.707824,-0.2890207,-0.2063482,0.07269019,-0.5135582,-0.4330872
0.7201639,-0.3012752,-0.2346593,0.1276826,-0.6750568,-0.3164329
0.8306198,-0.2715575,-0.2371726,0.2172245,-0.4488561,-0.1590054
0.9251664,-0.2939917,-0.2429551,0.3902094,-0.2589638,-0.1035399
0.9329552,-0.2606079,-0.2572013,0.454955,-0.200102,-0.07790208
0.941674,-0.2190506,-0.2214718,0.3543477,-0.2506197,-0.04849761
0.9417069,-0.1950072,-0.2070034,0.3952188,-0.3588833,0.005957525
0.9706546,-0.1531137,-0.1974563,0.368535,-0.320548,0.04968825
1.003527,-0.201546,-0.175074,0.3179696,-0.131019,0.01882276
1.007513,-0.2132632,-0.1228573,0.398168,0.1400491,-0.02682408
0.9902373,-0.1639052,-0.03976931,0.3727314,0.1376021,-0.1367592
0.9944194,-0.142424,-0.06008921,0.2192985,-0.2688898,-0.2867477
1.132861,-0.1712771,-0.2001007,-0.02675296,-0.4984941,-0.2886151
1.297763,-0.3258169,-0.3470667,-0.1568296,-0.2207273,-0.1345298
1.278417,-0.506348,-0.4309944,-0.1361778,0.1335506,-0.04316371
1.034465,-0.5855296,-0.4907809,-0.3280673,0.06508169,-0.1962074
0.7499487,-0.5871852,-0.5527888,-0.6677727,-0.2015124,-0.4252872
0.724754,-0.6138425,-0.5237666,-0.7714833,-0.3829084,-0.4729791
1.045541,-0.6243828,-0.4445464,-0.4065185,-0.4411805,-0.3756926
1.427915,-0.5673775,-0.4058236,0.1103696,-0.01410335,-0.1842258
1.49289,-0.5442464,-0.4034814,0.215604,0.6445101,0.06856036
1.303727,-0.4113259,-0.4219845,0.01987267,0.871903,0.1832672
1.084855,-0.1904363,-0.3572408,-0.1606976,0.6651856,0.3085485
0.8144743,-0.1594505,-0.2341545,-0.3197192,0.3589307,0.6565727
0.6214159,-0.247097,-0.1703104,-0.4719845,0.1811343,0.7672168
0.5953538,-0.3078227,-0.1645712,-0.610049,0.03700879,0.5518911
0.5846901,-0.3440919,-0.2078245,-0.6577837,0.08253867,0.4591886
0.6123768,-0.3924542,-0.2138213,-0.5455483,0.2871225,0.3828728
0.7019375,-0.414397,-0.1907188,-0.3932804,0.2642605,0.2635992
0.7399236,-0.3796968,-0.1858293,-0.3371584,0.2316217,0.2572745
0.7458782,-0.3527053,-0.121221,-0.3282076,0.09972819,0.2362672
0.7445703,-0.3254762,-0.06833642,-0.3184958,-0.1447972,0.1843532
0.7406218,-0.337628,-0.05452236,-0.2982352,-0.1562547,0.1037412
0.7952735,-0.3607009,-0.043536,-0.2721286,-0.07187727,-0.004823308
0.9031945,-0.3163938,-0.07254981,-0.3957046,0.2117413,-0.04064968
1.029904,-0.2898127,-0.115389,-0.5883993,0.4111993,-0.02719622
1.080887,-0.2936189,-0.1460965,-0.5766199,0.1880834,0.02966398
1.080971,-0.340575,-0.09289882,-0.3621857,0.07862045,0.05892151
1.164479,-0.4615456,0.01137005,-0.0443195,0.3035422,-0.03147484
1.21061,-0.5901413,0.02788808,0.1802428,0.4368884,-0.09882358
1.213751,-0.7101524,-0.1032495,0.3063098,0.07307886,0.03026015
1.293308,-0.8361619,-0.4017389,0.7691671,-0.1555436,0.2863641
1.268448,-0.8848139,-0.646248,1.290092,0.4776377,0.3831383
1.023159,-0.688003,-0.6233313,1.117209,1.207285,0.2188207
0.7212762,-0.3752918,-0.4685404,0.5674468,1.13744,-0.007930259
0.6271712,-0.2386555,-0.337913,0.04667757,0.3216748,-0.1887395
0.7500397,-0.2311998,-0.2638266,-0.3876717,-0.6081645,-0.4032669
0.8214058,-0.3394393,-0.246613,-0.2370443,-0.913844,-0.5435217
0.8574982,-0.5458348,-0.2291147,0.2585183,-0.5156185,-0.5092367
0.8768252,-0.560828,-0.2017705,0.6135879,-0.2332982,-0.5609384
0.7747629,-0.3882542,-0.2361086,0.7593312,-0.3588651,-0.6423557
0.7406185,-0.2326576,-0.2660953,0.4434465,-0.4647391,-0.5545432
0.7798278,-0.1563169,-0.248203,0.2220508,-0.6417032,-0.4125783
0.8221688,-0.1959976,-0.2563784,0.3013487,-0.605728,-0.1872184
0.9279277,-0.2407546,-0.2457558,0.2784328,-0.2939272,-0.06790084
0.9325053,-0.2449771,-0.2189192,0.3942128,-0.2467962,-0.1331352
0.8869856,-0.2558568,-0.1930108,0.3920312,-0.2136864,-0.0660733
0.90685,-0.1943244,-0.1569185,0.3257451,-0.2854459,0.02173651
0.9150008,-0.1408687,-0.17285,0.3985106,-0.4202347,0.05495629
0.9598223,-0.170168,-0.179,0.2826857,-0.2480862,0.09340403
0.9901367,-0.2229249,-0.1560047,0.3114247,-0.1012611,0.0426769
0.9839081,-0.2844472,-0.143164,0.374355,0.1248229,-0.002458618
1.01837,-0.2527801,-0.1160326,0.2975176,0.2486242,-0.09833749
1.083903,-0.1282249,-0.1295982,0.2636957,0.04066641,-0.2367165
1.175004,-0.05359759,-0.1540397,0.03846874,-0.02324125,-0.2250155
1.230296,-0.120762,-0.1516818,-0.1002892,-0.05268389,-0.1782808
1.245538,-0.3029413,-0.2277842,-0.1050116,-0.156445,-0.1796175
1.178566,-0.4475467,-0.4004826,-0.2898206,-0.1834433,-0.2307801
0.940318,-0.5545419,-0.5459427,-0.622832,-0.05902883,-0.4150719
0.7545024,-0.6180071,-0.5457461,-0.9184892,0.03526093,-0.6086924
0.881344,-0.5586334,-0.4764842,-0.8047675,-0.3739374,-0.5747266
1.25421,-0.5038664,-0.4903279,-0.6104674,-0.6768223,-0.2683183
1.604099,-0.4763264,-0.5665575,-0.4890483,0.03988722,0.1318337
1.636889,-0.4111999,-0.6048099,-0.1486272,1.233778,0.37408
1.284182,-0.3582717,-0.4473092,-0.1753882,1.631444,0.4051454
0.8036618,-0.2830881,-0.107079,-0.3766787,0.871943,0.5263239
0.51156,-0.2196782,0.04637144,-0.2586176,-0.004536291,0.7408752
0.5646094,-0.2548198,-0.08581451,-0.3974248,-0.1397622,0.6971323
0.6637817,-0.2766073,-0.2118893,-0.5704036,0.08656183,0.5694137
0.5547718,-0.261888,-0.2348671,-0.5024908,0.2342869,0.4691151
0.643646,-0.3195839,-0.2139022,-0.5172247,0.3397195,0.2635224
0.8146379,-0.3543761,-0.1597748,-0.4206749,0.2278771,0.2104267
0.7726993,-0.312027,-0.1176062,-0.3556179,-0.03443961,0.2682938
0.8312327,-0.2881141,-0.1106765,-0.397412,-0.05965993,0.2396933
0.8163478,-0.2908793,-0.09450359,-0.3409895,-0.04234485,0.17799
0.7820153,-0.3195634,-0.07364855,-0.3509396,-0.03922451,0.05698666
0.9383337,-0.3571489,-0.06657199,-0.3514185,0.1876994,-0.03697654
0.9719358,-0.3732421,-0.06156979,-0.4344806,0.3273841,-0.06541656
0.9596429,-0.3471246,-0.07362249,-0.5889616,0.1366117,-0.04430552
0.9565866,-0.3171185,-0.07994505,-0.4626702,-0.1241647,0.04537637
1.053287,-0.3969276,-0.05734946,-0.1586566,-0.1238844,0.08435657
1.248862,-0.5079182,-0.02737102,0.1916586,0.05368772,0.06060516
1.24959,-0.554528,-0.03925911,0.380909,0.1235139,0.0632877
1.287812,-0.6221529,-0.1807279,0.5047185,0.1066929,0.2066204
1.365086,-0.7567466,-0.4268281,1.04995,0.1729543,0.4173871
1.266309,-0.8107337,-0.5691695,1.437772,0.5755809,0.4209303
0.9988,-0.588288,-0.5001158,1.055089,0.9842704,0.2542717
0.6322968,-0.2937789,-0.3987937,0.4145285,0.6778836,0.08193165
0.5542143,-0.2064485,-0.3343273,-0.1268921,-0.04981901,-0.06834868
0.7314244,-0.2445584,-0.2595048,-0.3657631,-0.6648828,-0.1892461
0.8523679,-0.3776329,-0.2771849,-0.07997992,-0.8807269,-0.2781038
0.9336802,-0.5582591,-0.2799239,0.3353632,-0.4013788,-0.3536806
0.9156878,-0.5628796,-0.2125552,0.6639171,-0.01998398,-0.4780474
0.8134878,-0.3961836,-0.2214864,0.7829994,-0.3273008,-0.5766722
0.7633973,-0.2527753,-0.2235934,0.485966,-0.6100173,-0.5681693
0.7558214,-0.1892964,-0.2314106,0.3249597,-0.7545563,-0.4647246
0.7968786,-0.1917964,-0.2625947,0.3688571,-0.8336137,-0.2512259
0.8775113,-0.227944,-0.239684,0.3587176,-0.5680251,-0.09166094
0.8910801,-0.2461265,-0.2479008,0.516837,-0.3784657,-0.05516551
0.9020228,-0.2715101,-0.2375361,0.5228466,-0.3344245,-0.02919332
0.9356246,-0.2519687,-0.2024529,0.4655589,-0.2364062,-0.02265528
0.9112843,-0.1751165,-0.1964959,0.5214675,-0.2774419,0.0136585
0.9300267,-0.1541283,-0.1615751,0.3982953,-0.2626039,0.04972719
0.9618559,-0.1785649,-0.1492954,0.402837,-0.1447671,0.02871842
0.9640136,-0.2271059,-0.1218276,0.4351387,-0.036492,0.03289285
0.9922269,-0.2459053,-0.0635248,0.3669416,0.04661619,0.00388778
1.023001,-0.1919204,-0.07147239,0.3679287,-0.04875596,-0.07122956
1.120507,-0.1439979,-0.1168077,0.1768165,-0.1267357,-0.1406386
1.232315,-0.1315668,-0.1719918,-0.04520089,-0.1106453,-0.2070397
1.284681,-0.219017,-0.2183683,-0.1603857,-0.1419754,-0.2306338
1.286717,-0.382327,-0.2674159,-0.2992256,-0.1865863,-0.3032244
1.143151,-0.4738344,-0.3639397,-0.4684734,-0.3420613,-0.4434999
0.9105159,-0.4677184,-0.4778517,-0.6425431,-0.4836286,-0.5092648
0.7731363,-0.447156,-0.515822,-0.6083806,-0.3222082,-0.4994433
0.8256535,-0.4952709,-0.4174668,-0.3782094,0.01439438,-0.3800121
1.03161,-0.523488,-0.3458795,-0.116688,0.3152899,-0.08054302
1.238984,-0.4744391,-0.384411,-0.04520141,0.5430287,0.1770443
1.245767,-0.40002,-0.3767258,-0.1970636,0.5236057,0.2245516
1.039697,-0.2861414,-0.3214896,-0.2582858,0.320287,0.3509033
0.8732847,-0.2361685,-0.2725616,-0.305268,0.2290892,0.6198104
0.78076,-0.2805394,-0.232901,-0.3911553,0.1597316,0.6565041
0.7045488,-0.3132984,-0.2252253,-0.4073632,0.2666642,0.5342406
0.6822784,-0.3576141,-0.2022621,-0.4201214,0.5945301,0.5007608
0.6347237,-0.3901391,-0.1669119,-0.3754003,0.6553984,0.4300198
0.632056,-0.3417435,-0.1271363,-0.3458227,0.512556,0.3521188
0.6917625,-0.2751469,-0.07866713,-0.365203,0.2180635,0.3378741
0.7364173,-0.2654374,-0.09079515,-0.3759326,-0.2336934,0.2800038
0.8099475,-0.3032565,-0.1176661,-0.4156379,-0.3808507,0.2066629
0.855612,-0.365722,-0.1069292,-0.3763523,-0.1761638,0.1408009
0.9013721,-0.3972897,-0.09827604,-0.2912814,0.09305187,0.06380862
0.952073,-0.3477206,-0.07682247,-0.2722956,0.2576452,-0.003630028
0.9449961,-0.2909116,-0.07016221,-0.3349224,0.3168298,-0.03683819
0.9649185,-0.2931612,-0.0811017,-0.4907314,0.1459469,0.001646995
1.050507,-0.3713466,-0.05425058,-0.5282079,-0.263749,0.05822254
1.211873,-0.5041953,-0.03806056,-0.284526,-0.3671857,0.07506265
1.313452,-0.5727881,-0.05846116,0.09424288,-0.05200637,0.04555859
1.284487,-0.5730374,-0.1285268,0.3179855,0.186671,0.01727044
1.323885,-0.6391821,-0.3033244,0.3576919,-0.02324344,0.09159307
1.345074,-0.7230486,-0.4688215,0.63319,-0.17648,0.2202741
1.128198,-0.6660337,-0.4682581,1.146629,0.3838417,0.2578329
0.7969834,-0.498284,-0.4009708,1.239346,0.8912871,0.1469491
0.6089691,-0.284213,-0.4046004,0.5971214,0.7662463,0.04353614
0.6091889,-0.1368147,-0.408539,-0.2791974,0.3163706,0.125837
0.7496267,-0.2291325,-0.3905759,-0.7342572,-0.3376377,0.1867686
0.9801818,-0.3704827,-0.3803182,-0.7229284,-0.6659213,0.05453512
1.020817,-0.4113721,-0.3242461,-0.3770314,-0.3125112,-0.1429547
0.8502024,-0.4567489,-0.2442417,0.194865,0.03357308,-0.3884344
0.7402733,-0.4485053,-0.1720858,0.47445,-0.1140563,-0.5616404
0.6893479,-0.4266258,-0.1746394,0.3559563,-0.3260939,-0.5385162
0.7294424,-0.3437421,-0.2509969,0.2498246,-0.4909636,-0.4906475
0.8373465,-0.1608736,-0.2686498,0.165671,-0.6075816,-0.3961093
0.8753879,-0.1488294,-0.2894465,0.134304,-0.3269163,-0.201932
0.896903,-0.2077266,-0.280137,0.2130792,-0.1270102,-0.08245177
0.9013323,-0.1918267,-0.1891859,0.1991184,-0.1982963,-0.02940168
0.9110489,-0.2016703,-0.1820939,0.1836034,-0.2158049,0.04143853
0.9123075,-0.1794616,-0.1835764,0.2088977,-0.3405923,0.1107285
0.8869681,-0.1673336,-0.1622749,0.1728672,-0.3597679,0.149865
0.9544422,-0.2027856,-0.1894566,0.1958261,-0.163912,0.1598494
1.013293,-0.2521189,-0.177605,0.285085,0.09413158,0.1487103
1.01738,-0.2904706,-0.1362327,0.3994509,0.2407919,0.06208246
1.035356,-0.2415333,-0.09805231,0.3880414,0.09447644,-0.08981796
1.060356,-0.1416786,-0.1440301,0.0819157,-0.02251969,-0.21818
1.152426,-0.06572319,-0.2289825,-0.2013848,-0.09200782,-0.2411711
1.235176,-0.1380853,-0.2104744,-0.2025096,-0.1343477,-0.1352894
1.248021,-0.3235175,-0.2437175,-0.2056459,-0.08109997,-0.06040883
1.178941,-0.420036,-0.3738668,-0.4825294,-0.2003162,-0.1619888
0.9816238,-0.4832458,-0.5033063,-0.8065047,-0.2609382,-0.3373265
0.7613008,-0.5622648,-0.547411,-0.8541603,-0.2114453,-0.451084
0.6866776,-0.6331254,-0.4092165,-0.5942193,-0.2962932,-0.4717358
0.9218759,-0.6838533,-0.3171261,-0.1267703,-0.2499281,-0.307079
1.289068,-0.6093758,-0.3952229,0.2926753,0.1687497,-0.04434285
1.405408,-0.4762629,-0.4303561,0.3863198,0.6779665,0.05669183
1.230688,-0.3427467,-0.3746581,0.1173245,0.6462963,0.1837495
0.9360423,-0.2167235,-0.2670075,-0.1190381,0.3029688,0.5057463
0.7454913,-0.2298527,-0.1384624,-0.07032669,0.2337856,0.6545358
0.7022055,-0.2691185,-0.1281396,-0.196935,0.173362,0.5612414
0.679722,-0.2338331,-0.2221448,-0.4834684,0.2104049,0.5235967
0.6723056,-0.2639483,-0.2467338,-0.5291296,0.3780861,0.4934563
0.7001246,-0.3123513,-0.230116,-0.5187835,0.3186602,0.3789791
0.7511299,-0.3273889,-0.2069957,-0.4983622,0.2804197,0.2893944
0.7913748,-0.3547929,-0.1243776,-0.4280771,0.2153881,0.1991823
0.8128773,-0.3512659,-0.07602808,-0.4153739,0.06908027,0.1218577
0.8007724,-0.3630374,-0.05088506,-0.3852019,0.02919327,0.08807203
0.7912995,-0.3911996,-0.03395369,-0.3164879,-0.03844284,0.02402508
0.8782614,-0.3559458,-0.06815683,-0.2586348,0.05808694,-0.02324475
0.9668647,-0.3201264,-0.06942953,-0.3376386,0.1902254,-0.05568036
0.9840977,-0.3199179,-0.08539357,-0.4995045,0.08027375,-0.0372356
0.988391,-0.3531148,-0.1040656,-0.4562029,-0.08431089,0.07508776
1.072847,-0.4329826,-0.05245343,-0.2202939,-0.1957303,0.1091718
1.218795,-0.4760815,-0.008831776,0.008617969,0.09461507,0.01712058
1.229878,-0.443798,0.006981227,0.02847627,0.470476,-0.08017284
1.20538,-0.4422947,-0.08874054,-0.04662219,0.2496506,-0.007648271
1.287817,-0.5586777,-0.3095679,0.2097931,0.04593108,0.2015753
1.296504,-0.6692617,-0.5003945,0.7423622,0.2360178,0.3362006
1.091389,-0.6104475,-0.5757966,1.096568,0.526034,0.3729652
0.7373858,-0.4388736,-0.5134213,0.8027325,0.8627918,0.2849193
0.5812852,-0.2736518,-0.4355441,0.03443534,0.6935329,0.1567438
0.7446174,-0.2412196,-0.3716815,-0.4157872,0.01929626,0.01628916
0.8902263,-0.4032366,-0.2587337,-0.4094683,-0.4028373,-0.1848416
0.9418027,-0.558038,-0.2303052,-0.0253475,-0.5176201,-0.2939853
0.9553536,-0.560405,-0.2393325,0.5539167,-0.2380727,-0.4704605
0.8701953,-0.4554974,-0.2009344,0.7659062,0.0533334,-0.6740414
0.8014099,-0.2686117,-0.2349784,0.6163229,-0.2407501,-0.6690272
0.7804462,-0.1197253,-0.2660528,0.3425584,-0.5016093,-0.6464907
0.7629452,-0.1205449,-0.2365822,0.1590416,-0.6288003,-0.5264012
0.8156151,-0.2035406,-0.2174511,0.1628276,-0.6998304,-0.2686671
0.8734353,-0.2646268,-0.1867242,0.2790921,-0.4583462,-0.09441469
0.8876222,-0.2560613,-0.1865435,0.4693283,-0.3545751,0.01526519
0.9003669,-0.2231832,-0.1996148,0.4463371,-0.311408,0.07426812
0.8996529,-0.1978312,-0.1746132,0.3595537,-0.2853322,0.1124473
0.9037788,-0.1643718,-0.1834851,0.3162691,-0.4119262,0.1581602
0.9212197,-0.1603494,-0.1925174,0.181049,-0.3541732,0.1907764
0.9691873,-0.211218,-0.166249,0.2231346,-0.2125608,0.1979948
1.027985,-0.2732247,-0.1384936,0.2937214,0.006060168,0.1658887
1.044659,-0.2647174,-0.09600592,0.3341846,0.1034422,0.1096208
1.079978,-0.1933782,-0.09022409,0.3584751,-0.05130539,-0.01612297
1.145493,-0.1413849,-0.1216776,0.1436272,-0.03593301,-0.1164609
1.202818,-0.1389366,-0.1344447,-0.03857068,-0.05687391,-0.1323849
1.244383,-0.2044689,-0.1566756,-0.07638377,-0.1177858,-0.1555877
1.228319,-0.3110781,-0.2097817,-0.1174967,-0.06685869,-0.1480344
1.130001,-0.4070384,-0.3614569,-0.2695717,-0.1558149,-0.1742262
0.9481908,-0.4783336,-0.5651085,-0.548171,-0.201092,-0.3307931
0.7601219,-0.5604768,-0.5688949,-0.7669381,-0.171782,-0.545736
0.7162346,-0.6931009,-0.4101496,-0.7015844,-0.1848903,-0.6274798
0.907811,-0.7291382,-0.3391271,-0.2277912,-0.1346513,-0.4676297
1.201426,-0.6049096,-0.3674596,0.2553595,0.1056889,-0.2449077
1.274737,-0.4727334,-0.3849841,0.3951365,0.5637264,-0.05476447
1.117354,-0.2520255,-0.348657,0.1953856,0.7213189,0.07052512
0.998949,0.0307813,-0.3169426,-0.2215479,0.3949374,0.2290763
0.9543538,0.005524852,-0.3036955,-0.5650519,0.2086733,0.5817647
0.8698774,-0.2168641,-0.2400369,-0.7441427,0.3593386,0.7172283
0.7073719,-0.3100862,-0.1517461,-0.6811089,0.4335942,0.5849863
0.6092107,-0.3969807,-0.1003806,-0.6419226,0.3438809,0.5631616
0.6937029,-0.4011296,-0.1325227,-0.7363617,0.3157989,0.4475344
0.7722954,-0.3023296,-0.1800765,-0.615144,0.2152743,0.3056771
0.7934519,-0.3555293,-0.1607186,-0.5628688,0.07652419,0.2980244
0.8465063,-0.3636682,-0.1518664,-0.5161258,0.163261,0.1937708
0.8551594,-0.3399312,-0.1253453,-0.4137901,0.2405162,0.1092033
0.8453297,-0.39311,-0.08675718,-0.4922293,0.2240361,0.08998649
0.8283874,-0.3411428,-0.07668948,-0.3892806,0.2384858,0.02845063
0.8089081,-0.3429919,-0.02904395,-0.3483469,0.1882932,-0.0007275341
0.8617905,-0.324635,-0.04137198,-0.4770412,0.1589369,-0.01692223
0.9093348,-0.257439,-0.09000709,-0.4810751,0.133803,-0.0147384
0.9439531,-0.3479149,-0.09231639,-0.4620915,-0.05925738,0.01470669
1.007134,-0.4121165,-0.1119203,-0.2403807,-0.2001723,0.02317329
1.10505,-0.4532353,-0.07221035,0.07264214,0.0408146,0.007420031
1.203016,-0.4610928,-0.005943909,0.2281032,0.3145187,-0.01819409
1.204509,-0.4247993,-0.01985467,0.2061195,0.1189295,0.009272136
1.24973,-0.5117945,-0.128243,0.2369548,-0.02872145,0.1199252
1.32424,-0.5969544,-0.318756,0.6517003,0.2513258,0.2421513
1.22267,-0.6490518,-0.4213064,1.010233,0.5731709,0.239023
1.014248,-0.5892096,-0.4204338,0.9909127,0.8145477,0.1288322
0.7526128,-0.3575658,-0.4251275,0.5172192,0.5986817,0.09964859
0.6271034,-0.1881151,-0.3988908,-0.2223353,-0.05005021,0.1546027
0.7918028,-0.1811816,-0.365997,-0.3807549,-0.4142693,0.1622276
0.9296896,-0.3761035,-0.3130299,-0.1031581,-0.5206233,-0.009079541
0.9285175,-0.6095102,-0.2214082,0.1413419,-0.3641614,-0.3642857
0.9149956,-0.6547733,-0.18802,0.5617694,-0.1530928,-0.6445286
0.8559009,-0.5225163,-0.2188913,0.7958905,-0.3527328,-0.706197
0.8045539,-0.3191696,-0.2736078,0.5931351,-0.4750465,-0.6213572
0.805689,-0.2452175,-0.3047781,0.4913075,-0.5040648,-0.4720155
0.8204908,-0.2442138,-0.2829407,0.5782705,-0.561525,-0.3089491
0.8662333,-0.2341076,-0.2576388,0.5671727,-0.3613989,-0.1644746
0.9197536,-0.2601796,-0.2347309,0.5983869,-0.2484294,-0.1268544
0.9376542,-0.2050127,-0.2016351,0.5766701,-0.24701,-0.1270999
0.9175753,-0.1452047,-0.167519,0.387295,-0.3205813,-0.06687527
0.9012305,-0.1247714,-0.1487472,0.2853919,-0.523166,0.01286022
0.9106408,-0.1039274,-0.1612475,0.1896782,-0.525759,0.157945
0.9186342,-0.1574099,-0.1646857,0.1739887,-0.3952519,0.2777393
0.9449108,-0.218074,-0.1392058,0.2824838,-0.2426928,0.3112039
0.9631259,-0.2712148,-0.1208013,0.3187389,-0.1757113,0.3341659
0.9644213,-0.2751572,-0.1292347,0.4349673,-0.1668976,0.2624308
1.012127,-0.2272274,-0.1465077,0.4582918,-0.02971062,0.1322643
1.06056,-0.2283602,-0.162744,0.2809126,-0.01960808,-0.006770679
1.092524,-0.1999025,-0.1725492,0.1739058,-0.05216499,-0.1493244
1.136471,-0.1878806,-0.1355217,0.1171987,-0.03414496,-0.1903474
1.165612,-0.2385541,-0.09912414,0.04371503,-0.1344018,-0.2123615
1.195169,-0.3026268,-0.1642599,-0.1237815,-0.1730631,-0.3051953
1.198792,-0.4047118,-0.3134619,-0.3620979,-0.2512102,-0.4423196
1.096675,-0.4393343,-0.4632085,-0.6096493,-0.4565935,-0.5784601
0.9165899,-0.4666171,-0.5212237,-0.7242971,-0.548895,-0.6221095
0.8042949,-0.5894958,-0.4827051,-0.469748,-0.3751129,-0.5313392
0.8351725,-0.6354711,-0.4264797,-0.102089,0.1515116,-0.3695793
0.9358594,-0.5703025,-0.3468702,0.2363698,0.7500299,-0.3102666
1.028119,-0.4530254,-0.2925208,0.3723637,0.8531892,-0.3034936
1.053117,-0.2751044,-0.3141887,0.04651445,0.3559403,-0.1501888
0.7319556,-0.3778376,-0.134697,-0.7040219,0.3365081,0.3734632
0.7697914,-0.3633479,-0.1623419,-0.7136259,0.2641691,0.3779554
0.8169001,-0.3218562,-0.1510659,-0.7637195,0.09633785,0.3501266
0.8322352,-0.3552337,-0.1425738,-0.722395,0.2551094,0.2761449
0.8320725,-0.3527213,-0.1258799,-0.7511966,0.3808608,0.251611
0.8277545,-0.3451966,-0.06921039,-0.6653206,0.4037376,0.1983719
0.8478468,-0.3501194,-0.04252901,-0.6686532,0.4744409,0.1149676
0.8972199,-0.2953039,-0.04961175,-0.8359576,0.364222,0.09314894
0.9633337,-0.2826052,-0.0731204,-0.9350409,0.2626526,0.1333625
1.021944,-0.3205607,-0.09381115,-0.8612554,0.09008299,0.164013
1.088948,-0.4113258,-0.09311943,-0.5189985,0.0499714,0.1457818
1.206939,-0.5171426,-0.07455009,-0.2155945,0.2815127,0.09436171
1.251971,-0.5158735,-0.08279372,-0.09693422,0.3409824,0.08315843
1.248167,-0.5464972,-0.2242027,0.01874305,0.3361487,0.2450863
1.284069,-0.6881954,-0.4267324,0.3826217,0.481474,0.4661917
1.190628,-0.7528037,-0.5047781,0.7962149,0.8965693,0.4220508
0.9804852,-0.6360244,-0.4796999,0.5471904,1.243527,0.2063943
0.745176,-0.4156421,-0.4040297,-0.01765816,0.9179492,0.07682614
0.5895868,-0.1954144,-0.3012029,-0.4685238,0.2217281,0.04089204
0.7035986,-0.1162792,-0.3238247,-0.8770978,-0.4624241,0.07413521
0.8713941,-0.30117,-0.3814129,-0.7510351,-0.6806131,0.009898308
0.9116548,-0.5489439,-0.2907962,-0.2893606,-0.1885595,-0.1864766
0.9015368,-0.6094142,-0.2162434,0.07523803,0.08491989,-0.3373758
0.8031609,-0.4982163,-0.187735,0.2463787,-0.1014222,-0.4501556
0.7395816,-0.3158492,-0.1929841,-0.05354264,-0.2436786,-0.4759128
0.757725,-0.1927433,-0.2883809,-0.3124101,-0.4769351,-0.4048375
0.7842382,-0.1696108,-0.2855019,-0.2915236,-0.579112,-0.2925018
0.8636969,-0.2234405,-0.2447332,-0.2071285,-0.3285437,-0.1195832
0.8870202,-0.2940887,-0.2452947,0.09560615,-0.1302116,-0.02055981
0.8660919,-0.2749429,-0.2062333,0.1949038,-0.09295406,0.03044464
0.8756235,-0.2307656,-0.2137352,0.1166864,-0.1476558,0.1231423
0.8660543,-0.2015653,-0.1989745,0.1816362,-0.2065007,0.1831033
0.9193016,-0.1864911,-0.1842715,0.128207,-0.15617,0.2067402
0.9978503,-0.2328249,-0.2032558,0.1258261,-0.05029836,0.1560611
1.016169,-0.2534442,-0.1428438,0.1633099,0.07371257,0.07547883
1.022992,-0.2381553,-0.1163242,0.1445199,0.04954599,0.01835633
1.075174,-0.192309,-0.1414163,0.1571316,-0.1040914,-0.0660885
1.194799,-0.1221793,-0.1786748,-0.006649803,-0.1121975,-0.09124034
1.274986,-0.1527126,-0.2172476,-0.1720039,0.01319237,-0.05600813
1.285205,-0.2343414,-0.20735,-0.2144018,0.1358875,-0.06644411
1.271907,-0.3503274,-0.2608501,-0.3424273,0.07389496,-0.1401172
1.188309,-0.4927316,-0.3819935,-0.7219697,-0.1477769,-0.3002474
0.980823,-0.5019038,-0.4869971,-1.229517,-0.3965972,-0.4605672
0.71531,-0.5202043,-0.5268458,-1.282766,-0.7449536,-0.452116
0.6817454,-0.6428139,-0.4676018,-0.7954208,-0.7192121,-0.3119699
0.9611511,-0.6636924,-0.4122882,-0.1352991,0.05289867,-0.1060525
1.225688,-0.6126792,-0.4083833,0.3812891,1.018372,0.1130847
1.220337,-0.4803629,-0.3935765,0.3661404,1.331404,0.138137
0.9936953,-0.1952084,-0.3412535,-0.03205473,0.6147919,0.1925122
0.7962854,-0.07389226,-0.271814,-0.3356806,-0.1175524,0.5533643
0.7466906,-0.1819729,-0.2122835,-0.4622041,-0.06894974,0.7618858
0.74695,-0.2653251,-0.2004595,-0.4712965,0.2107636,0.6906262
0.7205327,-0.3573791,-0.2272051,-0.4526335,0.5041238,0.6219505
0.7039381,-0.3943916,-0.2179494,-0.4929197,0.5995859,0.4672265
0.755171,-0.316668,-0.1837872,-0.5050569,0.4226632,0.312618
0.7981263,-0.3196137,-0.138454,-0.4975648,0.3580937,0.2717012
0.7991899,-0.3383069,-0.09756387,-0.5175627,0.2206428,0.2268712
0.8049985,-0.3117113,-0.09304891,-0.5409282,0.0996494,0.1758791
0.8065848,-0.3306765,-0.07229168,-0.5651098,0.185329,0.1371465
0.8319455,-0.3140243,-0.05060369,-0.5249641,0.2295666,0.1271456
0.8706834,-0.2799742,-0.04577621,-0.5329443,0.2771921,0.09646204
0.9145146,-0.2788201,-0.05818504,-0.7032611,0.2967133,0.0520165
0.9642666,-0.3051075,-0.09561692,-0.8769164,0.1556609,0.09175772
1.018623,-0.4145602,-0.0902546,-0.8327096,-0.1088109,0.1412761
1.156667,-0.5229378,-0.07119048,-0.4804362,-0.2465444,0.1533111
1.276299,-0.5640976,-0.07031723,-0.06720345,0.02807016,0.1048467
1.273359,-0.582754,-0.103932,0.1435328,0.3079991,0.05130105
1.276758,-0.6347783,-0.2628892,0.2289594,0.2079337,0.2013511
1.272666,-0.7114141,-0.4540483,0.4944439,0.2186798,0.4170274
1.104852,-0.6578779,-0.4981198,0.8933598,0.5954485,0.4390914
0.8094126,-0.4699743,-0.4515058,0.910645,0.9716265,0.3672139
0.6427798,-0.2575454,-0.4624703,0.4504633,1.047976,0.332076
0.7075106,-0.1648914,-0.4539964,-0.1968562,0.5008129,0.2856057
0.8285114,-0.30437,-0.3525035,-0.5953017,-0.3287648,0.1495029
0.9207586,-0.4337204,-0.282618,-0.4961294,-0.5256177,-0.07763345
0.9342595,-0.4533034,-0.2687916,-0.1992608,-0.2591913,-0.3195166
0.8296753,-0.4634248,-0.235028,0.2181978,-0.1191716,-0.4854158
0.7716919,-0.4206645,-0.1655754,0.4783092,-0.1249205,-0.5530472
0.7864424,-0.390568,-0.1739317,0.2729867,-0.2951858,-0.5690313
0.7831065,-0.2717358,-0.2609959,0.07864642,-0.6013547,-0.4994676
0.789833,-0.09687305,-0.2624553,-0.007059407,-0.7297567,-0.3102797
0.7962702,-0.169862,-0.2518094,0.00463976,-0.5287139,-0.1063452
0.8415812,-0.2910224,-0.2411536,0.2562854,-0.3607149,0.01049869
0.9186077,-0.3025169,-0.1975047,0.3752881,-0.3421461,0.044043
0.928219,-0.3148183,-0.2215156,0.3797876,-0.2962525,0.08264596
0.9096645,-0.2419704,-0.2018468,0.3838114,-0.3244036,0.143824
0.9146487,-0.1595787,-0.1559531,0.2706264,-0.3498174,0.1785784
0.9572966,-0.1544918,-0.1582498,0.2092047,-0.3063351,0.1921663
1.022201,-0.186711,-0.1418345,0.1873527,-0.206984,0.1556844
1.055343,-0.2592151,-0.1412224,0.2464886,-0.0282725,0.09083839
1.052503,-0.2667692,-0.1365823,0.3242262,-0.005981332,0.0366715
1.055881,-0.1922152,-0.1588202,0.174128,-0.05281061,-0.03460119
1.125422,-0.150905,-0.1902472,0.06198586,0.05569292,-0.10335
1.212324,-0.2298844,-0.1514899,0.09132002,0.1149797,-0.1764454
1.219287,-0.3973973,-0.1595655,0.0206232,-0.0365134,-0.2522372
1.130336,-0.4639832,-0.2841516,-0.347743,-0.3628087,-0.3497113
0.9530951,-0.432954,-0.461243,-0.9034191,-0.7343341,-0.4552455
0.7748114,-0.4719754,-0.5208827,-1.018046,-0.9112958,-0.4609913
0.7891547,-0.585329,-0.4620808,-0.662995,-0.7352298,-0.4155485
1.06573,-0.6576462,-0.470421,-0.2144068,-0.09810441,-0.2766794
1.338654,-0.6063477,-0.4577273,0.3019708,0.9295505,-0.04473472
1.307569,-0.4349764,-0.3877721,0.3826672,1.388347,0.04224197
1.016559,-0.1789503,-0.3540917,-0.1593392,0.6714644,0.185426
0.7435969,-0.05892295,-0.2822696,-0.5765949,0.07694433,0.5556697
0.6767078,-0.2025815,-0.2095272,-0.6298493,0.2757322,0.7361709
0.6947148,-0.3549985,-0.1849969,-0.547085,0.4164372,0.6512737
0.6391264,-0.4434457,-0.1523795,-0.4176392,0.460988,0.5839031
0.6033223,-0.4636072,-0.1575958,-0.3483919,0.4584405,0.4706727
0.6473747,-0.3669046,-0.1725734,-0.3340735,0.1883097,0.3107649
0.7131733,-0.3214162,-0.1383941,-0.373146,-0.03988314,0.2725902
0.7971484,-0.2896372,-0.1304515,-0.3877753,-0.2407088,0.2626112
0.8292206,-0.287218,-0.1408405,-0.4039516,-0.3141023,0.246641
0.8196822,-0.3754817,-0.1337373,-0.492229,-0.1044559,0.2396747
0.873067,-0.3537869,-0.1300883,-0.424219,0.08187313,0.164032
0.887151,-0.3167562,-0.1068017,-0.4051885,0.2081699,0.09643656
0.9093534,-0.311827,-0.08812054,-0.6005409,0.2373628,0.04633618
1.004192,-0.2754701,-0.08801113,-0.6963967,0.1610112,0.02969226
1.012499,-0.3520683,-0.07824787,-0.5778896,0.07827502,0.06994884
1.059284,-0.4312063,-0.05909739,-0.2304603,0.009657427,0.03582543
1.169758,-0.4626207,-0.02470711,0.09977098,0.1782869,-0.06007065
1.195441,-0.5109026,-0.04490561,0.2277707,0.3481663,-0.1094371
1.265677,-0.6051889,-0.2420588,0.3743644,0.1833889,0.07652785
1.38071,-0.8218789,-0.5859167,0.7871986,0.1604389,0.4160514
1.339791,-0.8631712,-0.7614907,1.182384,0.6558905,0.4576017
1.001344,-0.5906892,-0.5907283,0.8464183,1.126197,0.2841972
0.6159101,-0.3286926,-0.3929749,0.1821638,0.8938863,0.1434704
0.6411209,-0.279058,-0.3067524,-0.2285977,0.1884502,-0.05915182
0.84753,-0.3899941,-0.2161892,-0.4815742,-0.4118406,-0.2327042
0.8660027,-0.4822822,-0.2103155,-0.1597631,-0.5765178,-0.315908
0.8668138,-0.5423798,-0.2077508,0.3477087,-0.3724623,-0.4135872
0.8400136,-0.5029193,-0.1740005,0.4509507,-0.4130235,-0.5421138
0.7363536,-0.3143894,-0.2366914,0.5241909,-0.6099335,-0.6295389
0.7412812,-0.219257,-0.2614367,0.3917449,-0.658592,-0.5775914
0.7712002,-0.2058606,-0.2554906,0.2202182,-0.8287104,-0.4244905
0.8016133,-0.2504512,-0.2701277,0.3879037,-0.7227308,-0.2346115
0.8896879,-0.3556239,-0.2342458,0.5339535,-0.4209131,-0.1044102
0.899065,-0.3150096,-0.2270089,0.6994095,-0.4033137,-0.1113799
0.8866621,-0.2337849,-0.2076881,0.7792793,-0.3456631,-0.05037759
0.9186489,-0.1744724,-0.1847238,0.6312936,-0.3843369,0.09069595
0.9662678,-0.1353138,-0.2082001,0.564048,-0.4286262,0.103904
1.013798,-0.2241741,-0.1805567,0.4929003,-0.220464,0.05807347
0.9958826,-0.2677268,-0.1184632,0.4640725,-0.05679323,0.006164297
0.992219,-0.2454593,-0.03401183,0.5673088,0.07525004,-0.07398643
1.039784,-0.2113234,-0.01566245,0.5200491,-0.01664906,-0.1529165
1.130338,-0.1454911,-0.1051706,0.2264197,-0.1766121,-0.2593739
1.26925,-0.1897917,-0.135342,-0.07788124,-0.1017091,-0.323621
1.281781,-0.2748416,-0.1516635,-0.02754423,-0.06597284,-0.2895752
1.160587,-0.3243423,-0.2779492,-0.04048158,-0.04251631,-0.288011
1.023658,-0.3660288,-0.4557196,-0.6594593,-0.3467153,-0.4454983
0.8249155,-0.3941361,-0.5332644,-1.205453,-0.9295444,-0.6568403
0.7156455,-0.5086437,-0.5152986,-1.142802,-1.135629,-0.6912089
0.8920657,-0.6892456,-0.4968742,-0.6282874,-1.146956,-0.5591897
1.087191,-0.8322874,-0.4329044,0.06247627,-0.7377964,-0.4020955
1.147095,-0.7725856,-0.4675436,0.5347273,0.539049,-0.2277126
1.229829,-0.5020657,-0.5460167,0.6902142,1.448576,-0.02049812
1.064013,-0.255015,-0.4106737,0.2841409,0.7521159,0.2604573
0.6751348,-0.06272132,-0.2785967,-0.426638,-0.1235116,0.6524745
0.6427634,-0.1324584,-0.2295666,-0.5362996,0.1684586,0.8730146
0.7249219,-0.3596418,-0.2021638,-0.4733254,0.3179107,0.7616459
0.6092183,-0.3386223,-0.2385847,-0.5674537,0.1904832,0.694467
0.6262351,-0.4328488,-0.2067195,-0.3781848,0.4391127,0.636144
0.70798,-0.4832049,-0.1861221,-0.3320425,0.2941651,0.3982989
0.7870226,-0.2766491,-0.1949198,-0.3597237,0.20947,0.283927
0.8831822,-0.3510283,-0.1662154,-0.2994798,0.3481985,0.2298131
0.8435603,-0.3676292,-0.1787753,-0.4461759,0.1677385,0.1950632
0.8365856,-0.2823201,-0.1225739,-0.3609345,0.1681953,0.2597769
0.8488879,-0.3753019,-0.0497214,-0.2557986,0.1117393,0.1805358
0.8431339,-0.2991982,-0.05272705,-0.4086098,0.03661048,0.1054345
0.9510944,-0.2811932,-0.05834402,-0.4771404,0.212759,0.08401267
1.021379,-0.3161228,-0.09907227,-0.6386599,0.2224567,-0.001951889
1.034186,-0.2865494,-0.1123637,-0.6150395,0.2233844,-0.01464234
1.046785,-0.4039101,-0.05702886,-0.2913614,0.1536129,-0.05261194
1.08659,-0.4581715,-0.007340464,-0.05634082,0.07304871,-0.07252228
1.18875,-0.5356326,-0.05458882,0.2109197,0.1546346,-0.002116714
1.285101,-0.669356,-0.2644326,0.5270753,0.1780874,0.1238078
1.337758,-0.7355476,-0.5619389,0.9649625,0.3331859,0.3900239
1.208598,-0.7810817,-0.7721279,1.223587,0.6276666,0.5071867
1.064572,-0.7253921,-0.7479198,0.7951526,0.8768241,0.3035885
1.088116,-0.6788915,-0.643098,0.1707376,0.6472329,0.006567696
0.9067639,-0.4591071,-0.4899354,-0.1689566,-0.1071406,-0.2535212
0.6469448,-0.1464332,-0.2391425,-0.1788491,-0.5723743,-0.4145985
0.7273696,-0.260703,-0.2621721,0.005828538,-0.6132064,-0.4871486
0.8158643,-0.4264494,-0.3167158,0.2889997,-0.3473033,-0.5382305
0.7202777,-0.3718297,-0.1238624,0.7518496,-0.1318864,-0.6496949
0.7315087,-0.3351055,-0.187893,0.8318962,-0.4580432,-0.7437962
0.747783,-0.2009984,-0.2897798,0.4707207,-0.8114507,-0.6498344
0.7337034,-0.1140913,-0.2098294,0.381405,-0.9045197,-0.4421946
0.8660084,-0.2155442,-0.2781568,0.3984843,-0.7264739,-0.2125656
0.9156957,-0.2451601,-0.2621811,0.4015257,-0.3241232,-0.06815518
0.8967717,-0.2369171,-0.1971103,0.5048028,-0.1501632,-0.05815998
0.928678,-0.2328476,-0.2204061,0.4608128,-0.1605706,0.01888176
0.9027912,-0.1544043,-0.1593119,0.4493971,-0.27093,0.1145302
0.9384466,-0.1431536,-0.1901907,0.458746,-0.3862544,0.1380955
0.9721322,-0.1705705,-0.2179955,0.3505408,-0.2897165,0.1975551
0.9751868,-0.183949,-0.1365484,0.3419514,-0.1427239,0.1870749
1.045542,-0.212288,-0.1138363,0.3447828,0.0617332,0.1119485
1.078933,-0.1591067,-0.1000051,0.2928747,0.1356004,0.02024399
1.138267,-0.1033143,-0.1575148,0.08445463,-0.1081976,-0.1307887
1.218776,-0.1466637,-0.2223048,-0.2576795,-0.23858,-0.1482072
1.261641,-0.2898601,-0.2038941,-0.3073364,-0.1093499,-0.07092143
1.28072,-0.4894166,-0.2632111,-0.2382704,-0.03776623,-0.08941781
1.224464,-0.5556223,-0.3509518,-0.4499931,-0.2094822,-0.2583862
1.106686,-0.5144656,-0.413488,-0.7850425,-0.4588088,-0.5859613
0.941144,-0.5735924,-0.4847428,-0.9023044,-0.6509896,-0.7435566
0.9099244,-0.6446552,-0.4941011,-0.6224232,-0.6717592,-0.5765563
1.014258,-0.5849464,-0.4439724,-0.07520423,-0.0370056,-0.2970068
1.064581,-0.4629816,-0.3977992,0.4526981,1.059031,0.03636276
1.165364,-0.3081787,-0.3257354,0.5674609,1.406033,0.2433822
1.132985,-0.2346233,-0.2692293,0.09402697,0.5968543,0.2836297
0.8680759,-0.2901533,-0.2846119,-0.3938089,-0.1752589,0.5107723
0.725329,-0.267338,-0.2156795,-0.3813828,-0.07156259,0.7640327
0.7407502,-0.2851825,-0.1587263,-0.2046281,0.2470259,0.7120586
0.7730635,-0.393779,-0.2197361,-0.1912201,0.3830128,0.5995434
0.7380586,-0.3595191,-0.2006352,-0.2338362,0.4944806,0.4662328
0.7173792,-0.3165682,-0.1859471,-0.2853562,0.4323146,0.2863741
0.7698564,-0.3116828,-0.1794415,-0.3003482,0.2672512,0.290178
0.7282949,-0.2800348,-0.08240047,-0.2736284,0.007121724,0.3427232
0.7277019,-0.3100876,-0.0439865,-0.2782453,-0.2696107,0.3323777
0.7879859,-0.3241903,-0.0666117,-0.2715006,-0.2137165,0.2842076
0.820231,-0.3458132,-0.08706429,-0.2570254,-0.01478314,0.1462971
0.9382618,-0.3810543,-0.06944431,-0.2868954,0.1790504,0.03562713
0.9782551,-0.3295337,-0.05666698,-0.423034,0.2675233,-0.009809643
0.9770356,-0.3036454,-0.09610166,-0.570111,0.01457282,0.005040543
1.020578,-0.3579688,-0.09361787,-0.4238367,-0.2117182,0.08422122
1.044455,-0.4603738,-0.07880658,-0.01286745,-0.1992731,0.1313143
1.187474,-0.569732,-0.06703359,0.3946704,-0.1094892,0.1188257
1.286601,-0.6026314,-0.1031092,0.6018298,-0.02750041,0.1158319
1.318557,-0.6395891,-0.3186737,0.6537041,-0.006133849,0.2386585
1.372907,-0.7139933,-0.5957781,1.01277,0.2774116,0.3592557
1.113753,-0.6643185,-0.6663531,1.357778,0.7970735,0.3070354
0.6940395,-0.4751571,-0.4978056,0.8214953,0.8869858,0.232084
0.6208421,-0.2850468,-0.3996217,-0.02808173,0.3835216,0.1420516
0.8065992,-0.2230321,-0.395863,-0.3468254,-0.2394716,-0.03918826
0.9226658,-0.361393,-0.2895318,-0.2755999,-0.5007134,-0.1736648
0.9534616,-0.5430824,-0.2178935,0.0496991,-0.3535992,-0.2727253
0.9111912,-0.584083,-0.1986147,0.4069378,-0.1883171,-0.4193593
0.7886393,-0.4487961,-0.1954394,0.4769292,-0.202634,-0.4970407
0.7545991,-0.2042073,-0.2538598,0.1920668,-0.3342482,-0.480758
0.7795861,-0.1046388,-0.2784655,-0.2110061,-0.6037769,-0.4069832
0.7925086,-0.1405907,-0.2819817,-0.296967,-0.7001617,-0.1903813
0.8522908,-0.1785542,-0.2635324,-0.1827853,-0.4429623,0.04723318
0.8866651,-0.3041649,-0.2278506,-0.07284365,-0.2411176,0.1180009
0.8891222,-0.3471034,-0.2236852,0.1303493,-0.1539349,0.1138046
0.8857226,-0.2864122,-0.2111161,0.2780375,-0.1398959,0.1414252
0.8922827,-0.27668,-0.2191857,0.3147824,-0.1959441,0.1666608
0.9365467,-0.2357414,-0.2254789,0.3292027,-0.1349584,0.1607541
0.9645859,-0.2444329,-0.2197115,0.3397163,-0.08843792,0.1480158
0.9934974,-0.2988594,-0.2192555,0.3680576,0.03018439,0.0947313
1.036477,-0.2857245,-0.1664453,0.4417653,0.2635858,-0.04103953
1.082158,-0.2133027,-0.1324535,0.4779336,0.3033922,-0.1919288
1.117011,-0.08960887,-0.1663459,0.2660748,0.1245814,-0.2787109
1.148126,-0.1031717,-0.2223956,-0.09439235,-0.1965602,-0.2654848
1.252895,-0.3040825,-0.290437,-0.368484,-0.375603,-0.1908004
1.277136,-0.494368,-0.3846924,-0.5583469,-0.316459,-0.1735391
1.034426,-0.5929541,-0.4935342,-0.8138728,-0.2918354,-0.3397669
0.7508357,-0.6410758,-0.5174631,-1.067326,-0.3267163,-0.5829597
0.7789368,-0.7054288,-0.4496454,-0.9083432,-0.4959666,-0.5902348
1.062305,-0.7289329,-0.3935177,-0.4311579,-0.5880049,-0.3956769
1.273989,-0.6787347,-0.3964568,0.02311775,-0.01563261,-0.1778837
1.289963,-0.5326133,-0.4126711,0.3187883,0.9275193,0.05381073
1.103731,-0.2499048,-0.3769356,0.1486407,1.160625,0.1863522
0.8491582,-0.09957517,-0.3113208,-0.1854673,0.5620734,0.3561818
0.7049132,-0.1927015,-0.2059601,-0.3327238,0.1023996,0.6620324
0.6437776,-0.3293372,-0.1026243,-0.4464453,0.1138671,0.7034676
0.647884,-0.4581491,-0.09748078,-0.2863272,0.2474738,0.4840123
0.6331683,-0.4814138,-0.1283947,-0.1429008,0.3001326,0.3320757
0.6063908,-0.4064903,-0.1521533,-0.2837837,0.2189717,0.2542932
0.6812099,-0.3777966,-0.169474,-0.2433211,0.1333836,0.2326596
0.7748241,-0.3116619,-0.1762465,-0.2511369,0.07555859,0.232716
0.8486018,-0.2773167,-0.1616638,-0.3601194,-0.0143537,0.22377
0.8320195,-0.3657209,-0.08686277,-0.3392254,-0.09151346,0.2018355
0.7926196,-0.3726793,-0.05108136,-0.378748,-0.1162603,0.1196023
0.889747,-0.3180796,-0.08622437,-0.3988815,-0.007208037,0.05261523
0.9644385,-0.2963839,-0.1090069,-0.5172624,0.1946822,0.003194552
1.00435,-0.2893798,-0.1295421,-0.6893875,0.2881574,-0.05303077
1.042452,-0.3746326,-0.127721,-0.6158218,0.1926533,-0.06358484
1.060897,-0.4597718,-0.09153231,-0.3988529,0.1213159,-0.07836822
1.154254,-0.4662671,-0.04795972,-0.1250824,0.2370034,-0.1273618
1.199598,-0.46256,-0.03741889,-0.006751357,0.2851799,-0.1477667
1.22649,-0.518353,-0.1502883,0.02075588,0.1511729,0.02080271
1.332146,-0.7239857,-0.4079621,0.364515,0.136318,0.3246929
1.313907,-0.8662798,-0.6365421,0.8234792,0.5009471,0.4132155
1.045359,-0.6849663,-0.5900015,0.8738788,1.038515,0.3000222
0.6759202,-0.3799905,-0.4053004,0.4249396,1.070136,0.1852756
0.6005077,-0.2578141,-0.3411054,-0.1236747,0.3530737,-0.04635099
0.7898518,-0.3028326,-0.3114275,-0.3963981,-0.5351603,-0.3524306
0.8516893,-0.4244652,-0.2812713,-0.2577876,-0.8329449,-0.4632285
0.8721955,-0.6098226,-0.2330213,0.1819929,-0.4061863,-0.4893529
0.8689513,-0.6425819,-0.1695624,0.6550375,-0.09233541,-0.6294179
0.7630373,-0.4510398,-0.2223642,0.8578369,-0.2524077,-0.7163578
0.7505159,-0.2363348,-0.2506118,0.5952603,-0.4641209,-0.6748939
0.7691914,-0.1013472,-0.2304432,0.3503678,-0.7637513,-0.5182106
0.7799666,-0.1029245,-0.2666977,0.3640765,-0.880064,-0.2325064
0.8455169,-0.1693725,-0.2418378,0.3300049,-0.6008736,-0.03964539
0.8778357,-0.2252776,-0.2208777,0.4266976,-0.4550449,0.01653463
0.9075944,-0.2795881,-0.2418198,0.5357756,-0.3214411,0.06041599
0.9209354,-0.2837653,-0.2260649,0.537329,-0.06320742,0.04470972
0.9128484,-0.2711292,-0.2066613,0.6057989,-0.03134863,0.03299076
0.9266633,-0.246955,-0.1769738,0.5294626,-0.1901454,0.06022638
0.9249798,-0.2176304,-0.1606237,0.4872456,-0.3235256,0.040577
0.9746407,-0.2388795,-0.1220827,0.556513,-0.200584,-0.02203142
1.092428,-0.2472256,-0.05144396,0.5763525,-0.04519705,-0.1689658
1.199308,-0.1884532,-0.06914529,0.5840176,-0.1185351,-0.3226567
1.219736,-0.07776657,-0.1505305,0.2595402,-0.1619606,-0.2874321
1.180798,-0.02756012,-0.2309791,-0.2658545,-0.2224803,-0.11498
1.194772,-0.1863622,-0.3046539,-0.5381267,-0.2803169,-0.01872907
1.162944,-0.4668545,-0.3956223,-0.7224781,-0.2371305,-0.1989055
0.986428,-0.6285809,-0.5152989,-1.019529,-0.303281,-0.5484777
0.7517162,-0.635648,-0.5265799,-1.129341,-0.4146038,-0.6898137
0.7063753,-0.6645222,-0.4270529,-0.7842251,-0.4523062,-0.5925539
1.037429,-0.7456949,-0.3928682,-0.09488973,-0.1115048,-0.3589643
1.400186,-0.7325633,-0.4153669,0.7302596,0.8044981,-0.06066013
1.391457,-0.5555769,-0.4158497,0.9046479,1.325172,0.03125011
1.061998,-0.2211109,-0.3814077,0.2030093,0.6675066,0.1171069
0.7594524,0.05257913,-0.3193828,-0.2651157,-0.1194277,0.5174451
0.7377257,-0.06121323,-0.2546297,-0.2863318,-0.02535277,0.7898023
0.7225329,-0.3113801,-0.1658699,-0.2444542,0.1995499,0.7083831
0.597474,-0.3591745,-0.1241924,-0.2216792,0.1628819,0.5766028
0.6405087,-0.3754629,-0.184706,-0.3701475,0.2623137,0.4236903
0.7179405,-0.334708,-0.2107113,-0.41087,0.2222021,0.298067
0.7434149,-0.2741708,-0.1645177,-0.3407833,0.1238363,0.2934196
0.8177307,-0.3221513,-0.1148569,-0.3312393,0.03145476,0.2771657
0.7889806,-0.3011225,-0.08217064,-0.3252107,-0.2514595,0.2378703
0.767796,-0.3268636,-0.0752692,-0.3757384,-0.2579051,0.1885825
0.8511223,-0.3635856,-0.07510516,-0.3173131,-0.07749474,0.1196103
0.9154953,-0.2932183,-0.08198216,-0.3014186,0.07009882,0.05935416
1.01422,-0.3071715,-0.1157581,-0.4487204,0.2402185,-0.01950724
1.050125,-0.3477814,-0.1423202,-0.5165292,0.1273693,0.000991376
1.066236,-0.490855,-0.1074846,-0.4249369,-0.007057727,0.1110259
1.179106,-0.6605224,-0.03700409,0.02484962,0.03545052,0.1301847
1.192693,-0.6203124,-0.02439058,0.5934117,0.03289682,0.06421633
1.200499,-0.618459,-0.1516686,0.7831109,0.09873536,0.00832158
1.233723,-0.6732943,-0.4130043,0.8098238,0.2628072,0.1213209
1.103357,-0.6301308,-0.5999123,1.124751,0.5770122,0.2557301
0.8985205,-0.5076549,-0.5565964,1.350904,0.9309694,0.1464927
0.7077578,-0.2829974,-0.4513508,0.7587958,0.830873,0.05388841
0.6575444,-0.1147044,-0.3926826,-0.1105832,0.3849647,0.05802178
0.7617049,-0.158607,-0.3249798,-0.5225313,-0.0962394,-0.0167475
0.8610079,-0.3191005,-0.3049284,-0.6182811,-0.5515795,-0.08835915
0.935587,-0.449509,-0.2892575,-0.2890078,-0.4556048,-0.2238131
0.8782001,-0.4792404,-0.2062404,0.3219668,-0.08540875,-0.467576
0.7441965,-0.4757067,-0.1669361,0.6274724,-0.1646291,-0.6581555
0.7277469,-0.4696433,-0.1903171,0.6300857,-0.2908295,-0.7181765
0.7482431,-0.2815043,-0.2581909,0.5037234,-0.5430416,-0.6197947
0.7713201,-0.08135561,-0.3289206,0.312586,-0.8039219,-0.4075436
0.8073936,-0.1657545,-0.3122919,0.3427477,-0.5511313,-0.1678572
0.8340452,-0.2546921,-0.2800483,0.5304924,-0.3882648,-0.03338659
0.8986288,-0.2638625,-0.2487359,0.6241452,-0.2502927,-0.03332684
0.930877,-0.3169599,-0.2047718,0.6744932,-0.1169952,0.02326776
0.9133098,-0.248551,-0.2021573,0.618907,-0.3338536,0.1035946
0.9502874,-0.1497794,-0.192908,0.532247,-0.3138511,0.1161886
0.9990377,-0.1506286,-0.1771508,0.4722755,-0.1628347,0.1382321
0.9969704,-0.1656657,-0.1501755,0.3937739,-0.04414265,0.1115991
1.019617,-0.1787289,-0.06414193,0.4414066,0.06546683,0.04296891
1.075011,-0.1674604,-0.03047865,0.3622457,-0.1068892,-0.03496048
1.097677,-0.1233999,-0.1376153,0.04169541,-0.2081003,-0.1253511
1.161054,-0.1171236,-0.2390579,-0.2059584,-0.216876,-0.1304762
1.279445,-0.2511852,-0.2327499,-0.196884,-0.1889207,-0.1379579
1.293378,-0.4749702,-0.285828,-0.1850006,-0.1044772,-0.2693502
1.128059,-0.5599303,-0.4519275,-0.6336755,-0.2744806,-0.5193375
0.8560234,-0.5480431,-0.5270097,-0.9708235,-0.4697424,-0.72812
0.7243223,-0.6344474,-0.4773077,-0.7454483,-0.5535392,-0.6531123
0.9083105,-0.70538,-0.4466643,-0.3310772,-0.4645923,-0.3916076
1.204942,-0.6531333,-0.4437913,0.287309,0.1841127,-0.06542562
1.329066,-0.5017005,-0.4265394,0.5626907,1.072147,0.194239
1.133911,-0.2293141,-0.3903479,0.2133442,1.199965,0.2446525
0.7995477,-0.01178251,-0.2904784,-0.1254976,0.4590022,0.4597499
0.6921266,-0.02466984,-0.1894467,-0.4752709,-0.03690588,0.8179811
0.6992305,-0.1671631,-0.1674109,-0.6381509,0.05998535,0.8238411
0.6449129,-0.367349,-0.1529936,-0.4142209,0.2516407,0.6379689
0.6458464,-0.5209457,-0.1417176,-0.3611929,0.380309,0.5051811
0.65798,-0.4497581,-0.1507626,-0.3810118,0.3516948,0.363171
0.7232267,-0.3208719,-0.1372451,-0.3075218,0.2666479,0.2486887
0.8257407,-0.2996212,-0.1272369,-0.409256,0.1086044,0.2053165
0.7919725,-0.2743778,-0.1215148,-0.4919718,-0.1799007,0.2548451
0.7750219,-0.3065816,-0.09346767,-0.5126265,-0.2294478,0.2899201
0.8403258,-0.3639508,-0.07073677,-0.5055413,-0.03682642,0.1967433
0.9075755,-0.3435384,-0.09097426,-0.4283635,0.2002901,0.04800273
1.004284,-0.3509828,-0.1250313,-0.5769334,0.3921662,-0.1115437
1.03283,-0.3469198,-0.1148929,-0.6987348,0.3481697,-0.1611739
1.020517,-0.3792787,-0.08370262,-0.4782015,0.1769827,-0.03913124
1.099247,-0.4661426,-0.004725607,-0.1127555,0.1176287,0.02936379
1.187665,-0.4731303,0.07494138,0.2363358,0.1364476,-0.002626305
1.231238,-0.5690066,-0.08058298,0.3112247,0.1305483,0.04138347
1.340746,-0.7953811,-0.41699,0.5019723,0.1690793,0.1942202
1.39213,-0.89213,-0.6512239,1.160276,0.4924224,0.3400812
1.065384,-0.6745535,-0.677976,1.373693,1.076329,0.3467248
0.6352757,-0.3384103,-0.5150419,0.7447589,1.250347,0.2263815
0.6126292,-0.2368021,-0.3324384,0.007408886,0.6234043,0.03529389
0.7496439,-0.2552406,-0.2650197,-0.3181141,-0.3086101,-0.2101954
0.7885368,-0.3782812,-0.22581,-0.2532931,-0.8296411,-0.3556254
0.9272535,-0.6394865,-0.2033229,0.1133171,-0.5583106,-0.3907222
0.9747114,-0.6446973,-0.2196913,0.6484353,-0.08587878,-0.5175663
0.8255522,-0.419477,-0.2103108,0.8299661,-0.01088901,-0.6532751
0.7666717,-0.1882646,-0.1923541,0.5955785,-0.1385855,-0.6625052
0.7312467,0.01310919,-0.1998947,0.3472354,-0.6286697,-0.6010463
0.7212767,0.004850554,-0.2258138,-0.007867045,-1.09415,-0.3936405
0.8161652,-0.1445195,-0.253572,-0.1505791,-0.8806767,-0.0402197
0.8495045,-0.2851362,-0.2480248,0.1924438,-0.5403932,0.2201905
0.868392,-0.385664,-0.2284702,0.4170491,-0.3153357,0.2456132
0.8725033,-0.350104,-0.2287257,0.5217168,-0.2056663,0.190596
0.8813672,-0.2689764,-0.2282716,0.6311241,-0.3299189,0.206986
0.9929226,-0.2013939,-0.21765,0.5456082,-0.2641635,0.1674469
1.053398,-0.1504911,-0.1852748,0.5104455,-0.064698,0.06328035
1.090283,-0.164576,-0.1123292,0.4439394,0.1349227,-0.02610667
1.133834,-0.1096421,-0.07411026,0.2877908,0.2658028,-0.1329834
1.131003,-0.0553448,-0.1488239,0.09747018,-0.0776928,-0.1719922
1.202611,-0.1467851,-0.2423927,-0.2840579,-0.3577659,-0.1741424
1.280701,-0.2504657,-0.241743,-0.4004566,-0.04270067,-0.1993154
1.242845,-0.3869023,-0.2617403,-0.2845738,0.136107,-0.2245757
1.136106,-0.564195,-0.445604,-0.5809197,-0.2589191,-0.3965703
1.026602,-0.5825192,-0.6143958,-1.109261,-0.7328154,-0.6889644
0.8471732,-0.5859686,-0.5424628,-1.308423,-0.9092237,-0.8158268
0.6971451,-0.7519579,-0.4182308,-0.7477397,-0.7171533,-0.6415882
0.9752861,-0.7623722,-0.444981,0.241525,0.0710374,-0.3235363
1.419796,-0.6151705,-0.4717,0.7296078,1.190567,-0.04426489
1.401497,-0.5200636,-0.456621,0.6061872,1.464078,0.13052
1.096108,-0.2337804,-0.4097177,0.09341656,0.6391759,0.2884026
0.843796,0.04506892,-0.2910195,-0.5944458,0.05721143,0.6497795
0.6857061,-0.008901436,-0.2664369,-0.7959212,0.2077191,0.8855112
0.7110636,-0.2040846,-0.2365411,-0.5315358,0.4236565,0.726556
0.7226402,-0.4440983,-0.1283604,-0.4584683,0.5390838,0.617519
0.6255602,-0.5106691,-0.1574287,-0.5143132,0.4939316,0.4765188
0.6567721,-0.3687718,-0.1694144,-0.4616062,0.31944,0.2177438
0.7123227,-0.3048223,-0.1180811,-0.4656219,0.2014604,0.2186612
0.7416638,-0.2858953,-0.1186251,-0.4507698,-0.02187486,0.2659585
0.7915245,-0.3026087,-0.08050406,-0.3871882,-0.1525418,0.2238803
0.7957668,-0.3412823,-0.08019036,-0.4121563,-0.06638134,0.2079205
0.8841478,-0.3151177,-0.0983236,-0.4026764,0.06454129,0.1076503
0.9709349,-0.2922258,-0.08696973,-0.4435946,0.372632,-0.008489402
0.9811529,-0.272962,-0.1081552,-0.6176323,0.5137157,-0.04606234
1.008522,-0.2988161,-0.08316437,-0.6701698,0.2005539,-7.813193e-06
1.059691,-0.4139581,-0.03947312,-0.4347825,-0.0160713,0.04906604
1.219752,-0.5081526,-0.01560155,0.06757607,0.0990721,0.01799024
1.319014,-0.530332,-0.03861243,0.4010768,0.1636169,0.02207137
1.327027,-0.5956479,-0.2174065,0.3790931,0.1174405,0.08562183
1.388181,-0.7266097,-0.447157,0.5990678,0.234692,0.2160259
1.210672,-0.694391,-0.5521061,1.064726,0.4992793,0.3750538
0.8448212,-0.4938146,-0.5565494,1.053894,0.88486,0.3502738
0.695986,-0.3463405,-0.5052093,0.4413104,1.098283,0.2310989
0.7508089,-0.2903593,-0.3526221,-0.3067304,0.5908357,0.1228467
0.816224,-0.3291785,-0.2296006,-0.6136562,-0.1286354,-0.07270334
0.8508608,-0.4241687,-0.2321446,-0.3573971,-0.410406,-0.179427
0.8671419,-0.5534519,-0.2019899,-0.06575594,-0.4058215,-0.2480364
0.7990278,-0.6470702,-0.1777072,0.2758765,-0.2866676,-0.4797374
0.705265,-0.5167217,-0.2199215,0.6807635,-0.3017274,-0.5691886
0.7052112,-0.3436689,-0.2475535,0.6244269,-0.4358126,-0.4786844
0.7532876,-0.2646219,-0.2720761,0.4852988,-0.5199778,-0.4095159
0.8262991,-0.2035813,-0.2562079,0.5011216,-0.5531036,-0.262435
0.898066,-0.2452806,-0.2265792,0.4730733,-0.4274821,-0.1665246
0.9199528,-0.2484685,-0.2181811,0.5850298,-0.3596642,-0.1750943
0.9119131,-0.193991,-0.1788303,0.5680942,-0.4028705,-0.1045023
0.9035118,-0.1919129,-0.1479211,0.5329266,-0.4325872,-0.007708676
0.9190905,-0.1510953,-0.139761,0.5968028,-0.5339065,0.08868581
0.934633,-0.1831505,-0.1447464,0.4534344,-0.5186511,0.1782779
0.962917,-0.2589061,-0.1367848,0.4377821,-0.3712072,0.1798662
1.033936,-0.2553055,-0.09505151,0.5357826,-0.1449782,0.1079427
1.113524,-0.2081779,-0.08124408,0.5356467,0.04927914,-0.0301661
1.188933,-0.1091066,-0.1080612,0.3451662,-0.05196354,-0.1821005
1.227943,-0.1214957,-0.1461011,-0.09183129,-0.1282555,-0.2439263
1.240919,-0.280763,-0.180146,-0.237349,-0.09842039,-0.2281406
1.256204,-0.4162218,-0.2728258,-0.2019955,-0.245234,-0.2516455
1.175045,-0.4661573,-0.41918,-0.5405836,-0.4050437,-0.3982962
0.8785432,-0.4987158,-0.4866181,-1.08338,-0.595385,-0.6093517
0.5417476,-0.640692,-0.5365634,-1.259413,-0.8634724,-0.7168264
0.665317,-0.703214,-0.5688378,-0.7991491,-0.8603321,-0.6128792
1.212935,-0.6604128,-0.5181136,-0.1646213,-0.3398009,-0.37867
1.536928,-0.7233454,-0.5451967,0.3481927,0.6765796,-0.1016066
1.410884,-0.5943397,-0.5492207,0.5534873,1.469231,0.1113241
1.09693,-0.217099,-0.4120849,0.1651117,1.18525,0.2025722
0.8668099,-0.008596717,-0.2958845,-0.3642656,0.476237,0.5131496
0.7347571,-0.1207022,-0.2016169,-0.5829358,0.2496288,0.8765136
0.6671543,-0.4016102,-0.1490816,-0.4936036,0.3915902,0.7255428
0.6450181,-0.539665,-0.1131682,-0.3349187,0.6780838,0.4785076
0.5718905,-0.475448,-0.06864105,-0.341202,0.6607297,0.3307454
0.6339799,-0.3560902,-0.1116567,-0.3197436,0.4216959,0.0130607
0.7368562,-0.2549813,-0.1074644,-0.3136315,0.3354803,-0.02218843
0.7298543,-0.1973161,-0.09494791,-0.4001071,0.03181632,0.1456865
0.8029947,-0.1641418,-0.1211663,-0.4022916,-0.1525747,0.1708523
0.7981337,-0.2294332,-0.05986582,-0.4292012,-0.05956506,0.2843191
0.8374986,-0.2863536,-0.04478757,-0.4108283,-0.02851882,0.2954152
0.9643284,-0.2731635,-0.05388444,-0.400736,0.1913516,0.1841074
0.9511156,-0.3126975,-0.06709542,-0.6504049,0.2561227,0.1773466
1.012688,-0.3380949,-0.1175962,-0.8416043,0.06244596,0.1394415
1.100222,-0.4268341,-0.06428341,-0.6562159,-0.004700796,0.1330793
1.23109,-0.5341748,-0.01737423,-0.1513966,0.118805,0.07743684
1.345934,-0.5438902,-0.03556402,0.2894552,0.391226,-0.07149885
1.255278,-0.6124682,-0.1068466,0.3348236,0.3775741,-0.02715809
1.264266,-0.7091514,-0.3045529,0.4693526,0.1401671,0.1731331
1.222866,-0.7619723,-0.5024177,1.104424,0.0789246,0.38862
0.9674946,-0.6527638,-0.5832533,1.449653,0.4291347,0.4409421
0.7471787,-0.3820491,-0.5222757,0.8547953,0.9557408,0.3117231
0.685675,-0.2346659,-0.3934136,0.1123715,0.7083516,0.2502754
0.8031734,-0.2344986,-0.278181,-0.2048962,-0.1343476,0.1066379
0.8514911,-0.4012443,-0.1941094,-0.3407205,-0.8125935,-0.1757101
0.8629367,-0.6729643,-0.1783764,-0.1130568,-0.8950428,-0.3865608
0.891587,-0.7247499,-0.15132,0.3752343,-0.4113002,-0.5875984
0.804106,-0.6115857,-0.1460335,0.6465782,-0.3820668,-0.7676953
0.7569602,-0.4616719,-0.206656,0.6623388,-0.7101838,-0.8214119
0.6853285,-0.2384623,-0.2257944,0.5129762,-0.9721964,-0.7234414
0.6764148,-0.1515126,-0.2575014,0.4455177,-1.253123,-0.492916
0.8092154,-0.2002225,-0.2843971,0.5757396,-0.8769183,-0.23212
0.8325834,-0.1863736,-0.2721746,0.6685141,-0.3536726,-0.02299712
0.8896137,-0.2146862,-0.2710789,0.6646801,-0.2844706,0.04791312
0.9386352,-0.2210435,-0.2122125,0.630205,-0.2518953,0.023437
0.9015965,-0.1367394,-0.1573352,0.5631568,-0.3653051,0.02670741
0.9576317,-0.140784,-0.1591151,0.4287883,-0.3756962,0.0291206
0.9639779,-0.1437085,-0.1603324,0.2968702,-0.2474806,0.03530343
0.9732363,-0.1527929,-0.1499648,0.2840214,-0.1765405,0.05894657
1.052694,-0.2190196,-0.1032208,0.2846591,-0.035179,0.05521952
1.109904,-0.1927784,-0.07938682,0.2366857,-0.07110597,-0.0261024
1.205748,-0.1565717,-0.1150744,0.1162932,-0.1202718,-0.1761898
1.252527,-0.1544403,-0.1652636,-0.1294917,-0.137064,-0.2357992
1.281197,-0.2428602,-0.2159426,-0.3323696,-0.2326032,-0.2321021
1.281367,-0.4526552,-0.3205424,-0.5338851,-0.2934247,-0.3438225
1.105745,-0.5467736,-0.4863234,-0.8309641,-0.5776453,-0.5226809
0.8978502,-0.5680702,-0.542015,-0.9327974,-0.7822929,-0.6144321
0.7804082,-0.6526306,-0.4893557,-0.6718908,-0.620241,-0.5680868
0.802098,-0.7282689,-0.4545067,-0.1293146,-0.2631905,-0.4772424
0.9964038,-0.6777815,-0.4142996,0.3932036,0.4319687,-0.2938296
1.188232,-0.4116176,-0.3914458,0.4643387,0.926032,0.06236641
1.115145,-0.1036782,-0.3845563,0.09326498,0.530642,0.345789
0.8751053,0.04795307,-0.3535253,-0.3774743,-0.08105239,0.6015695
0.7747307,0.03806697,-0.3150398,-0.6722238,-0.1693619,0.9826576
0.7293064,-0.144468,-0.2735795,-0.6714638,0.09473588,1.06026
0.6997444,-0.4362231,-0.237515,-0.5512447,0.509018,0.7808543
0.6937208,-0.5536925,-0.2172313,-0.5273096,0.679406,0.5394406
0.6569415,-0.4532482,-0.2045848,-0.4895068,0.5708067,0.3319604
0.7453746,-0.4208603,-0.1536824,-0.3577739,0.628163,0.203455
0.7856867,-0.357955,-0.0814379,-0.2862704,0.36566,0.2270641
0.7475063,-0.2421471,-0.06607369,-0.3147828,-0.1811296,0.275186
0.7981427,-0.2910728,-0.08921334,-0.3338188,-0.2989402,0.3164341
0.8242396,-0.3279174,-0.09933499,-0.250608,-0.1191633,0.2666292
0.9181039,-0.3358898,-0.1009669,-0.1945901,0.1780107,0.1389788
0.9980335,-0.334694,-0.1219536,-0.3349121,0.4350769,0.04882477
0.9741357,-0.2759698,-0.1382233,-0.5396418,0.4918454,0.01352502
1.003858,-0.3666226,-0.1073333,-0.5861256,0.2017993,0.06878465
1.083731,-0.4876706,-0.04408543,-0.2367817,-0.1489112,0.08296574
1.213121,-0.5254024,0.001975442,0.3429543,0.06309329,-0.03946268
1.273427,-0.5755399,-0.07677385,0.5414557,0.2079118,-0.09793484
1.349033,-0.6617531,-0.3263665,0.5203819,0.08159694,0.07282514
1.445574,-0.7756697,-0.6094113,1.01316,0.3992395,0.3383421
1.1179,-0.6450998,-0.7036128,1.553836,0.8832055,0.3824443
0.6463288,-0.3455162,-0.546704,1.038573,1.085419,0.238608
0.6118684,-0.2163538,-0.3909569,0.106247,0.7643411,0.1315252
0.7695918,-0.1978575,-0.3467048,-0.2939753,-0.01196318,-0.003432426
0.832603,-0.3649528,-0.2707034,-0.5488523,-0.614449,-0.1766706
0.9122825,-0.6439719,-0.2086772,-0.2826584,-0.6169283,-0.3213469
0.9137959,-0.6686065,-0.1873005,0.4662402,-0.2294797,-0.5015564
0.7772014,-0.4773324,-0.1832789,0.6509292,-0.1428141,-0.682354
0.7225064,-0.253872,-0.2394024,0.5991737,-0.3587577,-0.724539
0.7289292,-0.1258314,-0.2685486,0.4146853,-0.5623016,-0.6414322
0.7510684,-0.1352372,-0.2681688,0.0156153,-0.7880984,-0.4698262
0.8080122,-0.159527,-0.2609753,0.03345952,-0.7307171,-0.1536802
0.8313629,-0.2133843,-0.224513,0.2357176,-0.5081164,0.06750468
0.8766567,-0.2856674,-0.2162208,0.4507121,-0.3620126,0.09174736
0.8904827,-0.2694712,-0.2004124,0.5977444,-0.2508375,0.1700865
0.8919744,-0.2388125,-0.1851771,0.5149271,-0.3502033,0.1811851
0.9507153,-0.2354859,-0.2011705,0.4658566,-0.346453,0.1163394
0.9660667,-0.2034264,-0.1944738,0.3503801,-0.1569947,0.1256279
0.9997944,-0.2171507,-0.1412049,0.3525869,-0.02382005,0.05995626
1.037118,-0.2611344,-0.04408915,0.4884407,0.07471724,-0.01360096
1.072726,-0.197998,-0.02507717,0.4072574,-0.05609696,-0.1037047
1.178897,-0.09907291,-0.119909,0.1862875,-0.1758097,-0.2334956
1.236835,-0.07640319,-0.2114313,-0.1863269,-0.1225609,-0.2052242
1.289661,-0.1993523,-0.2852213,-0.4144273,-0.1580508,-0.2021235
1.300302,-0.4367636,-0.385933,-0.6201006,-0.2260609,-0.3482693
1.069016,-0.5463023,-0.5107094,-1.13857,-0.4547628,-0.5059713
0.7456952,-0.5837589,-0.5380532,-1.23193,-0.7472298,-0.5912691
0.6786864,-0.68569,-0.4686531,-0.76911,-0.7026212,-0.5084928
0.9581926,-0.7203949,-0.4343817,-0.1595603,-0.2415941,-0.3369865
1.244407,-0.6845481,-0.3990827,0.4760562,0.5756549,-0.1227837
1.259738,-0.4961641,-0.3767711,0.6287653,1.082123,0.05999196
1.056291,-0.1439022,-0.3683723,0.28025,0.6643954,0.171813
0.8216307,0.04146892,-0.2947709,-0.1124072,0.05060963,0.5381858
0.7364276,-0.03441298,-0.2382512,-0.4412357,-0.06405488,0.9410359
0.6854635,-0.2085435,-0.2123589,-0.6453087,0.06554243,0.9063217
0.6343003,-0.3760786,-0.1877221,-0.6712731,0.310718,0.712014
0.6860181,-0.443257,-0.2010182,-0.6241475,0.4542597,0.5515126
0.7043985,-0.4159992,-0.1942414,-0.6170501,0.3635316,0.3683429
0.7605381,-0.3979207,-0.1570012,-0.5556882,0.3753751,0.2741899
0.8536414,-0.3526837,-0.1044036,-0.4607392,0.3001896,0.238512
0.7936927,-0.293387,-0.04726292,-0.5034022,0.09773145,0.2451746
0.7753054,-0.3128316,-0.05094395,-0.530805,0.05647954,0.2556115
0.8654721,-0.3083601,-0.06185298,-0.4705655,0.1128511,0.1598512
0.9353732,-0.2990613,-0.06279066,-0.4995028,0.3081251,0.0414854
0.9928243,-0.3294385,-0.1113078,-0.6605064,0.3949408,-0.02616786
0.9973621,-0.3550597,-0.1238245,-0.7894452,0.2040736,-0.02535298
1.064827,-0.4616053,-0.06873875,-0.5747127,0.03661813,-0.004446061
1.224643,-0.5453575,-0.0379349,-0.08344655,0.032046,-0.04476801
1.318492,-0.6106999,-0.125778,0.2537868,0.1375377,-0.03339869
1.46485,-0.8011547,-0.3513303,0.4069815,0.2516662,0.115745
1.546031,-0.8826847,-0.5238996,0.6666292,0.4962291,0.3498207
1.159061,-0.6845046,-0.5064071,0.98547,0.8253863,0.4565145
0.6694624,-0.4436198,-0.4862207,0.9116404,1.08998,0.2815926
0.677931,-0.3916987,-0.5091405,0.3888553,1.095464,0.09456253
0.8003676,-0.3238616,-0.3586567,-0.1460699,0.4128689,-0.01510932
0.6889932,-0.1553732,-0.2092943,-0.4956797,-0.5569048,-0.2003427
0.7158127,-0.2348744,-0.2714801,-0.4923049,-1.038539,-0.3063948
0.8150454,-0.492797,-0.2778864,-0.04622257,-0.7088198,-0.3214107
0.8003347,-0.6293715,-0.2025523,0.5353538,-0.1968958,-0.4397869
0.8202564,-0.5963903,-0.2204979,0.7896378,-0.3544358,-0.5979932
0.7788075,-0.4310838,-0.2609863,0.5580992,-0.5647,-0.6250887
0.7433923,-0.2824813,-0.3024997,0.4205832,-0.7051691,-0.4988825
0.7974137,-0.2002414,-0.3219806,0.4933906,-0.8304868,-0.3111361
0.8434088,-0.2178089,-0.2888823,0.4724628,-0.4145879,-0.1569973
0.9519112,-0.2832353,-0.2634938,0.5876334,-0.187966,-0.1012384
0.9782181,-0.2229569,-0.2283141,0.5732507,-0.1994651,-0.05902934
0.9239392,-0.1871958,-0.1750889,0.443512,-0.2430432,0.07723816
0.9603247,-0.1521013,-0.1522384,0.4782556,-0.5257086,0.1866231
0.9706389,-0.07210758,-0.1599792,0.3371102,-0.4873185,0.2208798
0.9901447,-0.1660053,-0.1631259,0.299539,-0.3003148,0.2435658
1.029796,-0.2358486,-0.1394346,0.4413487,0.06967005,0.1830862
1.024239,-0.2246096,-0.09554121,0.4249094,0.4227049,0.05287375
1.049065,-0.2375993,-0.07684095,0.2759818,0.09365855,-0.07738715
1.093673,-0.178018,-0.1481562,-0.1080245,-0.131951,-0.2184208
1.182666,-0.214062,-0.2487362,-0.3489798,-0.04360035,-0.3045212
1.245881,-0.3974236,-0.276599,-0.309289,-0.103401,-0.3434212
1.116709,-0.5746231,-0.3537941,-0.5556777,-0.3272743,-0.4949586
0.874983,-0.5883376,-0.5129437,-0.9429162,-0.7355781,-0.7138443
0.7632292,-0.5505391,-0.5344979,-0.9198973,-0.9101209,-0.7146629
0.9559308,-0.6933775,-0.4625911,-0.4428398,-0.5408084,-0.4474114
1.298938,-0.6743742,-0.4632436,0.2070501,0.3040457,-0.09606955
1.40544,-0.4481971,-0.453244,0.5658382,0.9715555,0.2094277
1.119322,-0.2311196,-0.3726003,0.2057465,0.6307557,0.3524163
0.7487941,0.0005731536,-0.2715112,-0.3086449,-0.008486096,0.5487267
0.6769909,-0.04961971,-0.2327229,-0.4300265,0.04567958,0.8933056
0.7207144,-0.275623,-0.2412656,-0.5837401,0.3315352,0.8961956
0.637098,-0.4242018,-0.1881846,-0.5642636,0.5577028,0.6551051
0.6111607,-0.5049149,-0.1436025,-0.41388,0.6773442,0.4931017
0.6437255,-0.383651,-0.1328703,-0.5416853,0.3126298,0.2846714
0.6963697,-0.3287799,-0.09423496,-0.452778,0.05123851,0.204237
0.8136877,-0.3675605,-0.08815188,-0.3491097,0.07068759,0.2165501
0.8261689,-0.3244439,-0.07631669,-0.4257728,-0.03512604,0.1786423
0.8089286,-0.374708,-0.05141265,-0.3392049,-0.002124685,0.1786733
0.8800515,-0.3647529,-0.06768047,-0.3557258,0.1385641,0.07474548
0.9306398,-0.3137287,-0.06849758,-0.4395793,0.4752103,-0.02748384
0.9735472,-0.3338797,-0.07843174,-0.550271,0.6596242,-0.04343827
0.9980588,-0.3577378,-0.09048542,-0.6373089,0.1982399,-0.06001301
1.061978,-0.478656,-0.04551537,-0.3526147,-0.08676075,-0.04062878
1.194485,-0.5163777,0.001805938,0.1013756,0.1670339,-0.1001389
1.212202,-0.4777744,-0.02249434,0.3804958,0.3602178,-0.1467598
1.220722,-0.5273604,-0.168558,0.3091528,0.1725948,-0.04185382
1.29613,-0.5376628,-0.3562374,0.3240413,0.1124966,0.2191878
1.171655,-0.5207272,-0.5146325,0.8672376,0.4969655,0.5139314
0.8623951,-0.4698791,-0.6746902,1.12366,0.900962,0.4593879
0.6524132,-0.4078917,-0.6510591,0.4354497,1.131652,0.2405736
0.7052554,-0.39706,-0.4096432,-0.506235,0.7280646,0.1252487
0.8256886,-0.3694744,-0.2521539,-0.7577389,-0.1210772,-0.1063126
0.7831337,-0.4005743,-0.1966992,-0.5896937,-0.4783897,-0.257145
0.8260435,-0.5497587,-0.1743882,-0.2831936,-0.354904,-0.3081874
0.9004281,-0.662551,-0.1876481,0.4273031,-0.2145974,-0.5304225
0.7622346,-0.522224,-0.1807547,0.5501979,-0.4265572,-0.6515069
0.7054587,-0.2672367,-0.2604401,0.1410096,-0.6346824,-0.6108709
0.7661929,-0.2041431,-0.3043532,0.2577229,-0.5985055,-0.5018638
0.8181538,-0.2200952,-0.2477292,0.2644277,-0.5332904,-0.2301667
0.8852365,-0.2151686,-0.2599762,0.2343228,-0.2410308,-0.04877807
0.8897761,-0.2354417,-0.2106386,0.4124327,-0.2446073,0.01617728
0.9022397,-0.2203943,-0.1816012,0.3314167,-0.4547548,0.1311073
0.916194,-0.2061357,-0.1983446,0.3937935,-0.4167203,0.1959465
0.9337485,-0.1898439,-0.1354713,0.414208,-0.5548529,0.2544896
0.9801827,-0.173341,-0.1752088,0.2952026,-0.3804211,0.2818284
0.9739483,-0.2323858,-0.184192,0.3684821,0.01635742,0.2309056
0.9935757,-0.3130577,-0.08938002,0.4462476,0.05227766,0.1325867
1.026747,-0.3160607,-0.06925196,0.5170933,-0.02615491,-0.1423069
1.089195,-0.1389082,-0.1374407,0.1697772,-0.2073402,-0.4186284
1.211111,0.03662727,-0.2607222,-0.3600336,-0.181296,-0.4229643
1.281758,-0.1376941,-0.2655247,-0.2974923,-0.05894755,-0.2923153
1.294035,-0.4339635,-0.2582809,-0.2623848,-0.1567116,-0.2583149
1.126866,-0.5269205,-0.3969996,-0.6853028,-0.3568869,-0.4374482
0.8170627,-0.5615554,-0.5068349,-0.9867241,-0.7826513,-0.684417
0.7078133,-0.6606347,-0.541112,-0.7942096,-0.8820003,-0.707724
0.8842092,-0.8069505,-0.4698293,-0.2290446,-0.5133516,-0.5397107
1.184718,-0.8361099,-0.4020795,0.4164106,0.120256,-0.3145887
1.373906,-0.5930636,-0.4448015,0.7442423,1.112407,-0.01814625
1.220536,-0.2418925,-0.408439,0.4513201,1.242919,0.2636241
0.8817263,0.04781045,-0.2998825,0.02433995,0.3622377,0.5360572
0.713817,0.09629449,-0.1946062,-0.2746148,-0.06446387,0.7908502
0.6476356,-0.1417933,-0.11739,-0.6008623,0.04364894,0.7854479
0.6022533,-0.3624919,-0.1272736,-0.5647119,0.2391123,0.624226
0.6411873,-0.4495292,-0.134188,-0.4577733,0.3821542,0.5011484
0.6478533,-0.4254787,-0.1303846,-0.5287139,0.3541045,0.3293933
0.7198774,-0.3511235,-0.1446586,-0.3842417,0.2599722,0.2198293
0.8190635,-0.3342476,-0.1250386,-0.3430405,0.105392,0.1811802
0.7876008,-0.3222374,-0.09440518,-0.3811299,0.06751431,0.1104802
0.8010145,-0.3461932,-0.06113942,-0.3273084,0.1042592,0.09308945
0.8522307,-0.3595012,-0.03808425,-0.3325235,0.03715175,0.04777542
0.922385,-0.3118422,-0.0578261,-0.2787391,0.1117825,-0.0470553
1.017116,-0.3137881,-0.09961037,-0.4234257,0.1500114,-0.06742136
1.034433,-0.3526072,-0.1316139,-0.5786518,-0.05270906,-0.03263742
1.108103,-0.4703528,-0.1104137,-0.3466055,-0.1423351,-0.003062905
1.228849,-0.574984,-0.03436293,0.04472324,0.1438932,-0.01071282
1.264354,-0.5546378,-0.01852498,0.3706407,0.4498827,-0.005534613
1.303377,-0.6153242,-0.2170632,0.3858917,0.2489607,0.07062484
1.352884,-0.7318027,-0.5456407,0.4895511,0.139509,0.2648469
1.18823,-0.7061163,-0.6754454,0.9585619,0.616964,0.4534887
0.8633175,-0.5368584,-0.5885072,0.9846207,0.9420528,0.381706
0.7295897,-0.2781662,-0.5088316,0.3538033,0.7943876,0.260665
0.7273532,-0.09048087,-0.4094007,-0.3447248,0.3316108,0.1853891
0.7366772,-0.183237,-0.3245343,-0.5710636,-0.3296645,-0.1129856
0.8330945,-0.4629588,-0.276297,-0.2957851,-0.6507937,-0.333349
0.8856854,-0.6685515,-0.1392951,0.01309797,-0.3511363,-0.3744803
0.8426391,-0.6701409,-0.1189902,0.3959182,-0.1325389,-0.5915774
0.764985,-0.4865269,-0.2051638,0.6708875,-0.4060018,-0.7347339
0.7227688,-0.3097352,-0.1878381,0.3979282,-0.6237533,-0.6667543
0.7496562,-0.1581077,-0.2652681,0.1839715,-0.7706961,-0.5622455
0.7827,-0.06964745,-0.3307058,0.2043884,-0.8173757,-0.2910487
0.8467333,-0.194273,-0.2649162,0.2489504,-0.4260124,-0.0154942
0.8848627,-0.2619394,-0.2715277,0.5427437,-0.1597273,0.06104408
0.8723606,-0.2468811,-0.2243213,0.5953808,-0.1870454,0.08659295
0.9033376,-0.2632078,-0.1606849,0.4914002,-0.2498433,0.07939713
0.9440348,-0.1899576,-0.181386,0.587889,-0.3316973,0.0423497
0.9740106,-0.1940907,-0.1579396,0.456119,-0.253599,0.02947284
0.9917507,-0.2173626,-0.1467953,0.3860857,-0.1751718,0.02256462
1.021154,-0.18376,-0.08784794,0.4891933,-0.08895405,0.004637104
1.081587,-0.1731012,-0.03598242,0.4337648,-0.05704783,-0.04572738
1.120233,-0.06995432,-0.1672096,0.1731293,-0.2302395,-0.1121468
1.195393,-0.05655923,-0.2865316,-0.2826643,-0.236872,-0.1572105
1.304471,-0.2530486,-0.2910558,-0.4083147,-0.1224795,-0.1730654
1.306795,-0.5039536,-0.3281253,-0.341242,-0.05795822,-0.2548142
1.12647,-0.6328857,-0.4572925,-0.6547248,-0.1728773,-0.5016477
0.8538441,-0.6223106,-0.5238803,-0.8965299,-0.4065544,-0.7613731
0.7582192,-0.7112372,-0.452294,-0.7226559,-0.380567,-0.7938573
0.9161537,-0.7739194,-0.4001101,-0.3204891,-0.2911089,-0.5821914
1.09114,-0.6616097,-0.3802638,0.1906513,0.1468998,-0.2329437
1.133624,-0.4450953,-0.3731961,0.5034356,0.9831374,0.1258561
1.044706,-0.1014298,-0.375222,0.2988399,1.076181,0.2912351
0.8833701,0.04533329,-0.3227513,-0.1186275,0.524539,0.4090397
0.7560021,-0.1058019,-0.2625902,-0.5708325,0.2260774,0.7458519
0.6757568,-0.2648837,-0.1791098,-0.9686299,0.2268823,0.8977993
0.6540629,-0.4650235,-0.1191315,-0.7632349,0.3885557,0.6851671
0.685711,-0.5479807,-0.1609277,-0.5363768,0.4867275,0.5051775
0.6889092,-0.3826097,-0.1771854,-0.6666803,0.3732866,0.3695047
0.7443341,-0.3090861,-0.1629871,-0.4976038,0.2579404,0.2748938
0.807222,-0.3218297,-0.1429459,-0.4493385,0.1696032,0.3066437
0.767366,-0.3293052,-0.06334023,-0.476723,0.0236198,0.3223894
0.7822441,-0.4108526,-0.03477626,-0.3028759,-0.07423225,0.3091129
0.8379974,-0.3847317,-0.06463122,-0.3571269,-0.07792993,0.2400229
0.9025037,-0.327572,-0.06304606,-0.3160311,-0.001762027,0.08156896
0.9869265,-0.3437318,-0.07595173,-0.3209555,0.1906144,-0.04297116
0.961576,-0.3264134,-0.09838893,-0.525023,0.3355541,-0.05776279
0.9706124,-0.3837508,-0.1066837,-0.5246767,0.1792044,-0.002092625
1.059225,-0.4394024,-0.09823757,-0.3067394,-0.003410735,0.01621689
1.108243,-0.4655106,-0.03644195,0.2097926,0.1209619,-0.04363816
1.213417,-0.5528378,0.01389116,0.5041181,0.1840868,-0.06958037
1.268245,-0.5714814,-0.06019049,0.4626027,0.09811168,0.09253549
1.193316,-0.618742,-0.3383026,0.763877,0.2492811,0.3254003
1.140846,-0.7175426,-0.6896173,1.039632,0.6259412,0.3547073
1.039031,-0.6431074,-0.7417525,0.754853,0.9742971,0.2378543
0.826866,-0.3940606,-0.5375735,0.1157239,0.8731599,0.1317245
0.6603503,-0.1659707,-0.4302521,-0.3525021,0.3532069,-0.02179436
0.6765443,-0.1839366,-0.3261069,-0.4156489,-0.1669488,-0.2059023
0.7838855,-0.3909087,-0.1701827,-0.2017193,-0.5961607,-0.3035743
0.7910008,-0.5587947,-0.1644437,0.2116401,-0.5337751,-0.4168636
0.8146861,-0.636009,-0.1954951,0.5903374,-0.3254606,-0.6344911
0.8250634,-0.5480474,-0.2015789,0.743071,-0.5495144,-0.766432
0.7227851,-0.3417004,-0.2657658,0.612876,-0.5661922,-0.7351263
0.7763923,-0.2136261,-0.3131983,0.4673743,-0.6073097,-0.5600355
0.8337816,-0.1543159,-0.3243335,0.4792078,-0.7425899,-0.2481736
0.8147851,-0.1974873,-0.2844511,0.4981411,-0.4197761,-0.03071004
0.9166679,-0.2790036,-0.2330525,0.6571193,-0.2828867,0.01461897
0.9049118,-0.2308122,-0.2259779,0.6520765,-0.3323608,0.03839403
0.8883016,-0.2033766,-0.1894144,0.5098413,-0.3810811,0.05190766
0.9605431,-0.1759779,-0.1689554,0.5270301,-0.513136,0.06095125
0.9584544,-0.138196,-0.2004674,0.3417698,-0.2832155,0.05920362
1.010363,-0.2253767,-0.1946408,0.3051229,0.003046319,0.03120132
1.01855,-0.2749128,-0.1265622,0.4609207,0.2067564,0.005617153
1.01027,-0.2741463,-0.06013757,0.4083201,0.3052868,-0.08769886
1.090565,-0.1985439,-0.08022708,0.2988735,0.02480462,-0.2135283
1.1418,-0.08621251,-0.1454077,-0.02234989,-0.1628747,-0.2465527
1.235567,-0.1974735,-0.182259,-0.2267521,-0.1178096,-0.2234927
1.273618,-0.3698073,-0.2476874,-0.1718699,-0.2126589,-0.2607978
1.146902,-0.4844572,-0.3985234,-0.4787306,-0.4933936,-0.449852
0.9553146,-0.6010958,-0.554458,-0.9097703,-0.5684135,-0.6863225
0.8132524,-0.6657425,-0.5595491,-0.8463652,-0.4344132,-0.7286547
0.9172613,-0.7265675,-0.4508399,-0.2856894,-0.3620614,-0.5810823
1.169626,-0.6836108,-0.4104858,0.3249248,0.2145229,-0.3365343
1.279068,-0.4802147,-0.4174728,0.588138,1.152011,-0.00638286
1.144875,-0.2137349,-0.3549289,0.4045305,1.330747,0.1815302
0.8666209,0.03010894,-0.2433485,0.00859051,0.6432431,0.306043
0.7155794,0.02927037,-0.1849638,-0.4040916,0.02807031,0.6759055
0.698389,-0.1892541,-0.1766286,-0.7110121,0.07296503,0.8243282
0.6757526,-0.3979882,-0.1312917,-0.562654,0.2956069,0.6254258
0.6940563,-0.5091426,-0.1226493,-0.3621162,0.3653369,0.5445441
0.7004288,-0.4603979,-0.1516426,-0.3665878,0.3828795,0.3687633
0.7313121,-0.3637102,-0.1277275,-0.2488961,0.2319224,0.1757995
0.8179803,-0.2973747,-0.133993,-0.2873399,0.04308698,0.2326571
0.817969,-0.2573943,-0.1373327,-0.2560388,-0.04830559,0.2517525
0.8123185,-0.3120756,-0.09626698,-0.1685213,-0.05139488,0.2425632
0.8592817,-0.3249673,-0.06903042,-0.3036997,0.02628725,0.2069277
0.9123397,-0.3079651,-0.03360626,-0.2530242,0.1285539,0.0680712
0.9661934,-0.3329317,-0.04162309,-0.3543746,0.2742295,-0.01851723
0.9696888,-0.2786665,-0.08095695,-0.5905701,0.3199111,-0.04165811
0.9808578,-0.2661433,-0.09504323,-0.6022254,0.1878453,-0.01560088
1.007924,-0.3484501,-0.07801059,-0.4320508,0.0869682,-0.002108939
1.049776,-0.4728225,0.0007991767,0.1273463,0.1471465,-0.0237292
1.178564,-0.5915812,0.03179752,0.4788408,0.2347613,-0.004155015
1.3033,-0.590203,-0.08951694,0.4427474,0.2743549,0.06330778
1.395878,-0.6575702,-0.342328,0.6304514,0.4100663,0.2449158
1.399308,-0.7502923,-0.5632757,0.9082932,0.571149,0.3868221
1.080952,-0.5660838,-0.5586286,0.8843452,0.6684969,0.2617663
0.6589118,-0.3075865,-0.4651508,0.2867004,0.6021541,0.1290606
0.6163397,-0.225972,-0.4037232,-0.3881158,0.1443421,0.1555083
0.7798699,-0.2632407,-0.2882032,-0.4775641,-0.4384021,0.03972092
0.8122017,-0.4161763,-0.2016221,-0.2691122,-0.6897894,-0.2203612
0.8783504,-0.6549102,-0.1894058,0.0002611643,-0.4723212,-0.4088891
0.9351706,-0.6999816,-0.1759666,0.4200685,-0.2453662,-0.5828596
0.8123707,-0.4797418,-0.208475,0.628814,-0.4309787,-0.6710134
0.7484358,-0.2967293,-0.2670346,0.3837316,-0.5934081,-0.6107459
0.8016376,-0.2301852,-0.2805607,0.2952045,-0.6843187,-0.4771806
0.8317406,-0.1900943,-0.2959423,0.3790555,-0.6987974,-0.2385031
0.859425,-0.2058564,-0.2819894,0.3576371,-0.3905582,-0.06922438
0.888186,-0.2384223,-0.2229141,0.5452542,-0.2393859,-0.055488
0.9163607,-0.2173293,-0.1985231,0.5430645,-0.2120381,-0.03101163
0.9223005,-0.1836125,-0.1849412,0.4005769,-0.2276873,-0.002203108
0.9210935,-0.1664615,-0.1774974,0.4454799,-0.3708102,0.02386929
0.960256,-0.1427833,-0.1890597,0.3219539,-0.2383159,0.06536078
0.9764201,-0.1664843,-0.1760654,0.3023082,-0.1350578,0.1033531
0.9710686,-0.220493,-0.1368545,0.3653491,-0.06655613,0.1313986
0.9828259,-0.2228941,-0.06431516,0.3823863,0.07019908,0.07446071
1.00288,-0.1802189,-0.04100965,0.419288,-0.1655377,-0.03995768
1.064578,-0.09586303,-0.162068,-0.007449005,-0.3168064,-0.1319356
1.18856,-0.1001712,-0.2724721,-0.4504888,-0.1524648,-0.1938978
1.307069,-0.2945433,-0.2570855,-0.3302826,-0.05294834,-0.2152791
1.298568,-0.4995657,-0.291263,-0.2965179,-0.1111941,-0.2783334
1.134815,-0.5419401,-0.4462772,-0.6840438,-0.326049,-0.4733184
0.9044326,-0.5297409,-0.5390929,-0.8892066,-0.4726218,-0.6865191
0.7794461,-0.659138,-0.4985878,-0.6142883,-0.3691867,-0.7243408
0.8538806,-0.7457623,-0.3792734,-0.0657038,-0.0433153,-0.5456468
1.027213,-0.6377732,-0.276472,0.5995505,0.4319306,-0.2428531
1.169232,-0.4562357,-0.3072466,0.7854942,0.8315935,0.02971399
1.100838,-0.154245,-0.345816,0.2844126,0.5676716,0.1639369
1.010184,-0.5686608,-0.2853273,-0.01649194,0.3365259,-0.7257774
0.783608,-0.4445513,-0.1886198,0.05399614,0.1019965,-0.481929
0.7143705,-0.330622,-0.1500407,0.04518852,-0.1605056,-0.3738659
0.6920722,-0.3132943,-0.2100769,-0.03930451,-0.4662389,-0.4418597
0.7003648,-0.2609542,-0.2035739,-0.09581993,-0.7257842,-0.4091649
0.7194972,-0.2018731,-0.2294219,-0.1441947,-0.6659176,-0.3011249
0.7377325,-0.1915907,-0.2540089,-0.09513191,-0.5098644,-0.1896795
0.7996188,-0.1902162,-0.218948,0.02979423,-0.2483778,-0.05498655
0.7820307,-0.2120875,-0.2390094,0.1411579,-0.0686729,0.02971822
0.7283357,-0.2376827,-0.2125258,0.2388565,-0.2325723,0.09161801
0.7155547,-0.2412019,-0.1885695,0.3228216,-0.4135309,0.1710496
0.7852979,-0.2427901,-0.216938,0.4409481,-0.3911819,0.1771114
1.003321,-0.2666658,-0.2012816,0.5245436,-0.1857288,0.1025911
1.178132,-0.274718,-0.2083401,0.5000656,0.1370927,-0.02417527
1.238884,-0.2258689,-0.1725207,0.4685305,0.3201616,-0.160853
1.239447,-0.1135404,-0.08449145,0.3389263,0.2606654,-0.2162188
1.232435,0.02299779,-0.04939172,0.1087857,0.1263638,-0.1956353
1.314143,0.01177534,-0.05459283,-0.08029453,-0.1174709,-0.1202068
1.393211,-0.1305375,-0.1374652,-0.3752014,-0.297485,-0.01653356
1.397528,-0.2637879,-0.2807643,-0.7865078,-0.2549655,0.04658363
1.198495,-0.4048658,-0.4385117,-1.197453,-0.5695773,0.04361814
0.8205208,-0.4705314,-0.5656652,-1.51314,-1.209,0.01808864
0.6955443,-0.5197895,-0.5772152,-1.407467,-1.340215,0.01594404
0.9284107,-0.6958787,-0.5251477,-0.8702692,-0.621079,-0.001513737
1.279003,-0.7797438,-0.5074086,-0.1957996,0.7634325,0.01818519
1.453134,-0.6422207,-0.4887608,0.4101884,1.899459,0.0957494
1.13505,-0.3997655,-0.3481472,0.458177,1.720331,0.1418524
0.6373478,-0.1671488,-0.1733103,-0.007556229,0.678465,0.3084338
0.5368258,-0.1102025,-0.1758173,-0.2326454,-0.07433114,0.6482546
0.6081509,-0.2044335,-0.2384319,-0.2101742,-0.2347465,0.8431214
0.5739118,-0.2650262,-0.2319399,-0.2356084,0.2184387,0.7340619
0.6258416,-0.3312539,-0.2548704,-0.3493501,0.7813247,0.4890105
0.6451586,-0.3964587,-0.198986,-0.4997134,0.8389304,0.1932489
0.6173969,-0.3186734,-0.05799562,-0.4959816,0.6337399,-0.005652006
0.6878443,-0.233324,-0.07265113,-0.5875609,0.1805654,0.133016
0.71992,-0.2459002,-0.1078933,-0.7873442,-0.2210224,0.2717128
0.7904778,-0.3065749,-0.05060147,-0.7796622,-0.2153216,0.2053852
0.9038232,-0.4416459,-0.03872519,-0.6614159,-0.1178992,0.141841
0.9476843,-0.4767045,-0.01382146,-0.5339824,0.243557,-0.0661109
1.005956,-0.3310018,-0.01252606,-0.5568487,0.7232753,-0.2008784
1.041487,-0.2101502,-0.05106996,-0.7338154,0.8590955,-0.1044653
1.028301,-0.2078899,-0.03566637,-0.9512682,0.4349141,-0.04482332
1.009405,-0.2935503,-0.04228314,-1.032502,-0.3097266,0.1418915
1.055574,-0.3654779,-0.04329894,-0.5720561,-0.3886286,0.2734038
1.214114,-0.4551998,-0.02905442,0.0352888,0.2019983,0.1941937
1.352374,-0.6165716,-0.06881742,0.2047608,0.6529709,0.2948994
1.295686,-0.7437839,-0.2141867,0.360003,0.5081692,0.5020163
1.040261,-0.85553,-0.520347,0.8983482,0.3043627,0.6429236
0.8064459,-0.877951,-0.6940205,1.257106,0.6505165,0.6519051
0.7389809,-0.7422959,-0.568677,0.9141045,0.6990953,0.3811547
0.8724981,-0.5166535,-0.4452908,0.2902447,0.4013685,-0.0189754
1.012356,-0.2148162,-0.3959376,-0.3275178,-0.06824544,-0.3400198
0.9666115,-0.2209543,-0.3505299,-0.6767111,-0.7148919,-0.5560241
0.9935056,-0.5457544,-0.2885081,-0.1162176,-0.3363611,-0.6004423
0.9720156,-0.6047555,-0.1242934,0.5770581,0.1443817,-0.5312986
0.7334388,-0.5130677,-0.04680409,0.4682447,-0.3837183,-0.6272055
0.5833727,-0.4084287,-0.1014485,0.3244231,-0.7946553,-0.7033227
0.5256647,-0.204948,-0.09171072,0.3496259,-1.186026,-0.5690451
0.5846027,-0.1321957,-0.1652831,0.2061551,-1.448313,-0.4341535
0.7388716,-0.1030444,-0.2689582,0.2434585,-0.8984276,-0.1495136
0.8333738,-0.1397243,-0.2651266,0.324001,-0.323839,0.1097408
0.8933932,-0.252619,-0.2787369,0.4031709,-0.0563248,0.07997057
0.8353922,-0.2507137,-0.206387,0.6237998,-0.03103765,0.07373363
0.8274473,-0.2611747,-0.1273495,0.6262794,-0.1860079,0.05584285
0.9560881,-0.2061948,-0.1458242,0.5584791,-0.06367105,0.009768816
1.036388,-0.1381794,-0.1339853,0.558734,-0.008659718,0.04495161
1.100222,-0.1847847,-0.1254275,0.4482273,-0.0266528,0.02738651
1.106413,-0.167369,-0.05798068,0.4103455,0.1300412,-0.04508354
1.147155,-0.1378151,0.002542258,0.3547286,0.01387994,-0.1936213
1.258441,-0.1102351,-0.06354577,0.08436048,-0.09040096,-0.304824
1.308603,-0.1266596,-0.1596218,-0.2538505,-0.103409,-0.2813439
1.354442,-0.2764343,-0.2999071,-0.5350054,-0.2660912,-0.2696649
1.206214,-0.4511385,-0.4415914,-0.7518376,-0.3303951,-0.299093
0.8969252,-0.5897539,-0.4969351,-0.9796572,-0.5459129,-0.3861286
0.8111599,-0.6680934,-0.4508994,-1.013099,-0.6554685,-0.4531207
0.998439,-0.7364658,-0.3939013,-0.5403468,-0.1066366,-0.3024425
1.269594,-0.7069643,-0.4051456,0.04028993,0.676591,-0.0214196
1.317754,-0.4899561,-0.3634681,0.1289341,1.022476,0.1513652
1.134598,-0.2711581,-0.3165473,-0.05087409,0.7663137,0.2991124
0.9092757,-0.1967384,-0.286032,-0.06665399,0.5501468,0.5375901
0.6729376,-0.2283552,-0.1856768,-0.1357041,0.5155561,0.6531257
0.5747438,-0.2132906,-0.1581428,-0.3192886,0.3046883,0.5995454
0.5743167,-0.2359657,-0.1874738,-0.4428807,0.3553088,0.4929472
0.5392705,-0.3155598,-0.158554,-0.5878279,0.5481806,0.3498667
0.5418432,-0.3050316,-0.1162567,-0.4747063,0.4861751,0.2542897
0.5795936,-0.3162001,-0.07547427,-0.2770552,0.4138045,0.2356717
0.6270902,-0.2684567,-0.05890648,-0.429633,0.1258232,0.2632787
0.6711756,-0.1998847,-0.06540026,-0.4789007,-0.2426079,0.3117837
0.7230683,-0.2721665,-0.05513475,-0.460716,-0.2529247,0.317659
0.8320376,-0.323574,-0.03694814,-0.5575796,-0.1204397,0.2070119
0.9931878,-0.3782525,-0.02745541,-0.5360674,0.1672837,-0.03521958
1.101372,-0.3971151,-0.0494638,-0.6185744,0.4428872,-0.1885979
1.103271,-0.3718213,-0.06280967,-0.6827447,0.2605699,-0.06278996
1.165472,-0.4610273,0.005940042,-0.5531533,-0.09332371,0.1217381
1.290288,-0.5472329,0.07570438,-0.2198844,-0.1643101,0.1371575
1.349388,-0.5760158,0.05274782,0.3379383,0.08943935,0.07219017
1.35661,-0.5885656,-0.03721132,0.5156831,0.3323616,0.05052857
1.275952,-0.6815719,-0.3187863,0.5271528,0.2677872,0.1971131
1.088853,-0.8193676,-0.7334502,1.057362,0.3289744,0.4190172
0.884971,-0.7208795,-0.738602,1.354249,0.8857238,0.382984
0.8583349,-0.4341682,-0.3864954,0.8919231,1.251913,0.198811
0.9210655,-0.1665561,-0.273639,0.3164056,0.8069088,0.04935478
0.8600343,-0.1159004,-0.3338162,-0.1311197,-0.2269833,-0.2228954
0.9467256,-0.308384,-0.331125,-0.4399192,-1.01915,-0.5395596
1.040186,-0.4486019,-0.2693737,-0.1785313,-0.6361151,-0.6208459
0.824022,-0.516293,-0.1585973,0.3260379,0.08493861,-0.5138424
0.6231831,-0.4769792,-0.1151236,0.4015769,-0.04271704,-0.5463371
0.5201154,-0.3030965,-0.09907986,0.3954193,-0.3407955,-0.6086676
0.5374107,-0.2631317,-0.1186455,0.43408,-0.7157964,-0.5427764
0.7150193,-0.2135135,-0.213564,0.3311949,-1.120717,-0.5326757
0.8559973,-0.1361711,-0.270895,0.3597361,-0.7712595,-0.3645209
0.9288734,-0.2071671,-0.2935701,0.4263234,-0.3654988,-0.0883879
0.8678176,-0.1967619,-0.2068543,0.5642973,-0.2307078,0.01510402
0.8435198,-0.1858407,-0.08473376,0.8009966,-0.1626376,0.09294093
0.9325818,-0.2220654,-0.07390926,0.7807355,-0.4000723,0.0972969
1.000883,-0.1845333,-0.07621209,0.6638691,-0.3333443,0.07695523
1.148686,-0.216831,-0.07515337,0.5891252,-0.05888342,0.07878604
1.135224,-0.1989822,-0.05561569,0.5739571,0.07192405,-0.007962106
1.060613,-0.05981327,-0.07515322,0.5420165,0.1086791,-0.117892
1.201986,0.08162061,-0.1442488,0.1579632,-0.2661969,-0.3470033
1.230428,0.1115708,-0.144805,-0.2235086,-0.4328886,-0.4767416
1.223194,-0.07307005,-0.1712288,-0.240798,-0.2319295,-0.2855808
1.27993,-0.3161692,-0.2725098,-0.315696,-0.1313358,-0.1592554
1.188406,-0.4998835,-0.3837171,-0.6512247,-0.0547138,-0.2670588
0.940055,-0.5394724,-0.3947542,-0.9775101,-0.2017397,-0.4881151
0.6516058,-0.571508,-0.3546837,-1.161957,-0.5633139,-0.6553055
0.7938213,-0.7186419,-0.4106486,-0.8973412,-0.9314824,-0.4640683
1.430917,-0.6547856,-0.4340298,-0.07080373,-0.5132554,0.01770069
1.863902,-0.5733303,-0.518787,0.3980221,0.9799904,0.3441075
1.664991,-0.5532582,-0.6176566,0.1361583,1.928798,0.4729708
1.118657,-0.3196131,-0.3823516,-0.1272186,1.438086,0.5735811
0.7032506,-0.2384048,-0.07678813,-0.0970533,0.3776667,0.6347842
0.4161275,-0.2249706,-0.009899446,-0.1324553,-0.2183448,0.7111447
0.3635369,-0.100181,-0.1029027,-0.3650231,-0.3764137,0.7335169
0.5462315,-0.1531159,-0.2041427,-0.5160967,-0.1311396,0.6589928
0.5483005,-0.2229389,-0.1945685,-0.6402445,0.4102654,0.5118709
0.6171288,-0.2911378,-0.1462198,-0.6851403,0.3297983,0.2598406
0.7367821,-0.3541307,-0.06980174,-0.6256675,0.1713091,0.1301323
0.6957905,-0.3000704,-0.01983079,-0.6953108,0.1093411,0.1531179
