accx,accy,accz,gyrox,gyroy,gyroz
0.6570508,-0.3261276,0.1449012,-0.02932096,-0.416827,0.2425149
0.7363576,-0.2674384,0.1524977,0.09621789,-0.53514,0.1892599
0.8019556,-0.2082586,0.1532428,0.2663809,-0.5330975,0.07682448
0.8872232,-0.1941084,0.1081921,0.3333936,-0.3687529,-0.07246252
0.9706275,-0.1846396,0.1177715,0.1583441,-0.2177381,-0.1875589
1.128016,-0.1833522,0.1132236,0.05622602,-0.2669656,-0.1689721
1.237372,-0.1611776,0.07648225,-0.04102217,-0.3529355,-0.1331777
1.217035,-0.1387891,0.1069139,-0.1799067,-0.2758953,-0.08016777
1.412615,-0.1144803,0.1524134,-0.2176301,0.04359462,-0.02090803
1.599486,-0.1001085,0.1791118,-0.2687882,0.5635462,-0.1089507
1.465493,-0.2626478,0.1522293,-0.2327583,0.8261362,-0.1324341
1.397219,-0.586352,0.05012151,0.1666667,0.5731335,0.1221314
1.419671,-0.8980478,-0.06018255,0.8371269,0.4547267,0.334521
1.20981,-0.9961468,-0.1466223,1.250094,0.6707118,0.1109424
0.8727105,-0.7706429,-0.09428581,1.299692,0.596509,-0.335746
0.6676385,-0.4187337,0.01511941,1.232116,0.0646977,-0.5976082
0.6571466,-0.1324466,-0.04012545,0.7596755,-0.6292187,-0.6770114
0.8129846,-0.03680775,-0.1018168,0.116594,-0.8518892,-0.5516597
0.9943104,-0.1339897,-0.1408481,-0.01528963,-0.5656601,-0.2607999
0.9994655,-0.2214395,-0.2076091,0.1012517,-0.5179468,-0.01365298
0.9097006,-0.3563924,-0.1164817,0.2482834,-0.5369914,0.05524009
0.8333511,-0.5301965,-0.0162076,0.735449,-0.613831,-0.1282434
0.7266192,-0.5056965,-0.01368997,1.260861,-1.017778,-0.2440639
0.7325623,-0.4234638,-0.02842334,1.427823,-1.070229,-0.1876291
0.852347,-0.2997042,-0.1443989,1.462217,-0.9434904,-0.1012461
0.8902725,-0.03497858,-0.2406469,1.367864,-0.9232196,0.1956506
0.8865278,0.02760312,-0.2169674,1.105318,-0.6252427,0.4858257
0.9041909,-0.04273706,-0.1784123,0.9201476,-0.4267151,0.6068095
0.9378905,0.01611961,-0.1581487,0.7311727,-0.2761548,0.6566366
0.9652599,-0.01503376,-0.1244801,0.5650094,-0.0272109,0.5951314
0.9627297,-0.08172983,-0.07527488,0.5006698,-0.05613991,0.5800687
1.02715,-0.1101292,-0.06829713,0.4522719,-0.08658522,0.5077146
1.112375,-0.2198783,-0.05960393,0.5486672,-0.03441332,0.384457
1.146923,-0.2608585,-0.0499258,0.7071429,-0.02877326,0.3629492
1.202588,-0.2399618,-0.06603736,0.8493397,0.009722637,0.2218491
1.241058,-0.1627441,-0.04648628,0.9609076,-0.1066637,-0.005565349
1.265185,0.02713432,-0.054952,0.8834122,-0.3004522,-0.237737
1.29042,0.09603684,-0.07110282,0.7609995,-0.3772629,-0.3290259
1.272776,0.02124622,-0.07964422,0.5760318,-0.3238236,-0.1650383
1.229886,-0.09845752,-0.1192209,0.2250915,-0.07079029,-0.1218041
1.107453,-0.3026432,-0.1101308,-0.1440761,0.1282455,-0.284618
0.9536292,-0.4330009,-0.1221192,-0.6440696,-0.1712565,-0.5006471
0.9592518,-0.399155,-0.1945759,-1.064707,-0.6419842,-0.6926773
1.098029,-0.4110687,-0.2592923,-0.9396911,-0.518454,-0.6915471
1.231239,-0.4721868,-0.2730569,-0.6080172,0.1934083,-0.4728711
1.335778,-0.413466,-0.1900259,-0.471242,1.025307,-0.1581287
1.328981,-0.3273661,-0.09002148,-0.518794,1.317608,-0.0187906
1.128436,-0.218628,-0.01625084,-0.8196286,0.8857318,-0.04654106
0.8668269,-0.1061408,0.004570455,-1.103451,0.5869084,0.07883735
0.722723,-0.1407025,-0.03997673,-1.122551,0.4287855,0.2710763
0.723084,-0.137967,-0.0566201,-1.078161,0.2712524,0.3822734
0.7315561,-0.1123239,-0.07255436,-1.083619,0.6262876,0.4442812
0.7074658,-0.1937266,-0.06080284,-1.154183,0.881512,0.3759845
0.6962345,-0.2332504,0.02019193,-1.177939,0.7958351,0.2513092
0.6271167,-0.2869927,0.07984503,-1.07764,0.6283653,0.2036101
0.567071,-0.3275912,0.1289219,-0.8392072,0.07887318,0.1972789
0.5790321,-0.3115769,0.1531279,-0.4434888,-0.4480456,0.2012435
0.6425688,-0.3259295,0.1466487,-0.1318566,-0.651251,0.1441609
0.8070133,-0.2764179,0.1390374,0.07968302,-0.6359335,0.005086239
0.9876627,-0.2308947,0.08327177,0.1804647,-0.4297311,-0.1040243
1.169012,-0.2400402,0.03392226,0.04573605,-0.1855891,-0.1592002
1.346989,-0.207686,0.0006260979,-0.08261797,0.0004784517,-0.1543044
1.448863,-0.1635139,-0.02499503,-0.2183841,-0.04515121,-0.08006841
1.567452,-0.1327817,0.03107134,-0.3695244,0.1723257,-0.04119916
1.575358,-0.1511847,0.09294098,-0.326739,0.9256734,-0.1374482
1.306891,-0.2410376,0.1362097,-0.3311623,1.295754,-0.2700134
1.072953,-0.3772272,0.2013583,-0.3663786,0.9187213,-0.1976128
1.126772,-0.5159722,0.1417991,0.04008819,0.4291279,0.06919997
1.196412,-0.7405722,-0.1189402,0.7400881,0.4532009,0.263873
1.110396,-1.032744,-0.3373126,1.167397,0.8280626,0.1414467
1.071027,-0.923011,-0.2573712,1.223344,1.000603,-0.242965
0.9449697,-0.4380198,-0.06391333,0.9956708,0.5869318,-0.5681915
0.7230911,-0.08830849,-0.008755456,0.4375721,-0.2190272,-0.7731497
0.7900442,0.03129724,-0.002750565,-0.1567691,-0.617951,-0.7699061
0.8897259,-0.1104831,-0.03148703,-0.2701203,-0.8752737,-0.4372233
0.8420591,-0.3264587,-0.08287281,0.0385282,-1.127912,-0.1034562
0.905751,-0.4399703,-0.06257307,0.4762819,-0.9034635,-0.05001104
0.8605461,-0.5552812,-0.05667929,1.136406,-0.866647,-0.2345554
0.7443704,-0.525094,-0.05087871,1.623027,-0.9065057,-0.3912507
0.7898069,-0.3978885,-0.05817969,1.564429,-0.7288879,-0.3882664
0.797448,-0.1344758,-0.1335205,1.439275,-0.8099581,-0.1746177
0.8389388,0.1905944,-0.1664133,1.138923,-0.7037467,0.3256303
0.9694933,0.1941531,-0.1945415,0.5865727,-0.3821798,0.6902344
1.006402,0.1752472,-0.1860439,0.3072417,-0.1491071,0.832156
1.008791,0.106533,-0.1068726,0.14078,0.04932474,0.8949026
1.016711,-0.1295373,-0.06123406,0.1117036,0.01835165,0.7097519
1.025637,-0.1951457,-0.003449658,0.3487345,-0.0663249,0.5442167
1.086777,-0.2556912,0.004232924,0.5302568,-0.1031102,0.4182644
1.17974,-0.2619896,-0.03252946,0.7143054,-0.07674587,0.2677611
1.232783,-0.1956574,-0.02327919,0.8338723,-0.02489485,0.2087967
1.215788,-0.1316505,-0.03443653,0.7907324,-0.2816999,0.02789497
1.225131,0.05294409,-0.03113941,0.7132495,-0.5993383,-0.08187617
1.259828,0.03944779,-0.04572614,0.5489057,-0.6134701,-0.05727886
1.252877,-0.1177963,-0.1055049,0.3676642,-0.348223,-0.1048228
1.217813,-0.2070161,-0.133312,0.1138447,-0.05356072,-0.180129
1.096869,-0.2921428,-0.1494738,-0.4099089,-0.1105273,-0.362168
0.9632852,-0.3374201,-0.1613839,-0.9551308,-0.4781593,-0.5418295
0.9941717,-0.4612405,-0.1867155,-0.9972205,-0.7123682,-0.6583728
1.153824,-0.5745855,-0.1949037,-0.4972111,-0.2888152,-0.6831137
1.314126,-0.5637086,-0.1548492,-0.0004407858,0.5935267,-0.470938
1.351369,-0.4847204,-0.08196315,0.08368995,1.034103,-0.2557855
1.198801,-0.3016149,0.02719227,-0.1779819,0.8776786,-0.167603
0.968178,-0.1214288,0.0401306,-0.4951599,0.5290122,-0.07606765
0.8051725,-0.02312745,-0.03339843,-0.8320992,0.2202098,0.1068037
0.7741822,-0.009231934,-0.07304197,-1.094093,0.2099714,0.3149183
0.832888,-0.05100545,-0.1095662,-1.152789,0.6450832,0.4258781
0.82679,-0.1231771,-0.07854372,-1.290952,1.21123,0.4597692
0.7380157,-0.2696051,0.01213832,-1.330381,1.281721,0.3709788
0.6432519,-0.3544766,0.07583941,-1.104733,0.7385145,0.2749638
0.5683225,-0.3352893,0.1424451,-0.8742907,0.08393362,0.2732297
0.5874133,-0.3386835,0.1698829,-0.5209194,-0.2959457,0.2576792
0.6506119,-0.3316354,0.1612446,-0.1414206,-0.4620689,0.2519132
0.7312577,-0.2755761,0.156206,0.1475032,-0.5493542,0.1688393
0.8791724,-0.201908,0.1312681,0.3227082,-0.3946223,0.02611071
0.981032,-0.1640263,0.115809,0.2345428,-0.1393126,-0.01535064
1.071118,-0.1970532,0.08130862,0.03284086,-0.08796683,0.004716992
1.155605,-0.2218981,0.03969097,-0.2308388,-0.09567963,0.04751586
1.168862,-0.2017206,0.07927088,-0.265134,-0.04472446,0.1185356
1.356415,-0.1980396,0.1710121,-0.08939133,0.1623175,0.1793083
1.60345,-0.1754404,0.2589325,-0.1950029,0.6680441,0.01891415
1.487254,-0.09619957,0.2656206,-0.3172538,1.232738,-0.2348858
1.245256,-0.09195804,0.1943117,-0.3688878,1.190217,-0.142617
1.213893,-0.3068981,0.1360681,-0.2304281,0.5069623,0.1318629
1.251301,-0.6983846,0.01748736,0.3708876,0.2153136,0.2941593
1.265253,-0.950547,-0.1093367,0.8699255,0.5248879,0.2117795
1.113671,-0.8395062,-0.1102174,1.053094,0.6142654,-0.1058703
0.7974753,-0.534185,-0.1114301,0.9374124,0.04545418,-0.3007166
0.7144469,-0.2081248,-0.1409484,0.4503112,-0.588577,-0.3867933
0.8274707,-0.07162705,-0.129204,-0.03011419,-0.4953974,-0.4643021
0.859756,-0.222395,-0.08748805,-0.1477719,-0.5306622,-0.3703748
0.8260513,-0.3049979,0.003868766,0.1530387,-1.075444,-0.1845458
0.8272363,-0.3157182,0.01909539,0.4387576,-1.068209,-0.003454955
0.9522634,-0.3864514,-0.13324,0.5176141,-0.5368252,0.08383544
1.014908,-0.2538766,-0.2488608,0.1969008,-0.2723821,0.0981888
0.8651803,-0.05533801,-0.1790217,-0.4643787,-1.270522,0.2693987
0.743738,0.02930423,-0.1052016,-0.472501,-2.327146,0.5664551
0.8810106,0.02882988,-0.1524399,-0.1883191,-0.9488677,0.6868888
1.052152,-0.1213918,-0.1254521,0.1983491,0.7879173,0.480758
0.977982,-0.1951647,-0.05046443,1.018743,0.7473192,0.2162774
0.9240945,-0.151964,-0.06040443,0.8514429,0.528258,0.1513931
0.9292077,-0.1353016,-0.02006879,0.2987768,0.2179742,0.289411
0.8803193,-0.1233263,0.002602651,0.372986,-0.4442112,0.5243228
0.9782838,-0.1826668,-0.03687904,0.08102502,-0.425759,0.5936186
1.07719,-0.2630014,-0.02136978,0.1805634,-0.0600616,0.4496659
1.128477,-0.3522557,-0.03412303,0.6537781,0.0481555,0.2386845
1.20339,-0.4140492,-0.04467305,0.6643597,0.0191731,0.03348173
1.177643,-0.2966474,-0.01522668,0.8807939,-0.1372144,-0.118702
1.195974,-0.08200207,0.001884655,0.8257035,-0.3464086,-0.2596857
1.264164,0.04357188,0.03857751,0.6023266,-0.404858,-0.3291563
1.25532,-0.06162527,-0.0009125195,0.6868317,-0.2472906,-0.3090636
1.220945,-0.2141139,-0.0918356,0.259898,-0.004930744,-0.3612198
1.147549,-0.2354501,-0.106815,-0.3477351,0.08523241,-0.5027242
1.040143,-0.309976,-0.1277514,-0.8557265,-0.1203261,-0.6683454
0.9960473,-0.4179277,-0.1784213,-1.156607,-0.315798,-0.7376206
1.079711,-0.4903948,-0.1797009,-0.7473898,-0.1617589,-0.6261707
1.191185,-0.5449089,-0.08950321,-0.3138907,-0.04904232,-0.4919399
1.251039,-0.5002552,0.04806701,-0.2195801,-0.2191845,-0.4312423
1.265158,-0.3563657,0.0838571,-0.3498949,-0.2123325,-0.4005962
1.145713,-0.1297873,-0.01738069,-0.7482826,0.09324473,-0.2701205
0.9516987,0.01790876,-0.1099358,-1.128541,0.3804441,0.0871555
0.8438278,-0.005490464,-0.1092516,-1.423968,0.4719942,0.3936214
0.8200209,-0.01537456,-0.09676966,-1.569636,0.6083774,0.5035449
0.8008613,-0.09105112,-0.06969925,-1.651724,0.9244321,0.5932538
0.749241,-0.2840479,0.01918315,-1.68309,0.888882,0.525449
0.7126667,-0.3699717,0.05403921,-1.478803,0.6550309,0.3401565
0.6883477,-0.3793096,0.05747831,-1.232304,0.628049,0.2260975
0.6187257,-0.3886442,0.1037786,-0.8416304,0.2542495,0.1795427
0.5656047,-0.3679429,0.1217296,-0.3298598,-0.3349234,0.2202348
0.598738,-0.3566548,0.1432713,-0.03433028,-0.6036772,0.1663581
0.679769,-0.311446,0.1370431,0.07470109,-0.6175061,0.05741213
0.8118879,-0.2044164,0.08037988,0.1285157,-0.5619635,0.01093727
0.9987977,-0.1352966,0.07309124,0.1941748,-0.5270127,-0.05720257
1.138534,-0.1672417,0.05253315,0.06234743,-0.2423672,-0.04501033
1.249867,-0.191844,0.02655476,-0.1208072,-0.0823175,-0.07177464
1.426619,-0.1419333,0.04784012,-0.2017242,-0.1806871,-0.06629709
1.590436,-0.1319062,0.07833242,-0.4417545,0.2172629,0.06456862
1.58065,-0.1554823,0.1770417,-0.4188823,0.7710406,0.002592755
1.360613,-0.1981913,0.2457697,-0.3220393,1.031335,-0.1110097
1.183662,-0.3054673,0.1842976,-0.4623567,0.8671617,-0.1436153
1.230535,-0.4217201,0.1100959,-0.1408069,0.3543064,-0.03330552
1.258127,-0.6675362,-0.02099195,0.4104882,0.3105294,0.2012536
1.141582,-0.9671521,-0.1929778,0.8780782,0.7658854,0.111596
1.042336,-0.8703441,-0.1632634,1.263238,1.074786,-0.09708586
0.9222859,-0.4800665,-0.05982181,1.13047,0.4359959,-0.1884781
0.7665947,-0.1991725,-0.1073642,0.6852616,-0.5147754,-0.2872922
0.81069,-0.07633003,-0.104775,0.2320872,-0.3659745,-0.2591594
0.9126021,-0.1797246,-0.06512165,0.05399183,-0.4692201,-0.2614108
0.8287319,-0.3768414,-0.08831088,0.3635305,-1.23725,-0.2428493
0.8164759,-0.4813049,-0.03496515,0.7859837,-1.297176,-0.1515323
0.8773223,-0.551443,-0.05633911,1.276127,-1.130635,-0.2558824
0.8678718,-0.4537094,-0.1544133,1.606186,-0.8109115,-0.3519862
0.9278521,-0.3023564,-0.1750842,1.459525,-0.2719331,-0.3355816
0.9250223,-0.1432417,-0.1644517,1.252318,-0.2037903,-0.1598013
0.8791798,0.120197,-0.08179465,0.96635,-0.3036377,0.2194715
0.9395731,0.1476131,-0.05829396,0.5822181,-0.2106912,0.449208
0.9578263,0.1168606,-0.09306687,0.3792341,-0.01155345,0.5501008
0.9920864,0.1284389,-0.05947444,0.1099997,0.1237039,0.6236625
1.035335,-0.05613723,-0.06054127,0.02227408,0.1754975,0.5941096
1.009234,-0.1780421,-0.02805022,0.2729022,0.1162575,0.5823894
1.04016,-0.2695433,-0.0009974022,0.4590629,-0.01281,0.5222447
1.087556,-0.3202861,-0.02889287,0.7038081,0.1635621,0.3412518
1.136131,-0.2917263,-0.0070569,0.9221647,0.2480498,0.07208389
1.168806,-0.3081204,-0.007226589,0.9948035,-0.1164112,-0.2743202
1.147937,-0.1544395,-0.005148075,1.022705,-0.4860209,-0.4964995
1.194943,-0.04122926,-0.00781118,0.877255,-0.507009,-0.4951665
1.234211,-0.1087453,-0.08187936,0.5231925,-0.03149175,-0.4382375
1.169027,-0.1796393,-0.1414537,-0.2479556,0.232477,-0.4477636
1.033639,-0.3069342,-0.1368435,-1.036998,-0.4407219,-0.4891892
0.9094098,-0.3611657,-0.1309994,-1.157946,-1.276994,-0.5415256
1.015685,-0.3762908,-0.1966681,-0.9105057,-1.109082,-0.5563664
1.291196,-0.4732241,-0.2055226,-0.4769946,0.08776757,-0.3863338
1.443095,-0.5327772,-0.1202407,0.03614662,1.271576,-0.1689047
1.365849,-0.4590124,-0.0416749,0.0721906,1.387792,-0.1521792
1.092763,-0.2260139,0.06671587,-0.4320184,0.5671212,-0.1514736
0.8420702,-0.01920195,0.1028606,-0.9722799,0.05369055,0.01179418
0.7896727,-0.01124228,0.02708435,-1.221384,0.07761996,0.1725485
0.801729,-0.08293149,-0.03919258,-1.266899,0.206777,0.2832468
0.7766212,-0.08953186,-0.06248332,-1.223257,0.5926558,0.3780049
0.7841584,-0.16979,-0.01952547,-1.183104,0.8351944,0.3640674
0.7848781,-0.3099276,0.03990304,-1.110776,0.8061917,0.2924606
0.6916976,-0.3122474,0.09673329,-0.9125345,0.5365074,0.2329674
0.5787918,-0.3374597,0.1377065,-0.7137707,-0.1070627,0.1830753
0.5384833,-0.3513981,0.1263557,-0.4494395,-0.4906653,0.2152343
0.6225584,-0.2866011,0.1196511,-0.1493145,-0.5825757,0.2410361
0.7723528,-0.2760699,0.08487293,-0.005635474,-0.4937324,0.1894387
0.8706671,-0.1836392,0.05532217,0.04872877,-0.229745,0.1267116
0.977602,-0.1385018,0.1049479,0.00674931,-0.1071452,-0.001242971
1.072724,-0.2026499,0.1495008,-0.09627764,-0.01019226,-0.131654
1.14709,-0.1793315,0.1558227,-0.1912291,-0.1981276,-0.1330257
1.309073,-0.1337641,0.1288465,-0.3128782,-0.4109462,-0.02196487
1.467607,-0.09339042,0.1034064,-0.3523573,-0.08405015,0.09346014
1.539144,-0.1659922,0.1177305,-0.3102628,0.4809338,0.05516441
1.476128,-0.3461305,0.1275796,-0.2526064,1.033195,-0.03190661
1.348777,-0.4998883,0.1008994,-0.06540996,0.9996241,-0.0003276612
1.292108,-0.7068085,-0.01206869,0.3223762,0.4980875,0.09565982
1.145337,-0.825124,-0.139837,0.8135639,0.3783097,0.1989539
0.8959675,-0.7531392,-0.1097251,1.161113,0.4232881,0.1024601
0.6797853,-0.5611056,-0.0217955,1.191074,0.3199676,-0.2077357
0.6029534,-0.2600718,-0.02473751,0.9935361,-0.07850449,-0.4641379
0.7921454,-0.09021779,-0.03364468,0.7254119,-0.5814455,-0.6318808
0.984675,-0.1181953,-0.04187529,0.5048506,-0.6057022,-0.5853046
0.9988626,-0.1403464,-0.07016687,0.4172185,-0.5921736,-0.3376259
0.9647924,-0.2223947,-0.05904379,0.4741666,-0.7635324,-0.1363424
0.8712378,-0.371167,-0.05828393,0.6467152,-0.7072096,-0.03614422
0.7752839,-0.3917318,-0.05065796,0.926097,-0.6950311,-0.1019181
0.7550658,-0.338536,-0.02379649,1.240001,-0.7883897,-0.1093332
0.7781785,-0.3338605,-0.03979027,1.371847,-0.8244899,0.03090502
0.783151,-0.3428974,-0.03831458,1.336613,-0.8397848,0.1430161
0.7921419,-0.2852949,-0.04701692,1.261584,-0.584491,0.4106206
0.9363271,-0.05547239,-0.1185663,0.9691214,-0.1868587,0.6421047
1.064632,0.1818763,-0.169262,0.4852855,-0.01714345,0.6791593
1.012701,0.1116679,-0.1176091,0.1045792,0.04241713,0.6897375
0.9717892,-0.05013486,-0.01059786,-0.03768663,0.0712173,0.545161
1.048006,-0.05097945,0.0004196102,0.001825157,0.03349013,0.3873803
1.122602,-0.1385982,-0.04095074,0.08552918,0.08677133,0.3345996
1.166302,-0.258579,-0.04456208,0.250785,0.2393326,0.3056875
1.211279,-0.2691839,-0.03789525,0.4591389,0.2887202,0.2293939
1.19214,-0.2964626,-0.01695976,0.533556,0.04841071,-0.06141439
1.180539,-0.1980004,-0.02937343,0.5074347,-0.3445807,-0.3521939
1.218078,-0.09918632,-0.05072685,0.4225914,-0.377671,-0.4528955
1.181611,-0.1857464,-0.05452809,0.2076716,-0.07442379,-0.4602229
1.083066,-0.2764009,-0.09499662,-0.2988624,-0.06085418,-0.5210295
0.9550013,-0.38189,-0.1412982,-1.038189,-0.6155162,-0.6747505
0.9498337,-0.4062726,-0.1774281,-1.360059,-1.103027,-0.693802
1.143829,-0.4112449,-0.1633364,-0.8988019,-0.4327029,-0.6307851
1.364801,-0.5786368,-0.1239156,-0.3285831,0.8110671,-0.5187408
1.505768,-0.6110927,-0.1113219,-0.1894236,1.147239,-0.3061299
1.328334,-0.4314997,-0.03580185,-0.2486052,0.8450575,-0.2212948
0.9428629,-0.165457,0.03345553,-0.5433029,0.493401,-0.1080676
0.7903657,0.04450919,0.0002099695,-1.010192,0.1914991,0.1639819
0.8089059,-0.01009375,-0.05844358,-1.179688,0.254664,0.3758471
0.8119772,-0.06905467,-0.08814032,-1.224242,0.6190974,0.4983831
0.7631805,-0.04835584,-0.06666665,-1.315689,1.03459,0.5200202
0.7312257,-0.21229,-0.0009741371,-1.265813,1.117773,0.4234191
0.6787356,-0.3325856,0.09456475,-1.15551,0.6902233,0.2861413
0.5261602,-0.3002848,0.1636287,-0.9256311,0.08340093,0.2248071
0.5262062,-0.3209296,0.1589181,-0.5783436,-0.4060368,0.2768209
0.5833047,-0.3040447,0.1459785,-0.3204724,-0.5800993,0.3017349
0.588457,-0.2781182,0.1406903,-0.08436032,-0.5811558,0.2310647
0.7387852,-0.2754196,0.1241036,0.09928853,-0.5199487,0.1286315
0.8716265,-0.196698,0.1211735,0.07566057,-0.325506,0.02781165
1.003703,-0.176446,0.1139985,-0.0798957,-0.1821728,-0.05883934
1.187879,-0.203765,0.07479277,-0.3113139,-0.08674173,-0.06720111
1.310797,-0.2125307,0.04628023,-0.4600505,0.07466113,0.03539868
1.457407,-0.2168562,0.0808265,-0.3280278,0.3863923,0.1076007
1.511221,-0.1743944,0.1607235,-0.2208322,0.8776722,-0.02964818
1.410196,-0.1752427,0.2230333,-0.3050134,1.085433,-0.1830027
1.26638,-0.2880457,0.1867013,-0.2453444,0.7194775,-0.04301651
1.162901,-0.5550024,0.06073483,0.07263514,0.2921137,0.1953239
1.192172,-0.8731592,-0.06867875,0.6440571,0.2184686,0.2869767
1.186603,-0.9601587,-0.1570614,1.207,0.3668533,0.1731802
0.9898238,-0.7359266,-0.1583115,1.210518,0.4455847,-0.1399975
0.7495381,-0.3630281,-0.1169947,0.7818055,0.1162733,-0.3656455
0.6714492,-0.1411518,-0.09321259,0.3460332,-0.3727844,-0.4519954
0.7456978,-0.1371309,-0.05573502,0.06414924,-0.6251685,-0.4384252
0.7891451,-0.1912954,-0.0524068,0.09278331,-0.9660672,-0.2217071
0.8236075,-0.2873671,-0.07026104,0.3653169,-1.243143,-0.01475632
0.9086434,-0.4298931,-0.08247241,0.8241549,-1.055368,0.03242648
0.9235328,-0.5244295,-0.1446282,1.299323,-0.6756387,-0.1143714
0.902478,-0.4514038,-0.1631965,1.397457,-0.3632581,-0.2613929
0.9090942,-0.2427063,-0.1169117,1.239651,-0.4053925,-0.1451043
0.8942738,-0.001902111,-0.09699902,1.036726,-0.5961093,0.01852581
0.919257,0.1154431,-0.09331805,0.7557553,-0.4368137,0.2457013
0.9628952,0.08654692,-0.10693,0.4387662,-0.2627199,0.5089372
0.9610991,0.1499542,-0.1129676,0.07694821,-0.07137285,0.5828669
0.9698905,0.1192749,-0.08996745,-0.1999417,0.1843664,0.6597016
0.9739966,-0.05694576,-0.06821339,-0.2343219,0.1008944,0.6757055
0.9820132,-0.1014774,-0.04653168,-0.134289,0.06614961,0.5721608
1.030224,-0.2069275,-0.03315737,0.0003765685,0.1197849,0.4717642
1.101813,-0.2882548,-0.02900497,0.2461404,0.08726009,0.2656354
1.169788,-0.2461062,-0.02998402,0.5009175,0.2044272,0.07569084
1.180353,-0.2498969,-0.03298677,0.5610555,0.08678558,-0.05362917
1.176842,-0.1377819,-0.03447392,0.543272,-0.1742348,-0.2027624
1.216215,-0.05067613,-0.04202703,0.415132,-0.2577029,-0.2870166
1.268419,-0.1374733,-0.04494716,0.08561869,-0.2616554,-0.3608765
1.268211,-0.2539489,-0.05891901,-0.2997864,-0.2266628,-0.4638413
1.150095,-0.3482984,-0.08891833,-0.7574615,-0.5301273,-0.5580828
1.02938,-0.3472792,-0.1531675,-1.059951,-0.78006,-0.5701766
1.065039,-0.3903561,-0.2759609,-0.9516335,-0.3097618,-0.5080728
1.186922,-0.5208756,-0.3097016,-0.6813345,0.5814547,-0.4763485
1.24719,-0.5570638,-0.1433238,-0.4026302,1.167807,-0.3924039
1.203317,-0.4897734,0.04819034,-0.2338266,0.758793,-0.3241587
1.091806,-0.316172,0.06746546,-0.4316999,0.1862945,-0.2649037
0.9772095,-0.0984484,-0.03936066,-0.7884372,0.3244029,0.03157104
0.905906,-0.00827344,-0.1201933,-1.0101,0.4035385,0.3284575
0.8651181,-0.05636037,-0.130563,-1.201258,0.5310164,0.40784
0.8145083,-0.1227233,-0.08947879,-1.334763,0.996899,0.4012083
0.7430809,-0.2270732,-0.005355964,-1.38108,1.095701,0.3163414
0.6842507,-0.3523372,0.09089528,-1.296464,0.8631783,0.2079369
0.6405374,-0.3474065,0.135377,-0.9740726,0.5373614,0.1331606
0.5948852,-0.316377,0.1234602,-0.6892494,0.1289122,0.1338984
0.5758388,-0.3247534,0.1343451,-0.4583135,-0.2028575,0.205436
0.5905599,-0.2821726,0.1468165,-0.194742,-0.4877466,0.2214552
0.6519892,-0.2432452,0.120097,-0.04635361,-0.59743,0.2053378
0.7673152,-0.2020282,0.1114267,0.01298401,-0.5041465,0.1648785
0.9046603,-0.1818342,0.1005098,-0.08941581,-0.3660897,0.09562265
1.05525,-0.2236047,0.08774709,-0.2138324,-0.2019716,0.01450179
1.207042,-0.2460273,0.0991891,-0.2585468,-0.1501496,-0.1152227
1.34674,-0.2319706,0.08663891,-0.3264783,-0.2145404,-0.1620921
1.464441,-0.1776072,0.09584611,-0.3141329,-0.08378177,-0.1218016
1.532559,-0.1007161,0.1484807,-0.363452,0.5689215,-0.1361126
1.451763,-0.1036404,0.1844469,-0.507972,1.330908,-0.1870153
1.252555,-0.3153695,0.1591125,-0.5607814,1.223045,-0.1678855
1.186426,-0.6820035,0.02350707,-0.2106228,0.4757479,0.072703
1.203473,-0.8973951,-0.1384533,0.5914668,0.2113468,0.3524263
1.076325,-0.8556603,-0.1858865,1.089937,0.6182796,0.2689084
0.8820734,-0.6518506,-0.1266544,1.125325,0.9250103,-0.05100217
0.7883214,-0.3448119,-0.09074356,0.9472347,0.487621,-0.3395838
0.7866118,-0.1460275,-0.08482283,0.5432207,-0.07225289,-0.6130154
0.7659395,-0.1713656,-0.01000799,0.277381,-0.2240677,-0.6691521
0.76974,-0.2434904,0.01801111,0.2586654,-0.8533203,-0.4336808
0.831216,-0.3191838,-0.03374065,0.5213112,-1.554825,-0.2056959
0.8864854,-0.4050283,-0.07277695,0.99599,-1.334356,-0.1200114
0.9277613,-0.358883,-0.1468713,1.289675,-0.7861851,-0.1690093
0.8905304,-0.2353902,-0.1514679,1.403498,-0.1719935,-0.1902695
0.8609531,-0.1042086,-0.06897184,1.275433,0.03487136,-0.1335881
0.8888315,0.05261469,-0.03478067,1.011865,-0.4012966,-0.05941642
0.8776782,0.1116249,-0.009165058,0.8315877,-0.4766961,0.1975654
0.8979935,0.116726,-0.02183008,0.5242394,-0.3869911,0.4506179
0.9034339,0.1169092,-0.06935928,0.2039729,-0.3548012,0.5485126
0.8911173,0.03414357,-0.07651541,-0.0218928,-0.1171576,0.6438524
0.9457119,-0.05358989,-0.07043916,-0.1435817,-0.1284588,0.6441223
1.013229,-0.1445389,-0.04679443,-0.03350786,-0.1633967,0.597472
1.12757,-0.2276021,-0.05020086,0.09100915,-0.0130838,0.5364494
1.212508,-0.2445669,-0.06234864,0.2602316,0.1384232,0.3757498
1.211382,-0.2416223,-0.03075526,0.4936505,0.2669667,0.1987522
1.220168,-0.1622322,-0.03015256,0.4759152,0.07696744,0.02251451
1.235503,-0.02608623,-0.02610326,0.3473628,-0.2304789,-0.1186706
1.281788,0.01887999,-0.0133402,0.2651464,-0.3290586,-0.1799543
1.311433,-0.1048044,-0.03870822,0.1622225,-0.3132155,-0.1639917
1.258301,-0.2947811,-0.05329893,0.04674985,-0.1899744,-0.1638639
1.137403,-0.3431651,-0.070877,-0.288233,-0.1363597,-0.3131646
0.9535218,-0.3155417,-0.0833425,-0.8056669,-0.3343986,-0.4950967
0.8808565,-0.3392455,-0.09786494,-1.074792,-0.6202883,-0.5701744
0.9829772,-0.412955,-0.15376,-0.9968813,-0.5896061,-0.5374383
1.14562,-0.5385574,-0.1785944,-0.7011214,-0.017217,-0.4460387
1.359696,-0.5717351,-0.1121912,-0.3270919,0.6184749,-0.3204835
1.404439,-0.4316952,-0.03109873,-0.237269,0.6944451,-0.1549194
1.159539,-0.2167623,-0.06479684,-0.5876063,0.4925542,0.01314184
0.9645081,-0.06866914,-0.1053521,-0.9810826,0.5622605,0.2548474
0.8949059,-0.0854152,-0.06055504,-1.13517,0.5769484,0.4759266
0.8100945,-0.1285807,-0.07469809,-1.202507,0.5044419,0.513538
0.7763177,-0.1342466,-0.07661599,-1.284352,0.7859594,0.5102842
0.7495692,-0.226218,-0.01215452,-1.314418,1.007935,0.4483838
0.66671,-0.2986071,0.03190616,-1.237935,0.88985,0.293192
0.5872741,-0.282421,0.09024543,-1.086459,0.5777162,0.1758654
0.5410977,-0.3135911,0.112212,-0.8696023,0.08074916,0.1156824
0.5452213,-0.3362724,0.1145776,-0.5406838,-0.3132497,0.1260148
0.5925943,-0.3138081,0.1427276,-0.1906388,-0.4767458,0.08359304
0.6669999,-0.3145406,0.1388837,0.0528034,-0.4927989,-0.02845777
0.7491251,-0.2435895,0.1319519,0.1181317,-0.4301433,-0.042839
0.8409619,-0.1177685,0.1111942,0.04567913,-0.3864649,-0.01170242
0.940491,-0.08552392,0.09394471,-0.1405553,-0.3023796,0.02470673
1.078373,-0.1523468,0.0648962,-0.4451364,-0.1554875,0.0600449
1.308211,-0.2211162,-0.01227598,-0.5252072,-0.03782287,0.05743758
1.469423,-0.2270465,-0.0003453901,-0.4231182,0.05481732,0.05725506
1.498455,-0.1810453,0.07946411,-0.5074732,0.5498447,0.01598494
1.491816,-0.08259241,0.1516297,-0.5419658,1.311352,-0.1143939
1.337948,-0.04879342,0.2112568,-0.476443,1.277609,-0.2149861
1.159754,-0.275195,0.1714499,-0.3219989,0.6427061,-0.09344701
1.208923,-0.6604337,0.03525739,0.1783199,0.2569272,0.1806528
1.260332,-0.9333434,-0.1739917,0.7378502,0.1120412,0.3033652
1.154994,-0.9839829,-0.2859959,1.091544,0.4043133,0.1229454
0.9976975,-0.7960492,-0.1614923,1.180518,0.6818128,-0.2564054
0.7384572,-0.4396077,-0.05648014,0.9296096,0.1725482,-0.5497474
0.5821003,-0.1780208,-0.03152243,0.6297798,-0.4669227,-0.6312153
0.7154063,-0.1078364,0.007906507,0.4069958,-0.9290669,-0.563622
0.8194335,-0.09357285,-0.02554388,0.25688,-1.323623,-0.3383893
0.8986952,-0.1891851,-0.06735381,0.4434726,-1.215747,-0.08222647
0.9951606,-0.3752702,-0.1034006,0.8452587,-0.8092081,-0.0512693
0.8746518,-0.4201788,-0.1403798,1.092666,-0.4294883,-0.2126869
0.7847112,-0.3089727,-0.08049967,1.235009,-0.3206387,-0.2562516
0.8033546,-0.1677343,-0.04561787,1.268564,-0.6422141,-0.1642545
0.8054032,-0.03023929,-0.07972082,1.111094,-0.7713236,-0.01982109
0.9123068,0.05608347,-0.1088624,0.9367374,-0.4685642,0.2862753
0.9748621,0.06659469,-0.1502377,0.6431739,-0.121441,0.5128275
0.9904229,0.07653025,-0.1344926,0.2228292,0.07710743,0.5191043
1.051749,0.0481364,-0.09031543,-0.004140819,0.1440824,0.5029329
1.059111,-0.08034192,-0.07098493,-0.00221812,0.1816656,0.4682128
1.075303,-0.1984662,-0.0275269,0.1649941,0.09845235,0.4073541
1.087797,-0.2238118,-0.02903176,0.377009,-0.0180616,0.2898646
1.127491,-0.2144285,-0.0630887,0.5418148,0.06699107,0.1745657
1.214328,-0.2367688,-0.05460731,0.6173839,0.07784946,0.0763685
1.215338,-0.1742222,-0.04769036,0.5329655,-0.1904943,-0.1631873
1.220953,-0.02697956,-0.03810148,0.4666113,-0.4544513,-0.3143976
1.267811,-0.03118258,-0.03564896,0.3965949,-0.4154888,-0.267236
1.237941,-0.1574868,-0.07400289,0.173818,-0.0853695,-0.2739779
1.11214,-0.3017757,-0.1097623,-0.2664544,0.07697736,-0.373816
0.9787724,-0.41612,-0.1444272,-0.9226637,-0.3143748,-0.5124652
0.9911689,-0.438552,-0.1949752,-1.191308,-0.8374981,-0.6430011
1.122878,-0.4995428,-0.2254993,-0.8394631,-0.6955829,-0.6849868
1.251173,-0.5518183,-0.1920921,-0.3961882,0.2141621,-0.5157505
1.336273,-0.4998701,-0.07665337,-0.005657253,1.105285,-0.2479057
1.285382,-0.3945004,0.03621866,0.0660603,1.128736,-0.1677457
1.09577,-0.171319,0.03362911,-0.4836612,0.6007831,-0.06242489
0.8889452,-0.02956216,-0.02941145,-1.056097,0.4016993,0.2039124
0.7525273,-0.07325864,-0.04309126,-1.247051,0.318336,0.3588043
0.7448006,-0.04256038,-0.06801825,-1.309321,0.3251584,0.4848077
0.7481723,-0.07543307,-0.09631506,-1.356626,0.7284267,0.5820884
0.7118401,-0.2627693,-0.02229562,-1.363361,0.9416583,0.4648778
0.7145028,-0.3355973,0.05905021,-1.224511,0.9107364,0.3216035
0.6202693,-0.3453807,0.09435491,-0.9636004,0.5835021,0.2130795
0.5201413,-0.3617323,0.1358966,-0.690004,-0.1321587,0.1408094
0.5781164,-0.3216983,0.1612468,-0.3636637,-0.5517024,0.1948629
0.6580483,-0.3029903,0.1395298,-0.0165711,-0.706316,0.1722552
0.7856067,-0.2473599,0.08630253,0.2494299,-0.6406121,0.06969501
0.9630341,-0.1590763,0.1019069,0.264278,-0.4256349,0.01008603
1.124659,-0.153477,0.1102652,0.1192516,-0.3379883,-0.04481033
1.301907,-0.161802,0.02293844,-0.06679851,-0.1298764,-0.02598827
1.42733,-0.1534499,0.0006619234,-0.3684348,-0.06322306,-0.01867137
1.50183,-0.1323155,0.06924819,-0.4204749,0.08708291,-0.04637156
1.508201,-0.121457,0.156801,-0.3076542,0.6873911,-0.05438043
1.3522,-0.1820767,0.1760852,-0.4375435,1.084597,-0.1935596
1.202891,-0.3089682,0.09970229,-0.4404243,0.9003036,-0.2789741
1.289382,-0.6236254,-0.02762909,-0.08089823,0.4080327,-0.03442467
1.401425,-1.0091,-0.2227021,0.5399255,0.3532455,0.3279119
1.307497,-1.009624,-0.2517312,1.095382,0.7809312,0.3839467
1.111235,-0.7504165,-0.1419611,1.143809,0.9904641,0.0378871
0.7941703,-0.5355779,-0.1469597,0.9439912,0.5628457,-0.3856044
0.5958869,-0.2349915,-0.07578699,0.7131425,-0.1769707,-0.6816213
0.7578079,-0.118007,-0.007268899,0.3418173,-0.3973694,-0.7683563
0.8176132,-0.1806035,-0.0363015,0.1857959,-0.7934669,-0.5443282
0.7580634,-0.08556973,-0.002673211,0.416534,-1.412772,-0.1966224
0.8640928,-0.2599656,-0.07476381,0.6966235,-1.124404,-0.04234648
0.8904207,-0.4602734,-0.1537729,0.9812554,-0.7355431,-0.09830172
0.851573,-0.3394274,-0.1195873,1.303276,-0.4589858,-0.1622908
0.846305,-0.3471001,-0.1187493,1.368134,-0.2428684,-0.1874652
0.832741,-0.2124874,-0.07065129,1.200735,-0.5789334,-0.1148054
0.8914808,0.01313731,-0.05027019,1.028831,-0.5547129,0.1221935
0.9488665,0.05975723,-0.09747273,0.7396439,-0.2874307,0.3885154
0.977172,0.1525132,-0.103094,0.2957858,-0.1322094,0.6064209
0.9860125,0.1094184,-0.105097,-0.07064395,0.1229942,0.6751743
0.9931853,0.0113803,-0.08380538,-0.106793,0.0314155,0.5991508
1.060729,-0.1083358,-0.07320514,0.09223705,0.01347563,0.5511627
1.091441,-0.266426,-0.06209199,0.2564582,0.07671432,0.4748419
1.115216,-0.2611823,-0.02894289,0.4966683,-0.05857989,0.3342024
1.156268,-0.2852668,-0.03784354,0.7908031,0.002464931,0.1617973
1.138719,-0.2546241,-0.03343654,0.9030154,-0.07815082,-0.08301865
1.142618,-0.1158207,-0.03582339,0.8694128,-0.3237662,-0.2931906
1.187853,-0.008371611,-0.05789925,0.7018406,-0.3753319,-0.3767677
1.24493,0.03180031,-0.0978262,0.3153521,-0.10376,-0.3865906
1.256521,-0.1421835,-0.1571535,-0.3013895,0.2564712,-0.402735
1.138645,-0.3103835,-0.109346,-0.9297845,-0.09275641,-0.4553603
0.9950282,-0.3651028,-0.06416942,-1.292923,-0.8758113,-0.5063367
0.9956854,-0.4503408,-0.1515373,-1.280164,-1.186843,-0.552415
1.155235,-0.5237683,-0.2259008,-0.8241121,-0.4882423,-0.5516776
1.306518,-0.5639477,-0.2040687,-0.2833963,0.8885683,-0.4347861
1.307774,-0.4968579,-0.07952444,-0.1235754,1.321411,-0.290054
1.19538,-0.3417063,0.08543796,-0.2889677,0.8149278,-0.1984202
1.045621,-0.1463446,0.1186453,-0.6323735,0.5087268,-0.08222964
0.8718509,-0.003397049,0.01853243,-1.037145,0.2377614,0.1273416
0.7572971,-0.007542078,-0.04892774,-1.238807,0.2236652,0.3378628
0.791594,-0.01876977,-0.06229568,-1.213109,0.6329647,0.4338341
0.81092,-0.1155359,-0.05216271,-1.268462,0.947973,0.4239325
0.738996,-0.274787,-0.00169991,-1.231477,1.032611,0.3361512
0.6862903,-0.3175209,0.04701872,-0.921127,0.7155644,0.2445123
0.5971046,-0.3555363,0.1039458,-0.6875189,0.2382453,0.1900319
0.5352285,-0.3577455,0.1540722,-0.3708495,-0.08186042,0.1574365
0.5819417,-0.3251311,0.1656061,0.03291844,-0.4624739,0.173432
0.629361,-0.3111018,0.177402,0.2538173,-0.7572057,0.1495923
0.7419136,-0.2187142,0.1522453,0.4244962,-0.7537216,0.08866553
0.9104595,-0.1233406,0.112,0.3908331,-0.5615429,0.07281468
1.039926,-0.09183891,0.08341015,0.1818754,-0.3502148,0.05913818
1.216829,-0.1306551,0.02487504,-0.1137368,-0.2208769,0.06377823
1.398979,-0.1855433,0.01698412,-0.4072018,-0.002506675,0.06608336
1.518375,-0.1650104,0.09710359,-0.4198161,0.4201595,0.03804715
1.56175,-0.1398573,0.1885499,-0.4459482,0.8230904,-0.05474883
1.446548,-0.1586213,0.2022108,-0.5024812,0.953391,-0.1710094
1.294257,-0.3433329,0.1261588,-0.4209475,0.780122,-0.05683358
1.258612,-0.7341358,0.02768363,-0.1155899,0.3867416,0.1997697
1.238751,-0.9720511,-0.08754331,0.6410048,0.09887157,0.2640789
1.064897,-0.8668121,-0.1335799,1.253769,0.3364232,0.01513413
0.7572463,-0.5677112,-0.0522562,1.339021,0.5379283,-0.3762509
0.6144969,-0.1924893,-0.01026448,1.091737,-0.0944785,-0.5267062
0.744953,0.01064349,-0.06998388,0.5380537,-0.7321608,-0.4789954
0.9048674,-0.08047421,-0.1200074,0.02118209,-0.5920302,-0.3484307
0.9995952,-0.1678447,-0.1127011,-0.150286,-0.4742489,-0.01319222
0.9574189,-0.2608234,-0.07397862,0.1079508,-0.6647307,0.1325798
0.7564431,-0.4767638,-0.02113994,0.5881241,-0.8190287,-0.05933462
0.69822,-0.5221736,-0.007750338,1.070934,-1.094254,-0.1845494
0.806445,-0.3696268,-0.101978,1.52089,-1.152627,-0.2288769
0.8916218,-0.1701568,-0.2082143,1.530276,-0.7501691,-0.2035195
0.9466793,-0.02514021,-0.2109837,1.295248,-0.3977346,0.009786229
0.9296389,-0.01729789,-0.1774466,1.145714,-0.2168627,0.3234696
0.9243264,0.0745654,-0.1526112,0.7452778,-0.165805,0.5719108
0.9522414,0.1996385,-0.1008944,0.321007,-0.1711757,0.644506
0.9500131,0.1300877,-0.06947159,0.06195392,-0.006316208,0.6393226
1.006548,0.0324571,-0.07067224,-0.1168304,0.1180163,0.5844577
1.070156,-0.02682047,-0.05264544,-0.09174205,0.1321025,0.4493115
1.121414,-0.156981,-0.0435433,0.07067809,0.1548292,0.3610328
1.153948,-0.2639863,-0.02474644,0.3905044,0.05882644,0.3110823
1.149675,-0.2417945,0.001833159,0.6672095,-0.05975515,0.2253348
1.214385,-0.1942789,-0.02194535,0.7011698,-0.1303688,0.03732707
1.260624,-0.1217816,-0.02717138,0.6690337,-0.29415,-0.2129001
1.256312,-0.02927763,-0.02888678,0.569837,-0.3900851,-0.2948369
1.255762,-0.07542381,-0.07528031,0.3468818,-0.1264844,-0.2538082
1.198494,-0.1757446,-0.1026061,-0.1576459,0.1103201,-0.309042
1.093391,-0.272535,-0.1144793,-0.8787484,-0.2537747,-0.4402499
0.9912117,-0.3769217,-0.1420449,-1.304601,-0.8562793,-0.5411293
1.025699,-0.4421834,-0.2085718,-1.221367,-0.9895431,-0.5909208
1.198068,-0.5409678,-0.2416238,-0.7784033,-0.1818642,-0.5662188
1.350631,-0.566651,-0.1784302,-0.2806356,1.077863,-0.4406294
1.37614,-0.4874298,-0.0766389,-0.1106198,1.336429,-0.2901353
1.166663,-0.3522772,0.05366185,-0.3525165,0.7198974,-0.1642662
0.8951989,-0.08515548,0.07163271,-0.7046705,0.3217076,-0.02326245
0.7834361,0.05924927,-0.04219761,-1.075918,0.1441573,0.1922031
0.7674468,0.01056434,-0.09332437,-1.393139,0.3020853,0.4337314
0.7667875,-0.001950872,-0.1214224,-1.430778,0.7499532,0.5384851
0.7262769,-0.1147161,-0.08731702,-1.469739,0.9731631,0.5105161
0.6884388,-0.3237453,0.03438463,-1.425638,1.018117,0.3940403
0.6661721,-0.3873251,0.08645387,-1.097648,0.7850312,0.2188276
0.5964205,-0.3641923,0.1291488,-0.8443523,0.2598074,0.1354635
0.5543068,-0.3569303,0.1697509,-0.5183732,-0.2805995,0.1626707
0.5855366,-0.3251117,0.1582801,-0.132251,-0.7874182,0.178733
0.6957147,-0.2677016,0.1329974,0.1255874,-0.910309,0.1263019
0.8320789,-0.2218312,0.08922489,0.2999828,-0.6421702,0.0631899
0.944195,-0.1778044,0.09415338,0.2268361,-0.3559531,-0.006472035
1.106708,-0.1368451,0.07799578,0.03577693,-0.1361936,-0.09984604
1.280887,-0.1410203,-0.01918844,-0.2768941,-0.1155465,-0.09978463
1.429948,-0.1459351,-0.03926248,-0.4718787,-0.0726804,0.04579153
1.580534,-0.1151952,0.06135183,-0.3298467,0.2606113,0.1803558
1.615983,-0.1183791,0.1682844,-0.3666354,0.8088134,0.02311273
1.409461,-0.2127553,0.1465368,-0.3923548,1.277584,-0.1954772
1.159544,-0.4499282,0.08201192,-0.2083828,0.9977366,-0.05226011
1.16981,-0.7653438,0.0201219,0.152099,0.3308017,0.1672613
1.206323,-0.9126226,-0.1522903,0.8514185,0.2731637,0.2700153
1.041313,-0.8069033,-0.1910884,1.22484,0.5793633,0.175958
0.8722763,-0.5430206,-0.07550824,1.111747,0.6878217,-0.1863095
0.7623404,-0.1988134,-0.07462992,0.8159956,0.2497299,-0.3982151
0.795149,-0.01936025,-0.06798487,0.2434279,-0.4318198,-0.4901554
0.8907241,-0.1047256,-0.03800672,-0.08257825,-0.5408176,-0.5011081
0.8445269,-0.2380049,-0.03473302,0.03548739,-0.7560788,-0.2729327
0.8498169,-0.4282491,-0.0004069141,0.3548872,-1.23656,-0.1874222
0.8526707,-0.5503153,-0.0427261,0.9985313,-1.056201,-0.2388955
0.7799583,-0.4155512,-0.1042126,1.517563,-0.8403946,-0.28548
0.8236728,-0.2759051,-0.1105193,1.583292,-0.7952557,-0.3312876
0.8407609,-0.08779675,-0.1179901,1.542463,-0.6403124,-0.2043936
0.8525079,0.1268945,-0.12683,1.369364,-0.6992646,0.02412189
0.9251066,0.1078096,-0.1547151,1.056652,-0.4917104,0.3751319
0.9315325,0.1122191,-0.1373908,0.7452492,-0.1341165,0.6826392
0.9594024,0.1270726,-0.08668313,0.3926949,-0.06413196,0.7427022
0.9986315,0.01312054,-0.06617788,0.113621,0.01121975,0.7571227
1.054626,-0.05893371,-0.03528523,-0.03232863,0.05394248,0.6789165
1.134097,-0.1783136,-0.05221669,-0.004502923,0.08872933,0.5195783
1.169401,-0.3022044,-0.08259713,0.2067407,0.1216407,0.3990034
1.242464,-0.3336063,-0.0551062,0.4578933,0.1330372,0.2399466
1.275705,-0.2868778,-0.03486996,0.629518,0.1317057,-0.01928995
1.270171,-0.1308318,0.006833005,0.6136754,-0.1199699,-0.328919
1.304801,-0.02033451,0.02959652,0.558547,-0.3647556,-0.4140193
1.284595,-0.0337079,-0.05452629,0.4710033,-0.3304969,-0.2616239
1.229994,-0.1493121,-0.131984,0.1323487,-0.1406037,-0.1911306
1.114471,-0.2621639,-0.1373691,-0.4316309,-0.06345099,-0.3364891
0.9841945,-0.3036704,-0.174793,-1.117865,-0.3361369,-0.5491985
1.01588,-0.4022961,-0.2519888,-1.389386,-0.5586563,-0.660842
1.157481,-0.5068676,-0.2473791,-0.9926163,-0.2536348,-0.6749948
1.309391,-0.5578301,-0.1944051,-0.5572088,0.474465,-0.4567394
1.350846,-0.5352283,-0.1651303,-0.2776627,1.061684,-0.1522369
1.189368,-0.3672298,-0.06316168,-0.2191294,1.031292,-0.1332163
0.965415,-0.143789,0.04465592,-0.5886394,0.7184041,-0.07701402
0.8077139,-0.02796791,0.00123933,-0.9534257,0.5058966,0.1987956
0.7489671,-0.06045542,-0.07386402,-1.095793,0.2922901,0.3507346
0.7557372,-0.07151496,-0.06700383,-1.206979,0.4098076,0.4093434
0.7326177,-0.08891578,-0.06081613,-1.321428,0.8974882,0.4487358
0.7089041,-0.1759848,-0.05314644,-1.386278,1.001151,0.3644406
0.6967096,-0.2122479,0.02574916,-1.236878,0.7629854,0.2416953
0.623334,-0.3054707,0.1289505,-0.9777051,0.3883736,0.1440847
0.5549772,-0.3598288,0.180895,-0.6834306,-0.2311491,0.1088591
0.5526166,-0.2878214,0.1680999,-0.2814316,-0.6035574,0.1628136
0.5969232,-0.2911502,0.1582122,-0.04210573,-0.6349476,0.1699102
0.6798104,-0.2748133,0.1603651,0.07778105,-0.5345173,0.1163973
0.8091606,-0.2109088,0.114993,0.1576059,-0.3657128,0.07250411
1.016951,-0.1995121,0.09350136,0.03680361,-0.1776303,0.02206205
1.188532,-0.2204086,0.07241531,-0.1035569,-0.01210708,-0.003716729
1.261477,-0.2703104,-0.02295395,-0.2462376,-0.1522331,-0.002343469
1.391903,-0.2482502,-0.03644389,-0.3622698,-0.1593643,-0.006770942
1.560152,-0.1557344,0.1346477,-0.364407,0.3573529,-0.07134262
1.613617,-0.07074049,0.2891932,-0.5853215,1.08365,-0.2033049
1.452495,-0.07794806,0.1825802,-0.8187477,1.519437,-0.2293511
1.177452,-0.3596632,0.02870683,-0.3928931,1.055666,-0.01591482
1.119252,-0.7854576,0.007391595,0.4152378,0.6372149,0.2854093
1.176996,-0.9954174,-0.1333687,0.9244718,0.9076387,0.3369802
1.059922,-0.883278,-0.2246331,1.112019,0.7817584,0.1074728
0.916643,-0.5784886,-0.1192355,0.9490164,0.4024204,-0.1630494
0.8426234,-0.2593067,-0.1058722,0.474529,0.1538333,-0.4748082
0.8191542,-0.1326662,-0.06898224,0.0757354,-0.357168,-0.6952473
0.8237072,-0.2008801,0.03822669,-0.0508635,-1.018483,-0.5199351
0.7815918,-0.2564277,0.01304348,0.3290838,-1.455393,-0.2132954
0.7932796,-0.3999905,-0.03282026,0.9887983,-1.28554,-0.1267364
0.8151751,-0.5367743,-0.061987,1.446296,-0.9619722,-0.1025741
0.7722719,-0.3826494,-0.1093124,1.682726,-0.901921,-0.1101667
0.7800877,-0.2128922,-0.1048461,1.577341,-0.7919133,-0.1319978
0.8123526,-0.06015959,-0.1032902,1.349153,-0.8287342,0.08145138
0.8757497,0.1004862,-0.142409,1.134904,-0.6711052,0.3814147
0.9598931,0.06944366,-0.1604653,0.8083804,-0.1725454,0.5767924
0.9709845,0.09322015,-0.136445,0.5322537,-0.002775347,0.7140869
0.9723773,0.1177919,-0.09754096,0.1051059,0.08454438,0.7387477
0.9962549,0.02359469,-0.06497589,-0.1491567,0.1529538,0.6583228
1.037127,-0.02601846,-0.04474432,-0.04022775,0.1217652,0.5097934
1.104844,-0.1332558,-0.03173115,-0.05786565,0.1845741,0.3741553
1.172668,-0.2269377,-0.0169224,0.121602,0.1401161,0.2724609
1.2227,-0.248301,0.003789138,0.4216437,0.07464316,0.1003363
1.238152,-0.24353,0.02493237,0.5269114,-0.1949759,-0.1139728
1.25739,-0.1280732,0.02368081,0.5993507,-0.5991613,-0.2769157
1.271627,-0.03240666,-0.003854625,0.5192567,-0.5610054,-0.2783628
1.250689,-0.1080839,-0.05690252,0.3580565,-0.2649778,-0.2650646
1.195041,-0.2637226,-0.1110483,-0.0761393,-0.1007796,-0.4313536
1.067557,-0.3159927,-0.1209427,-0.7832998,-0.3150636,-0.5998534
0.9887101,-0.3479111,-0.1553396,-1.156112,-0.708541,-0.7009721
1.049963,-0.4727523,-0.2335671,-1.070258,-0.6873736,-0.7409415
1.166535,-0.5298485,-0.2359257,-0.7228959,-0.009329399,-0.615121
1.332298,-0.5190722,-0.2006867,-0.4947473,0.9120229,-0.3854525
1.413485,-0.4866869,-0.182508,-0.5693843,1.088749,-0.2335616
1.236851,-0.3556424,-0.07623574,-0.8131868,0.723629,-0.1696653
1.007366,-0.1777545,0.04833286,-1.077056,0.5965646,-0.009129654
0.8923421,-0.1288107,0.02896802,-1.106479,0.35526,0.2318406
0.8002012,-0.1571832,-0.05715219,-1.078345,0.3387158,0.4068306
0.7908651,-0.09840984,-0.09848652,-1.152219,0.8920266,0.4536477
0.8311186,-0.1442947,-0.1045835,-1.175007,1.252447,0.376426
0.7600693,-0.2483462,-0.0296781,-1.149739,1.269512,0.2874669
0.6626065,-0.2519415,0.09083975,-1.04503,0.7783649,0.2109173
0.5605959,-0.2959649,0.10733,-0.8881505,-0.03382159,0.2116991
0.5056865,-0.2793269,0.1007861,-0.6522132,-0.3395165,0.3361112
0.6023871,-0.2683986,0.1429042,-0.3014006,-0.4805593,0.3883486
0.6633605,-0.3118041,0.1384699,0.024826,-0.6599108,0.3083738
0.6994391,-0.2595027,0.1429187,0.2319133,-0.6065654,0.1610341
0.8681568,-0.2565644,0.1690033,0.2670422,-0.4290032,-0.01345582
1.081725,-0.2541008,0.1355958,0.1436015,-0.1037671,-0.168099
1.244347,-0.2316714,0.03209851,-0.1157906,-0.01480243,-0.2197797
1.316522,-0.2411535,-0.07281982,-0.3061239,-0.1326319,-0.04753518
1.387227,-0.1608638,-0.001629699,-0.2359733,0.02909648,0.0990978
1.481854,-0.07932554,0.1566642,-0.2204696,0.501423,-0.04326968
1.458776,-0.03785639,0.1749477,-0.4466852,1.294007,-0.1980309
1.341871,-0.1539525,0.1433619,-0.5015387,1.523701,-0.1446169
1.218436,-0.5232136,0.09333541,0.05246077,0.5785282,0.06782769
1.155768,-0.9137636,-0.04974863,0.9392323,-0.068137,0.2723539
1.146575,-1.089135,-0.1809564,1.40264,0.4608955,0.1490561
1.031898,-0.8459669,-0.1885181,1.320227,0.7729607,-0.2327398
0.8223514,-0.4066599,-0.1182668,0.9794774,0.07094914,-0.514854
0.7332467,-0.1272628,-0.1103496,0.3501936,-0.4586543,-0.5897831
0.8426397,-0.002859951,-0.1188849,-0.2228028,-0.4652989,-0.379792
0.9270059,-0.08798805,-0.0644918,-0.2544681,-0.7910084,-0.09617096
0.8629534,-0.279618,-0.02942237,0.1008144,-1.158611,-0.053174
0.8400354,-0.4833102,-0.0125988,0.6783393,-1.114496,-0.1182824
0.8411079,-0.6045272,-0.0257303,1.233459,-0.9628678,-0.2379247
0.7787862,-0.4154387,-0.0456919,1.43124,-0.9154445,-0.3092599
0.749201,-0.225755,-0.04337657,1.426302,-1.063307,-0.211895
0.7475241,-0.1072288,-0.1001223,1.355396,-1.14829,-0.05095732
0.8556526,0.1037746,-0.1717372,1.106941,-0.6994072,0.2568583
1.022791,0.1501464,-0.2264645,0.6960026,0.01694193,0.5668792
0.9925603,0.1444737,-0.1773223,0.3675405,0.2412305,0.6685857
0.9104224,0.1375179,-0.03275171,0.0665207,0.01230255,0.6555651
0.9307789,0.03134378,-0.03525349,-0.2592867,-0.03333037,0.6262081
0.995889,-0.05455532,-0.08263126,-0.1898912,0.1018424,0.6144529
1.144821,-0.2087745,-0.07347768,-0.01263871,0.2473347,0.4581799
1.242372,-0.3278841,-0.09109261,0.1058158,0.5043621,0.2215123
1.2127,-0.3211945,-0.06044203,0.4826603,0.5519314,0.06413317
1.196343,-0.2299753,-0.01051188,0.5963043,0.1810517,-0.1278878
1.187489,-0.05529436,0.04520694,0.5074047,-0.2662762,-0.3132331
1.197296,-0.02584523,0.05653451,0.5544645,-0.4880761,-0.3769792
1.270416,-0.06510326,-0.06390559,0.3626798,-0.2971704,-0.2359092
1.296961,-0.05564489,-0.1404071,-0.04993138,-0.09908467,-0.1243495
1.166099,-0.1831981,-0.1262143,-0.6786414,-0.4233147,-0.375302
0.9781729,-0.391115,-0.1773571,-1.320265,-0.8057714,-0.6711465
0.962314,-0.5224337,-0.3022925,-1.416285,-0.8496621,-0.7469005
1.080417,-0.5554421,-0.3255328,-0.9366825,-0.2653719,-0.7229114
1.272066,-0.5666655,-0.2176469,-0.3241729,0.907421,-0.5581217
1.516618,-0.5706021,-0.157436,-0.1891687,1.386342,-0.3125067
1.433219,-0.4881894,-0.07474888,-0.4237754,1.010369,-0.2119043
1.108534,-0.3016514,0.072912,-0.6677201,0.5583336,-0.1088919
0.9281495,-0.1056329,0.09139533,-1.042604,-0.001940169,0.17946
0.7666786,-0.05105212,-0.006740609,-1.214401,-0.1453969,0.3754992
0.7555045,-0.05363057,-0.08420632,-1.204481,0.3559948,0.4547144
0.8408199,-0.04478673,-0.09470315,-1.470275,0.8076423,0.5291186
0.7360811,-0.1288743,-0.05450303,-1.553758,1.048383,0.4286548
0.7007246,-0.2443444,0.0253261,-1.30786,0.949619,0.2996553
0.6368306,-0.3302961,0.106519,-1.109497,0.4808156,0.2348606
0.5005893,-0.3570839,0.1445656,-0.8065239,-0.07442248,0.1933143
0.5318713,-0.3304224,0.1647839,-0.4676667,-0.6638403,0.2429721
0.5801845,-0.3172029,0.1600705,-0.1777337,-0.846142,0.1945016
0.7188946,-0.2697863,0.1315242,0.1335596,-0.6278787,0.07056921
0.8874208,-0.2024649,0.09938548,0.2042372,-0.5366551,-0.02494537
0.9995224,-0.1724671,0.08220594,0.1158119,-0.2682731,-0.1321071
1.21425,-0.186086,0.05118939,-0.05232333,-0.03370284,-0.1281416
1.353222,-0.2052633,-0.003225669,-0.3603972,-0.1388452,-0.0579771
1.477032,-0.1551007,0.07450413,-0.4623306,0.03735331,0.008148734
1.598525,-0.09927867,0.1947213,-0.4121997,0.5636393,-0.007297765
1.477769,-0.1235598,0.1751693,-0.5361947,1.157143,-0.09139439
1.277119,-0.2952099,0.1363784,-0.5541361,1.192768,-0.007372273
1.181748,-0.6052054,0.08033479,-0.03547573,0.4524296,0.1934251
1.192478,-0.8753038,-0.06566246,0.7627922,0.1339536,0.3479965
1.12127,-0.9840158,-0.1842534,1.21224,0.6227809,0.1584313
0.8767056,-0.7255459,-0.1405779,1.275773,0.8994957,-0.3027594
0.7391274,-0.207244,-0.0646217,1.033553,0.1923172,-0.4609282
0.7947819,-0.01690384,-0.1468935,0.3897914,-0.595336,-0.4907843
0.8796431,-0.08790133,-0.1754149,-0.1183159,-0.3850658,-0.4629404
0.9203452,-0.1466092,-0.08661353,-0.1135741,-0.3255453,-0.2007769
0.9031506,-0.3655424,-0.05279978,0.1537209,-0.7966519,-0.1107684
0.8388945,-0.5407495,-0.01529465,0.6347471,-0.9056178,-0.1937203
0.7971401,-0.5027167,-0.03644992,1.177177,-0.9524889,-0.3053784
0.8043643,-0.3671679,-0.1038783,1.494873,-0.8241851,-0.3855686
0.8236643,-0.1442286,-0.1080105,1.526453,-0.5299824,-0.3055502
0.8526595,-0.008651613,-0.1208977,1.295339,-0.5984505,-0.1472638
0.8856233,0.05582901,-0.1064084,0.9646235,-0.5043379,0.2057116
0.9302104,0.1798976,-0.100227,0.6735332,-0.2280412,0.5279751
0.94492,0.1680519,-0.1057407,0.438537,-0.1875645,0.5703213
0.9237603,0.02214681,-0.04520028,0.2330216,-0.1625813,0.5915815
0.9668827,-0.05272766,-0.02158582,0.1499657,-0.1613057,0.5692308
1.010704,-0.09816311,-0.03090967,0.2332977,-0.1797801,0.4817042
1.042885,-0.1675078,-0.05292275,0.3420227,-0.08122104,0.3747219
1.163703,-0.2421597,-0.08448294,0.5899918,0.04308093,0.2284707
1.252287,-0.3120609,-0.0811709,0.8643355,0.08953124,0.1145586
1.238344,-0.231354,-0.06186006,0.8751758,-0.02645124,-0.0400754
1.248811,-0.06304474,0.004657505,0.8398298,-0.2264931,-0.1724537
1.279368,0.01839193,0.02865315,0.8132477,-0.2741564,-0.1760643
1.248152,0.001763427,-0.04485291,0.5588367,-0.0794069,-0.1509501
1.227468,-0.1419011,-0.1050455,0.04818083,0.07373604,-0.2041193
1.185386,-0.2541988,-0.1334507,-0.5496656,-0.2146724,-0.3857201
1.015962,-0.3469077,-0.1883191,-0.992337,-0.6947908,-0.5952244
0.9241416,-0.4913769,-0.2791871,-1.041345,-0.7493705,-0.6390591
1.068197,-0.5190397,-0.2676515,-0.5833826,-0.1913549,-0.502571
1.24829,-0.5448379,-0.1844896,-0.06636309,0.6439536,-0.3620329
1.271963,-0.5041155,-0.1043833,-0.04933156,0.9652911,-0.2456123
1.209439,-0.2864842,0.04267046,-0.4131278,0.6447052,-0.1411027
1.101514,-0.09421949,0.03372419,-0.8586834,0.4629091,-0.02395268
0.8925944,0.01522756,-0.06899251,-1.225676,0.4267742,0.2432861
0.7898343,0.01538086,-0.04449185,-1.398478,0.3506609,0.4682683
0.8128958,0.005181137,-0.1074044,-1.576542,0.6260306,0.5398887
0.7490266,-0.03397808,-0.131857,-1.876517,0.9606888,0.5517784
0.7046402,-0.1997118,-0.04248868,-1.953245,0.9092214,0.4348995
0.6811053,-0.3218699,0.008490801,-1.696636,0.5974109,0.3218464
0.6276595,-0.4093329,0.1573837,-1.326652,0.1454312,0.2374715
0.6408321,-0.4334025,0.1867288,-0.8703302,-0.1993489,0.1546327
0.6498132,-0.36361,0.07395852,-0.4391569,-0.2832754,0.1289322
0.671915,-0.3275204,0.1027095,-0.2354892,-0.3390403,0.0325554
0.7488881,-0.2664538,0.08373417,-0.1567751,-0.4555614,-0.03216747
0.8455599,-0.1943615,0.05078681,-0.0766247,-0.4661149,-0.03283818
0.9792089,-0.1468343,0.07451486,-0.1243225,-0.2471429,-0.03045113
1.081295,-0.121926,0.02900951,-0.3110302,0.006641125,0.01889746
1.216355,-0.1210285,0.02662578,-0.4507469,-0.009522949,0.01431913
1.397603,-0.07504381,0.01300066,-0.5923457,-0.05612703,0.03953954
1.434426,-0.086651,0.01241429,-0.7467134,0.2292262,0.06428911
1.428066,-0.135879,0.1220807,-0.7395429,0.6833895,-0.04301525
1.413422,-0.182869,0.1755732,-0.6832124,1.014053,-0.1389485
1.291933,-0.4361303,0.1042666,-0.6309124,0.9565852,-0.125439
1.286947,-0.7874195,-0.08070354,-0.2612268,0.5460936,0.06658947
1.312745,-0.9585832,-0.2435904,0.3902612,0.3900064,0.2733707
1.136606,-0.9393766,-0.2502443,0.8099881,0.8474525,0.2210137
0.9417755,-0.7990904,-0.2001548,0.9107366,1.235991,-0.005927474
0.7823236,-0.5270825,-0.1536983,0.8299268,0.6279626,-0.2665822
0.6872108,-0.2410468,-0.09595944,0.5294714,-0.2043405,-0.4824726
0.720301,-0.1776503,-0.02916127,0.2751769,-0.3422024,-0.563502
0.7404869,-0.2120077,-0.01767858,0.2403001,-0.7902864,-0.5055491
0.7703889,-0.2417194,-0.04336033,0.4073891,-1.493978,-0.3484997
0.8697357,-0.3890579,-0.06144908,0.7852105,-1.499325,-0.1696344
0.9542371,-0.4430271,-0.1508331,1.1609,-1.14995,-0.1310261
0.952077,-0.3393608,-0.1950641,1.415358,-0.5431566,-0.2371591
0.9009986,-0.2258544,-0.1230435,1.463159,-0.1276505,-0.2513631
0.8906422,-0.05325847,-0.06793307,1.335298,-0.4343702,-0.1225998
0.9058703,0.07544342,-0.05384518,1.184135,-0.6372698,0.07314642
0.9382703,0.1012016,-0.08562036,0.9210339,-0.5035753,0.3006123
0.9501088,0.1103151,-0.1136533,0.5991318,-0.4012432,0.4456525
0.9422698,0.05498306,-0.09594932,0.3193356,-0.236412,0.5222006
0.9877142,-0.04571722,-0.08311163,0.1706095,-0.1280381,0.5603585
1.038102,-0.1207373,-0.07184853,0.2197658,-0.131763,0.5180924
1.07286,-0.1698923,-0.07222374,0.3284505,-0.06630065,0.466531
1.092875,-0.1978434,-0.09199814,0.5104236,-0.0003310524,0.3955106
1.115477,-0.2195755,-0.1048003,0.6517106,0.07334925,0.2527971
1.14299,-0.2071001,-0.09084236,0.6407208,0.1807792,0.07190219
1.131932,-0.1088807,-0.04119093,0.6451335,0.03550459,-0.1507704
1.170839,-0.02111867,-0.002072887,0.6471126,-0.2074311,-0.3552456
1.233992,-0.07508202,-0.01758878,0.622195,-0.2249303,-0.4102632
1.233457,-0.1525148,-0.05171215,0.563227,-0.1519966,-0.3457566
1.190711,-0.1660443,-0.07777413,0.2433773,-0.1883864,-0.340502
1.12231,-0.2283668,-0.1285027,-0.4576209,-0.6315456,-0.447032
1.104884,-0.2990086,-0.1844349,-1.02137,-1.0584,-0.5346202
1.093233,-0.423336,-0.2899347,-0.8676041,-0.5137698,-0.5408039
1.080352,-0.6246328,-0.3941829,-0.4045245,0.6124078,-0.5595142
1.162155,-0.5966982,-0.1950564,-0.04691128,1.096598,-0.6090018
1.196254,-0.4851281,0.1186311,0.1529588,0.5488152,-0.5826628
1.136412,-0.4145219,0.1203539,-0.117466,-0.08537411,-0.4398541
1.075031,-0.09695374,-0.02983435,-0.5328479,0.06770302,-0.1534158
1.011948,0.07833761,-0.132017,-0.7891423,0.3408479,0.2056814
0.9610083,-0.01390768,-0.1549229,-1.143919,0.4490054,0.4063297
0.9091775,-0.005799064,-0.1005876,-1.406047,0.8715743,0.4236793
0.8666694,-0.1349151,-0.05729329,-1.564623,1.131222,0.3498718
0.8066949,-0.3071337,0.0460884,-1.554303,1.076493,0.2106382
0.7125965,-0.3093501,0.1220774,-1.210963,0.8135097,0.09443162
0.6656537,-0.3209938,0.07046961,-0.9214604,0.1952953,0.05605208
0.6639203,-0.2999376,0.07585278,-0.6785409,-0.1849765,0.08298886
0.7011751,-0.3187896,0.08344667,-0.4931678,-0.2612398,0.07341524
0.7408105,-0.337885,0.0528914,-0.3167458,-0.2876961,-0.01076522
0.7590433,-0.2666332,0.09853233,0.05136784,-0.2227652,-0.07168285
1.295804,-0.1120066,-0.04502603,0.7585751,-0.3773143,-0.3585047
1.200507,-0.2201829,-0.08369465,0.2880107,-0.1872157,-0.4058795
1.070709,-0.3104217,-0.1183116,-0.2611653,-0.5482627,-0.5520375
0.976145,-0.3517599,-0.1777791,-0.5611114,-0.8210228,-0.6035022
1.030821,-0.3953455,-0.2336412,-0.4484675,-0.499693,-0.5720799
1.193911,-0.4782593,-0.2004271,-0.02975545,0.1108661,-0.5421462
1.346661,-0.5132072,-0.07918572,0.2918528,0.7170632,-0.4128227
1.402142,-0.4117477,0.01465782,0.3686172,0.8144395,-0.3013142
1.200419,-0.2597639,0.04881804,0.07971261,0.5137858,-0.2080144
0.9455054,-0.1282508,0.02368411,-0.4102631,0.4383472,-0.01288998
0.8348378,-0.02866575,-0.03125369,-0.5913134,0.2802555,0.18217
0.7246147,0.01117161,-0.05111793,-0.7474628,0.2018323,0.331517
0.7057802,-0.001752851,-0.05322033,-0.9616551,0.586847,0.3872591
0.7394657,-0.1163568,-0.0197344,-1.014757,0.7689709,0.3349394
0.6574387,-0.243895,0.02581127,-1.018839,0.7175683,0.2714122
0.6001752,-0.297993,0.08341093,-0.7858099,0.4882558,0.1780264
0.5526324,-0.3633029,0.17679,-0.4352599,-0.1038107,0.09958036
0.4999336,-0.3759421,0.1871461,-0.09261936,-0.559711,0.1073052
0.5785907,-0.3302512,0.1534998,0.2677618,-0.8515802,0.09099066
0.706343,-0.2861371,0.1326121,0.4651599,-0.9082286,0.004668842
0.8510008,-0.2130533,0.09857283,0.5365069,-0.6292772,-0.09052117
1.038652,-0.1673511,0.09839716,0.4298327,-0.3894645,-0.1744176
1.180595,-0.1650411,0.05981477,0.2847952,-0.1623683,-0.2218017
1.291395,-0.1558775,0.02068932,0.08339912,-0.07986798,-0.1917825
1.452709,-0.1137413,0.1015404,-0.3169003,-0.08097833,-0.01642503
1.640865,-0.07380751,0.2130385,-0.4837242,0.2576178,0.1518242
1.616717,-0.1529741,0.2440331,-0.4295214,0.8151426,-0.00858048
1.364274,-0.4698776,0.1779836,-0.3093492,1.080752,-0.198361
1.261604,-0.9050576,0.0378805,0.127065,0.8339948,-0.03760372
1.297454,-1.053123,-0.13317,0.8727681,0.625802,0.1525665
1.251592,-0.9444853,-0.1890137,1.486887,0.5881482,0.2202735
1.078327,-0.8890633,-0.1304474,1.579365,0.4999112,0.1334552
0.8310957,-0.7110825,-0.1410128,1.438054,0.4131955,-0.1987447
0.7931679,-0.3940963,-0.121058,1.12284,-0.06721787,-0.4689119
0.8594512,-0.1638068,-0.03472093,0.6212656,-0.721473,-0.5862115
0.819109,-0.03291055,-0.05142724,0.4643268,-1.173479,-0.5029819
0.8555048,-0.08967966,-0.0770201,0.5667179,-1.533921,-0.2303099
0.8713378,-0.23609,-0.06601792,0.8225536,-1.463394,-0.1541288
0.8160048,-0.3733944,-0.09310458,1.36377,-1.240688,-0.1518562
0.797678,-0.4873534,-0.09673244,1.760994,-1.222854,-0.1677795
0.7680961,-0.3618268,-0.1076232,1.856304,-1.189993,-0.2716717
0.8135584,-0.1771021,-0.1700103,1.770861,-1.177897,-0.1435989
0.9177546,-0.02675996,-0.2238901,1.525562,-0.8868929,0.08911859
0.9916401,0.1487644,-0.2372425,1.229647,-0.3337455,0.38459
1.02104,0.1217935,-0.2017323,0.805369,-0.02128482,0.6636539
0.9566453,0.09565514,-0.1428588,0.3960496,-0.0002812481,0.6540166
0.8783527,0.09668383,-0.08041782,0.2663822,-0.1791022,0.6665732
0.8631644,-0.03612947,-0.05518896,0.2011908,-0.3141823,0.6475778
0.9451374,-0.09929898,-0.09413077,0.2169941,-0.2934491,0.4881719
1.114547,-0.1728308,-0.1248995,0.3701204,-0.1367853,0.4247711
1.224439,-0.2499651,-0.1461831,0.5156877,0.1863593,0.3203428
1.253437,-0.2567553,-0.1531759,0.8036629,0.3292158,0.1850915
1.262375,-0.2522151,-0.1060768,0.937984,0.1630301,0.03748271
1.269823,-0.1424625,-0.08100624,0.7540431,-0.04177246,-0.1196469
1.312527,-0.06764191,-0.09366852,0.6629972,-0.06827495,-0.117968
1.336548,-0.1273241,-0.1127462,0.5438196,0.1456307,-0.1164947
1.296872,-0.2073692,-0.1335221,0.1303954,0.2887749,-0.2372001
1.168776,-0.238839,-0.1378053,-0.5890809,-0.02641514,-0.4066069
0.9679412,-0.239247,-0.192776,-1.269574,-0.5545523,-0.5031058
0.9290301,-0.3105833,-0.2912747,-1.346539,-0.5751804,-0.4604203
1.110956,-0.3982356,-0.3063494,-0.9446433,0.09424951,-0.3951672
1.270728,-0.4692318,-0.2327265,-0.5785351,0.9943295,-0.2784122
1.301055,-0.5102672,-0.1375919,-0.4427097,1.340893,-0.1658766
1.20367,-0.4300293,-0.02585034,-0.4929874,0.8243394,-0.1810429
0.9968822,-0.2830921,0.05244318,-0.6596601,0.3470444,-0.0752214
0.8181033,-0.1437912,0.02127366,-0.8174105,0.2940949,0.204379
0.7967301,-0.08051373,-0.04889034,-0.9300008,0.3383725,0.3986406
0.8283204,-0.05116536,-0.1141634,-1.143219,0.6107333,0.507269
0.7698792,-0.02170957,-0.1683903,-1.428544,0.9431765,0.5399703
0.7264157,-0.1304592,-0.09677042,-1.565502,1.04948,0.4025405
0.6773005,-0.2882339,0.03159843,-1.384282,0.7289945,0.2106591
0.5555727,-0.371008,0.09579906,-0.9873724,0.08904705,0.0922102
0.5261943,-0.4004783,0.1470373,-0.5490795,-0.3134152,0.06475649
0.5388597,-0.3684842,0.1567648,-0.1117441,-0.5725806,0.07274376
0.5740836,-0.3430257,0.1332704,0.1982745,-0.7539211,-0.01033606
0.7259493,-0.3063457,0.1280765,0.3774369,-0.7062387,-0.116385
0.8882085,-0.2375707,0.102947,0.4197027,-0.5893783,-0.1296936
1.098641,-0.2111323,0.05385853,0.2925546,-0.4061736,-0.1476167
1.30198,-0.1675521,-0.04430544,0.112254,-0.3417144,-0.1790914
1.373601,-0.1088742,-0.09498815,-0.2224838,-0.2042841,-0.09874915
1.479281,-0.08587157,0.04311206,-0.5502623,0.2993793,-0.005591635
1.58613,-0.08558932,0.1674939,-0.5347491,0.7481226,-0.06456663
1.455688,-0.2287955,0.1162987,-0.4454925,0.9748729,-0.09578165
1.25618,-0.5340626,0.06304245,-0.2649695,0.927055,0.05373047
1.31206,-0.82106,0.01644224,0.3986125,0.7944071,0.2322438
1.313207,-1.009291,-0.12571,1.164118,0.9045362,0.2679264
1.010164,-0.9830683,-0.1610666,1.593346,0.8013438,-0.007661762
0.7495343,-0.6430984,-0.06356787,1.66601,0.3211827,-0.4135807
0.6689999,-0.221214,-0.06252292,1.142466,-0.2448231,-0.5486792
0.8208458,0.01783128,-0.09752521,0.3237221,-0.5744766,-0.5169383
1.014409,0.01230607,-0.110325,-0.08111469,-0.5225049,-0.3944577
0.9783053,-0.09360926,-0.1234535,-0.05588699,-0.7009238,-0.1282562
0.957882,-0.1635206,-0.09405992,0.2934486,-0.9483414,-0.06815176
0.8721475,-0.3817469,-0.07013922,0.8872907,-0.8411403,-0.2166763
0.697718,-0.6089664,-0.03467769,1.357659,-0.8884371,-0.2930225
0.7190226,-0.4431609,-0.03742283,1.556404,-0.9164266,-0.3328245
0.7777186,-0.1346413,-0.1092013,1.546683,-0.8378552,-0.1963822
0.8290976,0.009517654,-0.1483335,1.34606,-0.8150321,0.1345882
0.9212622,0.1215561,-0.1909505,1.031918,-0.4663857,0.3917765
0.9804502,0.1705147,-0.1908361,0.6813035,-0.08585123,0.5865291
1.013965,0.1065111,-0.133616,0.2541046,0.07425426,0.681039
1.006561,0.06728898,-0.09769378,-0.0941839,0.1557079,0.6466691
1.020051,-0.04322748,-0.04339587,-0.101724,0.1547051,0.6181784
1.069415,-0.2201948,-0.02503334,0.06002599,0.1681063,0.5073625
1.139969,-0.2936313,-0.02316402,0.2372081,0.1596522,0.3102067
1.20749,-0.3298983,-0.00234056,0.5303741,0.1760176,0.1240232
1.222438,-0.242966,-0.01832997,0.7119053,0.09306074,-0.07406956
1.250474,-0.0517416,-0.004268028,0.6527676,-0.217579,-0.2490012
1.292758,0.00036323,-0.006470006,0.608921,-0.4361556,-0.3463368
1.296322,-0.09814058,-0.06808341,0.4922619,-0.396749,-0.3227108
1.195632,-0.24936,-0.1046267,0.06841263,-0.272553,-0.3079975
1.008455,-0.2803501,-0.1183471,-0.5581908,-0.3810666,-0.4232911
0.9225264,-0.2937135,-0.1596532,-1.107008,-0.6958882,-0.508734
0.9874021,-0.4143865,-0.2374565,-1.178349,-0.8497526,-0.5288281
1.16335,-0.4768299,-0.2171265,-0.752415,-0.2910932,-0.4818513
1.386456,-0.5413369,-0.1028667,-0.3399774,0.7639064,-0.3066984
1.41643,-0.506212,-0.03416543,-0.2452598,0.9604521,-0.1321807
1.201727,-0.2823231,0.01023308,-0.4296214,0.5679486,-0.04566385
1.011397,-0.1075202,-0.006478259,-0.7523564,0.5450532,0.02957135
0.903481,-0.03173094,-0.03247728,-1.088207,0.4282101,0.2130733
0.7851324,-0.02226149,-0.02097806,-1.310958,0.3330077,0.4002836
0.7469129,-0.01280806,-0.06313395,-1.376836,0.5215013,0.4732512
0.7445052,-0.08315023,-0.04762988,-1.430067,0.7233324,0.5131318
0.6626774,-0.2576704,0.005518325,-1.38206,0.838279,0.436368
0.5914669,-0.3170857,0.0349755,-1.184247,0.657792,0.3144593
0.5575768,-0.3655294,0.1197805,-0.9629786,0.3019,0.2513329
0.5304765,-0.4053159,0.1699231,-0.587227,-0.1584081,0.1532372
0.5696158,-0.3570019,0.1800588,-0.1697272,-0.6573141,0.1246528
0.6651704,-0.3372435,0.1571589,0.1264353,-0.8393869,0.0829273
0.7982353,-0.2478837,0.09998816,0.3170549,-0.7931709,-0.03691406
0.9954192,-0.1612527,0.09859539,0.3182985,-0.6040004,-0.08442855
1.185644,-0.1772361,0.08639034,0.1911729,-0.2586597,-0.131747
1.343922,-0.1732654,0.06595006,-0.1019159,-0.05570549,-0.155504
1.489305,-0.1492714,0.07729688,-0.3908044,-0.1055217,-0.06495879
1.560388,-0.1320704,0.1190808,-0.4209167,-0.004629449,0.02789065
1.556829,-0.1659856,0.1923283,-0.382726,0.5568857,-0.03101465
1.503584,-0.285171,0.1416617,-0.2962844,1.129059,-0.1108487
1.40072,-0.602268,-0.03259761,-0.08507042,1.169435,0.00387495
1.28962,-1.020741,-0.1978308,0.3948364,0.9539158,0.1859764
1.209238,-0.9883847,-0.2286942,1.094203,0.9983095,0.2920919
0.9301646,-0.5782958,-0.05095199,1.478944,0.9245999,0.06817879
0.4787862,-0.3436157,0.05863999,1.42532,0.2400134,-0.4063734
0.5506869,-0.2578998,-0.01763448,1.00703,-0.5002278,-0.541829
0.9287959,-0.1715533,-0.08871816,0.4205659,-0.6336441,-0.469956
0.9920189,-0.06393355,-0.1411005,0.203096,-0.4584492,-0.3264788
1.058071,-0.07188412,-0.1372467,0.3153571,-0.7025264,-0.02064703
0.9700965,-0.3355052,-0.05840738,0.5263657,-1.003852,-0.02707469
0.7550835,-0.4888894,-0.01967199,0.9782626,-0.8685442,-0.2184127
0.8025589,-0.4478247,-0.03476784,1.385724,-0.8448556,-0.2690672
0.7408642,-0.3742655,-0.06173132,1.399301,-0.8047251,-0.2724655
0.751862,-0.1741191,-0.07782862,1.246385,-0.6630011,0.01775443
0.8832849,-0.0264609,-0.09637952,1.085549,-0.6937342,0.3709678
0.8273293,0.0322134,-0.1276409,0.9234903,-0.4699578,0.4278345
0.908766,0.1118187,-0.14658,0.6234899,-0.2017274,0.577455
0.9773788,0.1232753,-0.1245226,0.1843643,-0.1510467,0.7261108
0.9825821,0.04146436,-0.07450689,0.009884595,-0.06580692,0.5746028
1.091962,-0.08296467,-0.07166973,-0.02162228,0.04230088,0.5070277
1.104042,-0.1714621,-0.0664357,0.02910197,0.1057504,0.4820147
1.153482,-0.2800836,-0.008237026,0.3062848,0.06440271,0.2486958
1.204817,-0.3075454,0.01132818,0.506844,0.01322068,0.06554634
1.185441,-0.1982721,0.007288796,0.6618855,-0.1628955,-0.09316696
1.24788,-0.1559932,0.01577187,0.6585278,-0.4013512,-0.2130427
1.283665,-0.1804321,0.02639618,0.503512,-0.3915087,-0.230447
1.253585,-0.2811866,0.02699273,0.3829737,-0.3066102,-0.4033034
1.168012,-0.3766167,-0.06948403,-0.2224214,-0.1251773,-0.5466781
1.067117,-0.4193626,-0.2239793,-0.9603204,0.04009595,-0.5294013
1.049006,-0.485322,-0.272595,-1.042746,-0.07230666,-0.5431134
1.06668,-0.4889306,-0.1780932,-0.763026,-0.1647712,-0.5451845
1.112282,-0.5024283,-0.06261731,-0.4718154,-0.1827336,-0.3829567
1.206233,-0.5195041,-0.02727495,-0.1680359,-0.3240393,-0.07241272
1.257365,-0.4848278,-0.0410045,-0.08778592,-0.3342569,0.03424101
1.217691,-0.4066641,-0.07022178,-0.5708423,0.1799744,-0.04104105
1.17224,-0.2275762,-0.1258485,-1.10523,0.9079318,0.01769705
1.026756,-0.09797032,-0.181245,-1.127289,1.07566,0.2012461
0.7155396,-0.07651686,-0.1225939,-1.039665,0.7026876,0.4250222
0.5865559,-0.1124441,-0.01837381,-1.067627,0.6109622,0.4389467
0.7261977,-0.1737956,-0.06096566,-1.079742,1.041569,0.2875016
0.7725522,-0.2017829,-0.05603414,-1.005555,1.311156,0.2308672
0.6208716,-0.2837054,0.0739619,-0.8528816,1.074102,0.1511299
0.5053672,-0.3775722,0.1036026,-0.7398866,0.7895978,0.04976715
0.5474696,-0.360543,0.07599907,-0.7609132,0.8186871,-0.03193889
0.6598323,-0.2989866,0.05842874,-0.8875073,0.8913281,-0.1002417
0.7593307,-0.2602565,0.1167164,-0.7815307,0.8166765,-0.1018243
0.796457,-0.2109911,0.283439,-0.3826768,0.5896834,-0.1296357
0.8780209,-0.1689762,0.3685693,-0.007135299,0.04837863,-0.139635
1.065593,-0.1787144,0.3010572,0.069008,-0.3273181,-0.115933
1.189496,-0.163855,0.186994,-0.2056781,-0.2789778,-0.1282422
1.322734,-0.1302119,0.1925324,-0.4470775,-0.2535613,-0.04334092
1.492174,-0.1355264,0.286819,-0.5552298,-0.02235008,0.05479196
1.478558,-0.1758881,0.3413693,-0.5351017,0.3741379,0.01297219
1.386283,-0.3337143,0.353762,-0.3004847,0.3584381,0.01211686
1.338714,-0.5860574,0.2325376,0.05391178,0.1169378,0.1490396
1.2443,-0.7915681,0.04095567,0.5984408,-0.1624291,0.3267011
1.088755,-0.8494848,-0.06824524,0.9790618,-0.4578529,0.378894
0.905073,-0.6776573,-0.05045808,1.076742,-0.2161824,0.1346904
0.7928956,-0.3547891,0.004453808,1.071998,0.1612583,-0.2506843
0.8127632,-0.111335,-0.05735625,0.6621018,-0.2308203,-0.461396
0.9106033,-0.07363133,-0.05366025,0.2377684,-0.629199,-0.4669625
1.011654,-0.1519649,-0.01705983,0.06462166,-0.6630118,-0.3658
1.001738,-0.2520233,-0.06913867,-0.03312586,-0.793605,-0.2117346
0.8736925,-0.3984037,-0.02944994,0.2170173,-0.6796032,-0.1344589
0.742002,-0.4966031,-0.02647873,0.5848227,-0.623572,-0.1929829
0.6998812,-0.4514913,-0.04383151,0.8729032,-0.8191965,-0.2718552
0.7540473,-0.3561475,-0.02032568,1.16461,-0.9118356,-0.2764123
0.821131,-0.2083487,-0.09993101,1.239661,-1.021181,-0.1474359
0.9055194,-0.04516298,-0.1538211,1.135074,-0.8479357,0.1474362
0.9831021,0.01223032,-0.1733451,1.036654,-0.4236083,0.4446482
0.9684802,0.06562067,-0.1592047,0.8266065,-0.08635083,0.5821738
0.9662582,0.111795,-0.09048721,0.345112,0.08857498,0.6318887
0.9984183,0.07805224,-0.04721111,-0.02263592,-0.02011425,0.6190497
1.001593,-0.009742963,0.01017645,-0.009230162,-0.02397394,0.5407217
1.055351,-0.18314,0.002167592,0.1223172,0.01075895,0.4660775
1.125257,-0.2664539,-0.01406386,0.3180026,-0.08529492,0.3758744
1.164557,-0.2451624,0.01884467,0.5625351,0.06481322,0.3166122
1.201187,-0.2804973,0.002669834,0.811683,0.11604,0.228238
1.201272,-0.1907575,0.01553205,0.8924879,-0.1814992,-0.02973908
1.219236,-0.04225117,-0.004333189,0.6177555,-0.4643921,-0.268531
1.281805,-0.08607275,-0.07594367,0.2238504,-0.4278017,-0.3690365
1.27535,-0.2295104,-0.09442979,-0.2035615,-0.1251049,-0.4587124
1.148928,-0.3480723,-0.1011769,-0.7216735,0.006582815,-0.5810177
1.033552,-0.3642605,-0.1040174,-1.124712,0.01149459,-0.6449262
1.092859,-0.3445424,-0.1532018,-1.14308,0.2062902,-0.5989275
1.24402,-0.4579971,-0.2015203,-0.886029,0.4947203,-0.5381206
1.318596,-0.5612531,-0.1283992,-0.6735396,0.5219029,-0.4096205
1.302483,-0.5041102,-0.0319505,-0.5308601,0.4260429,-0.2585937
1.228781,-0.3849962,-0.001059768,-0.5781653,0.7187313,-0.2633057
1.099579,-0.2176645,-0.008729697,-0.7903784,0.9026887,-0.1350707
0.8853585,-0.07543332,-0.01019576,-0.942631,0.6307644,0.1693903
0.7293403,-0.08269974,-0.008620597,-1.080385,0.488128,0.2551832
0.7610568,-0.1192443,-0.0239448,-1.130884,0.5961572,0.2482192
0.7661086,-0.1493299,-0.0201654,-1.163247,0.8016225,0.3146461
0.708686,-0.2406274,0.02980076,-1.194263,0.8786213,0.2700399
0.6797793,-0.3047666,0.1046268,-1.00504,0.6201836,0.180128
0.5958491,-0.3112108,0.1431668,-0.7234577,0.1278998,0.1324787
0.5423273,-0.3055401,0.164544,-0.3985414,-0.2962806,0.07898161
0.5458804,-0.2875489,0.1861243,-0.1225082,-0.4422136,0.09631794
0.6142561,-0.2431383,0.1619216,0.01448108,-0.5042423,0.09630919
0.8052398,-0.1835124,0.1486738,0.1264784,-0.3846584,0.01356201
0.957124,-0.1611577,0.1344188,0.05787307,-0.1070953,-0.02224463
1.062318,-0.1779799,0.1023406,-0.05202802,-0.04298138,-0.03353139
1.193956,-0.1848455,0.1139795,-0.1267697,-0.10932,0.029033
1.320402,-0.1625302,0.1164989,-0.3237597,-0.1623335,0.1579273
1.456106,-0.1259428,0.1539774,-0.3646377,0.03793479,0.1479142
1.51727,-0.1242487,0.2280334,-0.4101786,0.4503937,0.01842057
1.450808,-0.2561271,0.1915607,-0.5536735,0.6134684,-0.05076718
1.400072,-0.5666507,0.08161122,-0.2545751,0.4347724,0.1105155
1.38755,-0.8800746,-0.04490454,0.4089599,0.2509109,0.3112737
1.150002,-0.9467814,-0.109811,0.9868544,0.4687225,0.1955211
0.7620884,-0.6786855,-0.03903668,1.212327,0.5695476,-0.0736746
0.6684774,-0.2261535,-0.01440524,0.9924237,0.09764303,-0.3338701
0.8151794,0.04788049,-0.07215297,0.4742874,-0.3142912,-0.4598897
0.8792531,-0.005446446,-0.07669398,-0.1900696,-0.4177744,-0.2551335
0.9427929,-0.1054417,-0.06364083,-0.4168858,-0.4271512,-0.09662462
1.067738,-0.151618,-0.04831124,-0.006935627,-0.5375724,-0.125239
0.9686153,-0.3451323,-0.01701318,0.2980948,-0.6698598,-0.1059668
0.7597162,-0.5108208,-0.007460625,0.623981,-0.6422474,-0.1947006
0.7671769,-0.4410336,-0.02226367,1.098294,-0.6280143,-0.2905938
0.776076,-0.3319733,-0.04782838,1.173657,-0.5846557,-0.2188662
0.7664644,-0.1930817,-0.05384655,1.180773,-0.6079099,-0.0745454
0.861595,-0.05801867,-0.06958896,1.124814,-0.6693683,0.1770131
0.8804471,-0.00843243,-0.1131474,0.8099409,-0.4878389,0.410624
0.8950904,0.1157772,-0.1156142,0.5664965,-0.3408379,0.5520178
0.9419481,0.1184017,-0.09348521,0.2424958,-0.2847267,0.6634562
0.9696803,-0.03045455,-0.07790074,0.07162316,-0.2147351,0.6537072
1.049673,-0.07741122,-0.04890357,0.1843348,-0.1393466,0.5757836
1.118288,-0.1869069,-0.02067614,0.2841004,0.02524811,0.481334
1.176029,-0.272304,-0.00846913,0.5400677,0.1407756,0.320057
1.21508,-0.2487373,-0.01679116,0.7391908,0.1551776,0.1733722
1.217699,-0.2926321,-0.01550622,0.791841,-0.03205481,0.03398092
1.226662,-0.2049973,0.01093386,0.8674612,-0.3661065,-0.1566744
1.207917,-0.05259322,0.01659083,0.7950041,-0.4648774,-0.2499987
1.209488,-0.06606102,-0.0335273,0.5562441,-0.2187264,-0.2490313
1.198222,-0.1426323,-0.1085015,0.001215027,0.1357394,-0.3644727
1.1168,-0.2572916,-0.1273014,-0.8017855,0.04934097,-0.5566835
1.045456,-0.3407114,-0.1197805,-1.438367,-0.6892395,-0.7275204
1.053175,-0.3891994,-0.1689185,-1.590974,-1.236178,-0.8083098
1.229597,-0.4694854,-0.2284752,-1.052658,-0.4706469,-0.5949847
1.442102,-0.4893428,-0.2302099,-0.4380865,0.8603688,-0.2218189
1.451712,-0.4513296,-0.1337117,-0.4118821,1.116067,-0.08012407
1.268874,-0.3317806,0.003798459,-0.71834,0.9033535,-0.115153
0.9885423,-0.1497913,0.03138091,-1.059375,0.8213812,-0.03936427
0.7397496,-0.06622351,-0.01733147,-1.257292,0.4811068,0.1579884
0.6511927,-0.072871,-0.02695982,-1.245325,0.5088209,0.3501942
0.6830856,-0.07952857,-0.02858035,-1.237164,0.7240669,0.4594889
0.6664026,-0.09579751,-0.03760164,-1.299761,0.6948279,0.4515491
0.6180833,-0.1734481,0.004592095,-1.336578,0.7056507,0.3205538
0.6268902,-0.2743659,0.08644725,-1.256674,0.5106555,0.1326985
0.57797,-0.3274338,0.1442263,-1.030532,0.1968612,0.05123672
0.5272031,-0.3226017,0.1737717,-0.6654178,-0.1788523,0.09351583
0.5790701,-0.2812397,0.1879083,-0.2367588,-0.6141252,0.09591427
0.6788263,-0.2452083,0.1652853,0.04293476,-0.7501197,0.04886541
0.8651398,-0.213034,0.1206385,0.08428533,-0.6300694,-0.004837303
1.072603,-0.2156971,0.08712366,-0.04115378,-0.2981724,-0.1240609
1.190495,-0.2361647,0.05785161,-0.2165223,-0.08178292,-0.1873406
1.294321,-0.202428,0.05933246,-0.3564635,-0.2166685,-0.09337882
1.504407,-0.1693697,0.1344724,-0.4375879,-0.204424,0.009768228
1.6773,-0.1705455,0.1915564,-0.4066406,0.2990535,0.0385097
1.530796,-0.3261294,0.1248306,-0.3583417,0.9782731,-0.01400613
1.329791,-0.6812308,0.02904469,-0.2491306,1.049551,-0.03006319
1.352732,-0.9343347,-0.01331081,0.2768606,0.606106,0.1807832
1.276321,-0.9616868,-0.09526028,1.086004,0.4277695,0.3420749
0.9811146,-0.8264659,-0.1583013,1.576113,0.4910635,0.04229283
0.6657413,-0.5174615,-0.06250729,1.494262,0.3660027,-0.4293101
0.5867213,-0.1515657,0.008654091,1.051867,-0.1393745,-0.6005264
0.8348095,0.0634109,-0.07962203,0.5302263,-0.5995357,-0.5459746
1.017214,0.03516223,-0.1505294,0.1664343,-0.6536113,-0.3099131
1.028368,-0.1476245,-0.1340763,0.1551467,-0.644514,0.04082959
0.993358,-0.3819717,-0.07261668,0.4201661,-0.6462217,0.05023501
0.8295775,-0.4987068,0.0005378397,0.8143067,-0.5896272,-0.2008277
0.7242037,-0.3987077,0.001883675,1.169468,-0.6417116,-0.3424173
0.7276101,-0.2738562,-0.03801459,1.297171,-0.7692851,-0.3965905
0.7609575,-0.1015854,-0.0560449,1.302285,-0.8693378,-0.2182156
0.8539989,0.08826408,-0.1100773,1.184206,-0.8576558,0.154067
0.9041072,0.07800292,-0.1662316,0.9322992,-0.5409979,0.4574952
0.9555352,0.06285671,-0.1508834,0.6783867,-0.04815244,0.6961158
0.9710522,0.06226246,-0.1102277,0.3930931,0.1210263,0.7460924
0.9471275,-0.039229,-0.0687178,0.2203248,0.02014208,0.6646489
1.007466,-0.0968897,-0.04287036,0.2090382,-0.01600731,0.6340853
1.085027,-0.183338,-0.03330912,0.2753436,-0.05354077,0.4981362
1.201077,-0.2769589,-0.02513764,0.4601136,-0.01068966,0.3112546
1.256768,-0.2824767,-0.04316138,0.6758388,0.1099386,0.1857615
1.215366,-0.2738021,-0.02604928,0.841952,0.03110428,0.01300397
1.234012,-0.2264796,-0.003609371,0.8303422,-0.1984362,-0.182582
1.241556,-0.1493043,-0.0561579,0.6890477,-0.3214331,-0.2914346
1.245348,-0.06732401,-0.09012143,0.4477661,-0.07332262,-0.2968288
1.223386,-0.1022597,-0.09743162,-0.1376567,0.229584,-0.3493226
1.067334,-0.3067845,-0.1330213,-0.787016,-0.1218271,-0.4941257
0.9179405,-0.4284876,-0.1788681,-1.136664,-0.7131633,-0.6442015
0.9781681,-0.4203107,-0.1923679,-1.118043,-0.7629576,-0.7300162
1.244435,-0.4472031,-0.1604965,-0.7107311,-0.08521289,-0.5241626
1.495196,-0.5556128,-0.1460435,-0.2791856,1.028042,-0.1874733
1.554003,-0.5710438,-0.1068249,-0.1851679,1.367002,-0.1096025
1.335503,-0.3797683,-0.01927748,-0.5441954,0.8321207,-0.09357087
0.9610992,-0.1457187,0.03910177,-1.057065,0.5586759,0.05240705
0.7433483,0.02379763,0.03542146,-1.295985,0.4471624,0.2426827
0.7456865,-0.004807666,-0.03949798,-1.431869,0.4552798,0.4073005
0.7473311,-0.0874229,-0.07430665,-1.496426,0.7049582,0.4779078
0.631919,-0.05362775,-0.04763848,-1.421663,0.7191876,0.4798174
0.6236018,-0.2087651,-0.01117776,-1.350752,0.6442851,0.3625892
0.6484903,-0.3454928,0.08175131,-1.152315,0.5045892,0.1754026
0.5472441,-0.3221826,0.1380932,-0.8938176,0.1685764,0.1105398
0.5729408,-0.3854518,0.159078,-0.5677922,-0.2994586,0.1376083
0.5777835,-0.3268872,0.1960438,-0.1171676,-0.8497792,0.144067
0.5853751,-0.2575858,0.1711852,0.06550819,-0.949799,0.08419909
0.79499,-0.2572285,0.1379155,0.04276143,-0.6924394,0.01374487
0.9698007,-0.187599,0.09958896,0.04215834,-0.3564748,-0.04132397
1.186119,-0.2260812,0.02273202,-0.1100427,0.1790942,-0.09985649
1.326279,-0.2364498,-0.003836512,-0.3454412,0.2394247,-0.09111542
1.342211,-0.1806312,0.07215173,-0.4453918,-0.009198199,-0.007478258
1.535368,-0.1526659,0.1887335,-0.4132339,0.2506098,0.05978956
1.616183,-0.1031796,0.2156682,-0.4435716,0.6418514,-0.06132801
1.446463,-0.2250986,0.1589154,-0.4598997,0.9417945,-0.2000342
1.272936,-0.522312,0.08528069,-0.09881678,0.911368,-0.003107505
1.206816,-0.8412428,-0.03821942,0.512757,0.5179476,0.2624356
1.167141,-1.00517,-0.1613642,0.9898226,0.5402903,0.3040483
1.005564,-0.8625191,-0.1599229,1.233743,0.5629085,0.1403169
0.8541926,-0.5451633,-0.1070802,1.188595,0.2649279,-0.2041715
0.7890644,-0.2132864,-0.1201884,0.7556787,0.136539,-0.5115407
0.8472596,-0.1233074,-0.08553649,0.2381654,-0.07071839,-0.6140624
0.9567127,-0.2156173,-0.01629143,0.2381846,-0.4597525,-0.4509338
0.8942738,-0.2052802,-0.01246948,0.5637718,-0.9808189,-0.2102375
0.8632302,-0.346314,-0.009008592,0.8225352,-1.067752,-0.2163091
0.8803302,-0.4891509,-0.04575465,1.258771,-0.5585354,-0.2763269
0.7693469,-0.3441898,-0.07492126,1.513947,-0.4769158,-0.2573536
0.7158568,-0.2258747,-0.03341301,1.341899,-0.5785469,-0.2313422
0.726338,-0.0429779,-0.03486465,1.225299,-0.5889796,-0.04475301
0.7881534,0.1400835,-0.06930261,0.9853272,-0.6095902,0.2621671
0.9305395,0.09127548,-0.1229638,0.6124425,-0.2432445,0.5489669
0.9716977,0.1074414,-0.1407295,0.3924147,0.03418391,0.6950115
0.96031,0.09350557,-0.07410908,0.09527766,0.05487882,0.6765871
1.016151,-0.02007046,-0.03078099,-0.07734395,0.05245233,0.6285202
1.084238,-0.09232467,-0.0138239,0.0176631,0.1208726,0.4968159
1.137252,-0.2187293,-0.004136828,0.1268598,0.2041361,0.3337613
1.180272,-0.2636733,0.009700165,0.3647949,0.08201339,0.2257042
1.223572,-0.2440624,0.02686212,0.6531165,0.09733019,0.09660231
1.235868,-0.2026878,0.01483922,0.7354069,-0.0614735,-0.01555761
1.235396,-0.0388742,0.01759282,0.6684661,-0.439461,-0.142588
1.260027,0.03313288,0.002051689,0.4958593,-0.4194411,-0.2289592
1.238137,-0.09178254,-0.03431699,0.1551372,-0.2099361,-0.213859
1.153148,-0.2731288,-0.05228687,-0.3507918,-0.0152654,-0.3261631
1.051008,-0.3591894,-0.0877282,-0.9427688,-0.2814651,-0.5488885
1.02129,-0.3744624,-0.1421228,-1.344646,-0.9212626,-0.6482139
1.110248,-0.4464727,-0.1991731,-1.18472,-1.013382,-0.6316777
1.233644,-0.5007279,-0.1871712,-0.6732558,-0.1886113,-0.4910081
1.414306,-0.5118346,-0.1173247,-0.2648292,1.067219,-0.2363174
1.525884,-0.4948497,-0.05770026,-0.1269611,1.288609,-0.1652319
1.277358,-0.3441413,0.01902059,-0.4822447,0.6867933,-0.2190494
0.8787998,-0.08239672,0.03337279,-1.012933,0.4795817,-0.04234565
0.7192952,0.03796816,-0.01870326,-1.299351,0.2577201,0.2055998
0.7398192,-0.05149971,-0.04270445,-1.500707,0.2952918,0.3516107
0.7305575,-0.07742166,-0.06290427,-1.54958,0.650301,0.4508053
0.6911783,-0.1080971,-0.03058776,-1.546521,0.694819,0.4419664
0.6863985,-0.2914923,0.05054794,-1.501715,0.8114562,0.3610939
0.6420333,-0.3890923,0.08724746,-1.224167,0.6462253,0.2550269
0.5647371,-0.4067212,0.1192925,-0.9356609,0.1302403,0.1750077
0.5501661,-0.4197645,0.1847639,-0.4939398,-0.2042755,0.175564
0.575893,-0.3618191,0.2281141,-0.005090579,-0.6792628,0.1430086
0.6848229,-0.2938757,0.1798582,0.256499,-0.9094946,0.02892891
0.8810112,-0.1958552,0.1089245,0.4052571,-0.6287941,-0.09177626
1.060363,-0.1270859,0.07849983,0.2411774,-0.3248379,-0.1244015
1.197397,-0.168109,-4.845635e-05,-0.05298441,-0.08442352,-0.06571241
1.281438,-0.1809165,-0.03134365,-0.3255656,-0.1116821,0.02761429
1.418533,-0.1535174,0.1048013,-0.570777,-0.2061594,0.1991896
1.64513,-0.1454644,0.2750426,-0.4667273,0.07142345,0.2741696
1.670107,-0.1302896,0.3305814,-0.4137505,0.607501,0.04068434
1.375012,-0.1466649,0.2740477,-0.5213084,1.130133,-0.1612359
1.136969,-0.2617629,0.2219322,-0.3649814,1.062262,-0.06135682
1.198233,-0.5925003,0.08482137,0.02798871,0.5609907,0.08435855
1.227873,-0.9991314,-0.175941,0.7221784,0.4526274,0.2087921
1.10162,-0.9507066,-0.229867,1.283064,0.5453756,0.3183053
1.002368,-0.5386992,-0.1323694,1.223948,0.5545046,0.1252417
0.8365403,-0.3124495,-0.1680156,0.9672892,0.4832435,-0.2523298
0.7708761,-0.2267195,-0.1655637,0.6337232,0.2547114,-0.5148999
0.8807457,-0.1979943,-0.05458003,0.3121035,-0.0482475,-0.6451056
0.8234472,-0.1846016,0.01333367,0.3416435,-0.7309441,-0.4622016
0.7953865,-0.1542431,0.02146727,0.5174131,-1.298921,-0.1660811
0.8714636,-0.3364513,-0.02460189,0.8289098,-1.070679,-0.1444958
0.8208629,-0.4532968,-0.06002032,1.286204,-0.7848798,-0.1685481
0.8204024,-0.3818441,-0.07374215,1.544413,-0.6739253,-0.2132834
0.8096739,-0.2912537,-0.09440556,1.561861,-0.6468957,-0.2861842
0.7940978,-0.03090042,-0.07712498,1.359868,-0.7626592,-0.09682811
0.9104317,0.1405901,-0.09727636,1.027426,-0.5369489,0.2199918
0.96916,0.1539586,-0.1265169,0.652596,-0.1710612,0.4811648
0.987404,0.1679647,-0.09081279,0.2058314,0.02158254,0.6336901
0.9753199,0.07629478,-0.05485611,-0.06592516,0.02057168,0.6259092
0.9718601,-0.02484703,-0.005909328,-0.05529997,-0.170209,0.5803666
1.069505,-0.1540324,-0.005787275,0.09817666,-0.1412662,0.5115315
1.143846,-0.245542,-0.04958353,0.3315454,-0.02071165,0.3824779
1.204508,-0.2306649,-0.03814388,0.5508112,0.05216184,0.2676195
1.19897,-0.2136263,-0.02878206,0.6389512,0.1032106,0.1581079
1.174037,-0.1219196,-0.002008314,0.5786311,-0.1420128,-0.03612345
1.230766,-0.06749543,0.02090883,0.4690103,-0.29924,-0.233708
1.256362,-0.1093105,-0.02749629,0.2668496,-0.2244255,-0.3222139
1.29277,-0.182347,-0.06259311,-0.1278947,-0.2263964,-0.3902052
1.211774,-0.2805015,-0.07876607,-0.6291447,-0.3215255,-0.4465686
0.9840907,-0.3381853,-0.1321881,-1.097715,-0.6690341,-0.4648823
0.9181301,-0.4102186,-0.1994656,-1.192178,-0.8815557,-0.4713901
1.077701,-0.4704043,-0.2001114,-0.7838958,-0.1809462,-0.4350221
1.338197,-0.5064962,-0.1348234,-0.3984885,1.00978,-0.3620005
1.423056,-0.5370224,-0.05816185,-0.3025021,1.29613,-0.259564
1.264,-0.4267785,0.05169477,-0.3605379,0.6482924,-0.1850197
1.080821,-0.2297505,0.09870815,-0.5871152,0.2815063,-0.07433448
0.9177309,-0.0832352,0.03794684,-0.8630515,0.3041868,0.1835956
0.836383,-0.01558632,-0.02497871,-1.048481,0.4006332,0.3788693
0.8252726,-0.01401146,-0.08976418,-1.239095,0.6543217,0.4436569
0.784772,-0.05312524,-0.09079891,-1.461942,0.9632558,0.472415
0.7223389,-0.1481815,-0.03011599,-1.503329,1.042246,0.3894449
0.6271952,-0.257573,0.01476867,-1.326897,0.7412413,0.2810981
0.5508277,-0.3237263,0.1182381,-1.130023,0.4295319,0.251457
0.5191822,-0.3496573,0.158039,-0.8243412,0.1038639,0.2377306
0.5188912,-0.350671,0.1207454,-0.4270813,-0.3824812,0.2203352
0.58319,-0.3452371,0.1779579,-0.07376321,-0.7422287,0.1482472
0.7126987,-0.3195579,0.1706511,0.2166369,-0.8678768,-0.009990405
0.9032077,-0.2513405,0.1124854,0.2727529,-0.5586872,-0.146282
1.074164,-0.1846898,0.1090293,0.2120508,-0.1728186,-0.1794438
1.165269,-0.1796025,0.05753364,0.0538566,-0.1592784,-0.1447265
1.287848,-0.1728121,0.06765459,-0.3121105,-0.2221169,-0.03906309
1.48509,-0.1163204,0.1190676,-0.500846,-0.1983228,0.1058877
1.572484,-0.09788818,0.160736,-0.4225888,0.2942108,0.07714031
1.506889,-0.1246375,0.2519236,-0.4053776,1.072877,-0.1124298
1.427197,-0.2576654,0.1935735,-0.430682,1.176637,-0.1643992
1.290833,-0.5778822,0.0500114,-0.05599064,0.6564189,0.04789733
1.204114,-0.8562595,-0.03642119,0.638195,0.3370952,0.319824
1.192462,-0.9484846,-0.1366285,1.045901,0.5649008,0.2768405
0.9997144,-0.855161,-0.1135511,1.194273,0.6542297,-0.01896753
0.8561337,-0.4945997,-0.06632359,1.126887,0.2231955,-0.2838918
0.8785682,-0.113324,-0.1337042,0.6771952,-0.05156682,-0.5346783
0.8761284,-0.05104098,-0.1145134,0.1683523,-0.09405155,-0.5769769
0.9248999,-0.1558311,-0.05067151,0.04040197,-0.4283826,-0.3471005
0.8869225,-0.1994764,-0.01744106,0.3200849,-0.9063918,-0.16382
0.7951071,-0.3554064,0.01925627,0.6850552,-0.9307837,-0.1596725
0.7899603,-0.5524686,0.002365304,1.232419,-0.7303911,-0.2855854
0.7343399,-0.4616667,-0.009715245,1.763319,-0.7940821,-0.3524317
0.7543634,-0.2753152,-0.04102528,1.698393,-0.7745007,-0.3358265
0.8350555,-0.04908646,-0.0957587,1.417429,-0.6808209,-0.1590379
0.9064879,0.2333379,-0.1032257,1.040033,-0.5130676,0.2954373
1.016628,0.2499338,-0.1305364,0.4691067,-0.02727575,0.6082456
0.9995516,0.1951836,-0.09937964,0.09542838,0.1677425,0.6476351
0.9559507,0.1569028,-0.01326199,-0.2442934,0.03416196,0.6160394
0.9777144,-0.02461038,0.01572766,-0.4100006,0.04535352,0.5493203
1.00274,-0.1511982,0.03233632,-0.1867406,0.02496509,0.4954486
1.115376,-0.2565694,0.002551398,0.088576,-0.01241853,0.3946469
1.212413,-0.3315956,-0.02730318,0.4907298,0.07250803,0.3112468
1.22206,-0.2812676,-0.01004414,0.8295627,0.119223,0.2120884
1.215895,-0.1796272,-0.01770763,0.7926051,-0.05815901,0.002934676
1.228493,-0.02061552,-0.01654927,0.5779789,-0.3118075,-0.2135145
1.293935,0.01661531,-0.02576244,0.2485764,-0.3368838,-0.3981214
1.315437,-0.1355393,-0.05733109,-0.1264934,-0.2556827,-0.3945816
1.210037,-0.2711753,-0.08464142,-0.5920982,-0.3117253,-0.3643629
1.043935,-0.341887,-0.1397548,-1.152162,-0.584664,-0.4798824
0.973385,-0.4072657,-0.2055725,-1.287667,-0.7907234,-0.4844814
1.058921,-0.4925168,-0.24616,-0.9176208,-0.3283677,-0.4871653
1.140499,-0.5493686,-0.2042323,-0.4883486,0.5387002,-0.4773927
1.201953,-0.5407332,-0.06326436,-0.1769782,0.8334072,-0.3581745
1.284231,-0.4604988,0.07216578,-0.131173,0.5305238,-0.3105911
1.225371,-0.2798034,0.06011496,-0.4742637,0.3788556,-0.1266434
1.042525,-0.06528751,-0.02946883,-0.9288011,0.4695053,0.1796203
0.9031201,0.03056,-0.02234446,-1.150256,0.4623588,0.3263927
0.8271358,-0.009732904,-0.03381229,-1.298881,0.4942396,0.3874897
0.7731649,-0.05459501,-0.0600959,-1.529021,0.6407677,0.3970417
0.7057749,-0.1378404,0.02115799,-1.53272,0.6027792,0.3475163
0.6555136,-0.3020229,0.08401775,-1.300655,0.4646853,0.2598928
0.6422625,-0.3664418,0.1238201,-0.9821547,0.3490782,0.1501542
0.6209063,-0.3324524,0.1314167,-0.6091844,0.1256882,0.08492816
0.5986198,-0.3245258,0.1195969,-0.3474223,-0.1202483,0.07779945
0.5777296,-0.2958169,0.1741001,-0.0895126,-0.420903,0.09421511
0.6344904,-0.2353539,0.1631851,0.1713608,-0.6323512,0.04205423
0.7985395,-0.1838251,0.1351901,0.2417122,-0.5314103,-0.03389465
0.9449439,-0.1524411,0.1359398,0.1793933,-0.4265682,-0.05314596
1.100821,-0.1548886,0.0664185,0.02238375,-0.3366721,-0.05305592
1.265911,-0.1530863,0.0280289,-0.1653811,-0.2297608,0.03818002
1.417917,-0.1254815,0.06647193,-0.3155301,-0.2151201,0.1940294
1.568693,-0.1059824,0.1693274,-0.3688206,0.187353,0.2312313
1.522107,-0.1121943,0.2599821,-0.3655262,0.9483621,0.07931789
1.334961,-0.2188162,0.2431648,-0.4001219,1.235725,-0.1066896
1.239002,-0.487171,0.1648894,-0.2571745,0.9232543,-0.09750417
1.228249,-0.7730102,0.008759217,0.1238008,0.5608267,0.05985351
1.221606,-0.8749146,-0.1377392,0.7204074,0.3578001,0.1620167
1.050318,-0.7284508,-0.1229554,1.263042,0.3967966,0.09066761
0.7672728,-0.4108947,-0.05114727,1.218933,0.488474,-0.09630253
0.6658826,-0.112826,-0.05014113,0.8308224,0.04061928,-0.2749735
0.7888504,-0.02299292,-0.05626696,0.3371101,-0.4186381,-0.437401
0.9042414,-0.1080671,-0.03275852,-0.09193367,-0.3636059,-0.4360606
0.8494036,-0.2496598,-0.01425039,0.0143998,-0.6810781,-0.2148838
0.8093116,-0.4830156,0.01597935,0.4124983,-1.233671,-0.05930322
0.8137688,-0.5769879,-0.01149146,0.9194979,-1.220136,-0.1123204
0.7528427,-0.4100954,-0.1000985,1.429609,-1.081873,-0.2092833
0.7918171,-0.3361774,-0.1451862,1.561957,-1.037983,-0.1810464
0.8424805,-0.2327144,-0.1515471,1.550525,-0.8121287,-0.08752479
0.8473907,-0.04464638,-0.1324046,1.461771,-0.6222602,0.09618096
0.9357062,0.01043957,-0.1302948,1.159797,-0.4432686,0.3919269
0.9864965,0.1779604,-0.1161438,0.8033723,-0.18148,0.5554641
1.002071,0.2351587,-0.06884822,0.3753973,-0.1981,0.6007387
1.044423,0.02152214,-0.0654263,0.06910094,-0.1675482,0.5846303
1.105282,-0.08401306,-0.02074505,0.05692915,0.06494223,0.4780306
1.123638,-0.1591335,0.02184058,0.2201389,-0.08145013,0.4084622
1.083385,-0.2053163,-0.01933911,0.4846187,-0.1780118,0.3616124
1.152275,-0.2231558,-0.03527336,0.6727368,0.0240107,0.2893441
1.204944,-0.2957065,-0.04340438,0.7492596,0.002640314,0.0638275
1.196861,-0.2090573,-0.03364873,0.7409565,-0.1790667,-0.2494639
1.278934,-0.1231363,0.00201664,0.6515308,-0.322647,-0.3365477
1.305937,-0.1442664,-0.01204654,0.5457803,-0.170806,-0.3153173
1.260351,-0.1922193,-0.02239774,0.1680051,0.006318193,-0.3624689
1.155404,-0.3164573,-0.03945936,-0.4808196,-0.3543404,-0.4510752
0.9869335,-0.3232435,-0.1306305,-0.9491954,-0.6865999,-0.5412774
0.9706258,-0.3265669,-0.2483884,-0.9774702,-0.4777385,-0.5648812
1.149554,-0.4722032,-0.2943025,-0.6064255,0.244656,-0.5077493
1.322315,-0.5481117,-0.1924695,-0.2138943,1.060745,-0.4192954
1.303016,-0.5688509,-0.01822801,-0.07604197,0.9863929,-0.3938755
1.147941,-0.4342269,0.07210731,-0.1749866,0.3668935,-0.3063328
0.9813505,-0.1595774,0.04540144,-0.4263821,0.1563925,-0.07346004
0.8603915,-0.03057145,-0.03157801,-0.722172,0.1319699,0.1722223
0.8681504,0.01912427,-0.09397876,-1.038907,0.3954784,0.3582862
0.8835375,0.02994424,-0.1094287,-1.262795,0.9302273,0.3955938
0.8031497,-0.05592366,-0.06052319,-1.435534,1.033114,0.3912044
0.6980147,-0.1752045,0.02816307,-1.51974,0.8072151,0.3522883
0.5974274,-0.2918289,0.1025258,-1.267282,0.4063466,0.1934066
0.5738307,-0.352026,0.1385946,-0.9489409,-0.03704523,0.1542864
0.6042437,-0.3766252,0.1287403,-0.6511105,-0.1798271,0.204221
0.6112076,-0.3768847,0.1312995,-0.2376115,-0.4133033,0.1918288
0.6501717,-0.3402786,0.1648403,0.05833144,-0.7507555,0.1321042
0.7151223,-0.3017007,0.1581736,0.1976842,-0.7528157,0.001944915
0.8283389,-0.2447628,0.1440111,0.2174928,-0.5198105,-0.07352139
1.044942,-0.2122458,0.1088742,0.1236671,-0.2347321,-0.06693466
1.22325,-0.216259,0.008558491,-0.06126669,-0.05564066,-0.04896332
1.305359,-0.2013114,-0.02226331,-0.224998,0.00445467,0.05572624
1.422359,-0.1753376,0.08419226,-0.206333,0.2281894,0.1652966
1.512278,-0.1506795,0.1935687,-0.2009927,0.6541124,0.03105887
1.419413,-0.171084,0.1862279,-0.2219641,0.907489,-0.1336326
1.264877,-0.3245895,0.1370461,-0.09589681,0.7574163,0.05770197
1.230892,-0.6410681,0.07379496,0.219031,0.4788965,0.272413
1.24062,-0.9230964,-0.07191128,0.7919447,0.4497905,0.2424077
1.133532,-0.9242009,-0.131782,1.279037,0.5037391,0.1007136
0.8905784,-0.6655106,-0.08249761,1.308646,0.3245121,-0.1878747
0.717119,-0.2843497,-0.1113976,1.030991,-0.007857633,-0.394822
0.7854706,-0.01957228,-0.1525718,0.5535217,-0.3114504,-0.409882
0.8834969,-0.02560118,-0.1580217,0.001337377,-0.2940816,-0.3634291
0.8829051,-0.1307486,-0.1183021,-0.1207977,-0.2994336,-0.1716585
0.8933457,-0.2830461,-0.01168673,0.2002259,-0.78231,-0.03219935
0.8534241,-0.4900412,-0.000305759,0.538152,-1.077265,-0.1011577
0.8171821,-0.5545472,-0.07379886,1.034339,-1.05329,-0.1989823
0.8606197,-0.4688608,-0.1158939,1.480976,-0.9128497,-0.2479875
0.8837208,-0.3346303,-0.1433249,1.451263,-0.5901026,-0.2371103
0.9206953,-0.1435108,-0.1391555,1.325862,-0.4695459,-0.09680692
0.9596498,0.002373485,-0.126559,1.149711,-0.3111118,0.1989444
0.9839922,0.08856419,-0.1053824,0.7891122,-0.06206747,0.4267862
1.013889,0.1776986,-0.06227417,0.4256717,-0.04196537,0.4712964
0.9771933,0.13794,-0.04899137,-0.0131774,0.04106247,0.4703145
0.9602729,0.05094096,-0.03574624,-0.3161513,0.09804916,0.448475
0.9954729,0.0006912051,-0.02784259,-0.3194535,0.08459838,0.4189258
1.022913,-0.1535738,-0.04002041,-0.2224391,0.1128959,0.3750236
1.081505,-0.2547222,-0.03738286,-0.03858501,0.08421707,0.3139161
1.123415,-0.2852001,-0.03837773,0.25951,0.1508858,0.241814
1.132862,-0.3244175,-0.02427348,0.5991287,0.1844032,0.1067631
1.146154,-0.2071642,0.003937566,0.7172409,0.0181215,-0.07013366
1.178675,-0.06696053,0.007973164,0.6160131,-0.1725609,-0.2656629
1.25741,-0.02478288,-0.005450141,0.5493705,-0.2200457,-0.3342099
1.284248,-0.06710538,-0.02793993,0.33622,-0.1457756,-0.2467261
1.175336,-0.1715502,-0.0503842,-0.1459937,-0.2088036,-0.2404213
1.030143,-0.2098772,-0.1023344,-0.740182,-0.4502125,-0.312778
0.9807788,-0.2761438,-0.2147645,-1.176192,-0.6513975,-0.3836622
1.021362,-0.3799234,-0.3177051,-1.165438,-0.4782043,-0.4535354
1.10746,-0.4832563,-0.2977337,-0.8511639,0.2405402,-0.4862328
1.230908,-0.5864281,-0.1422802,-0.4607911,0.9949586,-0.5146639
1.256449,-0.517605,0.04230252,-0.1423794,1.102096,-0.5400836
1.14373,-0.3494473,0.1169317,-0.16132,0.6173814,-0.5125668
1.034686,-0.1415577,0.0352037,-0.474352,0.3180905,-0.3259381
0.9411805,0.03126955,-0.04514911,-0.8647191,0.3709823,0.01521437
0.8830994,0.004405799,-0.07129695,-1.232426,0.3895724,0.2812868
0.8814271,-0.03686953,-0.1156534,-1.502616,0.6072109,0.403453
0.8415191,-0.1110252,-0.05434226,-1.689213,0.9643463,0.4234805
0.7863281,-0.2811237,0.05810499,-1.684005,1.022564,0.3403186
0.7272413,-0.3713514,0.09197687,-1.397798,0.7792231,0.2547181
0.6364316,-0.4279524,0.1436946,-1.022241,0.4258885,0.1979692
0.5986069,-0.4104766,0.153585,-0.6754329,0.1083199,0.1758017
0.6079221,-0.3327308,0.1349102,-0.3285582,-0.3083708,0.1923566
0.6325538,-0.3220311,0.1688298,0.02588893,-0.6309372,0.1277824
0.7182482,-0.2713532,0.1378241,0.2326116,-0.6249977,0.03932639
0.8482254,-0.202523,0.1002038,0.2372957,-0.5274064,0.007216545
0.9898966,-0.1800614,0.1097788,0.2082773,-0.2654443,-0.03676624
1.101455,-0.1639382,0.0747297,0.08864214,-0.003077354,-0.05174159
1.149292,-0.1302308,0.03517624,-0.1191421,-0.04189597,-0.01951713
1.234703,-0.04542887,0.03820309,-0.3648383,-0.1663643,0.0996107
1.409682,-0.02235674,0.1056863,-0.6127428,-0.1089514,0.2275544
1.471789,-0.06381134,0.2226922,-0.6396456,0.3810026,0.103588
1.304089,-0.0928223,0.2834509,-0.6777618,0.9513373,-0.09310709
1.156639,-0.2172565,0.2713239,-0.7841997,0.9037562,-0.09063772
1.195693,-0.3929041,0.2225819,-0.5246258,0.5922647,-0.01608186
1.22479,-0.6131546,0.06073166,-0.08522309,0.4947019,0.05536856
1.177826,-0.9212775,-0.1476853,0.3524532,0.3361512,0.1228911
1.146726,-0.9339909,-0.1460457,0.8853703,0.3874887,0.1407339
0.9760462,-0.5291727,-0.07900116,1.052236,0.598333,0.09984438
0.7231173,-0.2012871,-0.1613846,0.6594288,0.2623944,-0.07148349
0.7224624,-0.1568574,-0.1439294,0.2074027,-0.02650215,-0.3280745
0.8255693,-0.2179751,-0.0499995,-0.1084708,-0.07135859,-0.4349154
0.8199814,-0.2347039,-0.02900394,-0.2012375,-0.5470809,-0.3623054
0.8658978,-0.2174815,0.02778548,0.1672417,-1.090132,-0.2876078
0.9175145,-0.3112107,-0.01137889,0.7180702,-1.303882,-0.2466789
0.9269321,-0.3825727,-0.1273427,1.075877,-1.010724,-0.2296208
0.9719521,-0.3201896,-0.1718894,1.196012,-0.4307172,-0.2515615
1.36748,-0.07809822,0.1081295,-0.728582,0.04821067,0.02068975
1.476062,-0.06919707,0.1558271,-0.8504657,0.3722155,0.03883311
1.426917,-0.1724154,0.2518819,-0.7301186,0.7838825,-0.05268462
1.347392,-0.3431723,0.2663405,-0.606349,0.8235929,-0.07483167
1.285601,-0.5586074,0.1169915,-0.3106089,0.4368403,0.04106032
1.281613,-0.7796256,-0.07463373,0.220625,0.379038,0.2390408
1.245422,-0.8560021,-0.1617657,0.5760361,0.603114,0.2597595
1.013143,-0.749327,-0.08447357,0.888553,0.7368079,0.009202021
0.716629,-0.491043,-0.02781489,0.9828294,0.4413878,-0.324219
0.6421152,-0.1976792,-0.05538509,0.4523894,-0.05294955,-0.5731871
0.8364871,-0.08758507,-0.03648019,-0.05413769,-0.1168622,-0.5969594
0.9952875,-0.1642207,-0.03296641,-0.1101524,-0.1988976,-0.4573485
0.95387,-0.253194,-0.03085792,0.02295887,-0.5638307,-0.2878773
0.891645,-0.3603092,-0.004954737,0.2999176,-0.8499803,-0.1792495
0.8636407,-0.4728072,-0.06106889,0.7330426,-0.9589544,-0.175881
0.852224,-0.4386434,-0.1221412,1.139219,-0.7324151,-0.127804
0.911608,-0.3530344,-0.1397668,1.250504,-0.4393073,-0.05127728
0.9557108,-0.2489291,-0.1481222,1.221461,-0.3742774,-0.01325223
0.9442592,-0.07142591,-0.1288867,1.172239,-0.3701449,0.1131038
0.9451409,0.01515435,-0.1193421,0.8962972,-0.3904346,0.3114452
0.9466455,0.04790649,-0.09181495,0.5925462,-0.3032684,0.4771249
0.929125,0.03505556,-0.04137769,0.2783102,-0.1012587,0.5665698
0.8992037,-0.06051556,-0.005167163,-0.005253818,0.01418178,0.5896127
0.8856865,-0.1125941,0.03789927,0.0253258,-0.04025053,0.5806
0.9187917,-0.186895,0.02960989,0.1113917,-0.2124315,0.5774104
0.9989935,-0.2461657,-0.02029586,0.2466257,-0.246005,0.5919697
1.100758,-0.2636945,-0.04247324,0.5280588,-0.1350221,0.5622777
1.149608,-0.2856648,-0.03451857,0.7407558,-0.02173369,0.4760295
1.153311,-0.2240761,-0.004248611,0.8985741,0.009183746,0.3002887
1.168545,-0.170112,-0.005743088,0.9229937,-0.07922872,0.06981327
1.161419,-0.07889484,-0.01488641,0.7942718,-0.1300228,-0.04577858
1.151197,0.02854588,-0.01344238,0.5657834,-0.1584822,-0.06058916
1.177221,-0.06504588,-0.05282192,0.2305051,-0.01691886,-0.05183686
1.181179,-0.2397701,-0.08908611,-0.07894021,0.1950622,-0.09707221
1.127714,-0.3868782,-0.1382684,-0.4693178,-0.1199612,-0.2846101
1.041886,-0.4213322,-0.2275714,-0.9972453,-0.6994115,-0.442626
1.002516,-0.3734986,-0.272697,-1.198253,-0.9288502,-0.4123958
1.073893,-0.5034927,-0.2355957,-0.7131653,-0.5175662,-0.3620914
1.194047,-0.6348889,-0.1521982,0.04788649,0.4346325,-0.4249484
1.266421,-0.5694437,-0.04977233,0.4402803,1.113197,-0.4775685
1.223611,-0.4206865,0.06344168,0.355616,1.125543,-0.4776264
1.081968,-0.1738101,0.1152563,-0.05363908,0.7510698,-0.3590252
0.9384479,0.0446516,0.08085961,-0.663113,0.3454634,-0.02604495
0.8624152,0.07063447,0.02060346,-1.198981,0.2063406,0.2484213
0.8955021,0.03485145,-0.05102056,-1.416944,0.3972168,0.3822806
0.9306547,-0.0363307,-0.07404106,-1.541025,0.8151877,0.4590373
0.8937202,-0.2268254,-0.003030438,-1.683609,1.092717,0.3288612
0.86117,-0.3931866,0.09543518,-1.492522,1.097169,0.1557792
0.7556407,-0.4256967,0.1514179,-1.151214,0.849683,0.07921038
0.6430131,-0.4089707,0.161983,-0.8955772,0.3273395,0.02496326
0.6571183,-0.3801365,0.1570738,-0.5617421,-0.05086613,0.04242861
0.6875425,-0.3395111,0.1328739,-0.3238618,-0.2167077,0.04709598
0.7506119,-0.2904395,0.1042738,-0.1539789,-0.2906023,0.00982665
0.8281561,-0.2339893,0.09892171,-0.02276946,-0.2359201,-0.01478929
0.8569542,-0.1894154,0.118655,-0.08656298,-0.2339964,-0.03345425
0.9010973,-0.1495542,0.1366958,-0.1396455,-0.2421409,0.003800231
0.9446277,-0.1351127,0.1256367,-0.2420668,-0.344214,0.05251859
1.055114,-0.1133242,0.1168536,-0.4078458,-0.5275705,0.06286364
1.230791,-0.05164667,0.09596884,-0.487528,-0.4993232,0.05918276
1.326374,-0.04197811,0.07199258,-0.6775759,-0.249902,0.0359504
1.326258,-0.07696293,0.1250777,-0.8609995,0.2441949,-0.01991682
1.273284,-0.1166836,0.1938062,-0.8584808,0.6760648,-0.09668126
1.247028,-0.2081711,0.1907647,-0.8209128,0.6693585,-0.1226337
1.261714,-0.3176639,0.1428113,-0.7560398,0.6030181,-0.09163316
0.8004941,0.1950082,-0.2241742,0.482199,-0.9811069,0.4103853
0.9687334,-0.03328113,-0.2865608,0.4990292,-0.9553987,0.432822
1.121851,-0.2140289,-0.3388242,0.5909807,-0.8473346,0.2964506
1.310609,-0.3468769,-0.4184227,0.8232895,-0.6462966,0.04527177
1.451939,-0.3649429,-0.464625,1.017458,-0.03217613,-0.3101414
1.393975,-0.1129908,-0.3610229,1.065248,0.6048575,-0.6321762
1.321112,0.2315977,-0.2751438,1.093737,0.4212373,-0.6785897
1.310267,0.3277624,-0.2896558,1.013663,-0.3477279,-0.5501589
1.305382,0.1739556,-0.4278885,0.7760835,-0.7019607,-0.5322903
1.253262,0.1054756,-0.6623437,0.3285955,-0.3243033,-0.5318974
0.9946774,0.1238295,-0.782138,-0.1729264,0.01521105,-0.4452296
0.7124973,0.07170941,-0.6841322,-0.4939996,-0.3480719,-0.3365252
0.7815579,-0.01022257,-0.563209,-0.6600724,-0.6653809,-0.1199609
0.9392096,-0.1429073,-0.573697,-0.5223732,-0.2814954,0.0809671
1.021736,-0.2579258,-0.5666454,-0.2394437,0.1696308,0.1656592
1.290163,-0.3299559,-0.523203,-0.08048736,0.7420628,0.3318322
1.275451,-0.3208459,-0.4844926,-0.01437677,1.329693,0.4642178
0.8530008,-0.1004998,-0.3763901,-0.2176726,1.187597,0.5200018
0.6441113,0.07978252,-0.2765495,-0.4939416,0.7747336,0.683166
0.5941053,0.08073508,-0.2399873,-0.6293955,0.3740307,0.7790345
0.584361,0.0380968,-0.2514991,-0.836859,0.1848386,0.7947107
0.5574024,-0.05765821,-0.2217189,-0.885927,0.2542857,0.8247523
0.4992061,-0.1531689,-0.1666485,-0.760235,0.03533208,0.6836958
0.6164164,-0.2493871,-0.1813105,-0.7017042,0.08035239,0.4563835
0.6057872,-0.3739431,-0.1164599,-0.4945071,0.1955541,0.2582357
0.5424499,-0.4317702,-0.05488688,-0.2668989,-0.1056061,0.05186139
0.6070141,-0.3803071,-0.07452469,-0.17983,-0.363498,-0.0971334
0.6629383,-0.2919593,-0.05751279,-0.01274341,-0.860693,-0.2121591
0.9099772,-0.2443576,-0.112435,0.1204661,-1.119305,-0.2337582
1.046935,-0.21477,-0.1723737,0.1268319,-0.8973877,-0.1668551
1.092238,-0.2534376,-0.2622265,0.09142592,-0.7999521,-0.1585847
1.383892,-0.2814042,-0.5133291,-0.001698486,-0.2705137,-0.1503247
1.494418,-0.2411252,-0.5970191,-0.05017403,0.4012923,-0.05160768
1.430724,-0.277485,-0.3061392,0.02148811,0.458354,0.2022146
1.433627,-0.2965607,-0.05536427,0.1422116,0.337813,0.4028445
1.377471,-0.3841836,-0.2880974,0.3117366,0.3625592,0.2712248
1.223803,-0.633601,-0.667691,0.7435366,0.4539819,0.1504699
1.048884,-0.7977366,-0.8099224,1.317194,0.5732056,0.2019587
0.9363704,-0.8008823,-0.8143953,1.448442,0.8178399,0.03577471
0.8552651,-0.6114861,-0.5893923,1.157839,0.9015885,-0.385653
0.884449,-0.3081996,-0.3684019,0.9090255,0.6559069,-0.8992156
0.9389047,-0.06644667,-0.4201841,0.8484561,0.4020222,-1.318389
0.8668779,0.03224938,-0.4008999,0.8693968,-0.07910722,-1.333128
0.7976412,-0.03160357,-0.2995985,0.8482077,-0.7026589,-1.158599
0.6958072,-0.1538624,-0.2858985,0.9344972,-0.8727297,-1.125969
0.6377884,-0.3072523,-0.2522508,1.133975,-0.6383284,-1.128304
0.6790216,-0.3397939,-0.2219309,1.318169,-0.4167727,-1.162577
0.6416845,-0.2007347,-0.2605061,1.472881,-0.3780712,-1.154962
0.638425,-0.06145282,-0.286617,1.433876,-0.4154672,-0.9502486
0.6712403,0.170031,-0.2697612,1.313696,-0.5516102,-0.6031284
0.6550115,0.329571,-0.2811878,1.14985,-0.6850065,-0.2113414
0.7105624,0.2660329,-0.2729528,0.8200121,-0.6666675,0.07214389
0.7719582,0.2620875,-0.2370279,0.609492,-0.7128169,0.2244533
0.8374838,0.2656416,-0.2083681,0.529539,-0.8956309,0.2551613
1.005954,0.1660238,-0.1925449,0.4763834,-1.07121,0.2050642
1.196413,0.04884488,-0.3318335,0.4774258,-0.8580673,0.1685299
1.346318,-0.1189624,-0.5189342,0.4181942,-0.1400098,0.02074943
1.414784,-0.1976119,-0.5114954,0.4523344,0.5644874,-0.2006369
1.412883,-0.08036219,-0.3680906,0.6138569,0.7600242,-0.4349047
1.383667,0.02187745,-0.275484,0.744189,0.2955236,-0.6445218
1.297773,0.01248161,-0.367611,0.7683158,-0.09817193,-0.6386606
1.166136,-0.01547124,-0.5752285,0.5038529,0.00755377,-0.563045
0.9920591,-0.02591304,-0.7449032,0.06120272,0.01029705,-0.4930209
0.8505563,0.005304394,-0.7575071,-0.3769647,-0.07229934,-0.3777883
0.8786013,0.03545109,-0.623904,-0.7606541,-0.1402082,-0.2987162
1.021687,-0.05144637,-0.5611585,-0.8246517,-0.2343368,-0.05148128
1.149146,-0.1971357,-0.5695271,-0.5899672,0.007832499,0.3466418
1.180357,-0.2564773,-0.5116607,-0.3527782,0.5285987,0.5940379
1.08287,-0.2113784,-0.4406839,-0.2340934,1.109129,0.7159006
0.9158845,-0.1383392,-0.3816358,-0.3187771,1.337075,0.775742
0.7165331,-0.06107303,-0.29199,-0.4894868,0.9267107,0.7732521
0.5296501,0.05395604,-0.2143097,-0.6354069,0.4898752,0.8152621
0.4533408,0.0963676,-0.1925531,-0.8696294,0.348176,0.8900109
0.451579,0.006411702,-0.144576,-0.9582529,0.1237861,0.8860611
0.487322,-0.1228896,-0.08392554,-0.8528508,-0.2368623,0.7946348
0.5784268,-0.2839743,-0.09592252,-0.8119101,-0.3811999,0.6179527
0.6252666,-0.3943169,-0.0907796,-0.6056937,-0.3004985,0.3452899
0.6292056,-0.4052479,-0.05768619,-0.3427424,-0.3860339,0.05941401
0.6789105,-0.4068594,-0.03037453,-0.1809935,-0.6882906,-0.1174949
0.7967634,-0.3523022,-0.0155564,0.121524,-0.8934058,-0.1552418
0.9814229,-0.2599854,-0.1339825,0.1886632,-0.8766352,-0.1248166
1.21426,-0.2027702,-0.3977746,0.01804575,-0.7454267,-0.08026523
1.532422,-0.1508766,-0.6153318,-0.06342391,-0.3483655,-0.03599849
1.772072,-0.1630817,-0.506455,-0.2410388,0.5071245,0.0643632
1.745587,-0.2085887,-0.1840535,-0.2706226,1.166553,0.2565168
1.596057,-0.2410593,-0.08204668,-0.06026942,1.095132,0.4211199
1.324344,-0.4469567,-0.3265819,0.2727969,0.893776,0.4799848
1.006294,-0.7693467,-0.7503489,0.8615326,0.8329217,0.4236159
0.9203459,-0.8573514,-0.8666956,1.205876,0.737611,0.2479171
0.9225289,-0.6693691,-0.6288252,1.031662,0.8579785,-0.0320126
0.9211961,-0.3557903,-0.5385396,0.7744495,0.9818235,-0.3678142
0.9996492,0.01351244,-0.5114856,0.5305597,0.7011848,-0.6382076
0.9754973,0.1870116,-0.4811519,0.3297861,0.07493731,-0.8590115
0.9104611,0.04468764,-0.4941677,0.3089793,-0.5778315,-1.019687
0.8630075,-0.1757866,-0.372389,0.3974799,-0.631924,-1.041811
0.6847062,-0.4097129,-0.2724372,0.6355141,-0.3255156,-1.062824
0.6080543,-0.4977436,-0.2484984,0.9353181,-0.3774168,-1.095522
0.6187292,-0.2753412,-0.2658166,1.080615,-0.4056897,-1.082379
0.5089832,-0.1063766,-0.2905255,1.16251,-0.3426783,-1.034617
0.5219197,-0.04382074,-0.2567554,1.174279,-0.4763677,-0.8272197
0.6016902,0.1077835,-0.2781602,1.060612,-0.4874792,-0.5227104
0.5953244,0.3043467,-0.2457869,0.8548513,-0.6189728,-0.2818007
0.672124,0.4788056,-0.2018982,0.5459592,-0.9754724,0.009827213
0.8063286,0.336418,-0.2552801,0.3428626,-1.109455,0.4141143
0.9727646,0.09993411,-0.271358,0.3099164,-1.061385,0.6299908
1.079605,0.0851788,-0.3084847,0.3306082,-0.9615878,0.5206006
1.10086,-0.07154592,-0.3838405,0.3706809,-0.7188081,0.3323723
1.311781,-0.2584926,-0.5152605,0.3758044,-0.03337732,0.06690497
1.477954,-0.2637137,-0.6112855,0.4157418,0.7076044,-0.2997497
1.40384,-0.1121819,-0.4758883,0.4838143,0.6308178,-0.5862684
1.419272,0.1403218,-0.2751714,0.5929924,0.1252995,-0.7082777
1.407566,0.1506272,-0.1980713,0.6749201,-0.1396931,-0.5937168
1.243959,0.008813687,-0.4190003,0.2854044,-0.1239222,-0.4946376
1.081755,-0.0676957,-0.7894294,-0.4450991,-0.01773001,-0.573541
0.8907459,-0.03620848,-0.7954408,-0.8312544,-0.1016165,-0.5281783
0.8091588,0.02832649,-0.5907416,-0.8193206,-0.1775478,-0.3659317
0.9199139,-0.1230088,-0.5310915,-0.8026129,-0.2005714,-0.06391419
1.100016,-0.2884697,-0.5476555,-0.6994138,-0.1606414,0.3787789
1.300769,-0.3414715,-0.5691511,-0.3758651,0.4172377,0.5638241
1.365763,-0.2897566,-0.5244769,-0.3454066,1.12435,0.5854241
1.135844,-0.1275511,-0.4503832,-0.6693131,1.164558,0.6828529
0.7744281,-0.09203667,-0.353039,-0.8409309,0.8123306,0.7875069
0.5872742,-0.03847311,-0.2152757,-0.9172247,0.585397,0.9501657
0.523964,0.03481986,-0.2130739,-1.016352,0.3043403,1.087053
0.4754312,-0.01952692,-0.1972038,-1.046871,-0.08239699,1.091574
0.5372097,-0.07962877,-0.1003757,-0.9747528,-0.1538679,0.9909317
0.5949554,-0.2369612,-0.1244625,-0.8344928,-0.01401385,0.7666752
0.5959613,-0.353477,-0.1050551,-0.7266995,0.01734155,0.4599859
0.5920084,-0.3234098,-0.04051355,-0.5651472,-0.1022786,0.1673332
0.5584986,-0.3124484,-0.0261595,-0.4373651,-0.3983565,-0.01576455
0.5919605,-0.2741247,0.01522976,-0.3470916,-0.7125265,-0.1166922
0.720651,-0.2517871,-0.04524113,-0.1643262,-0.9806943,-0.1656745
0.9629679,-0.2605025,-0.2317796,-0.1605907,-1.087623,-0.11817
1.277121,-0.2334192,-0.5225722,-0.2775862,-0.6645449,-0.06884287
1.547317,-0.2116867,-0.687873,-0.3288631,0.2862223,-0.008116983
1.788049,-0.1996708,-0.3731738,-0.3626535,1.036889,0.1433983
1.800744,-0.1959926,-0.04653276,-0.2895241,0.9804178,0.3137715
1.523296,-0.2688449,-0.1554595,-0.05860936,0.7139473,0.4320284
1.241038,-0.6150569,-0.4334628,0.4957167,0.4808683,0.4283309
1.077727,-1.007749,-0.7239762,1.181625,0.1297914,0.3800655
1.085793,-0.9193186,-0.8725116,1.369534,0.7079086,0.2610862
1.085419,-0.6241586,-0.7889427,0.9623099,1.553703,-0.1439138
0.9564986,-0.3984946,-0.6600181,0.4662104,1.072111,-0.6156527
0.9207673,-0.02088971,-0.4824838,0.2843094,0.4706571,-0.884224
0.8529744,0.1031189,-0.3603953,0.2164081,0.1151791,-0.9529797
0.7475242,-0.08908494,-0.3475879,0.2335872,-0.7654654,-0.8875936
0.7684109,-0.1234987,-0.2366176,0.4757692,-1.006799,-0.8835736
0.7392616,-0.2873616,-0.2131806,0.6526664,-0.6760658,-0.9006401
0.7338856,-0.4220241,-0.2649405,0.8674931,-0.4784491,-0.9044366
0.7446938,-0.2177645,-0.2117121,1.092306,0.005401891,-0.9747169
0.6483322,-0.09026303,-0.2531967,1.046925,0.148651,-0.9124044
0.5928059,0.1009348,-0.2489358,0.9987227,-0.2073345,-0.7043749
0.5447417,0.3102038,-0.192453,0.9043647,-0.5879146,-0.3919917
0.5479154,0.2732234,-0.2449821,0.6957283,-1.035768,0.03019724
0.6656387,0.2527477,-0.2294237,0.557256,-1.128412,0.3355501
0.8343897,0.1686146,-0.2396562,0.458866,-0.9019104,0.4543586
1.057437,0.04982678,-0.2714504,0.4686836,-0.7542987,0.4011754
1.194777,-0.00447133,-0.2961292,0.4259622,-0.5494395,0.273162
1.297517,-0.1253304,-0.4503241,0.2854578,-0.1095188,0.1597776
1.423066,-0.1575829,-0.4930244,0.2869022,0.499594,-0.04930408
1.427384,-0.05278732,-0.3371602,0.3772169,0.7655609,-0.2459455
1.387336,0.09483807,-0.1870562,0.5201695,0.2981423,-0.3539143
1.329582,0.1338012,-0.2361457,0.5611414,-0.5068546,-0.3848825
1.266478,0.02814172,-0.5297452,0.2964746,-0.8476806,-0.3329718
1.220017,-0.007063629,-0.8029203,-0.1420823,-0.2955746,-0.3341295
0.9881597,0.03069646,-0.8191942,-0.619045,0.2928736,-0.311294
0.7277016,0.05518493,-0.6494981,-1.051682,-0.09654833,-0.2559833
0.8423358,-0.008594984,-0.5893754,-1.21387,-0.4295242,-0.1172285
1.089062,-0.1820536,-0.6103589,-1.020069,-0.06866908,0.2936532
1.136649,-0.3204066,-0.5513688,-0.7857363,0.09625398,0.6364065
1.164603,-0.3077911,-0.5325031,-0.6160381,0.6175501,0.7283329
1.063038,-0.1963774,-0.474519,-0.5405053,1.324272,0.7732467
0.8066534,-0.1589185,-0.3666181,-0.8037827,1.10092,0.8118296
0.6888351,-0.09819672,-0.2852781,-1.047873,0.6859383,0.9030234
0.546556,0.03434404,-0.2055546,-1.062849,0.36214,1.028526
0.4540288,0.0482064,-0.2174027,-1.1596,0.07409452,1.096354
0.52148,-0.01938415,-0.195296,-1.223072,0.03307351,1.029738
0.5203106,-0.1596876,-0.1512146,-1.197336,-0.1425138,0.852011
0.5850927,-0.3244929,-0.1690938,-1.096317,-0.09750911,0.6502802
0.6452212,-0.4095905,-0.09608357,-0.8150497,0.01198957,0.371045
0.6282005,-0.4490689,-0.03691127,-0.5240928,-0.2893058,0.1010706
0.7120912,-0.4106489,-0.03033221,-0.2797471,-0.5105421,-0.0962169
0.8228803,-0.3594848,-0.04489611,-0.065416,-0.623059,-0.1795109
1.016333,-0.2924198,-0.1595341,0.01983341,-0.6586688,-0.07879552
1.237242,-0.1921756,-0.3253751,-0.01273657,-0.5596884,-0.05355934
1.397316,-0.1710681,-0.4647415,-0.1055002,-0.3159979,-0.08119259
1.588219,-0.1604015,-0.3891853,-0.2217309,0.3987056,0.01463287
1.633199,-0.1554969,-0.1605874,-0.3160098,0.9383706,0.1439536
1.456848,-0.2282094,-0.08136896,-0.3093331,0.7324766,0.3336184
1.181986,-0.4379691,-0.2689821,-0.1368864,0.503579,0.3866447
0.9821284,-0.7409332,-0.6714515,0.2419897,0.283973,0.3188925
0.9695567,-0.8357476,-0.9374173,0.7859602,-0.04129044,0.4809362
0.9786004,-0.6950657,-0.9475695,1.143015,0.5570051,0.5922176
1.004727,-0.4421124,-0.7738118,0.9436616,1.493242,0.3211714
1.076672,-0.1351222,-0.4800218,0.4909072,1.311367,-0.2923146
1.007585,-0.06708932,-0.4134784,0.258276,0.8529439,-1.011069
0.8240913,-0.1379426,-0.3091835,0.194875,0.3410611,-1.273101
0.6816944,-0.08750496,-0.0853924,0.3327476,-0.8099001,-1.108524
0.6653564,-0.2210289,-0.2128935,0.6073214,-1.286874,-1.050506
0.7301021,-0.4068082,-0.2625567,0.8257284,-0.8162344,-1.038513
0.72219,-0.2930316,-0.18861,1.113218,-0.4289219,-1.034483
0.7008541,-0.1618232,-0.3085976,1.218044,-0.07817787,-1.125349
0.7108227,-0.02559702,-0.2614067,1.138851,0.1401368,-0.9762723
0.6338499,0.2210344,-0.1874952,1.096309,-0.3467229,-0.5921895
0.5921696,0.3789223,-0.2067773,0.8536225,-1.131019,-0.1166423
0.7200409,0.3175434,-0.1951868,0.6691497,-1.235947,0.3632525
0.9016512,0.1037896,-0.2570157,0.5533212,-0.9139933,0.4188073
0.9993816,0.0779515,-0.2061578,0.3416028,-0.8176876,0.2501084
1.043968,0.08455724,-0.1760552,0.3268241,-0.8350316,0.1952458
1.203964,-0.06336526,-0.3837322,0.2375423,-0.7206371,0.01850232
1.408428,-0.08809839,-0.5712629,0.04257003,-0.1311451,-0.1260715
1.440376,-0.1147141,-0.5763945,0.0247819,0.6148717,-0.2009721
1.374935,-0.0757496,-0.4252214,0.08881345,0.7094883,-0.4165009
1.383605,0.01211807,-0.3426924,0.1742145,0.1022295,-0.5264338
1.380585,-0.06632448,-0.440617,0.08349286,-0.3842381,-0.4998514
1.235759,-0.05152969,-0.6403875,-0.2792125,-0.1009734,-0.5469465
1.024622,-0.05181196,-0.8363283,-0.7866754,0.07667617,-0.5445341
0.8666703,-0.0776472,-0.7465089,-1.035419,-0.2508413,-0.3642756
0.9052718,-0.0481943,-0.5435715,-0.8328714,-0.278329,-0.04799418
1.078449,-0.2226128,-0.5424767,-0.6598866,-0.1302288,0.3500974
1.209025,-0.3707583,-0.5349385,-0.4092044,0.2087478,0.6092237
1.29376,-0.3206712,-0.491367,-0.1134447,0.9264731,0.6673486
1.137341,-0.1709943,-0.479286,-0.2642491,1.177671,0.7593598
0.859736,-0.0316034,-0.4225959,-0.3705641,0.6899078,0.8356237
0.7197493,-0.02183322,-0.3358108,-0.4266103,0.2683347,0.8823976
0.5305955,-0.01470928,-0.2061777,-0.7494643,0.2372979,0.9988246
0.4744958,-0.0122521,-0.1542054,-0.7752256,0.08346835,1.003574
0.542355,-0.08083379,-0.151623,-0.6939549,-0.2287472,0.8650317
0.4948174,-0.1795048,-0.07711713,-0.7749932,-0.2781996,0.6486573
0.5746587,-0.249344,-0.1041736,-0.6475034,-0.221042,0.3841372
0.6542445,-0.2776989,-0.121404,-0.5224721,-0.2534966,0.1922024
0.6450445,-0.3339851,-0.04785565,-0.4374967,-0.3258585,0.07908303
0.7183002,-0.3395539,-0.05694241,-0.2338364,-0.4420105,0.01113765
0.7863326,-0.2923649,-0.05629389,-0.178745,-0.5191139,-0.02266685
0.9762162,-0.21627,-0.130497,-0.2912407,-0.5122987,-0.01494379
1.227908,-0.1029478,-0.3282075,-0.4433273,-0.3408023,0.01045618
1.371621,-0.09341035,-0.4277624,-0.5480213,0.208297,0.03861171
1.557758,-0.1998985,-0.3743393,-0.549719,0.8797929,0.219487
1.656192,-0.3169274,-0.177953,-0.4610208,0.9643565,0.4976424
1.501405,-0.3461168,-0.07328149,-0.1647194,0.6242345,0.5869576
1.234625,-0.4619143,-0.3231353,0.2665267,0.3767634,0.5043824
1.038589,-0.7505983,-0.7042863,0.6282833,0.1393221,0.49782
0.9840722,-0.8018843,-0.814159,0.8584301,0.5577802,0.5054317
0.9695195,-0.6295702,-0.6961887,0.8198154,1.362743,0.2860209
0.9600777,-0.4086036,-0.606011,0.5232694,1.122213,-0.09185314
0.989686,-0.08236244,-0.4604815,0.2714675,0.5938237,-0.5305489
0.9914624,0.03336997,-0.3644222,0.1654027,0.1889803,-0.95662
0.9216752,-0.05299543,-0.3845585,0.1463351,-0.5808503,-1.103621
0.8059008,-0.1173996,-0.3007591,0.2570343,-0.6414228,-1.006256
0.6999985,-0.3151855,-0.2645067,0.4720633,-0.3525065,-0.9920947
0.6642026,-0.4253788,-0.2409284,0.7723643,-0.4123792,-1.054292
0.6509867,-0.2861658,-0.1768568,0.9900051,-0.1791646,-1.019847
0.5948154,-0.1320562,-0.2307944,1.012267,-0.0980913,-0.9533305
0.5698278,0.0904369,-0.2115056,1.024355,-0.370483,-0.7367606
0.5919173,0.2637273,-0.1955037,0.8989706,-0.7208027,-0.2802583
0.635156,0.2804333,-0.2535096,0.6340719,-1.057052,0.04867796
0.7223037,0.3275349,-0.2330863,0.4794453,-1.019506,0.2300706
0.8045393,0.2500565,-0.2413042,0.3895371,-0.9685676,0.3951618
0.9075286,0.08761038,-0.2393684,0.3834395,-1.006236,0.3760452
1.063128,-0.01255755,-0.2611516,0.4114101,-0.7989768,0.2469284
1.239281,-0.1559026,-0.3609633,0.4086852,-0.386308,0.05835449
1.410969,-0.1534214,-0.4172952,0.4300684,0.2630365,-0.173705
1.443137,-0.0103819,-0.4379481,0.4008509,0.6707077,-0.3278838
1.371949,0.1076883,-0.3092485,0.3743645,0.3682199,-0.4559399
1.370175,0.1558492,-0.2020262,0.3698444,-0.2847569,-0.5077569
1.351895,0.03316768,-0.4847238,0.2358292,-0.666346,-0.4812777
1.22385,-0.03451354,-0.8317825,-0.129986,-0.3003273,-0.4987407
1.016984,0.01356805,-0.8171131,-0.5913697,0.206354,-0.4742201
0.8380918,-0.02272326,-0.6343806,-0.7797229,-0.04437911,-0.3061859
0.8676735,-0.1411078,-0.5588335,-0.6987075,-0.2604614,0.03174244
1.032727,-0.3180968,-0.5377393,-0.6256921,-0.0003023186,0.3785977
1.152812,-0.3477126,-0.5090021,-0.5043455,0.2106144,0.5243663
1.165612,-0.1668387,-0.4779543,-0.3686518,0.8180983,0.6442983
0.97562,-0.02779066,-0.4261984,-0.549373,1.16862,0.8305376
0.7086997,0.01577607,-0.3551677,-0.9166278,0.6335341,0.9527166
0.5792417,0.0636321,-0.2698366,-1.157952,0.3749643,1.083197
0.5341694,0.1021734,-0.2622774,-1.378581,0.2308825,1.187558
0.5241721,-0.008750955,-0.2597756,-1.484138,-0.03114785,1.162989
0.5443996,-0.1908737,-0.1689986,-1.382134,-0.01430183,1.039885
0.5794527,-0.3210619,-0.136058,-1.256803,-0.07820329,0.7924851
0.6338219,-0.4519305,-0.1069121,-1.005918,-0.006745143,0.5251459
0.6408109,-0.4552884,-0.06485896,-0.6869365,0.07583528,0.3038092
0.6297077,-0.3956837,-0.07428846,-0.501024,-0.168705,0.05163455
0.6897302,-0.4135756,-0.04257781,-0.3319994,-0.4258309,-0.1135642
0.7963511,-0.3265441,-0.0637465,-0.1920868,-0.5670263,-0.1267051
0.9370572,-0.2163253,-0.1491744,-0.1750827,-0.5255535,-0.04323397
1.124378,-0.1849779,-0.2637703,-0.2406249,-0.5053735,0.05451036
1.32256,-0.1133253,-0.4852051,-0.3516442,-0.4028793,0.04079956
1.502152,-0.1024239,-0.5510583,-0.4549682,0.1740465,0.07749133
1.61986,-0.1860457,-0.300913,-0.4595758,0.7585521,0.2856502
1.576414,-0.2908362,-0.1228103,-0.272707,0.8251647,0.4391476
1.366538,-0.4708343,-0.3163881,0.05539921,0.7059902,0.4311515
1.139135,-0.7212116,-0.628781,0.470495,0.5726154,0.3884575
1.016761,-0.8487271,-0.7814557,1.007197,0.2983558,0.4337016
0.9528682,-0.6943383,-0.7971892,1.301752,0.7598204,0.4067359
0.8779523,-0.426867,-0.6160822,0.957018,1.472738,0.07570042
0.9013742,-0.1459935,-0.3931318,0.4982739,0.937773,-0.4576089
0.9630361,0.06744476,-0.3941426,0.4010456,0.4229761,-0.9111704
0.8697744,0.01096703,-0.3808008,0.284486,0.2485987,-1.077817
0.7638744,-0.09364607,-0.282793,0.2217725,-0.6082956,-1.069604
0.7018991,-0.2159423,-0.2815739,0.4202736,-0.9276639,-1.010875
0.6466146,-0.4305482,-0.2522622,0.6002617,-0.5665716,-0.9263247
0.676936,-0.4133446,-0.2033037,0.8663326,-0.4320564,-0.986285
0.6689977,-0.3024405,-0.2398861,1.061098,-0.2674144,-1.019488
0.6515414,-0.1689181,-0.2477469,0.989182,-0.09843968,-0.8644449
0.6727259,0.1495391,-0.2232033,0.9193897,-0.1956755,-0.6045134
0.637713,0.3411628,-0.2340815,0.6898333,-0.5520215,-0.1897725
0.6586962,0.3437362,-0.2263347,0.4042771,-0.8908221,0.1591186
0.7250974,0.332254,-0.2199984,0.2577777,-1.015081,0.3267921
0.8297254,0.2602983,-0.2449842,0.1007572,-0.9126788,0.4032906
0.9744239,0.09075752,-0.2562737,0.1101678,-0.7407447,0.3289595
1.049547,-0.07151717,-0.2829919,0.1983051,-0.7084261,0.2261571
1.194942,-0.1404412,-0.3393086,0.2742606,-0.4507319,0.07534605
1.383743,-0.1759367,-0.4166566,0.3761238,0.1079534,-0.1671958
1.424037,-0.06987416,-0.4587531,0.3493712,0.5505797,-0.3083592
1.375492,0.1619919,-0.3550857,0.3494849,0.3975728,-0.3690053
1.341348,0.2370407,-0.2841588,0.2758478,-0.2632611,-0.3986837
1.315173,0.1080781,-0.5035798,-0.07407536,-0.4532289,-0.4055362
1.17509,-0.0484771,-0.7977959,-0.5423106,-0.1481252,-0.4223465
0.9392718,-0.04290892,-0.809646,-0.9592734,0.09476406,-0.3784688
0.8262873,-0.03870494,-0.6399621,-1.046336,0.003172222,-0.2611251
0.9148793,-0.1985277,-0.5544993,-0.9091877,-0.2058102,-0.03935713
1.056544,-0.3493567,-0.5477037,-0.789029,0.12249,0.2319753
1.160785,-0.4280816,-0.5099771,-0.486464,0.5648698,0.3787312
1.201551,-0.3027544,-0.436325,-0.2161808,1.070182,0.4664923
1.016426,-0.05204875,-0.3978736,-0.3334241,1.395068,0.5848806
0.7501375,0.06022458,-0.3403421,-0.561241,0.7530425,0.6929388
0.6488125,0.1062445,-0.2552511,-0.7759223,0.221445,0.8364102
0.5991174,0.07455525,-0.2583712,-1.04489,0.1171078,1.015851
0.595607,-0.02194057,-0.235413,-1.107278,0.05196597,1.054809
0.6122325,-0.1652254,-0.1828734,-1.039094,0.1945639,0.8468374
0.5785953,-0.3484068,-0.1858769,-0.959165,0.1021464,0.5795312
0.5698432,-0.376568,-0.1130958,-0.6870846,0.02529087,0.4313123
0.5678254,-0.3793236,-0.0409668,-0.42857,-0.1746411,0.2976126
0.6302581,-0.4035412,-0.03014406,-0.1865955,-0.6510401,0.07998159
0.7620665,-0.3375696,-0.0307663,0.1124354,-0.7049615,-0.09764656
0.89018,-0.2791348,-0.09967492,0.190364,-0.5995962,-0.1447894
1.030297,-0.1837841,-0.1595605,0.1663337,-0.5369086,-0.1446838
1.10943,-0.1326272,-0.2139438,0.06154679,-0.4363947,-0.1031387
1.206743,-0.1826396,-0.3151033,-0.2081816,-0.1914575,-0.03267656
