accx,accy,accz,gyrox,gyroy,gyroz
1.080456,-0.09935027,0.1233657,-0.3177788,0.06605369,-0.5827759
1.023459,-0.1315713,0.04401104,-0.5017653,0.2527015,-0.5382078
1.03871,-0.2470499,0.1421137,-0.2342912,0.3792303,-0.5030752
1.126034,-0.3178526,0.3114231,0.1508312,0.418941,-0.3283596
1.216859,-0.3235842,0.4110893,0.4219698,0.4834685,0.005436557
1.165197,-0.281043,0.4251914,0.5414375,0.4563001,0.1853695
1.054695,-0.1677569,0.36212,0.3874478,0.4127758,0.1815988
0.9529793,-0.04052735,0.2614864,0.1630953,0.431035,0.1727374
0.8398795,0.004412997,0.2063056,-0.1173109,0.4180599,0.1793098
0.7800776,-0.02062188,0.19801,-0.4697222,0.4033551,0.1636846
0.7299259,-0.05604539,0.22739,-0.489305,0.3990423,0.1277287
0.6969245,-0.1012877,0.2840373,-0.3933114,0.3226934,0.1338445
0.7290128,-0.1478653,0.3321003,-0.3695278,0.1915633,0.1732828
0.7467212,-0.1672493,0.351063,-0.1731944,0.07630452,0.1991308
0.7613222,-0.1874717,0.329498,-0.03990513,0.03657565,0.1887536
0.7721039,-0.1880027,0.3411123,0.06296614,0.04752187,0.1345925
0.7517324,-0.1287916,0.394046,0.265476,-0.01021458,0.09266334
0.756558,-0.06618077,0.4279837,0.3364287,-0.1063812,0.05940356
0.7796787,-0.01143345,0.4460121,0.3455484,-0.1909928,0.03850906
0.8572249,0.04050242,0.4367701,0.2566504,-0.2260483,0.03220259
1.005189,0.05315484,0.4488129,-0.02077182,-0.09252749,0.00628418
1.079112,0.02982621,0.4619213,-0.2249339,0.0280732,0.008494231
1.05087,0.007328788,0.4524746,-0.2609205,-0.002756781,0.0105399
1.03662,0.01763634,0.5112506,-0.2638126,0.03066976,-0.03049159
1.040097,0.02869072,0.5696757,-0.2872238,0.1228705,-0.116954
1.023428,0.01947698,0.5998188,-0.2832084,0.1779082,-0.237192
1.063184,-0.04212783,0.6132556,-0.229491,0.3328903,-0.2458317
1.134795,-0.1839191,0.5107955,-0.08026996,0.4318891,-0.1047178
1.137563,-0.3273977,0.3643624,0.1809759,0.1043656,0.09627396
1.137948,-0.4714612,0.3015453,0.4227009,-0.2059789,0.2763782
1.102901,-0.5506705,0.2934374,0.7136799,0.05421932,0.2987051
0.9323052,-0.438643,0.2368932,0.9907451,0.2647342,0.138983
0.7768923,-0.2885038,0.1762025,0.8738767,0.04660226,-0.08335041
0.7771854,-0.2172947,0.1919254,0.5204623,-0.1927043,-0.1866154
0.8633278,-0.1503035,0.1755901,0.2460344,-0.4478927,-0.07080935
0.9455922,-0.09087455,0.1439838,0.1529983,-0.5474212,0.0977995
1.009318,-0.1087911,0.1694139,0.3545655,-0.3782419,0.2120204
0.9951905,-0.1954407,0.2057679,0.5810807,-0.4145621,0.28362
0.8909337,-0.2312149,0.2569024,0.8001432,-0.5008182,0.2276143
0.8131258,-0.2210553,0.2679463,1.086473,-0.4781328,0.1692635
0.7875601,-0.213243,0.2338368,1.186604,-0.5986394,0.2201534
0.8211943,-0.1512494,0.22606,1.29329,-0.6244882,0.2260256
0.8881358,-0.09407099,0.2174232,1.373394,-0.6097872,0.2560175
0.9213343,-0.04024076,0.2071062,1.301966,-0.6390503,0.3506558
0.971684,0.03692511,0.1983029,1.261309,-0.4922299,0.360509
0.9969328,0.06722742,0.1793022,1.018041,-0.3270016,0.3570791
0.9896823,0.1009881,0.1821596,0.7170283,-0.1702636,0.3734716
0.9965887,0.1105473,0.2046094,0.5654415,-0.06531426,0.3867436
0.9704398,0.0756734,0.2373682,0.4458443,-0.05752155,0.4440519
0.9749465,0.06151558,0.2763447,0.4964483,-0.02982604,0.4981316
0.9914195,0.02753613,0.3018921,0.5717343,-0.0840327,0.5235118
0.993608,0.001904068,0.3159618,0.6325852,-0.1117629,0.4559148
1.023469,-0.02208553,0.3369168,0.6962494,-0.07920531,0.2700802
1.013344,-0.04575644,0.374786,0.690203,-0.1085634,0.08854397
1.012999,0.01684173,0.4008258,0.8480535,-0.1806767,-0.03216398
1.031272,0.09169729,0.3961512,0.9431962,-0.3225338,-0.05265164
1.029511,0.1199768,0.3846084,0.8197495,-0.3832453,-0.003943286
1.104751,0.1110697,0.3542015,0.6235394,-0.3366065,-0.02691343
1.243871,0.03084545,0.2913381,0.2061576,-0.2142964,-0.2001512
1.308342,-0.05439429,0.2081742,-0.2495139,0.005639114,-0.5055413
1.197291,-0.05527161,0.09291016,-0.6174447,0.08849886,-0.7295919
1.040054,-0.06624623,0.01184964,-0.9637743,0.1199737,-0.7320564
0.9972296,-0.1617156,0.07832391,-0.9796429,0.2029039,-0.67306
1.019828,-0.1918155,0.194764,-0.682894,0.1772775,-0.5728844
1.121486,-0.1724086,0.2556963,-0.3874757,0.2334418,-0.3172613
1.230777,-0.215248,0.3528679,-0.1980953,0.3521684,-0.02185147
1.162815,-0.1843669,0.3584752,-0.2939507,0.3033531,0.0904542
0.9770497,-0.06125585,0.2218791,-0.5574931,0.2932943,0.03700311
0.820858,0.02836136,0.2001626,-0.7614939,0.3696208,0.05412378
0.7870063,0.009087191,0.2079391,-1.037755,0.3897441,0.106064
0.828811,-0.0952251,0.2000708,-1.15718,0.4493891,0.04646972
0.7920475,-0.1363261,0.2706796,-1.085838,0.5003301,0.01318714
0.773651,-0.1427213,0.2734958,-1.088215,0.4263085,0.0332471
0.8189426,-0.1694823,0.2907252,-0.9209178,0.3234882,0.05315791
0.7917689,-0.1881816,0.3409545,-0.689582,0.2843936,0.1011531
0.7873021,-0.2106358,0.3363103,-0.5295097,0.214227,0.09715381
0.7907051,-0.1614582,0.3557247,-0.336789,-0.008587349,0.08907315
0.7336564,-0.09965037,0.3541025,-0.2607746,-0.228853,0.126878
0.7604,-0.07316598,0.3628782,-0.1828554,-0.2642816,0.115549
0.8475499,-0.004123719,0.3713809,-0.1728791,-0.1538615,0.08836771
0.9455866,0.04255538,0.3631701,-0.2676237,-0.00530037,0.0239304
0.9929369,0.04051619,0.4006819,-0.3064426,0.03259301,-0.1157252
0.9863274,0.02041967,0.3948305,-0.46628,-0.09202078,-0.2053917
1.095433,0.02733508,0.4016634,-0.5923841,-0.189601,-0.2262229
1.154518,0.03116993,0.429768,-0.5987527,-0.04884036,-0.248895
1.073068,-0.01159635,0.4521083,-0.5997088,0.1843096,-0.2830972
1.053998,-0.009372331,0.5290792,-0.5076691,0.3068484,-0.2981426
1.078228,-0.07454214,0.5178825,-0.3808149,0.3842424,-0.2378255
1.129492,-0.2487911,0.4276719,-0.1451759,0.3353119,-0.08526379
1.194592,-0.3746429,0.3613338,0.1180907,0.2394149,0.1255468
1.193863,-0.4492668,0.3181646,0.3477647,0.318093,0.2393992
1.15621,-0.4774138,0.3130674,0.7161898,0.3898999,0.1031534
1.033773,-0.4393292,0.2699513,0.8400489,0.3751711,-0.1016916
0.8438362,-0.2973518,0.2066189,0.5063841,0.1460083,-0.1692832
0.8294243,-0.1310398,0.1640368,0.09506632,-0.3259785,-0.1420955
0.9827421,-0.07079033,0.1187078,-0.06449653,-0.4371496,0.01261753
1.041275,-0.09314003,0.1245537,0.05545828,-0.1880258,0.2311798
1.012196,-0.1761488,0.1800402,0.154319,-0.1496369,0.2664578
0.9385714,-0.2343232,0.2613721,0.3020954,-0.3345648,0.1429972
0.8076638,-0.2537539,0.2988217,0.6479672,-0.5239098,0.06417703
0.7769473,-0.2293219,0.2404518,0.8643042,-0.5793703,0.08083207
0.820581,-0.145919,0.1939077,0.9560697,-0.5931874,0.1251207
0.8493948,-0.1211238,0.1811571,1.046846,-0.6513004,0.1824063
0.9057793,-0.05918382,0.1712944,1.029394,-0.5801533,0.2633746
0.9583196,0.02344374,0.1778841,0.9911455,-0.4508189,0.2985089
0.9844852,0.04367558,0.1755236,0.9068057,-0.3317621,0.2850169
0.9908772,0.102616,0.1808286,0.6511216,-0.1802697,0.2650055
0.9941166,0.1089092,0.197286,0.3182711,-0.09449463,0.2396297
0.9888467,0.08705527,0.2200718,0.06368025,-0.01093274,0.2453714
0.9733367,0.07524813,0.2625412,0.02535321,0.03195788,0.306329
0.9769672,0.02625089,0.2733815,0.1619725,-0.04722787,0.4057795
0.9815901,0.01720815,0.2657881,0.3261003,-0.07649932,0.4599827
1.007579,-0.03049537,0.2971212,0.5057093,-0.04299649,0.4064251
1.033456,-0.07920165,0.3222027,0.627435,-0.01358606,0.2788447
1.020796,-0.03834719,0.3170501,0.6525027,-0.004883174,0.0783731
1.017195,0.007251612,0.3320139,0.6718389,-0.09867112,-0.08331831
1.01908,0.08477108,0.3569081,0.6333977,-0.2843648,-0.06865921
1.02975,0.1659978,0.3476963,0.4809621,-0.4521617,-0.04718241
1.107172,0.1515748,0.3154158,0.2085531,-0.4666162,-0.1400414
1.252739,0.07365036,0.2712989,-0.1712037,-0.2906994,-0.2861986
1.323691,0.01283457,0.2192202,-0.5640767,-0.06475666,-0.4890533
1.232808,0.005824461,0.1437002,-1.011591,0.1115165,-0.5877638
1.13359,-0.01181092,0.03981907,-1.360443,0.3311795,-0.531374
1.092833,-0.139691,0.04760693,-1.276902,0.5004876,-0.5299475
1.078355,-0.3029162,0.2193657,-0.9249558,0.4192257,-0.4879645
1.144286,-0.3222874,0.3658285,-0.562042,0.3781922,-0.3012447
1.197524,-0.2415484,0.3767198,-0.3549487,0.455436,-0.1123737
1.108431,-0.1751516,0.3013482,-0.46754,0.3921875,0.01276824
0.9712592,-0.09074606,0.2207756,-0.6235165,0.3935734,0.05043527
0.8911531,-0.02964905,0.1680322,-0.7579096,0.467654,0.08847758
0.850978,-0.06115721,0.1570141,-0.9607076,0.4748634,0.1333393
0.8166541,-0.1026946,0.207252,-0.9681903,0.5260756,0.06238344
0.7766806,-0.107555,0.2440724,-0.9287906,0.5274903,-0.006059589
0.7618745,-0.1306416,0.2733402,-0.9269847,0.5011498,-0.02561983
0.7782745,-0.1417647,0.3124163,-0.8075776,0.4426275,-0.06374522
0.7829892,-0.1307372,0.2985888,-0.7515814,0.2748325,-0.06897336
0.786914,-0.1368904,0.3174592,-0.6583341,0.1636572,-0.06838461
0.7914113,-0.1081692,0.3646975,-0.4661188,0.08562871,-0.04733034
0.7751817,-0.05161185,0.390816,-0.3450037,-0.0247536,0.01221304
0.7708348,0.001718527,0.4245031,-0.2885538,-0.1527316,0.04442297
0.7954982,0.04888319,0.4089281,-0.3473182,-0.2267608,0.06171527
0.8628425,0.05022934,0.4033269,-0.4468186,-0.1206665,0.05116224
0.9644037,0.03446767,0.4204802,-0.5449811,-0.0483365,0.01112197
1.035553,0.005285298,0.4009088,-0.6235263,-0.1328499,-0.03436801
1.081286,-0.02969823,0.4076909,-0.5840539,-0.1622381,-0.09836037
1.113431,-0.00440897,0.4251155,-0.5892451,-0.05502372,-0.1965916
1.109383,0.008060689,0.4555217,-0.6399044,0.1183396,-0.3329032
1.14757,-0.09164238,0.4868887,-0.6118796,0.2557039,-0.3602882
1.241429,-0.2522551,0.4369376,-0.4701418,0.2719777,-0.1923995
1.261275,-0.3843339,0.3602322,-0.1421213,0.1938345,0.02560144
1.204111,-0.4679562,0.3209463,0.1973121,0.2012331,0.1257215
1.109915,-0.4878743,0.3056935,0.4365651,0.3853282,0.05210151
0.9351258,-0.4235804,0.2600555,0.5862818,0.525138,-0.06792594
0.8050504,-0.3075564,0.1848538,0.5255481,0.3327637,-0.2040044
0.8592173,-0.1605864,0.1644754,0.3265849,-0.06488832,-0.3088772
0.9724679,-0.06265744,0.1502753,0.1119111,-0.2817246,-0.1576349
1.027028,-0.09712946,0.1205928,-0.02081569,-0.3108573,0.04947845
1.009576,-0.1561893,0.1734639,0.007683226,-0.279318,0.0738638
0.9124165,-0.1849978,0.2419049,0.07222143,-0.2576852,0.06313676
0.8197889,-0.217135,0.250501,0.2141885,-0.3397237,0.02659053
0.7882772,-0.1888883,0.2425916,0.4493385,-0.4120997,0.004134888
0.8026771,-0.1472568,0.2197391,0.6048711,-0.5043976,0.07334039
0.8487747,-0.1428943,0.1913752,0.7593082,-0.6026325,0.1458676
0.8800513,-0.1088162,0.1685554,0.8920696,-0.5468674,0.189682
0.9174021,-0.07427798,0.1553919,0.8945333,-0.4731645,0.1832657
0.963709,-0.04188249,0.1547888,0.8521973,-0.3750654,0.1580482
0.9606978,-0.01390378,0.1574285,0.7445435,-0.2385452,0.1414666
0.9368349,0.003204766,0.1899314,0.5533598,-0.2074618,0.1318791
0.9301079,0.07887373,0.209492,0.3368173,-0.1998644,0.1922846
0.9502673,0.1012793,0.2039349,0.1936769,-0.1944514,0.3068134
0.9848266,0.05286508,0.2238317,0.2233059,-0.2134051,0.4534174
1.027464,0.03944572,0.2301895,0.4110834,-0.2224285,0.5223987
1.078172,-0.02871176,0.2446686,0.7287274,-0.2245848,0.4280209
1.097213,-0.0698666,0.2815357,0.9931298,-0.141109,0.2649638
1.087874,-0.001120972,0.2921876,1.042657,-0.03123607,0.03009982
1.060462,0.07430287,0.2985536,0.9831507,-0.07392552,-0.1392165
1.039468,0.1837964,0.3040433,0.8309366,-0.2049088,-0.1254184
1.078251,0.2266457,0.3065258,0.4712932,-0.2324537,-0.1392557
1.184182,0.09629844,0.3025866,0.03527864,-0.07262322,-0.2444202
1.270001,-0.03559125,0.2708771,-0.1824724,0.1238624,-0.4221844
1.192534,-0.07092969,0.2026606,-0.4006347,0.1250737,-0.6064314
1.070239,-0.09429256,0.1111001,-0.8468669,0.1768364,-0.6320467
1.064065,-0.1980832,0.08616628,-0.9683818,0.4124386,-0.6174701
1.064454,-0.3113905,0.1681512,-0.615329,0.4437268,-0.5985965
1.125799,-0.3226195,0.3148396,-0.1911881,0.4045525,-0.3790708
1.245355,-0.3054154,0.4402412,0.163252,0.4426519,-0.04672338
1.181576,-0.267478,0.423035,0.1639585,0.3436825,0.1299992
1.042561,-0.1352008,0.318953,-0.1259826,0.336813,0.1346188
0.9520133,-0.01131775,0.2377771,-0.4031387,0.4494144,0.1800987
0.8399517,0.002637664,0.1784343,-0.7879677,0.4836563,0.2275322
0.7916058,-0.04278046,0.1907751,-1.002592,0.4747273,0.1664607
0.7371583,-0.1009692,0.2403148,-0.9378481,0.4104331,0.1424526
0.6677173,-0.1738426,0.2540664,-0.9421214,0.3407029,0.1329737
0.7272458,-0.2191514,0.2924362,-0.8273554,0.2112403,0.1231141
0.7762329,-0.228592,0.3221236,-0.5754589,0.05233651,0.1597631
0.7801586,-0.239505,0.329372,-0.3840536,0.03769569,0.1291506
0.7974273,-0.2063338,0.371466,-0.1869236,0.0269778,0.1097359
0.7730761,-0.1340922,0.3990315,-0.01726211,-0.05460272,0.1145992
0.7725883,-0.06163626,0.4315108,0.1727099,-0.1331885,0.06510369
0.8087673,0.03348394,0.4586271,0.2757079,-0.2119348,0.04707241
0.8733459,0.09304933,0.4169089,0.1771393,-0.2462253,0.02163066
0.974337,0.09514533,0.3813832,0.02204521,-0.2313329,-0.02942528
1.058335,0.06615148,0.387934,-0.2469397,-0.2069236,-0.05368947
1.118565,0.005337144,0.4011127,-0.485589,-0.146936,-0.04675946
1.115974,-0.0159877,0.4355764,-0.4774906,0.01376221,-0.04973469
1.073845,0.005887413,0.5136088,-0.4244385,0.218106,-0.1698314
1.074723,0.0001782833,0.5536327,-0.4136842,0.3168236,-0.3057197
1.114313,-0.07882101,0.4974918,-0.3674752,0.3883013,-0.2985533
1.156101,-0.2220669,0.4375942,-0.2625019,0.4694933,-0.1781684
1.13897,-0.3441067,0.378736,-0.03237662,0.2371104,0.01932078
1.111269,-0.4096765,0.3179871,0.3100613,-0.04373331,0.2165689
1.104844,-0.4133375,0.3056884,0.6613725,0.231879,0.2369923
0.9786137,-0.4047274,0.2549943,0.8738608,0.4801281,0.05132521
0.8379991,-0.385957,0.1891127,0.764583,0.2376041,-0.142176
0.8951892,-0.1963634,0.1892245,0.4325744,0.002759951,-0.2017557
0.9927996,0.01268247,0.1552511,0.1485205,-0.2439315,-0.08048541
0.9968844,-0.03389431,0.1181125,0.06705425,-0.40916,0.1107313
0.9854966,-0.1420718,0.1729937,0.2310725,-0.2682865,0.1725061
0.9211483,-0.1790798,0.2435111,0.4206032,-0.2749934,0.1697061
0.8392907,-0.2579926,0.2992197,0.6550637,-0.3595414,0.09856232
0.8295355,-0.2482354,0.2874714,0.9915891,-0.3598057,-0.005808167
0.8086252,-0.1528181,0.2161816,1.096308,-0.514044,0.07240163
0.8264,-0.121065,0.220113,1.164082,-0.5611722,0.1651697
0.9132505,-0.05045576,0.2104873,1.257602,-0.4702891,0.1867323
0.938813,0.001766542,0.187595,1.126693,-0.4430235,0.2689813
0.9704077,0.01486089,0.2240674,1.041927,-0.3366936,0.292864
1.010509,0.09379665,0.2034162,0.8689813,-0.1540645,0.2371437
0.9713005,0.1036224,0.2118357,0.5437589,0.01633042,0.1866185
0.9381942,0.1184999,0.2634901,0.3561168,0.05016465,0.1712393
0.8989325,0.1640564,0.2619119,0.1753897,-0.03504439,0.2435288
0.8626589,0.1149908,0.2648787,0.07701618,-0.08279087,0.4025594
0.9138686,0.09278669,0.2474056,0.1025266,-0.148222,0.5771203
0.9832632,0.04079598,0.2583122,0.1725297,-0.1464491,0.6159918
1.050336,-0.05066689,0.3001786,0.3783947,-0.08222465,0.4803572
1.0925,-0.07341465,0.3130949,0.5802314,-0.1033249,0.2999019
1.065442,-0.07779449,0.3538686,0.707384,-0.1413474,0.128517
1.055312,-0.003270123,0.3617908,0.7584392,-0.2261318,0.01337742
1.048604,0.1091266,0.3528074,0.7424801,-0.3255894,0.01036937
1.043553,0.1416544,0.3585219,0.689966,-0.3428135,0.02743446
1.133361,0.09935287,0.3198283,0.449835,-0.2684499,-0.03563122
1.22274,0.02559591,0.2887643,0.0357787,-0.1002463,-0.2128882
1.201057,-0.003754582,0.2414169,-0.4023573,-0.02207326,-0.4355003
1.120537,-0.01365758,0.1378613,-0.7579145,0.0001150544,-0.4991401
1.054327,-0.07036808,0.05308032,-0.9843843,0.1519423,-0.4572898
1.040016,-0.2008769,0.1021563,-1.005233,0.2818441,-0.4953463
1.101816,-0.3387697,0.2713303,-0.6622616,0.3026235,-0.4692519
1.217745,-0.3961437,0.4077883,-0.1683099,0.3200612,-0.2833045
1.258487,-0.3531041,0.4528068,0.1184997,0.3485327,-0.02018612
1.128658,-0.1886602,0.3795065,0.124745,0.3442012,0.1798697
0.9749779,-0.07344104,0.3044379,-0.05633592,0.3660033,0.1809178
0.9512687,-0.05584366,0.2810759,-0.316653,0.4203513,0.2207669
0.9019146,0.0006834116,0.1829547,-0.6221322,0.4362308,0.3292512
0.7984528,-0.02598296,0.1868692,-0.7805163,0.4799299,0.2536435
0.7859051,-0.1157924,0.2748991,-0.7496465,0.4793292,0.1939956
0.744237,-0.1231029,0.2728309,-0.7338167,0.3670894,0.1874297
0.7336253,-0.1270671,0.3252297,-0.6725756,0.2502517,0.1345009
0.8032769,-0.1630307,0.3514311,-0.569247,0.1567789,0.1468972
0.7808217,-0.1764934,0.3248481,-0.4674248,0.1216868,0.08491454
0.7933073,-0.1554345,0.3687198,-0.2831378,0.07190258,-0.01242822
0.7970348,-0.1168069,0.3927992,-0.09914262,0.02498045,-0.02154532
0.7444633,-0.05133991,0.4207991,0.03301183,0.03429453,-0.04820187
0.7883898,0.01776852,0.4396054,0.06733217,-0.02574774,-0.04900054
0.8263626,0.06526514,0.4162011,-0.03304807,-0.04408214,-0.05059458
0.9129213,0.1030089,0.4213928,-0.2139434,-0.04221036,-0.08324197
1.0336,0.08014984,0.4157711,-0.4938265,-0.1141916,-0.08811801
1.082867,0.01326049,0.4261027,-0.7533049,-0.09721214,-0.1061294
1.136221,-0.03970423,0.471634,-0.8170701,0.03289616,-0.1630631
1.109511,-0.0680837,0.5185913,-0.7409627,0.2534079,-0.302547
1.098349,-0.0792754,0.562842,-0.6639818,0.3977374,-0.4199297
1.164614,-0.1405992,0.5343456,-0.5559952,0.3905097,-0.3834435
1.176377,-0.2314638,0.4405365,-0.3085545,0.3676057,-0.2414703
1.187039,-0.32912,0.3451035,-0.04416068,0.2206946,-0.0005886852
1.152579,-0.4450304,0.3124631,0.2026566,0.1129404,0.169978
1.031685,-0.4706373,0.3155642,0.510759,0.2807137,0.1220005
0.8645125,-0.3934048,0.2343067,0.6244175,0.3980128,0.01848017
0.7806825,-0.2464212,0.168101,0.4899747,0.1895154,-0.09304334
0.897225,-0.07128884,0.1670544,0.3027197,-0.1234141,-0.1586707
0.970902,-0.03076728,0.1531465,0.09852794,-0.2174769,-0.02195462
0.996726,-0.1069368,0.1831933,0.08881427,-0.1815551,0.1441434
1.084986,-0.1503845,0.2165575,0.2351753,-0.2221572,0.1428838
0.9810316,-0.1567493,0.2462883,0.3246293,-0.3323219,0.07505572
0.8006013,-0.1780967,0.2975801,0.5541951,-0.4648364,0.02841151
0.8017285,-0.1687,0.2556689,0.7583344,-0.5309209,0.03042291
0.829505,-0.1093254,0.20159,0.7258666,-0.5455644,0.07705752
0.8464027,-0.0837738,0.2228078,0.7709284,-0.5547401,0.1418322
0.9230804,-0.04159795,0.2159053,0.8536758,-0.5370629,0.2437897
0.9593666,0.0078791,0.1979683,0.83057,-0.496578,0.2954738
0.9654447,0.008667775,0.2143943,0.7905466,-0.379239,0.2640756
0.9894559,0.07387039,0.2207766,0.6736271,-0.238528,0.2412056
0.9625526,0.1279381,0.2291918,0.4910113,-0.1434012,0.2065733
0.9268087,0.126228,0.2458449,0.2696165,-0.0642477,0.1985815
0.9205435,0.1370647,0.2428693,0.07794349,-0.05603947,0.2889065
0.9132177,0.08628571,0.2483148,0.04544342,-0.1069413,0.4303493
0.9433989,0.03157227,0.2588626,0.108159,-0.1554851,0.5755191
0.98217,-0.003399152,0.2676687,0.233635,-0.1918452,0.6207878
1.017176,-0.0680223,0.300188,0.4068154,-0.1519965,0.4942775
1.070104,-0.1246597,0.330561,0.5933985,-0.09082392,0.2714844
1.069269,-0.1362471,0.3435093,0.7620938,-0.1399039,0.0440774
1.047165,-0.04665628,0.335503,0.7861288,-0.2361386,-0.1032405
1.071484,0.06388574,0.332584,0.6907053,-0.3443753,-0.1351569
1.102282,0.122593,0.3418959,0.5199459,-0.4184949,-0.1417068
1.182857,0.1077795,0.2953683,0.2452063,-0.3103152,-0.2496955
1.292453,0.0512951,0.1847019,-0.07843578,-0.1545426,-0.4474862
1.262317,0.08207523,0.07043071,-0.538335,0.02814508,-0.5625242
1.167114,0.03220862,0.04286763,-1.03454,0.4107166,-0.5402553
1.117222,-0.130739,0.05644985,-1.092084,0.6749926,-0.5163223
1.060755,-0.2184176,0.1119736,-0.6953361,0.588967,-0.4849638
1.116272,-0.2744772,0.3724147,-0.2664034,0.4859213,-0.3316352
1.193763,-0.2490617,0.5396192,-0.07510281,0.465337,-0.1384576
1.081456,-0.1418912,0.3627106,-0.239441,0.3217164,-0.05250599
0.9734171,-0.01636582,0.2104027,-0.5343808,0.2157012,-0.03873094
0.9262733,0.05382065,0.2045061,-0.7986848,0.3220809,0.03658625
0.8563919,-0.03364268,0.1933628,-1.083477,0.4121218,0.1343527
0.8289501,-0.09228233,0.2089708,-1.15024,0.4274955,0.1236881
0.7923051,-0.1311523,0.2554786,-1.095246,0.4648685,0.07298881
0.7580545,-0.2081849,0.2824813,-1.079358,0.4402208,0.04372003
0.762934,-0.1959285,0.2970624,-0.9501949,0.3587205,0.01343412
0.7703699,-0.21159,0.3049072,-0.8456809,0.2958248,0.01021084
0.7900414,-0.2145565,0.3029629,-0.7070784,0.2017806,-0.003386037
0.784868,-0.1553647,0.3406297,-0.4984418,0.04327863,-0.005426806
0.7669132,-0.1212035,0.3912543,-0.3957783,-0.1010304,0.03775736
0.7508099,-0.0608372,0.4030965,-0.2914846,-0.2454449,0.05989288
0.7497722,-0.03629554,0.4200054,-0.2070371,-0.3540188,0.06909414
0.8404552,-0.01886238,0.4306529,-0.1814815,-0.224555,0.0429919
0.9499082,0.01012802,0.4274944,-0.2234501,-0.04959286,-0.04316443
0.9866776,-0.01928338,0.4257505,-0.3417188,-0.09426677,-0.1290032
1.016282,-0.008428072,0.4136742,-0.4172058,-0.1137577,-0.1736507
1.062558,0.001040388,0.4133116,-0.4901906,-0.02652599,-0.1930062
1.0482,-0.01009119,0.4458206,-0.515756,0.03584461,-0.2843898
1.033045,0.006611366,0.5052868,-0.5157167,0.1557647,-0.3754495
1.118452,-0.04636987,0.5160592,-0.5392001,0.2791157,-0.3367663
1.210725,-0.1523161,0.4514374,-0.397832,0.2938029,-0.2523784
1.254996,-0.2851276,0.3747436,-0.1908219,0.1992749,-0.105666
1.238237,-0.4268696,0.3266192,-0.01073252,0.1218889,0.05888398
1.135058,-0.473567,0.3318183,0.3029149,0.3157115,0.04471969
0.9680113,-0.4168619,0.309108,0.6408038,0.4865515,-0.1050976
0.7522048,-0.3238711,0.2286258,0.6430365,0.2071492,-0.2795301
0.7060153,-0.2442393,0.1929143,0.2749661,-0.1976217,-0.3328522
0.8908214,-0.127914,0.1637155,-0.04593309,-0.38151,-0.114069
1.030116,-0.01209219,0.1076712,-0.1007231,-0.3588616,0.1514282
1.066328,-0.08382446,0.1167783,0.03351508,-0.1989343,0.2121148
1.013506,-0.2292249,0.1964557,0.1975818,-0.1097852,0.1585719
0.896266,-0.2346532,0.2685392,0.3871567,-0.2296359,0.06029168
0.8245139,-0.2218486,0.2811584,0.7213336,-0.3978082,-0.05626647
0.7926442,-0.2131789,0.2539915,0.9028753,-0.4590848,-0.03529364
0.8351515,-0.1106393,0.2359274,0.9256042,-0.5115773,0.08185773
0.8959909,-0.0407776,0.2193963,1.018208,-0.5685552,0.162676
0.911059,0.009455629,0.1936525,0.9450282,-0.5099797,0.2704239
0.959206,0.08683949,0.1934526,0.7987175,-0.4078981,0.3139561
0.9748835,0.0956658,0.2049365,0.6282314,-0.2968902,0.2475619
0.9663865,0.1043476,0.2073143,0.3184353,-0.1863389,0.2350122
0.9765899,0.1088385,0.2292676,0.1464547,-0.1558378,0.2251903
0.9493644,0.07967277,0.2448273,0.08119893,-0.1322886,0.2422034
0.9462966,0.05943411,0.2407304,0.06737391,-0.1318982,0.3591744
0.9580282,0.01153796,0.2468534,0.1861536,-0.1568893,0.4442626
0.9818732,-0.009389127,0.2599537,0.30668,-0.1000602,0.4532048
1.042306,-0.0386502,0.2859242,0.4693102,-0.05618372,0.3437613
1.048637,-0.09150238,0.303893,0.6168414,-0.0578608,0.154967
1.033947,-0.05280311,0.3020459,0.652788,-0.08636711,0.009388214
1.041604,0.01283838,0.3166803,0.6908989,-0.1942464,-0.07156844
1.046348,0.0768105,0.329096,0.6949529,-0.3229115,-0.06031162
1.096611,0.1182187,0.3095621,0.5784822,-0.3778668,-0.07349872
1.205903,0.06728404,0.282387,0.3315696,-0.243145,-0.2056943
1.275519,0.03846892,0.2691511,-0.03302279,-0.05058741,-0.372779
1.223056,0.05625438,0.2386089,-0.4531395,-0.01661218,-0.4545637
1.152016,0.004125259,0.1570841,-0.7597354,0.07869659,-0.388942
1.12026,-0.1518043,0.1068136,-0.8767126,0.3524912,-0.3650988
1.069969,-0.3354916,0.2119241,-0.8888646,0.5274455,-0.4075606
1.071976,-0.3615924,0.3796157,-0.6219558,0.4892899,-0.3454697
1.093854,-0.2414595,0.4079584,-0.1734411,0.4188518,-0.2138098
1.04751,-0.147589,0.3383523,-0.06004448,0.3911466,0.005934275
1.006903,-0.04521175,0.2920231,-0.2276479,0.3644805,0.1838056
0.9661023,0.002635899,0.2614183,-0.4011182,0.4085696,0.1848587
0.9036829,-0.07782438,0.2355701,-0.6250745,0.4362021,0.2459855
0.8523466,-0.1034312,0.205608,-0.8380447,0.4262282,0.3080623
0.8198209,-0.1062064,0.2155761,-0.8580829,0.4771012,0.2064099
0.7887898,-0.1536465,0.2937023,-0.7266139,0.4404841,0.1279675
0.7100573,-0.1637221,0.3433787,-0.5911282,0.376814,0.09897217
0.7050005,-0.1671265,0.3383124,-0.4560926,0.3191623,0.072607
0.7707226,-0.1438589,0.3335013,-0.3873511,0.1595421,0.07792152
0.7601752,-0.1256994,0.3487689,-0.3545068,0.06543404,0.05320191
0.7927245,-0.1301108,0.3629895,-0.2357054,0.002242699,0.02932494
0.7960018,-0.07939038,0.3965013,-0.1442267,-0.08117585,0.03136707
0.7214505,-0.01909404,0.4763721,-0.0874866,-0.1364603,0.03018461
0.7551865,0.02570252,0.4876527,-0.07039854,-0.18721,0.02920511
0.80303,0.03239626,0.4360033,-0.2005693,-0.08704837,-0.03402767
0.8878871,0.03150521,0.4344331,-0.3918962,0.01199113,-0.1233525
1.016228,0.0367593,0.4365981,-0.5339583,-0.09592112,-0.1461009
1.066141,-0.03730422,0.4421645,-0.5593476,-0.1411294,-0.1677377
1.136369,-0.07011151,0.4646823,-0.5101687,0.06455333,-0.2928435
1.116832,-0.03448914,0.493357,-0.4889525,0.3468986,-0.4890274
1.049287,-0.03929947,0.5461439,-0.4864006,0.4880333,-0.5503113
1.13626,-0.07801715,0.5351035,-0.4327914,0.4440715,-0.3962822
1.191009,-0.196346,0.4505571,-0.2508118,0.2013959,-0.189096
1.187765,-0.3472999,0.3760728,0.04005116,-0.008982593,-0.02319697
1.186554,-0.4325534,0.3403211,0.3785667,0.2001467,0.03637995
1.074856,-0.4336924,0.2979929,0.5693032,0.423521,-0.09686882
0.9009885,-0.3453799,0.1939287,0.451082,0.1331044,-0.2853168
0.8101063,-0.2042699,0.14788,0.2032634,-0.2630854,-0.3344043
0.9011699,-0.0747619,0.1678883,-0.04042888,-0.4905366,-0.2580032
1.020757,-0.06419864,0.1458078,-0.1026027,-0.6025678,-0.1468302
1.009626,-0.1457903,0.1759923,0.07952703,-0.4762713,-0.05782455
0.9773542,-0.2007951,0.239646,0.2202986,-0.4195902,-0.01568241
0.9138987,-0.2142711,0.249125,0.4244084,-0.5041874,-0.03378273
0.8403606,-0.1891865,0.2339268,0.6937332,-0.4613859,-0.05322897
0.8485407,-0.1622514,0.1955164,0.7551061,-0.4894375,0.01808515
0.8598745,-0.1192862,0.1799518,0.792837,-0.5369731,0.1055761
0.8907563,-0.05117685,0.1788402,0.8093265,-0.5166653,0.1614583
0.9521883,-0.01608086,0.1664744,0.7568855,-0.521977,0.2177539
0.9936787,0.02604707,0.1753804,0.7487757,-0.4038547,0.2335606
1.011559,0.06858311,0.1742728,0.6035701,-0.2570038,0.2105538
0.9817989,0.08384875,0.1819333,0.3927575,-0.147691,0.151712
0.9555205,0.09440726,0.2057216,0.2122953,-0.04191646,0.1274752
0.9360681,0.08163062,0.2227772,0.01785438,-0.0009006076,0.2101202
0.9218808,0.06656874,0.2419913,-0.0111959,0.01530859,0.3449176
0.9579264,0.04272893,0.2353726,0.1328287,-0.03333832,0.5128723
0.9958803,0.01316931,0.2414591,0.3455787,-0.07496493,0.6075339
1.036593,0.002823708,0.2709971,0.4753518,-0.05991731,0.5550745
1.057012,-0.04364787,0.2817501,0.4798205,-0.03066252,0.423591
1.044407,-0.07135746,0.3034737,0.5645611,0.02085584,0.2090349
1.064018,0.01250328,0.3246662,0.6691712,-0.05094142,-0.005133612
1.078108,0.1308237,0.3210237,0.680333,-0.1808479,-0.08244903
1.091216,0.1792895,0.3059385,0.6655886,-0.2502987,-0.05609624
1.134962,0.1464572,0.2882583,0.5775613,-0.2859438,-0.06712376
1.201705,0.06501438,0.2661348,0.3112323,-0.1741923,-0.1977696
1.271192,-0.0131096,0.2076321,-0.08716286,-0.01037599,-0.3486853
1.222722,-0.008222504,0.1219723,-0.4577641,0.07938057,-0.3762433
1.118671,-0.009231966,0.08267432,-0.7289397,0.2390219,-0.3314636
1.068429,-0.1990713,0.1543602,-0.8011963,0.4537196,-0.3561951
0.9731164,-0.4207514,0.2926918,-0.5916306,0.529479,-0.4092371
0.9536288,-0.434988,0.3573898,-0.2283171,0.4785548,-0.4008846
1.038105,-0.318721,0.325505,0.08444303,0.451884,-0.2969537
1.009183,-0.1509035,0.3051791,0.124096,0.3961761,-0.1119549
0.9920911,0.03241705,0.3105546,-0.118045,0.2930887,-0.02800984
0.9944132,0.06319031,0.2637001,-0.4224847,0.2946796,-0.004068698
0.8997136,0.02489533,0.1992333,-0.7209082,0.3403966,0.1162117
0.8764597,0.04451536,0.2003915,-0.9637492,0.3619223,0.1474191
0.8622507,-0.06537676,0.2335387,-1.048721,0.4631482,0.08152828
0.810492,-0.1607331,0.260482,-1.035955,0.5383683,0.06568413
0.8103235,-0.1275456,0.2853463,-0.9729663,0.4790591,0.04273023
0.7880685,-0.1929321,0.3122086,-0.8310991,0.3988985,0.04229511
0.7842037,-0.2014397,0.3499896,-0.6313902,0.2379581,0.07398579
0.789288,-0.1507098,0.3623787,-0.4164143,-0.01803269,0.07767568
0.7775738,-0.1530812,0.3500942,-0.2684727,-0.1650297,0.05680253
0.78444,-0.07971609,0.3600676,-0.2070082,-0.2302349,0.006833312
0.7666024,-0.03473605,0.380656,-0.1744615,-0.254846,-0.01754538
0.7800317,0.008934115,0.391119,-0.186993,-0.1770392,-0.01222158
0.8300371,0.03363855,0.3769773,-0.2869686,-0.080286,-0.02882119
0.9138786,-0.02303247,0.3547028,-0.4484622,-0.03693168,-0.04945226
1.022411,-0.009369051,0.368284,-0.521682,-0.1193096,-0.07753262
1.07485,-0.02016956,0.3843354,-0.4714777,-0.2163409,-0.1376081
1.130529,-0.03350782,0.3888644,-0.4738147,-0.1068292,-0.273627
1.14207,-0.01143031,0.4344449,-0.509362,0.02899394,-0.4219276
1.108818,-0.05425058,0.5009063,-0.4918256,0.1357699,-0.4043474
1.160594,-0.08988441,0.5207404,-0.4779583,0.3840251,-0.2750871
1.178608,-0.1695213,0.4677589,-0.3968463,0.4599788,-0.1562646
1.138251,-0.2742595,0.4004444,-0.1983264,0.1720492,-0.02622677
1.118884,-0.3478516,0.3769075,0.02305043,-0.005511826,0.02939661
1.059698,-0.4113684,0.3357075,0.2180021,0.2169772,-0.0236098
0.964861,-0.3742111,0.2588384,0.3497292,0.3827134,-0.07036751
0.8723196,-0.2765674,0.1959403,0.3823739,0.1077674,-0.08887564
0.8844507,-0.1616566,0.1358656,0.2796297,-0.2115544,-0.06162609
0.9921014,-0.09961959,0.1044681,0.07572771,-0.2450546,0.0320267
1.016077,-0.1767257,0.1375859,-0.01210233,-0.1385587,0.1112138
0.9901405,-0.2213093,0.2075781,0.1088694,-0.04037953,0.1012372
0.9427003,-0.1981181,0.2761832,0.2685926,-0.1055805,0.0371779
0.8753129,-0.1979694,0.2923286,0.4013016,-0.2615186,-0.009694044
0.8870447,-0.1611591,0.2550714,0.5803056,-0.366739,-0.03679824
0.9000628,-0.1107937,0.2330729,0.7261797,-0.4592731,0.0112441
0.8895577,-0.09545069,0.2324767,0.7661401,-0.4809194,0.1251589
0.9034948,-0.07962054,0.2165904,0.7777236,-0.4935722,0.1932298
0.9145295,-0.04898636,0.2038106,0.7372149,-0.4680411,0.2617773
0.9427143,-0.01419837,0.19686,0.6524547,-0.3546909,0.298586
0.952376,-0.006884291,0.1968179,0.6007489,-0.3218222,0.2416414
0.943478,0.00367934,0.2283044,0.5276025,-0.2611882,0.1950593
0.9525331,0.06778189,0.2554159,0.415989,-0.1692683,0.1536216
0.9454811,0.1067714,0.2591156,0.2618144,-0.1499699,0.1402326
0.9229205,0.09905915,0.2531266,0.09506724,-0.1326693,0.2249114
0.8997383,0.1171146,0.2391071,-0.005656833,-0.1568701,0.3649522
0.9037676,0.1171322,0.233382,-0.04921269,-0.1710528,0.5195955
0.9430398,0.05889019,0.232656,0.02301913,-0.1809445,0.5775453
1.00301,-0.02955857,0.2372024,0.1842551,-0.1562525,0.490404
1.06586,-0.1169514,0.2463198,0.3541461,-0.03459597,0.3361969
1.079258,-0.1330315,0.2647427,0.53725,0.0198043,0.1120615
1.076025,-0.1053058,0.2984437,0.6417629,0.02453396,-0.08742417
1.081139,-0.0622264,0.3177877,0.7081461,-0.05417101,-0.09618256
1.065135,0.05409853,0.3322397,0.7444717,-0.2038221,-0.03315679
1.103987,0.1103281,0.3308053,0.5960544,-0.2026154,-0.06657444
1.203909,0.05302827,0.3050986,0.3281039,-0.1457071,-0.1540224
1.265368,0.04637485,0.2908659,0.00479649,-0.0995615,-0.2863957
1.260044,0.05496362,0.2308028,-0.3992467,0.01466483,-0.3877795
1.197375,0.02256754,0.1197273,-0.7560759,0.1980922,-0.3680704
1.115737,-0.03586956,0.06811864,-0.9274422,0.407689,-0.3694923
1.035055,-0.1789698,0.1213684,-0.9159412,0.481547,-0.4001853
0.9836057,-0.3116899,0.240586,-0.693155,0.4501587,-0.3819911
1.005069,-0.3273512,0.3598296,-0.2984619,0.4372777,-0.3185789
1.013211,-0.2619144,0.4018833,-0.1131844,0.3593804,-0.1623865
0.9824363,-0.1548994,0.3232293,-0.2281594,0.2473172,-0.04603267
0.9816796,-0.08178277,0.2465434,-0.3243918,0.226644,-0.03982077
0.9839338,-0.07645469,0.2485612,-0.4588114,0.2787916,-0.001413891
0.977315,-0.09633912,0.2354687,-0.6827343,0.3730952,0.040087
0.9498545,-0.1181468,0.2481856,-0.7617134,0.4740791,0.03271284
0.8790583,-0.1348581,0.2921087,-0.7514804,0.5273437,0.03035223
0.8107109,-0.1559703,0.2929016,-0.7453839,0.5036129,0.04997748
0.7711822,-0.1728641,0.3061827,-0.6556411,0.3902035,0.0878964
0.7637824,-0.1771847,0.3275655,-0.541931,0.2835358,0.1361512
0.7849934,-0.1772805,0.3383571,-0.4265795,0.1818335,0.16696
0.8021053,-0.1621954,0.3433932,-0.2875609,0.01002159,0.1595789
0.7934493,-0.1348301,0.341325,-0.2001143,-0.154612,0.1385437
0.7808497,-0.1000048,0.3697885,-0.122527,-0.253646,0.1170629
0.7824396,-0.07928193,0.3808329,-0.02303212,-0.2391204,0.1016434
0.7955385,-0.0743755,0.3748504,0.07230456,-0.1976024,0.08786075
0.8458132,-0.0512094,0.3933477,0.1244337,-0.2046445,0.03946231
0.9006678,-0.04950151,0.3960182,0.08930782,-0.1877386,-0.010345
0.9233804,-0.05976,0.3944315,0.02632731,-0.2474363,-0.04253291
0.9974825,-0.03018948,0.3985745,-0.09827292,-0.2848384,-0.1000721
1.088679,-0.000520928,0.4009496,-0.2484951,-0.1491775,-0.1983624
1.069102,0.04788707,0.4230735,-0.3645665,-0.03270239,-0.3117062
1.010045,0.1217717,0.4610571,-0.5891183,-0.004995874,-0.3604557
1.008783,0.1345931,0.4888094,-0.7986126,0.1096271,-0.3379025
1.0729,0.07285588,0.4852203,-0.7951366,0.3494824,-0.2649154
1.184841,-0.04595913,0.4653805,-0.6311563,0.3696726,-0.0824974
1.230648,-0.2155332,0.4099522,-0.4000056,0.1451816,0.1183641
1.241559,-0.3885009,0.3183752,-0.1594209,0.1114617,0.1658981
1.273887,-0.5045694,0.2874856,0.1998156,0.3521813,0.05996186
1.091924,-0.5181398,0.3070801,0.5742804,0.5751905,-0.1256479
0.7752487,-0.4338494,0.2843587,0.6068318,0.3580521,-0.3099243
0.7149683,-0.2886152,0.2324162,0.3725716,-0.08973994,-0.3435199
0.8576004,-0.1379601,0.1692485,0.1344551,-0.2347523,-0.1381474
0.9817841,-0.08401546,0.09498511,-0.03805094,-0.2108189,0.1545012
1.055117,-0.1356299,0.09255459,-0.04530699,-0.06389457,0.2922152
1.02745,-0.183527,0.1877533,0.08151019,0.03718367,0.206953
0.930857,-0.2277416,0.2842218,0.2265964,-0.2150843,0.03521077
0.8874464,-0.2643589,0.307946,0.4523663,-0.4525655,-0.09624849
0.8910907,-0.2086163,0.2609462,0.6647419,-0.5028835,-0.1534633
0.9106603,-0.135871,0.2274037,0.7583363,-0.552806,-0.08391734
0.9306258,-0.09530261,0.2315292,0.8427607,-0.6066763,0.02867596
0.9240534,-0.05691354,0.212559,0.8694706,-0.5569811,0.1186229
0.9327281,-0.05738612,0.2104357,0.8239467,-0.4485488,0.2245314
0.9497948,-0.02536758,0.225439,0.7585614,-0.4035724,0.2320546
0.9679893,0.04625048,0.2176321,0.6261213,-0.2884314,0.2129183
0.9909393,0.08484251,0.2356343,0.4882975,-0.206938,0.2366502
0.9740201,0.1060954,0.2521002,0.3514489,-0.2096606,0.2148811
0.960947,0.08763283,0.2456291,0.2080943,-0.1278001,0.2423655
0.9429084,0.08248949,0.2563731,0.1502536,-0.1084971,0.2763926
0.9155682,0.09486127,0.2594115,0.1494307,-0.1014412,0.302454
0.9499128,0.05163943,0.2453785,0.1291146,-0.05163944,0.3372372
0.9940274,0.009243056,0.2393846,0.1302284,-0.02353106,0.2901172
1.021835,-0.04416364,0.2555966,0.2373316,0.03285819,0.2432588
1.036558,-0.09404676,0.2804947,0.4131553,0.007270318,0.1288303
1.026461,-0.08381983,0.2867286,0.5412155,-0.04290887,-0.02317237
1.033865,-0.04692192,0.2920482,0.5856978,-0.04790953,-0.04147242
1.04267,0.02108194,0.3083344,0.6645365,-0.05697587,-0.02593572
1.044658,0.05869072,0.3165498,0.7765601,-0.03677667,-0.02435428
1.068498,0.04561843,0.3096918,0.7248745,-0.05931482,-0.05242518
1.123663,0.03944107,0.300148,0.5370598,-0.09676811,-0.1405658
1.187866,0.02602411,0.2960568,0.1831618,-0.08078139,-0.2569305
1.188567,0.03814429,0.2643003,-0.2958872,-0.04880586,-0.314078
1.155407,0.04405078,0.1837756,-0.5048926,0.04273223,-0.2570564
1.150744,-0.04010878,0.09826274,-0.6100631,0.230621,-0.2624691
1.113656,-0.1903641,0.07897901,-0.7495563,0.4391431,-0.3373967
1.051793,-0.3271838,0.1580964,-0.5144275,0.5260315,-0.3468274
1.029163,-0.3552327,0.2933008,-0.1322012,0.4684536,-0.2651555
1.022979,-0.2920295,0.3951045,0.0776242,0.3893652,-0.05583813
1.013632,-0.1955764,0.3786507,0.1562395,0.3032544,0.1277426
0.9888046,-0.07739205,0.3004763,0.01088372,0.1846418,0.1878165
0.9637094,-0.04113507,0.2686254,-0.1640969,0.1850428,0.212695
0.9701391,-0.1001962,0.2488351,-0.2824582,0.3073687,0.2251679
0.9555224,-0.1214671,0.2569427,-0.4035816,0.3862469,0.2356926
0.8898377,-0.1108574,0.2986476,-0.3657754,0.4634973,0.1942181
0.8104494,-0.1175337,0.3027431,-0.3489727,0.468383,0.1368315
0.7608223,-0.108972,0.323658,-0.4108557,0.344734,0.1357483
0.7624678,-0.1112149,0.3399003,-0.3930482,0.2424521,0.1379218
0.7805937,-0.1275382,0.3320445,-0.3801248,0.1159499,0.1492182
0.7900535,-0.1248194,0.369974,-0.2824133,0.002819367,0.1555658
0.7922192,-0.114535,0.3978975,-0.1077723,-0.08751187,0.150233
0.7903609,-0.07850917,0.4054777,-0.02850496,-0.2135087,0.1375452
0.799856,-0.03697798,0.3984404,-0.01498647,-0.21,0.08635304
0.8294734,-0.02084325,0.3738396,-0.03799427,-0.1297988,0.04074995
0.8800235,-0.0013834,0.3702823,-0.09853522,-0.07322002,-0.01436921
0.9427524,0.01036278,0.3609937,-0.2222618,-0.07911316,-0.06050084
1.028439,-0.01540185,0.3702746,-0.3692635,-0.1452049,-0.0675604
1.120084,-0.05067013,0.3893193,-0.4417384,-0.1057439,-0.1315404
1.127025,-0.02331146,0.4021888,-0.4653391,-0.01140816,-0.2619849
1.074122,0.0291644,0.4473755,-0.5335673,0.1368342,-0.4258337
1.07214,0.03587871,0.4840595,-0.7208332,0.2969998,-0.5566272
1.086748,0.04168111,0.50672,-0.8546087,0.3497831,-0.554826
1.080711,0.004547912,0.4837576,-0.7785429,0.3735799,-0.4430582
1.079873,-0.1200145,0.3972035,-0.6500489,0.1837393,-0.2562444
1.068226,-0.267276,0.3331483,-0.4862803,-0.0324383,-0.07217005
1.069344,-0.4111391,0.3139105,-0.2419007,0.1461694,-0.02623749
1.060502,-0.5020908,0.3169371,0.05270714,0.4056936,-0.0907529
0.9777225,-0.4580248,0.2825519,0.3900031,0.4665621,-0.1696045
0.8723631,-0.2797485,0.2136732,0.4710498,0.2581905,-0.2742528
0.8443081,-0.1023256,0.1675002,0.2134093,-0.1373048,-0.3315052
0.9358273,-0.04221889,0.1333624,-0.01538764,-0.2663045,-0.2047854
1.04094,-0.07686037,0.1486274,-0.150536,-0.1598397,-0.01018682
1.049512,-0.1246895,0.2055755,-0.2001364,-0.1500187,0.08866722
0.9828785,-0.1552934,0.2679507,-0.1094018,-0.1675075,0.09153177
0.9107619,-0.2054767,0.3010029,0.01575444,-0.2055533,0.01688668
0.9003328,-0.1968378,0.2527281,0.2122761,-0.3298649,-0.04856374
0.8873814,-0.1581091,0.2314787,0.3857004,-0.4044124,-0.04681341
0.863815,-0.1768296,0.2491283,0.4495425,-0.4470109,-0.003682284
0.8989667,-0.1020002,0.2323553,0.547796,-0.5172632,0.08243146
0.9046453,-0.006142301,0.2339889,0.5686637,-0.5090693,0.166477
0.916916,0.004424375,0.2287224,0.4903172,-0.4511542,0.214892
0.9610874,0.02808844,0.2205378,0.3993913,-0.3832983,0.2119316
0.9562802,0.05721135,0.2326771,0.2130086,-0.2778343,0.1560599
0.9783015,0.1033433,0.2302904,0.04406295,-0.2136999,0.1197765
0.9754303,0.1088561,0.239364,-0.05717549,-0.18469,0.1329928
0.9348208,0.08771895,0.248513,-0.148255,-0.1589601,0.191602
0.9639427,0.1046774,0.2507822,-0.1474949,-0.1565528,0.2692205
0.9767458,0.06141248,0.2522535,-0.07233341,-0.107704,0.3133541
0.9848423,0.01680946,0.2506126,0.0348942,-0.02768169,0.2943596
1.012813,-0.01852054,0.2736887,0.1717429,-0.001954438,0.1994786
0.9918893,-0.08148686,0.2916082,0.3057574,-0.03265824,0.04924705
0.992798,-0.0785914,0.2882975,0.4126838,-0.09526204,-0.1175609
1.028626,-0.0400499,0.2795071,0.4849757,-0.148837,-0.2193392
1.072827,0.02105947,0.2672165,0.575552,-0.1667243,-0.229921
1.128738,0.07779489,0.2579926,0.6210232,-0.1224924,-0.1983339
1.166023,0.07402281,0.2522687,0.4909265,0.002839526,-0.1773676
1.207703,0.07205261,0.2614327,0.2348534,0.1200072,-0.2655671
1.224906,0.07902649,0.2544301,-0.111234,0.1224793,-0.3815898
1.194438,0.07156952,0.1986705,-0.5302123,0.1372602,-0.3915101
1.164467,0.008985085,0.1316829,-0.8114005,0.279742,-0.3781848
1.088222,-0.1624103,0.1345811,-0.7922601,0.321292,-0.3843571
0.9972821,-0.3283233,0.2585392,-0.6041819,0.2761153,-0.3692156
1.017777,-0.3246559,0.4074502,-0.3368206,0.3285746,-0.2826627
1.052,-0.19833,0.4420424,0.003725182,0.313298,-0.1241179
1.010577,-0.09007639,0.3539373,0.07611116,0.274104,-0.01701263
0.9978754,-0.007357412,0.2675967,-0.1721039,0.2926592,-0.01224243
0.9792559,0.03113876,0.2453502,-0.385978,0.2731085,-0.01133587
0.9274804,0.01427,0.2259748,-0.6717927,0.3340874,0.03949164
0.9154746,-0.008375468,0.2410218,-0.9557704,0.4417789,0.07635663
0.8667461,-0.07199218,0.2773158,-0.9832723,0.5126103,0.1035866
0.8050141,-0.1242376,0.2685375,-0.9730226,0.5470319,0.155412
0.7916715,-0.1360583,0.2932548,-0.9114398,0.4657892,0.191183
0.7609325,-0.1800887,0.3300229,-0.7637571,0.33177,0.2200258
0.7637485,-0.205576,0.3287448,-0.6212352,0.1627055,0.2391967
0.7998301,-0.2070475,0.3513678,-0.4101807,-0.01388159,0.2283496
0.8100554,-0.1866234,0.3730058,-0.2551787,-0.1025535,0.1944373
0.8098461,-0.12758,0.3754706,-0.1606228,-0.1682233,0.1434594
0.7871032,-0.09143591,0.3823359,-0.1057457,-0.2131068,0.1253105
0.7829771,-0.05569989,0.3844738,-0.1340639,-0.2058591,0.1294702
0.8273402,-0.02030323,0.3933245,-0.1104588,-0.1896755,0.09567919
0.8970024,-0.01233109,0.4002145,-0.1152792,-0.1800112,0.02632395
0.9649824,-0.01284755,0.3960733,-0.2105056,-0.2011068,-0.04990028
1.038211,-0.03445781,0.3950716,-0.3325786,-0.2207618,-0.1044062
1.148276,-0.05004613,0.3907295,-0.4286317,-0.159776,-0.1642832
1.164926,-0.04487356,0.4056207,-0.414033,-0.02441075,-0.2857819
1.108146,-0.0358582,0.4750794,-0.4576604,0.1152777,-0.4068114
1.150313,-0.02847494,0.5454499,-0.5650495,0.2245396,-0.4238322
1.161814,-0.04041916,0.5275311,-0.5224977,0.2858359,-0.3607758
1.117928,-0.07455483,0.4536703,-0.4086082,0.2158919,-0.2411531
1.115335,-0.1343226,0.4028568,-0.2779884,0.02027239,-0.06427105
1.081311,-0.2227065,0.3587873,-0.1320218,-0.04434669,0.02863241
1.075212,-0.3533767,0.3306707,0.02272129,0.1791673,-0.02852931
1.041549,-0.4512124,0.3225065,0.2795259,0.3542373,-0.1130138
0.8786867,-0.4017992,0.2695858,0.4085408,0.100993,-0.2136775
0.7956191,-0.2898561,0.2024579,0.2838119,-0.2726958,-0.3018647
0.8734801,-0.1726191,0.1508883,0.1654058,-0.3244979,-0.2023052
0.9885185,-0.07925254,0.1053561,0.009936942,-0.239448,-0.0184054
1.045768,-0.1214172,0.1132435,-0.1001245,-0.1334901,0.06649505
1.019622,-0.1663816,0.1721367,-0.003828312,-0.004069907,0.08941499
0.959766,-0.1619863,0.2444496,0.02845137,-0.1328387,0.009000464
0.903507,-0.2202552,0.2788564,0.1389778,-0.3458012,-0.08317979
0.8958325,-0.2217509,0.2565985,0.4617536,-0.3806752,-0.05472802
0.9205465,-0.1757568,0.2401989,0.653537,-0.4318742,-0.008474297
0.9244769,-0.1446883,0.2212742,0.7336495,-0.470514,0.07553913
0.9237663,-0.06848863,0.1871088,0.7662915,-0.4250647,0.1881972
0.9328167,-0.02791753,0.1867576,0.7398818,-0.4050808,0.2486532
0.9519803,-0.01756397,0.1978137,0.7399007,-0.3559269,0.2732305
0.9673829,-0.002180764,0.203661,0.6926388,-0.2786733,0.2458456
0.9790401,0.005798764,0.2280691,0.6369379,-0.2429496,0.2328416
0.9772644,0.04457762,0.2438706,0.5745079,-0.1896849,0.2461459
0.9530162,0.07341252,0.2405668,0.4443912,-0.1381918,0.2645851
0.9418362,0.09155071,0.2399943,0.341039,-0.1387869,0.3484139
0.9469126,0.07591858,0.2371044,0.2980782,-0.1367172,0.4278357
0.9829033,0.02234867,0.2334575,0.3365578,-0.1144238,0.4507727
1.033638,-0.00805199,0.244572,0.4486649,-0.07533882,0.4112427
1.047168,-0.06770192,0.2654447,0.5913263,-0.03961401,0.305446
1.050957,-0.09128847,0.2744195,0.7080706,-0.04350504,0.18351
1.052246,-0.03257081,0.2717701,0.7439318,-0.0639137,0.04421232
1.044118,0.00855993,0.2726027,0.8075212,-0.11027,-0.05445373
1.057596,0.06908737,0.2763907,0.867357,-0.186226,-0.06349566
1.104582,0.1365708,0.2869681,0.7730615,-0.2007009,-0.07630065
1.181142,0.1109719,0.297179,0.5653296,-0.1334028,-0.1698201
1.226983,0.06337124,0.2935773,0.2565796,-0.09600526,-0.29899
1.196605,0.08891221,0.2861093,-0.1101129,-0.1024795,-0.3500581
1.155669,0.08860432,0.2534482,-0.4384006,-0.02722132,-0.3359813
1.127731,0.01984645,0.1606142,-0.7519719,0.2018407,-0.3329313
1.087061,-0.07802287,0.07679442,-0.9342192,0.4624517,-0.3385797
1.059124,-0.2679062,0.1103602,-0.8378062,0.5160967,-0.3690624
1.043999,-0.4028983,0.2460394,-0.5342474,0.4363616,-0.3761773
1.074332,-0.369088,0.3919603,-0.1334505,0.427132,-0.2365689
1.120181,-0.2877602,0.4341255,0.09347116,0.3764589,-0.003844719
1.047712,-0.1426724,0.3413831,-0.02805149,0.3012752,0.1032779
0.9603163,-0.03610854,0.2713353,-0.1705056,0.3160104,0.09536131
0.9642987,-0.05505939,0.2588924,-0.3037143,0.3749142,0.1643077
0.9505649,-0.0741268,0.2268233,-0.5639618,0.5188009,0.2367853
0.9152413,-0.1074342,0.2401549,-0.5641888,0.6069304,0.2225903
0.8740309,-0.1342844,0.2726422,-0.453555,0.5499258,0.2225275
0.8123826,-0.1283416,0.2832666,-0.5110975,0.4898701,0.2376781
0.7709197,-0.1446078,0.3213203,-0.3675347,0.3284202,0.241522
0.7470682,-0.1470805,0.346843,-0.207787,0.152799,0.2340002
0.7550758,-0.1423683,0.3557352,-0.1935416,0.1086798,0.1914287
0.7795275,-0.136512,0.3557279,-0.07261992,0.01723567,0.1339393
0.7674435,-0.1117493,0.3544232,0.01965224,-0.08393586,0.08134779
0.7568686,-0.08007542,0.3905243,0.1077842,-0.1417462,0.06296697
0.7744171,-0.04324313,0.4178243,0.1704069,-0.1888629,0.07054542
0.8216779,-0.0394385,0.4287323,0.1084718,-0.1305558,0.05160147
0.9014461,-0.04899963,0.4393151,0.08584326,-0.09093986,0.009948221
0.9507425,-0.03110752,0.4398746,0.02243536,-0.2076935,-0.03576483
1.012538,-0.01825849,0.4392265,-0.1217576,-0.2960116,-0.06389789
1.110574,-0.009335736,0.432318,-0.239319,-0.1971783,-0.1111045
1.091927,0.03015953,0.4493628,-0.3127132,-0.07268153,-0.2386482
1.028369,0.09346614,0.4859318,-0.4152511,-0.02633706,-0.3453375
1.044795,0.1038338,0.512993,-0.6138613,0.1113897,-0.3392388
1.073657,0.01790499,0.5183649,-0.6691325,0.3296885,-0.2572346
1.128616,-0.1207628,0.4799027,-0.468822,0.3614523,-0.1048445
1.163103,-0.2939009,0.4139543,-0.1841131,0.08419514,0.07569704
1.189025,-0.4458659,0.3346177,0.1416976,-0.1238244,0.1637927
1.228852,-0.4858333,0.3056901,0.5034532,0.1486361,0.1236163
1.049572,-0.4439046,0.3139168,0.7654499,0.4209134,0.0232752
0.7783905,-0.3692311,0.2547914,0.7422995,0.2329681,-0.1030811
0.7556966,-0.2280521,0.2096477,0.5037523,-0.03312112,-0.1921128
0.9061214,-0.07888608,0.1988538,0.2332326,-0.3124599,-0.1170454
1.045842,-0.06363133,0.15589,0.03735962,-0.5320951,0.001942977
1.079147,-0.1316159,0.1599824,0.05840981,-0.2935692,0.02638732
1.008463,-0.1732108,0.2223292,0.1893103,-0.1261766,0.05986514
0.9070986,-0.2216304,0.2782729,0.3244293,-0.2985193,0.0460736
0.8216801,-0.2493509,0.2845177,0.5749265,-0.3139102,0.0153566
0.8175681,-0.230308,0.256742,0.8810988,-0.4009786,0.1195762
0.8616703,-0.1996614,0.2428251,1.121373,-0.5937649,0.1967985
0.8854987,-0.1338728,0.2103646,1.177613,-0.5672523,0.2186103
0.9310354,-0.0734192,0.1961984,1.165534,-0.528317,0.3143829
0.9824258,-0.04109892,0.2204771,1.262636,-0.4865722,0.3965504
0.9878195,0.007062018,0.2157688,1.203621,-0.3789335,0.3700751
0.9866436,0.0490648,0.2234894,1.032972,-0.3388145,0.3055237
0.9840967,0.0836473,0.2362459,0.8836994,-0.3023394,0.2848531
0.9634878,0.110092,0.2238781,0.5978228,-0.2084744,0.2621315
0.9433951,0.1098413,0.2401005,0.4340914,-0.1436424,0.3213704
0.9157647,0.1170656,0.2510321,0.3608974,-0.1360191,0.4800468
0.9226437,0.1140166,0.2434555,0.2427193,-0.1105448,0.5688014
0.9673007,0.06183879,0.2479447,0.3380044,-0.1166897,0.6095458
0.9896649,0.01536335,0.2483943,0.3982621,-0.1435124,0.5472565
1.029168,-0.002731992,0.2558973,0.3311315,-0.09907339,0.3625386
1.083231,-0.04641515,0.2698766,0.3626405,-0.07824742,0.1503983
1.094082,-0.08022237,0.2946317,0.3767724,-0.07975485,-0.07559836
1.078088,-0.03949337,0.3358677,0.4626601,-0.08294361,-0.1053676
1.061591,0.00827306,0.3559956,0.6630179,-0.1460168,0.008813992
1.060407,0.009830629,0.3603128,0.7388813,-0.1783116,0.03529483
1.113999,-0.002675158,0.3706576,0.656454,-0.121469,0.03419934
1.216845,-0.02670247,0.3593053,0.4760839,-0.06511425,-0.06718239
1.243791,-0.03580191,0.2812288,0.1263607,-0.06301351,-0.231813
1.179254,-0.02163877,0.1325219,-0.3523255,0.05639283,-0.2706595
1.128584,-0.04235447,0.0183159,-0.6653604,0.3382718,-0.3009236
1.072775,-0.1176745,0.04453175,-0.7362041,0.4729175,-0.4138976
1.042712,-0.2243307,0.1519259,-0.5998108,0.4164054,-0.449648
1.085716,-0.2746094,0.2984542,-0.2654826,0.4178251,-0.296961
1.09629,-0.2488466,0.4283472,-0.05047793,0.4416172,-0.08225671
1.019654,-0.192776,0.3419107,-0.04378789,0.3426764,0.04194915
0.9323558,-0.079432,0.2065642,-0.138755,0.2698268,0.06034364
0.9230821,-0.03097031,0.2474495,-0.3308219,0.3368229,0.0607947
0.933626,-0.08936389,0.23652,-0.4993315,0.4281844,0.1243657
0.8859331,-0.1143876,0.2064488,-0.6412998,0.5185784,0.1459766
0.8444061,-0.1510664,0.2607031,-0.653639,0.5494899,0.105402
0.811205,-0.1653814,0.2660967,-0.5369345,0.4283412,0.1065249
0.7716685,-0.1290277,0.3051747,-0.4924432,0.2401642,0.09817595
0.7753406,-0.1543611,0.3325994,-0.4139733,0.1041618,0.07525713
0.7855302,-0.1532018,0.30439,-0.3451555,0.08351236,0.0653079
0.7795559,-0.1236628,0.3398913,-0.2639805,0.03938784,0.05053778
0.78459,-0.1180327,0.3712059,-0.08223844,-0.1036682,0.0522843
0.7795205,-0.06726972,0.4009021,-0.0468866,-0.1546625,0.05121534
0.7727827,-0.01971481,0.4261104,-0.0489489,-0.1555322,0.0501066
0.7998925,0.03002287,0.4163022,-0.02604549,-0.163426,0.03987791
0.8553426,0.05629803,0.4295224,-0.1561302,-0.07404122,-0.0187884
0.9295486,0.008715318,0.4267081,-0.3181335,-0.0303862,-0.09696883
1.001153,0.002746568,0.4296221,-0.4642887,-0.1141398,-0.1513068
1.048505,0.01780639,0.4356522,-0.5679996,-0.1637373,-0.1935489
1.08429,0.01419683,0.42288,-0.5988596,-0.04252165,-0.2949926
1.086365,0.03137183,0.4625122,-0.6338736,0.1932168,-0.4011598
1.080887,0.02144666,0.5102816,-0.656458,0.3698219,-0.3929651
1.160901,-0.01902801,0.5187343,-0.6226995,0.4313619,-0.2831049
1.239152,-0.1179606,0.4669422,-0.4790189,0.2901155,-0.06807632
1.221012,-0.2854647,0.3816614,-0.2225326,0.1402742,0.1717438
1.187185,-0.4296257,0.3647916,0.1495042,0.3308714,0.228166
1.093062,-0.499244,0.3635181,0.4981163,0.5008377,0.05439308
0.9005977,-0.4653669,0.3117261,0.5642484,0.3501289,-0.1735234
0.7933831,-0.3470084,0.2377086,0.4308577,0.02102595,-0.2428953
0.8531742,-0.1870986,0.1542425,0.21837,-0.4251141,-0.1690517
0.9765942,-0.06914677,0.08727527,-0.005301156,-0.5361032,-0.03692409
1.063858,-0.1026656,0.07133071,-0.04515701,-0.1971184,0.1339151
1.047157,-0.1858338,0.1337998,0.0692697,-0.07124316,0.1539825
0.9411518,-0.2255081,0.2316702,0.1961089,-0.2198787,-0.008805026
0.8542473,-0.2521571,0.2742997,0.3701827,-0.3383753,-0.1260221
0.8377564,-0.2239679,0.2516552,0.6403904,-0.4648693,-0.1456241
0.8719712,-0.1800879,0.222493,0.8205399,-0.5313743,-0.0702995
0.9149837,-0.1316289,0.2167717,0.8383868,-0.5246654,0.09370438
0.9200395,-0.07178373,0.2133294,0.8645946,-0.5208502,0.2151754
0.9221308,-0.06992657,0.2083277,0.8551539,-0.4635082,0.2506637
0.9349607,-0.03652724,0.2004213,0.8008494,-0.3710517,0.2555729
0.9427484,0.003826713,0.1960057,0.7341225,-0.2797595,0.2372359
0.9707718,0.009312197,0.2046157,0.557462,-0.1955598,0.1725362
0.9775066,0.08020193,0.1969728,0.3594375,-0.1287888,0.1481281
0.9572544,0.09673296,0.198125,0.2074815,-0.1051957,0.2357514
0.9477063,0.07204586,0.2170937,0.1216782,-0.1474152,0.3653897
0.9515502,0.08575935,0.2196628,0.1433997,-0.1686997,0.5106143
0.9874789,0.03689916,0.2257483,0.1939371,-0.1304591,0.555489
1.032431,-0.00963008,0.2446398,0.3068395,-0.0700978,0.4457167
1.055231,-0.04373574,0.2910834,0.4949666,-0.02178157,0.3006087
1.051703,-0.06388621,0.326816,0.5755241,-0.03847812,0.06496554
1.047699,0.007905985,0.3060858,0.4863336,-0.08760807,-0.1452397
1.060616,0.09211331,0.3047877,0.3768175,-0.1310253,-0.1553911
1.075318,0.1343844,0.3226511,0.321499,-0.1655155,-0.1010631
1.136311,0.07815214,0.3190814,0.2419216,-0.1365333,-0.07316806
1.214145,-0.02862575,0.3186014,0.1421271,-0.09438149,-0.1560296
1.220234,-0.04078879,0.2911754,-0.01524532,-0.1091338,-0.3028031
1.186002,-0.01352634,0.2117065,-0.3287619,-0.05620178,-0.3561251
1.165873,-0.01049649,0.1247792,-0.6283214,0.1224506,-0.3942997
1.140423,-0.09385183,0.1115578,-0.7679173,0.3059111,-0.4491051
1.056255,-0.2768396,0.1843976,-0.7733454,0.3876486,-0.4768725
0.9814454,-0.3995632,0.2866669,-0.5384598,0.3795,-0.4326093
1.008353,-0.393976,0.379903,-0.1819959,0.3957695,-0.2576095
1.027054,-0.2904704,0.3810434,-0.07621126,0.3800063,-0.03193372
0.9857835,-0.1497176,0.3137306,-0.1750359,0.3007012,0.1108393
0.9769846,-0.04744249,0.285848,-0.2622053,0.3064234,0.08125822
0.9685961,-0.0246803,0.2536098,-0.4512997,0.3257107,0.0375996
0.937132,-0.06880529,0.2352714,-0.7267569,0.3549702,0.08349862
0.9311254,-0.09473014,0.2684508,-0.82642,0.4590487,0.04247384
0.8904935,-0.1063738,0.2866955,-0.7679083,0.4921051,0.0142954
0.8147242,-0.12094,0.3146079,-0.7339852,0.429935,0.06182034
0.7944514,-0.1128316,0.3274273,-0.7244842,0.3211979,0.0721739
0.8138962,-0.1287133,0.3021936,-0.7019021,0.2518325,0.115811
0.8280461,-0.1485829,0.3082364,-0.6640535,0.202956,0.1176196
0.834501,-0.1453618,0.3262899,-0.5481536,0.0881164,0.07498577
0.8258733,-0.1379327,0.3577989,-0.3444285,0.03414855,0.06710918
0.7934507,-0.106754,0.3877665,-0.1852303,-0.04600583,0.02167012
0.7676834,-0.06052775,0.3769581,-0.1371166,-0.1707913,0.01413676
0.7753399,-0.02112032,0.3773277,-0.1213023,-0.156152,0.01716888
0.8086428,-0.009135607,0.3832234,-0.1163748,-0.1074651,-0.02769096
0.8616823,-0.01686509,0.3802063,-0.1503936,-0.09700348,-0.03476615
0.9042769,-0.02900786,0.3894456,-0.2300083,-0.1706009,-0.05213311
0.97666,-0.05691552,0.3947537,-0.3078805,-0.2685021,-0.06833697
1.087189,-0.06417592,0.4046012,-0.2825009,-0.195584,-0.07047869
1.101795,-0.02520857,0.43607,-0.2522545,-0.1069827,-0.1269777
1.076548,0.05074362,0.4860557,-0.3525871,-0.07425205,-0.1912965
1.11018,0.114062,0.5194139,-0.5275718,0.08282065,-0.2402783
1.113601,0.08299742,0.4973907,-0.7655137,0.341024,-0.251623
1.123683,-0.01372975,0.4598609,-0.8919352,0.4819749,-0.1609123
1.163773,-0.1192362,0.4408074,-0.698939,0.3559286,0.01225784
1.146554,-0.2433024,0.3934343,-0.4028515,0.2052556,0.1712649
1.137141,-0.3755092,0.3311664,-0.1510742,0.280758,0.1889858
1.120773,-0.4623119,0.3188125,0.1108418,0.4898539,0.02738755
0.957471,-0.433463,0.3108826,0.320625,0.6260555,-0.1907833
0.727866,-0.3195807,0.2514664,0.4075903,0.306455,-0.3229487
0.6958553,-0.2028153,0.1764056,0.3184316,-0.2417338,-0.3571037
0.9303128,-0.09553759,0.119462,0.1242709,-0.3198296,-0.3038243
1.10582,-0.05109214,0.08880583,-0.0993238,-0.2548415,-0.1696028
1.055034,-0.09469508,0.103903,-0.2197702,-0.2672928,-0.07947507
1.029763,-0.1700891,0.1681258,-0.05284051,-0.1098194,-0.0874056
1.020852,-0.2275925,0.2413056,0.1274769,-0.2097682,-0.1454165
0.89589,-0.2386505,0.2777194,0.2825486,-0.4230653,-0.1986989
0.8669157,-0.2400519,0.2562987,0.5760687,-0.4237767,-0.1580153
0.9266095,-0.2090336,0.2264333,0.6703292,-0.503284,-0.06256567
0.8935665,-0.1225983,0.2169208,0.6589067,-0.5320501,0.05669568
0.8888,-0.06982624,0.1794884,0.7108885,-0.5138303,0.2291659
0.9131544,-0.0615052,0.1681605,0.669427,-0.5299313,0.3452699
0.9171527,-0.06202281,0.195194,0.7103465,-0.4591481,0.3531045
0.9915673,-0.04274223,0.1897339,0.7313076,-0.4254564,0.2980508
1.033457,0.004884263,0.191763,0.6030108,-0.323007,0.2242501
1.026854,0.03971318,0.1965095,0.4584933,-0.1755118,0.1710469
1.024627,0.06905833,0.2005492,0.2383655,-0.1254489,0.1680158
0.9809693,0.08361125,0.2282015,0.06832357,-0.08869764,0.246776
0.9688585,0.04693486,0.2384375,0.04829695,-0.09985342,0.3407996
0.9784656,-0.001498212,0.2517527,0.1553223,-0.09410916,0.40842
0.985697,-0.01929139,0.2621711,0.3724459,-0.06109716,0.4359809
1.021178,-0.05516635,0.2591941,0.5521019,-0.02695695,0.3953687
1.033665,-0.09867317,0.2717704,0.7324898,0.03562006,0.3395059
1.03336,-0.07182035,0.2719076,0.8598174,0.01225072,0.2049962
1.034001,-0.01677137,0.2734264,0.828652,-0.04864025,0.01428864
1.037819,0.07167803,0.2824526,0.767827,-0.1047643,-0.05007293
1.04645,0.1747531,0.2749411,0.642316,-0.153699,-0.02612347
1.070178,0.1649635,0.271659,0.4390229,-0.1531836,-0.0401997
1.147267,0.106327,0.2733026,0.2271754,-0.1298932,-0.1190041
1.19297,0.05511382,0.2696532,0.0007550016,-0.05151448,-0.1858909
1.172455,0.00187243,0.2621147,-0.2404893,-0.02387807,-0.1891514
1.160375,-0.02251622,0.2416036,-0.4941339,0.001577268,-0.1869219
1.131872,-0.1321011,0.1745793,-0.5790352,0.2133881,-0.2111562
1.043711,-0.3136563,0.116875,-0.5373587,0.4238016,-0.2972685
0.9468867,-0.3887601,0.208029,-0.5321179,0.465193,-0.4117176
0.9174202,-0.3532847,0.3307952,-0.3210954,0.3834671,-0.4207834
0.94639,-0.2643833,0.3243645,-0.02039966,0.3139076,-0.2763125
0.9690642,-0.1339099,0.3432019,0.01278403,0.2954206,-0.08347834
0.9562813,-0.06516954,0.3754758,-0.0876438,0.2098516,0.01233084
0.9530079,-0.08381356,0.2966823,-0.2027266,0.1587731,0.01304167
0.9804202,-0.04593792,0.2496669,-0.4258992,0.2131952,0.01903755
0.9827542,-0.03070501,0.2371317,-0.7181927,0.3138491,0.05833719
0.9647045,-0.1094276,0.2375094,-0.8605541,0.4496461,0.06188864
0.9163408,-0.1392261,0.293726,-0.8119021,0.4792216,0.049109
0.8378852,-0.1740364,0.2907677,-0.7391839,0.3681835,0.08777411
0.8105848,-0.1981825,0.3107529,-0.6250914,0.2304037,0.113678
0.8170803,-0.1639796,0.3596083,-0.4801251,0.1159954,0.131415
0.8251769,-0.1693585,0.3371161,-0.3901739,0.04241283,0.1464113
0.832808,-0.1383713,0.3627856,-0.3104121,-0.03403946,0.1249632
0.8168927,-0.09150029,0.3751959,-0.2348266,-0.130913,0.1120908
0.7952298,-0.0726687,0.3571604,-0.1784725,-0.1874901,0.07380934
0.7801987,-0.02528734,0.3804239,-0.1258866,-0.1944893,0.04157724
0.7856406,-0.01260196,0.3658311,-0.08758717,-0.1975991,0.03515718
0.8191567,-0.009800823,0.3649757,-0.08927251,-0.198159,-0.01215427
0.881835,-0.01896684,0.3714328,-0.1188389,-0.2077445,-0.02695636
0.9791436,-0.06480722,0.3590799,-0.1618615,-0.217343,-0.02015488
1.078466,-0.0853938,0.3758238,-0.2149498,-0.14268,-0.05819592
1.12534,-0.09536725,0.3857996,-0.2226518,-0.02060608,-0.1377647
1.0966,-0.07225882,0.4197018,-0.2402058,0.03118146,-0.2778087
1.080475,-0.02973846,0.4598233,-0.3567656,0.03492171,-0.3714159
1.116796,0.01490889,0.4911217,-0.5010573,0.1942332,-0.3383232
1.152719,0.07252797,0.5431264,-0.569411,0.5321491,-0.229476
1.196638,0.006741172,0.5202852,-0.5183218,0.6301841,-0.01539856
1.182204,-0.1639357,0.4491742,-0.3766079,0.344176,0.2402387
1.131957,-0.3169958,0.4090344,-0.1309963,0.1560829,0.3010071
1.134352,-0.4691349,0.3613917,0.2230452,0.3103246,0.1666911
1.005912,-0.5190328,0.3341629,0.5452555,0.3839554,0.01366352
0.7820974,-0.4263167,0.3047551,0.6851859,0.09200728,-0.1262879
0.7574392,-0.3328608,0.2092636,0.5843386,-0.2450709,-0.141374
0.8732081,-0.2071792,0.1255284,0.3716488,-0.3611836,0.02459087
0.9702658,-0.07540701,0.09390672,0.1515214,-0.2825283,0.1991096
1.024883,-0.1056358,0.1117614,0.007276258,-0.1350961,0.2961066
0.9918149,-0.1828582,0.190666,0.1198419,-0.1013416,0.2210454
0.9170101,-0.1971848,0.2715427,0.2658345,-0.2562132,0.02795187
0.8834901,-0.2240388,0.3121027,0.3666467,-0.504335,-0.0729881
0.8791917,-0.2009364,0.2800367,0.6209535,-0.5599212,-0.09603246
0.8925359,-0.1431635,0.2380613,0.7259497,-0.4873223,-0.01933232
0.9020535,-0.1210988,0.2507264,0.7022715,-0.5573902,0.09966916
0.8946222,-0.05812412,0.2280476,0.7406501,-0.546179,0.152333
0.9098825,-0.009596913,0.2177745,0.6626273,-0.4897814,0.216817
0.9302785,-0.01310843,0.2423583,0.5736439,-0.5005939,0.2307269
0.951695,0.01412024,0.2324107,0.4676415,-0.3867377,0.2232896
0.9764172,0.04684796,0.2408479,0.3222693,-0.3087228,0.236729
0.964338,0.07579116,0.2357033,0.2016292,-0.2649048,0.2223246
0.9544848,0.09013811,0.2238092,0.006778323,-0.207375,0.2997892
0.9493627,0.07316269,0.2399396,-0.04917645,-0.2441739,0.4099871
0.9465114,0.05345965,0.2337795,0.02164135,-0.2320868,0.4892417
0.9808298,0.003118953,0.2349079,0.03227032,-0.2185627,0.5460404
1.022233,-0.04817099,0.2345907,0.1029133,-0.218037,0.519339
1.077904,-0.06755817,0.2363113,0.1841202,-0.1437636,0.453963
1.106094,-0.08362568,0.2660485,0.2519121,-0.06312049,0.3100803
1.087639,-0.07811762,0.2909562,0.3428973,0.01054614,0.1438282
1.094911,-0.03166633,0.3168734,0.3767054,-0.01608302,0.05900286
1.093409,0.04228712,0.325802,0.3971836,-0.08233749,-0.01545433
1.082497,0.07720514,0.3124516,0.4189769,-0.08074153,-0.05914222
1.100403,0.04753336,0.293771,0.2874129,-0.1089448,-0.08057814
1.146246,-0.01096826,0.2525604,-0.04484914,-0.107076,-0.1883071
1.205374,-0.07785045,0.1815113,-0.4032345,-0.07362141,-0.3917004
1.190138,-0.08943783,0.1104374,-0.7306976,-0.03391378,-0.5326704
1.136979,-0.1259782,0.05727218,-1.005564,0.1825364,-0.5391081
1.100942,-0.308977,-0.01947121,-1.02347,0.4684854,-0.5390502
1.043112,-0.4381607,0.001162627,-0.6834743,0.545049,-0.5135985
1.050509,-0.4151182,0.2046287,-0.1270511,0.4971491,-0.3908661
1.080644,-0.4240659,0.3784411,0.2611834,0.4995037,-0.2146518
1.029203,-0.3807676,0.3964857,0.2451531,0.3890117,-0.09863736
0.9761981,-0.1544204,0.2805725,0.003224064,0.1949742,-0.1146451
0.9198829,0.01448796,0.1770313,-0.3158131,0.2379334,-0.1018197
0.9137356,-0.006227955,0.201745,-0.6254485,0.3454229,-0.0137099
0.9684528,-0.06498208,0.2220211,-0.8002289,0.3807499,0.0495891
0.9409175,-0.1052031,0.2311798,-0.845797,0.5555067,0.09340021
0.9220508,-0.1610322,0.252793,-0.8270099,0.6417126,0.08193645
0.8990141,-0.222103,0.2490203,-0.7921514,0.5266269,0.07454467
0.8031889,-0.2568979,0.2704355,-0.732062,0.4597162,0.1071627
0.787036,-0.2645741,0.2784382,-0.6009362,0.4027438,0.1036441
0.79374,-0.2675755,0.3113257,-0.4035572,0.2514862,0.1182563
0.7795938,-0.2371554,0.3734513,-0.1861267,-0.002609105,0.120486
0.7877646,-0.1602091,0.3710722,-0.04975851,-0.2406156,0.07113032
0.7765696,-0.08764773,0.3615644,-0.04097856,-0.3090259,0.02268862
0.7909622,-0.05201572,0.3528161,-0.06783197,-0.2914104,-0.02980248
0.8105651,-0.03849264,0.3377071,-0.0723943,-0.2457834,-0.03472848
0.8616038,-0.02996592,0.3537548,-0.08419329,-0.1775911,-0.02550885
0.9520403,-0.04260343,0.3668294,-0.1235996,-0.1676101,-0.06620433
0.9868333,-0.06988205,0.3612278,-0.1898522,-0.1709339,-0.1301922
1.038474,-0.08092165,0.359305,-0.2602148,-0.08390422,-0.2412155
1.074982,-0.0453646,0.389831,-0.2766681,0.004747018,-0.3417728
1.023309,0.03297806,0.4386176,-0.2892945,-0.01091832,-0.3781759
1.015159,0.05936663,0.4742234,-0.4193281,0.06306859,-0.3897867
1.109228,0.005364426,0.4741751,-0.5234163,0.3402584,-0.3635647
1.249295,-0.08257305,0.4381685,-0.4306256,0.4790978,-0.2359923
1.324547,-0.2216596,0.3935353,-0.2631059,0.2574217,-0.001110408
1.282848,-0.3807926,0.3456094,-0.06354615,0.1195362,0.133942
1.208513,-0.4839351,0.3399417,0.2443713,0.458549,0.06225354
1.034502,-0.5023483,0.3317611,0.5261415,0.717495,-0.07462533
0.7445241,-0.4303177,0.2502936,0.5797076,0.3577252,-0.2620063
0.6892111,-0.2882592,0.1843277,0.4138614,-0.1630802,-0.3700954
0.9068642,-0.1411049,0.124638,0.1792453,-0.4207533,-0.1883326
1.055973,-0.1037137,0.07198117,-0.003984754,-0.4203195,0.07539185
1.091661,-0.1979321,0.108648,-0.03893981,-0.1255516,0.2221497
1.008623,-0.2870352,0.1858866,0.1175894,0.114617,0.2469483
0.8610643,-0.3018209,0.2763275,0.3720107,-0.05083986,0.08934186
0.8522102,-0.2848316,0.3084446,0.6539449,-0.3263231,-0.07762348
0.887308,-0.2390387,0.2418484,0.9314619,-0.4892401,-0.0825716
0.9082584,-0.1634242,0.2104042,1.043433,-0.5666187,0.003177584
0.9457449,-0.1085764,0.2067646,1.004007,-0.5356944,0.1468941
0.9322084,-0.07954087,0.1840717,0.9557995,-0.4919836,0.267374
0.9363934,-0.03248416,0.1791739,0.8244406,-0.4231774,0.3125386
0.9527108,-0.0160765,0.1797357,0.696406,-0.3128067,0.3256561
0.9535762,-0.04665352,0.2016558,0.6649697,-0.290631,0.2971381
0.9791286,-0.02406514,0.2222527,0.593825,-0.2639408,0.2535716
0.9811419,0.006167475,0.225636,0.5181915,-0.1959881,0.2455299
0.971036,0.01193097,0.2490139,0.4181046,-0.1402407,0.2808155
0.967198,0.05675963,0.2590044,0.2761718,-0.04207578,0.3257102
0.9598932,0.05374416,0.2605178,0.2388527,0.01316446,0.3725601
0.9635337,0.02102644,0.2725131,0.2577399,0.04658543,0.4021021
0.9686761,0.0190762,0.2712724,0.2783619,0.07610558,0.3755713
0.9781948,-0.01116907,0.2673651,0.3034699,0.02408483,0.3284694
0.9956836,-0.04224757,0.2682258,0.3201494,0.01447504,0.2215444
1.021391,-0.1001038,0.2981554,0.4300067,0.02111196,0.05628513
1.030255,-0.1447821,0.353221,0.6533619,-0.03153581,-0.06793249
1.012094,-0.06261279,0.3796675,0.8220447,-0.09439709,-0.1237561
1.010625,0.04187891,0.3771051,0.7957493,-0.1870927,-0.08429593
1.047222,0.0678397,0.36006,0.6733571,-0.2677862,-0.06461919
1.128789,0.02774931,0.3388825,0.512883,-0.3088199,-0.1915045
1.203629,-0.01054044,0.323249,0.2009923,-0.3070771,-0.3492506
1.199179,-0.002466114,0.2634355,-0.2056267,-0.266825,-0.4130148
1.167586,-0.02226502,0.1379974,-0.4901887,-0.1587942,-0.360383
1.157359,-0.08572661,0.03087317,-0.5123042,0.1062914,-0.305024
1.118033,-0.1838119,0.01652339,-0.5011695,0.3813848,-0.3341886
1.064008,-0.2997454,0.12144,-0.5663895,0.4622302,-0.3819805
1.05062,-0.3241502,0.3047288,-0.3570162,0.4180702,-0.4117952
1.039423,-0.2679127,0.3934976,-0.08954998,0.4165428,-0.2973674
1.000426,-0.1884549,0.3338218,-0.1456215,0.3887495,-0.07339512
0.9573228,-0.07781709,0.2811292,-0.2672794,0.259967,-0.004685989
0.9317044,-0.0394966,0.2609836,-0.3692773,0.2156481,0.0153745
0.9543623,-0.09858055,0.2227988,-0.549179,0.2650145,0.09582014
0.9809389,-0.1376818,0.2283091,-0.7294957,0.3617077,0.1053514
0.9316587,-0.1654588,0.2649691,-0.7766603,0.4980461,0.08763909
0.8558018,-0.1909939,0.286739,-0.6615541,0.5097575,0.07653488
0.8093879,-0.1800133,0.3099942,-0.5899264,0.4208352,0.09867793
0.772574,-0.1845507,0.308395,-0.5481396,0.3004738,0.1499431
0.7678343,-0.1906034,0.3114132,-0.4459323,0.1822837,0.1383475
0.7861797,-0.1649684,0.3426302,-0.3582841,0.103442,0.1193495
0.790442,-0.1302911,0.3512554,-0.2325951,-0.02703635,0.09162759
0.7985795,-0.07029928,0.3583617,-0.1592013,-0.1639045,0.04856643
0.7977018,-0.01569507,0.3598386,-0.1833485,-0.2278425,0.04990598
0.7990244,0.005718815,0.3626021,-0.1690413,-0.2267455,0.03576602
0.833658,0.02040835,0.3985342,-0.1519221,-0.1782786,0.00733224
0.8721405,0.01590526,0.410624,-0.1411113,-0.1112418,-0.02907319
0.9290299,-0.004173076,0.4003924,-0.1710714,-0.07068754,-0.09217124
1.02616,-0.02523058,0.3892348,-0.304417,-0.1373052,-0.1277487
1.08197,-0.0267049,0.3799419,-0.4583702,-0.1740615,-0.1621468
1.056801,0.01537907,0.4038306,-0.5728137,-0.04462033,-0.2507076
1.056995,0.05245146,0.4389061,-0.6530852,0.1137285,-0.3577836
1.101611,0.03196129,0.4559461,-0.7227264,0.2351957,-0.3818613
1.161839,-0.06560909,0.4418722,-0.6685618,0.3785809,-0.2919232
1.268101,-0.2103296,0.4144757,-0.4404771,0.476965,-0.1332616
1.261943,-0.2909141,0.3997247,-0.1662959,0.4028623,0.06453114
1.122528,-0.3161156,0.3933549,0.1058757,0.3468483,0.1430192
1.030879,-0.4212505,0.3920709,0.2788647,0.4627918,-0.006310593
0.9503116,-0.4974402,0.3664099,0.4216476,0.4618919,-0.1845198
0.8670558,-0.405914,0.3138826,0.5587815,0.1798982,-0.2261164
0.8113522,-0.311143,0.2282802,0.46289,-0.2316616,-0.1797862
0.8934319,-0.2116743,0.1090718,0.2856117,-0.4198353,-0.07173076
1.114494,-0.08484012,0.04506238,0.09132806,-0.2674642,0.08587017
1.108049,-0.1341545,0.07973248,-0.09357385,-0.1348962,0.1483794
0.9772147,-0.2136503,0.1701329,-0.02295428,-0.07689088,0.03712288
0.9342937,-0.2079461,0.2453784,0.05311705,-0.1067386,-0.09318228
0.8454261,-0.251465,0.2737523,0.1673601,-0.3364868,-0.1338826
0.8623035,-0.2300936,0.2605891,0.5112287,-0.4654669,-0.1118919
0.9154647,-0.1624128,0.2302975,0.7165163,-0.5029153,-0.02131306
0.8998575,-0.1270897,0.2287352,0.8027703,-0.5541427,0.08902425
0.9392997,-0.05215244,0.2059203,0.8407646,-0.4922407,0.159324
0.9230051,-0.02315309,0.190035,0.7283139,-0.4558559,0.2123026
0.9350107,-0.01324584,0.2250616,0.6562264,-0.4051747,0.2394367
0.9877214,0.02522797,0.2201047,0.5839632,-0.304515,0.2281589
0.9695374,0.04608772,0.2221464,0.4558813,-0.2538538,0.1976179
0.9783296,0.09853449,0.2327529,0.3138667,-0.1656232,0.182024
0.9602376,0.1138167,0.2185469,0.105238,-0.09625054,0.2030845
0.9391802,0.08637665,0.2375701,-0.05438506,-0.05288245,0.257966
0.9560944,0.0707926,0.2344464,-0.1193913,-0.02148008,0.3389295
0.9595955,0.01400196,0.2329223,-0.09875261,-0.0402705,0.392165
0.9952607,-0.02312814,0.252498,0.01668475,-0.0214286,0.3895493
1.018789,-0.04298462,0.2532528,0.135048,-0.004203997,0.3261542
1.036795,-0.08580524,0.27282,0.2288377,0.02123296,0.1847595
1.053142,-0.07994914,0.281592,0.292384,0.04865474,0.002682551
1.039888,-0.03046561,0.2968141,0.3770499,-0.01384999,-0.1418611
1.051957,0.0224547,0.3207921,0.4853598,-0.09097448,-0.1537329
1.067737,0.04332395,0.3057086,0.5107798,-0.1570723,-0.08119197
1.119722,0.02757763,0.3019206,0.4883716,-0.1993815,-0.075851
1.199279,0.01313275,0.2993577,0.3818804,-0.18792,-0.1534796
1.205049,-0.001022858,0.2763984,0.07807277,-0.1786209,-0.2683468
1.182743,-0.001530019,0.2450953,-0.3207142,-0.147515,-0.3340518
1.17271,-0.005535026,0.1600599,-0.5722978,0.02383783,-0.3099568
1.142972,-0.08611075,0.04508897,-0.6356187,0.327652,-0.3262372
1.090502,-0.2377564,0.03656511,-0.6710007,0.506806,-0.4138318
1.023762,-0.3666256,0.1884463,-0.5281513,0.4840766,-0.463473
0.9935273,-0.3890316,0.358805,-0.1685907,0.4637969,-0.4071995
1.046475,-0.3227649,0.4300494,0.05292324,0.4535539,-0.2431259
1.080674,-0.2446156,0.4063335,0.08135544,0.372475,-0.09853349
1.010576,-0.1211014,0.3076676,-0.04852569,0.2805899,-0.08205242
0.9568517,0.02654549,0.2160222,-0.3037328,0.2557466,-0.1122364
0.9657376,0.0006681256,0.2252621,-0.5463621,0.3217414,-0.09306196
0.9487596,-0.1012644,0.2880683,-0.7901752,0.4309841,-0.0691343
0.899061,-0.08804351,0.297586,-0.894289,0.5267359,-0.07296501
0.842384,-0.1404638,0.2862722,-0.8305426,0.5565869,-0.02777349
0.7905428,-0.2203315,0.2919552,-0.7841407,0.4715213,0.04192038
0.7655002,-0.1939378,0.27946,-0.6935076,0.3354572,0.07794333
0.7768343,-0.2149094,0.2924695,-0.5657409,0.2188463,0.1135655
0.788581,-0.2305319,0.3283345,-0.4094025,0.08950151,0.1438572
0.7833526,-0.2248241,0.358323,-0.1253625,-0.0430177,0.1876762
0.7877942,-0.232727,0.3726048,0.1015692,-0.1613135,0.2215671
0.7901394,-0.1362709,0.357763,0.1196217,-0.2638684,0.2153111
0.8006639,-0.05550034,0.3753761,0.085772,-0.2863132,0.2227152
0.8266143,-0.04397236,0.3784399,0.07607552,-0.2489636,0.2033039
0.8611334,-0.01278793,0.3503559,-0.02339986,-0.2313212,0.1601985
0.9515755,0.02822827,0.3540309,-0.2216746,-0.2216007,0.114638
1.037713,0.02732961,0.3423423,-0.4000889,-0.1749376,0.0227305
1.053926,-0.04435294,0.3533272,-0.4571882,-0.05930275,-0.06834346
1.074286,-0.05652623,0.3881096,-0.4158416,0.08509143,-0.1867707
1.047235,-0.009107742,0.4280626,-0.4323589,0.1316994,-0.3354868
0.9650349,0.04671966,0.5171709,-0.5323356,0.09724422,-0.3987176
1.003903,0.1026529,0.5365334,-0.6782743,0.1626957,-0.3942446
1.086112,0.03754864,0.4793835,-0.7901939,0.2899117,-0.302822
1.129771,-0.07059307,0.4351728,-0.6761438,0.2960171,-0.06228807
1.211667,-0.1866467,0.3733866,-0.4705864,0.2175658,0.1590633
1.185616,-0.3290772,0.3526229,-0.2591923,0.1993828,0.1755727
1.078591,-0.4081537,0.3769189,0.106882,0.3505811,-0.003169859
0.9961266,-0.4396903,0.3546396,0.3384696,0.4772761,-0.2305352
0.8320029,-0.3678689,0.3094984,0.2856154,0.188011,-0.33183
0.7595096,-0.2511685,0.2374072,0.1766175,-0.2973711,-0.2827419
0.8865999,-0.174717,0.1284312,-0.0207897,-0.451302,-0.108728
1.031495,-0.1172157,0.06451424,-0.241216,-0.2820566,0.1451221
1.093497,-0.1763869,0.06681349,-0.2517181,-0.07362237,0.2345531
1.029174,-0.2564764,0.1370786,-0.08081142,0.01308835,0.1165597
0.9431281,-0.283079,0.2459204,0.140438,-0.08373342,-0.002133071
0.9176681,-0.2981,0.2801537,0.3688742,-0.2937158,-0.1413796
0.9147274,-0.240297,0.245612,0.5649877,-0.423974,-0.2028697
0.9479855,-0.1794596,0.2228378,0.6475763,-0.4663151,-0.06237663
0.9627536,-0.1133009,0.2034637,0.6334835,-0.5141055,0.03933769
0.9375744,-0.05887661,0.1741275,0.6123663,-0.4694012,0.1078441
0.9267522,-0.09348199,0.1754675,0.5780321,-0.3770329,0.2026702
0.9424432,-0.09930591,0.1948179,0.5363522,-0.3477746,0.1755233
0.9745755,-0.09392935,0.1896392,0.5525433,-0.3078999,0.1519498
0.9918417,-0.09766,0.2050069,0.5828986,-0.2751959,0.1548574
0.9953709,-0.04818821,0.229569,0.5698779,-0.2610049,0.1328409
0.9851772,-0.01274466,0.2343698,0.5450887,-0.2059535,0.1599945
0.9667871,0.01519632,0.2596135,0.468496,-0.1267766,0.1737598
0.9655496,0.02442158,0.2676186,0.3294213,-0.06764733,0.2295176
0.9583339,0.002257388,0.2610256,0.2313686,-0.04463382,0.3279117
0.9564708,0.002166881,0.2668116,0.2170078,-0.04334799,0.3805685
0.9781002,-0.01805906,0.2618464,0.2615164,-0.07329904,0.4276793
0.999392,-0.05794154,0.2704099,0.3415682,-0.08643827,0.4229418
1.016713,-0.08425031,0.2886477,0.4818177,-0.05745937,0.3394051
1.02597,-0.08898574,0.3190561,0.6211164,-0.04453169,0.1770228
1.029906,-0.0444772,0.3470363,0.6566359,-0.03948286,0.007721986
1.025579,0.02014863,0.3341434,0.6599891,-0.05368825,-0.05155588
1.026634,0.0474662,0.3269217,0.6140044,-0.07297751,-0.05287177
1.079948,0.005681681,0.329974,0.4794162,-0.06783658,-0.04241215
1.15038,-0.06296029,0.3218361,0.3934179,-0.07636743,-0.08525653
1.169119,-0.09190932,0.2966735,0.3710891,-0.09360709,-0.1731777
1.166409,-0.07458939,0.2084053,0.2918417,-0.08250728,-0.2097326
1.175829,-0.0534508,0.09913603,0.09114351,0.06475894,-0.2366291
1.131839,-0.08260236,0.06285997,-0.09731693,0.2945837,-0.2569936
1.044357,-0.1350742,0.101128,-0.1701593,0.3861362,-0.2723126
0.9788579,-0.2389602,0.208011,-0.165952,0.4232939,-0.2832171
0.889836,-0.3792993,0.349159,0.07432172,0.4602354,-0.2348023
0.8641284,-0.3295719,0.3659632,0.4040989,0.3683862,-0.139291
0.9528344,-0.14589,0.2874663,0.3725869,0.2825699,-0.03496512
0.9765054,-0.04841308,0.2811667,0.1315179,0.2706784,-0.003958715
0.9771197,-0.02094533,0.2685822,-0.0370039,0.2427743,0.006304748
1.014707,-0.06057697,0.2543177,-0.2050973,0.2717421,0.08354649
1.011706,-0.09658563,0.3007231,-0.3353428,0.330562,0.1199603
1.010108,-0.09858822,0.2998092,-0.3752155,0.3321005,0.1077627
0.9539425,-0.133179,0.3069583,-0.3611634,0.2953614,0.1164708
0.8562424,-0.1210074,0.3306647,-0.3293407,0.2354115,0.1384132
0.8165267,-0.1180443,0.3084741,-0.3531093,0.2142895,0.1438248
0.7960279,-0.1308031,0.3149096,-0.36342,0.1915963,0.116862
0.8121253,-0.09703216,0.3281274,-0.3472967,0.1035987,0.09562939
0.8423961,-0.1137733,0.3521478,-0.3590278,0.02797988,0.08413418
0.8593928,-0.1025427,0.384475,-0.3161831,-0.03328607,0.06834009
0.8698963,-0.06676176,0.3789217,-0.2962788,-0.06738952,0.05207185
0.8502829,-0.06600901,0.3901898,-0.3170339,-0.0399405,0.03032933
0.8618203,-0.03039406,0.4023767,-0.2905886,-0.008378379,-0.01172939
0.8798447,-0.01645514,0.4042361,-0.3048316,0.03556913,-0.0884034
0.8892247,0.003561669,0.4011629,-0.3977184,0.0607138,-0.1548923
0.9192862,0.0131845,0.373793,-0.5612482,-0.04762966,-0.1800569
0.937247,-0.03746178,0.3654445,-0.6773343,-0.1582208,-0.1735544
0.9971905,-0.06707692,0.372108,-0.6678584,-0.07080706,-0.1880066
1.037352,-0.08399878,0.3909051,-0.6569919,0.01198653,-0.2866079
0.9962421,-0.0533509,0.4299078,-0.658544,-0.06658222,-0.4118207
0.9929558,-0.00254346,0.4539613,-0.716379,-0.1155365,-0.4869888
1.039293,-0.001795496,0.4433194,-0.8185229,-0.1377708,-0.4785051
1.102623,-0.01006035,0.4011441,-0.8360747,-0.1738733,-0.3869722
1.148093,-0.05911405,0.3603255,-0.8200384,-0.163307,-0.2533765
1.126871,-0.1243549,0.340732,-0.7715576,-0.1735496,-0.1301662
1.101969,-0.1731022,0.3465572,-0.6569691,-0.09243994,-0.1056988
1.073923,-0.2280468,0.3425308,-0.5615151,0.104323,-0.1597131
0.967351,-0.2547647,0.3081536,-0.4988874,0.148273,-0.2265438
0.8522386,-0.2553788,0.2877662,-0.4055762,-0.03381087,-0.3008633
0.8425461,-0.2326655,0.2341231,-0.2766893,-0.3097209,-0.3136399
0.9130204,-0.187195,0.1382569,-0.2325935,-0.5012185,-0.262193
0.9870265,-0.1354454,0.07595558,-0.3786983,-0.5510328,-0.177432
1.049305,-0.09365326,0.02759808,-0.6371378,-0.4610579,-0.0593381
1.09246,-0.07868959,-0.002325728,-0.8416264,-0.2017004,-0.01500248
1.074431,-0.09248088,0.03031501,-0.9299128,0.0353408,-0.07270133
1.026943,-0.1360713,0.1071779,-0.93663,0.08418395,-0.1442606
1.018175,-0.1525886,0.1664984,-0.9065019,-0.05674302,-0.2201495
1.010926,-0.1480003,0.1795819,-0.8195126,-0.2896568,-0.2514223
0.9993353,-0.1575838,0.179897,-0.6146616,-0.4337351,-0.1766319
0.9946606,-0.1217257,0.1614571,-0.4488487,-0.4759376,-0.09515225
0.9564809,-0.07592213,0.1253052,-0.446242,-0.4600541,-0.04660242
0.939643,-0.06183692,0.1153657,-0.4563575,-0.4359324,0.0002596556
0.9565595,-0.03841836,0.1183077,-0.4783474,-0.3945202,0.01415507
0.9603753,-0.008221714,0.098077,-0.5699728,-0.3175951,0.03088918
0.9775371,-0.002823269,0.07517238,-0.6799039,-0.3005284,0.0458786
1.010616,-0.02001177,0.07274358,-0.7860525,-0.246644,0.06108909
1.041626,-0.00928363,0.061386,-0.821512,-0.1715885,0.1192445
1.039149,-0.002889459,0.05769342,-0.8175296,-0.1389065,0.1502385
1.021047,-0.01586024,0.08160175,-0.8386697,-0.01109334,0.15154
1.035095,-0.004816901,0.08954795,-0.8454533,0.1210033,0.1329559
1.115104,0.02249552,0.4339017,-0.6761955,-0.05672296,-0.1680369
1.137503,0.03004423,0.4914557,-0.7442104,0.0238358,-0.2572425
1.087072,-0.005120652,0.5349011,-0.6706822,0.1059583,-0.2818799
1.060912,-0.03223284,0.5750656,-0.5980022,0.2159595,-0.2714885
1.143327,-0.09955068,0.5610397,-0.4649572,0.3044648,-0.2191225
1.215289,-0.2218146,0.4760524,-0.1982096,0.1867431,-0.06228491
1.179611,-0.3239458,0.3829022,0.03808932,0.1133234,0.1309085
1.139693,-0.4207953,0.3230575,0.2072431,0.3177409,0.1703463
1.084019,-0.4612497,0.3199705,0.4550283,0.4862566,0.04188012
0.9185404,-0.409577,0.2918724,0.5910927,0.3753024,-0.09763825
0.8317034,-0.2923868,0.1951765,0.4287819,0.03809236,-0.1274798
0.9299215,-0.1383072,0.1089215,0.1895026,-0.4093286,-0.08811117
1.031135,-0.06783801,0.06056272,0.03239716,-0.6083782,-0.04622379
1.073071,-0.132652,0.08519498,0.04696447,-0.3184205,0.0002658572
1.025716,-0.2049399,0.1714495,0.182177,-0.1235902,0.00318054
0.8822382,-0.2426598,0.2487482,0.3367935,-0.2977627,-0.04610611
0.8005417,-0.282113,0.2916984,0.6700344,-0.3534055,-0.0780502
0.7888076,-0.2468808,0.2658685,1.041783,-0.3975557,-0.06167451
0.8070602,-0.1687279,0.2417891,1.240787,-0.5415003,0.01721226
0.8774732,-0.09985539,0.2353425,1.338531,-0.5251508,0.1275217
0.9274892,0.01036132,0.1851802,1.236925,-0.4850092,0.1874424
0.9549823,0.05713625,0.1827193,0.9971687,-0.4327863,0.2168233
0.9723227,0.07170376,0.1842122,0.7822266,-0.3310896,0.241439
0.9709111,0.133711,0.161836,0.5828461,-0.2810696,0.2047981
0.9613869,0.1115266,0.2053436,0.4632914,-0.2064153,0.1724744
0.9224188,0.08910357,0.225253,0.318645,-0.1500337,0.1935718
0.9031726,0.1060702,0.2320761,0.1313377,-0.1324517,0.2335656
0.9027004,0.06132023,0.2685607,0.05567512,-0.1189628,0.3685422
0.9175401,0.03618711,0.2760817,0.06614167,-0.1673366,0.5737119
0.9840255,0.005222851,0.2726034,0.2247286,-0.2317582,0.7178435
1.041457,-0.04998414,0.2589381,0.4622863,-0.2648567,0.7389526
1.072648,-0.06729816,0.2725238,0.6205728,-0.2236327,0.5894332
1.070155,-0.08057678,0.3086779,0.7583148,-0.1422939,0.3184868
1.061931,-0.04339735,0.3218743,0.8519076,-0.1439192,0.03908768
1.081246,0.08286688,0.3369834,0.8544277,-0.1953205,-0.1283557
1.068846,0.2472173,0.3224933,0.7358053,-0.2534483,-0.09613781
1.086379,0.3151233,0.2983239,0.4447268,-0.2657467,-0.003766425
1.175681,0.1863762,0.2824539,0.01067168,-0.1576927,-0.02567185
1.243998,0.01396475,0.2515663,-0.389387,-0.05498015,-0.1841771
1.203992,-0.08186954,0.2035068,-0.6357568,-0.01409196,-0.4284807
1.092431,-0.1239122,0.08097562,-0.8879501,0.1168717,-0.5400904
1.075086,-0.1665994,0.009735234,-1.039342,0.3454452,-0.4844369
1.1569,-0.2714683,0.13682,-0.9053658,0.5130509,-0.4966343
1.272074,-0.313241,0.3111533,-0.6710525,0.5670501,-0.4654506
1.322209,-0.2517055,0.3808262,-0.4163999,0.5596373,-0.2791836
1.162141,-0.185189,0.3640358,-0.285876,0.5531957,-0.1111234
0.95487,-0.045825,0.3089969,-0.4392808,0.5729149,-0.01831958
0.8678637,0.06201203,0.2364172,-0.6935772,0.564363,0.005062004
0.83666,0.01955626,0.2142299,-0.9902016,0.5592884,0.0666083
0.7991379,-0.03666122,0.238428,-1.256557,0.577493,0.1351313
0.7337592,-0.1040811,0.223138,-1.263784,0.5397207,0.08962804
0.7210008,-0.1466384,0.2275459,-1.163672,0.4572782,0.09439959
0.7529209,-0.1410519,0.2784664,-1.06445,0.3092385,0.1073358
0.7475427,-0.2221057,0.312561,-0.848723,0.177158,0.06066516
0.7621814,-0.269038,0.3187722,-0.6661546,0.1753797,0.04805609
0.7959887,-0.2203869,0.3099467,-0.5177408,0.1558557,-0.01138779
0.8085158,-0.2024317,0.3428651,-0.288975,0.08260958,-0.03708369
0.8107738,-0.1650826,0.3851956,-0.1134975,-0.002520427,0.02447483
0.8012007,-0.09174188,0.3980923,-0.0723473,-0.1221967,0.07491834
0.8047876,-0.0054939,0.4462149,-0.1074957,-0.1772849,0.1313126
0.8313818,0.05580606,0.4687947,-0.1533919,-0.1524448,0.1407425
0.9119436,0.03685861,0.4229537,-0.3409646,-0.1430785,0.07526378
1.026385,0.04158844,0.4033464,-0.6179839,-0.1650929,0.007437615
1.043157,0.02609875,0.4217728,-0.6483216,-0.1383938,-0.0201195
1.058895,-0.06948043,0.4352228,-0.5401662,0.0007997067,-0.08742634
1.144542,-0.06500232,0.4596188,-0.5231105,0.2126242,-0.2772886
1.090421,0.0105796,0.5101784,-0.5350739,0.3595893,-0.4219647
1.023298,0.03028845,0.5323206,-0.5256847,0.3392921,-0.4071021
1.109913,-0.02735432,0.4845551,-0.4838171,0.2368952,-0.249026
1.157173,-0.1997416,0.3987869,-0.3771989,0.1457253,0.02047217
1.206303,-0.392405,0.3174408,-0.1342116,0.1836761,0.1477727
1.265801,-0.5123957,0.2772933,0.209614,0.4150905,0.05281607
1.111119,-0.5152847,0.2519331,0.4097878,0.551987,-0.08555199
0.8781187,-0.3958129,0.1962146,0.3144955,0.3579154,-0.2779804
0.8336464,-0.2514302,0.1534481,0.08053091,-0.01578786,-0.3821324
0.9300841,-0.1084015,0.1270207,-0.1192314,-0.2270041,-0.199008
1.011336,-0.07553423,0.112066,-0.1673079,-0.2025355,0.008841338
1.039017,-0.1817797,0.160776,0.04392929,-0.1912118,0.07586976
0.9788142,-0.2496241,0.2344574,0.32202,-0.2559093,0.08962731
0.8517802,-0.2695562,0.2740266,0.5711308,-0.3453017,0.01322721
0.8125381,-0.2431519,0.2561137,0.8238043,-0.3974679,-0.04338851
0.8403272,-0.1801211,0.2109554,0.9163435,-0.4084867,0.01184914
0.8608179,-0.131075,0.2071937,0.9377896,-0.5058595,0.07450725
0.9104067,-0.05794118,0.196479,0.9415182,-0.6153732,0.1701121
0.9397358,-0.02127935,0.1823787,0.8915677,-0.6275538,0.2966421
0.9623048,-0.005798898,0.1947855,0.8766266,-0.5352647,0.3473524
1.004588,0.03354543,0.1809207,0.7610358,-0.370322,0.3254507
1.000031,0.0467419,0.194482,0.5862892,-0.2049228,0.3022432
0.9642203,0.07273656,0.2283086,0.41965,-0.05579929,0.2939
0.9275095,0.09215853,0.2421968,0.17137,0.01412401,0.3118408
0.9131015,0.08396038,0.2689969,0.000742317,0.02285783,0.4103021
0.9438491,0.06909469,0.2771202,-0.003502028,0.01864274,0.5440037
0.9750682,0.03119808,0.2893017,0.1598753,-0.02515413,0.6324024
0.9896251,-0.005760149,0.2999166,0.3924358,-0.04744395,0.6309552
1.006215,-0.07031551,0.29367,0.5288158,-0.02731184,0.4757414
1.007927,-0.1318716,0.3259839,0.6609798,-0.004391531,0.1770183
0.9948527,-0.1047551,0.3567896,0.8103285,-0.03243455,-0.1224345
0.9940301,-0.008789778,0.3703533,0.8421483,-0.1289609,-0.2143118
0.9968718,0.1377295,0.3653108,0.6990222,-0.2707059,-0.1536011
1.029448,0.2231132,0.3291712,0.417618,-0.3646429,-0.1675447
1.145358,0.1392068,0.2975613,0.04662976,-0.2325725,-0.2358978
1.258271,0.01887602,0.2392356,-0.3536995,-0.0918229,-0.3387938
1.252789,-0.06190403,0.1469882,-0.711898,-0.1045723,-0.4939164
1.201701,-0.1492903,0.05283018,-1.018378,0.1224454,-0.5868495
1.166468,-0.2211661,0.03625927,-1.064661,0.4554752,-0.6222449
1.118802,-0.3026588,0.1847211,-0.7670417,0.4440243,-0.6188462
1.181174,-0.3461512,0.3699998,-0.3992267,0.389532,-0.4829756
1.280105,-0.2716934,0.4224202,-0.141413,0.4840012,-0.2772103
1.157291,-0.1602151,0.34781,-0.2156159,0.4555247,-0.1900611
0.977326,-0.005389483,0.2647182,-0.5564909,0.4067114,-0.2158569
0.8759022,0.124798,0.2204527,-0.9274812,0.4106318,-0.1589311
0.7821275,0.08943726,0.1863489,-1.36572,0.3521078,-0.01134968
0.7830744,-0.002272867,0.2047101,-1.548645,0.3566699,0.04938144
0.8079325,-0.1165398,0.2263726,-1.491751,0.3927628,0.03450605
0.8043524,-0.2354779,0.233355,-1.512488,0.4041376,0.01548259
0.8241416,-0.2655715,0.2961039,-1.342509,0.403136,-0.01443742
0.8171285,-0.2913872,0.3234737,-1.072799,0.3250938,-0.001308096
0.8241244,-0.302258,0.3173848,-0.8305136,0.2819186,0.01402185
0.8178936,-0.2370759,0.3416153,-0.536374,0.2127225,-0.01438788
0.7879194,-0.1511107,0.3578381,-0.3818186,0.02381048,-0.01249618
0.7955463,-0.06547381,0.3674225,-0.2502158,-0.1685026,0.01686219
0.7832204,-0.02260301,0.3558796,-0.1881371,-0.291099,0.05254065
0.7848185,-0.01957954,0.3510165,-0.2553464,-0.2713225,0.08196695
0.8372318,-0.02230908,0.3594947,-0.2406369,-0.2435899,0.09893678
0.9044236,-0.05263527,0.3534766,-0.2536422,-0.2707569,0.1203933
0.9655528,-0.08189341,0.3766138,-0.2660449,-0.2396937,0.0942965
1.010092,-0.080022,0.4004171,-0.2482714,-0.1893594,0.02191509
1.058902,-0.04514274,0.4091806,-0.2856291,-0.09015558,-0.09950961
1.050765,0.02645401,0.420224,-0.3193807,-0.03080078,-0.2977192
1.030619,0.1065123,0.4254546,-0.4584987,-0.06143951,-0.4285491
1.106781,0.1201228,0.4357834,-0.6895699,0.05386277,-0.4238075
1.213767,0.02853248,0.4198359,-0.7944759,0.3201731,-0.3486858
1.294941,-0.08498986,0.4026445,-0.655301,0.470794,-0.1547898
1.27255,-0.2441029,0.4137164,-0.3900038,0.3528143,0.1007078
1.195896,-0.4733384,0.4130394,-0.1273511,0.2694172,0.1663529
1.172264,-0.5184021,0.411208,0.2299213,0.4759036,-0.02972386
1.01603,-0.3972077,0.392976,0.4857703,0.5366901,-0.2521178
0.7619065,-0.3513504,0.3092326,0.4147358,0.1142239,-0.3007566
0.7115386,-0.2577345,0.2077167,0.2110885,-0.4566001,-0.2123718
0.8953314,-0.1458701,0.160638,-0.01672605,-0.5950542,-0.0366452
1.123981,-0.1393534,0.1022971,-0.1445077,-0.2165716,0.1717045
1.18199,-0.1201763,0.05910853,-0.07826108,0.08117939,0.2056161
1.046288,-0.1908083,0.1847932,-0.0009189725,0.0256287,0.009399696
0.8756132,-0.2716488,0.3211085,0.1746944,-0.2061015,-0.1716644
0.8078532,-0.2264671,0.313368,0.5189922,-0.4728299,-0.1905353
0.8374714,-0.206356,0.2727852,0.7292375,-0.5401611,-0.1019312
0.863569,-0.1177493,0.2267857,0.8046901,-0.5223116,0.03100308
0.8974531,-0.03601352,0.2086421,0.8334442,-0.5922186,0.1335156
0.9169929,-0.04463965,0.2098606,0.7069505,-0.5069976,0.1685597
0.9091174,0.01229009,0.1874222,0.5348613,-0.3479131,0.151624
0.9389941,0.03643231,0.2090094,0.376779,-0.2737552,0.1147878
0.9497276,0.03766491,0.2329808,0.2352266,-0.1847572,0.07923218
0.9415457,0.04874635,0.2369028,0.1685771,-0.151293,0.04430921
0.9379851,0.06650875,0.2467742,0.06511235,-0.1375376,0.08330149
0.9183028,0.1196902,0.234712,-0.04888202,-0.07949798,0.1954034
0.9255166,0.09991614,0.2269607,-0.1159667,-0.07242302,0.3310559
0.9481234,0.07008006,0.2122246,-0.1586957,-0.06614244,0.4725676
0.984144,0.01228477,0.2086248,-0.09963598,-0.05362573,0.4935175
1.03158,-0.0902346,0.2444658,0.03161397,-0.06482074,0.3997538
1.050101,-0.1338277,0.2763638,0.2661591,-0.04971332,0.2549346
1.068785,-0.1739939,0.3067426,0.5778665,-0.05576743,0.06286239
1.09154,-0.1576259,0.326036,0.753387,-0.08347177,-0.03762723
1.076176,-0.05574557,0.3243606,0.8213317,-0.1157219,-0.0270994
1.043655,0.09877429,0.3218065,0.8311923,-0.1964553,0.009732829
1.051646,0.1958532,0.3228583,0.6821711,-0.2560648,0.02342823
1.117257,0.1010187,0.3200123,0.4011604,-0.2327057,-0.08990547
1.195101,0.02717541,0.302512,0.06038173,-0.2064826,-0.3133235
1.200451,0.03039295,0.2696402,-0.3127685,-0.209285,-0.4663085
1.154188,0.006218967,0.1669454,-0.6302637,-0.1047931,-0.4468902
1.147929,-0.02251714,0.02345155,-0.8410378,0.1453062,-0.4042511
1.135511,-0.1619382,0.01184226,-0.9054673,0.3733344,-0.4230492
1.116686,-0.3250097,0.1745314,-0.6563162,0.4795144,-0.377907
1.155858,-0.3479798,0.3655425,-0.2660997,0.4969971,-0.2622069
1.167528,-0.2949496,0.4134459,-0.1056049,0.4863989,-0.06236872
1.090451,-0.1993162,0.3407244,-0.1028124,0.4650948,0.1368623
0.9742325,-0.09325873,0.2936559,-0.1876385,0.4469342,0.1373302
0.9032759,-0.04742923,0.2492935,-0.3908426,0.4595376,0.1534371
0.8878181,-0.07196221,0.2004529,-0.5666191,0.4754481,0.2596741
0.854878,-0.09955347,0.2228266,-0.6398127,0.4838088,0.2185567
0.8125769,-0.1147303,0.2549619,-0.6074312,0.4588386,0.1966336
0.7745978,-0.1510702,0.2854498,-0.5460593,0.3754374,0.2478496
0.7559583,-0.1629409,0.3351183,-0.4855471,0.2690634,0.2144721
0.7722221,-0.1828006,0.33028,-0.4059101,0.1814501,0.202695
0.7787822,-0.2100436,0.3218867,-0.3696268,0.1411351,0.1784205
0.7924757,-0.1838954,0.3515102,-0.2562446,0.06305588,0.1113485
0.7983662,-0.1478846,0.3707051,-0.05263429,-0.03951993,0.09628044
0.7748541,-0.08573915,0.4045194,0.06797096,-0.0780098,0.06807644
0.7740468,-0.03252018,0.4279321,0.1232005,-0.1687135,0.03341688
0.7986904,-0.0008298554,0.4210808,0.1253004,-0.2372356,-0.0004879951
0.8526553,0.06966195,0.4185686,0.07449915,-0.1643636,-0.05652496
0.9351118,0.04672947,0.4048496,-0.04876816,-0.1401352,-0.07421931
1.032716,-0.03702081,0.3945048,-0.263354,-0.1784078,-0.07442654
1.095044,-0.02742233,0.4105113,-0.3550767,-0.1565706,-0.08484183
1.062543,0.001676048,0.4463826,-0.3137533,-0.08110974,-0.1495948
1.042527,0.03283842,0.4872825,-0.4084608,0.06530911,-0.3022251
1.070955,0.05076291,0.5200926,-0.6013192,0.2453119,-0.4413485
1.07772,-0.009624644,0.5339595,-0.6556683,0.3799898,-0.461455
1.129765,-0.133284,0.475321,-0.5201572,0.3644551,-0.3141289
1.215367,-0.3536829,0.3594214,-0.2951967,0.08154856,-0.02650502
1.252657,-0.53565,0.2955739,-0.03530353,-0.1376101,0.2513081
1.208879,-0.5203858,0.3008859,0.3546944,0.1248839,0.2844457
1.016652,-0.4704194,0.2745487,0.7852142,0.4038897,0.04962776
0.7873818,-0.3973177,0.1976567,0.8557258,0.2229575,-0.2041816
0.7678888,-0.1864827,0.1610518,0.4881326,-0.02075175,-0.3083333
0.9384112,-0.02522586,0.1478665,0.09417324,-0.2487932,-0.1918291
1.073768,-0.02919507,0.1299489,0.01185438,-0.4806315,0.01645482
1.090774,-0.09345833,0.1702438,0.1529779,-0.2848378,0.1287702
1.00863,-0.1755223,0.2436272,0.2731727,-0.1335548,0.1753651
0.8746796,-0.2226543,0.2848522,0.4589695,-0.3845951,0.0672267
0.8225392,-0.1945437,0.2707444,0.7510161,-0.4672926,-0.08002602
0.8389712,-0.1572549,0.2375182,0.8769495,-0.4795876,-0.02240432
0.8461569,-0.1074415,0.2294235,0.8990379,-0.5807937,0.04884185
0.8752473,-0.04178585,0.2105216,0.9620756,-0.6061268,0.1227418
0.9000529,-0.02007123,0.1966425,0.9215155,-0.6197656,0.2450504
0.9417266,0.009462118,0.1948071,0.8424364,-0.5184491,0.2491531
1.000471,0.06915585,0.1733079,0.7392624,-0.3680574,0.2292077
0.993462,0.07940367,0.1811455,0.5137209,-0.2492992,0.2204556
0.9654477,0.05948963,0.2051128,0.3327114,-0.1350953,0.1876523
0.9620536,0.06798287,0.2199794,0.2113933,-0.07361199,0.2035999
0.9586861,0.07194967,0.2385407,0.1397986,-0.01041151,0.2717691
0.960929,0.05542427,0.2330004,0.1971009,-0.05094713,0.3969304
0.98096,0.05093066,0.2331485,0.2332284,-0.1014179,0.4939437
0.995506,0.04095521,0.2416692,0.2569868,-0.0566194,0.4913883
1.007159,0.008336286,0.2391895,0.3293423,-0.03066296,0.4127565
1.041962,-0.04687963,0.2693351,0.416287,0.05507685,0.2662267
1.065817,-0.08731482,0.3058924,0.5755128,0.05788689,0.1327601
1.074916,-0.03601701,0.3170175,0.6666346,-0.01808079,0.0690164
1.078402,0.0553063,0.3306515,0.6675442,-0.02517814,0.07779226
1.056283,0.1243646,0.3403864,0.6941979,-0.1011315,0.103712
1.027959,0.1850797,0.3330841,0.5889659,-0.1155385,0.07118537
1.031517,0.1893417,0.315222,0.3220234,-0.06580343,0.0179576
1.115434,0.0960557,0.2899113,0.00131302,-0.06107583,-0.1322119
1.230174,-0.06025155,0.266466,-0.299473,0.03551544,-0.4007884
1.237418,-0.1302191,0.2189527,-0.5567927,0.1286067,-0.5467876
1.133462,-0.08360531,0.09618944,-0.8367457,0.1918218,-0.5373864
1.040774,-0.1141248,0.007026484,-0.8823959,0.2767762,-0.5032546
1.048031,-0.21218,0.1180886,-0.5221552,0.2693861,-0.3997641
1.153063,-0.2869113,0.3277465,-0.1217054,0.26461,-0.180601
1.234946,-0.3295046,0.4269758,0.05592418,0.3693529,0.02654904
1.1667,-0.2471669,0.3816909,0.02544445,0.4652671,0.0809063
1.035094,-0.1107248,0.3051774,-0.1300585,0.4763202,0.06853806
0.9524476,-0.03517717,0.2781339,-0.3454529,0.4742379,0.1094342
0.8930246,-0.001874536,0.2413827,-0.5683616,0.5155352,0.1513824
0.8729656,-0.03795913,0.2058554,-0.7401808,0.5356941,0.1553565
0.8423003,-0.08976078,0.2159144,-0.8605116,0.4780214,0.1541542
0.7670498,-0.1110009,0.2327105,-0.8385249,0.3717909,0.16141
0.7636074,-0.1583356,0.2905944,-0.7253052,0.2433101,0.1689392
0.7871994,-0.2125824,0.3307792,-0.6045069,0.1484877,0.183045
0.7728032,-0.2526255,0.3118163,-0.3770886,0.1377289,0.1816768
0.7840506,-0.2567427,0.3366549,-0.1862134,0.1071747,0.138284
0.7886595,-0.2027596,0.3648123,-0.01431167,0.03082404,0.06989185
0.7802396,-0.1283798,0.3802341,0.1758649,0.006364938,-0.01448517
0.7924847,-0.05172586,0.4048467,0.1421649,-0.007789178,-0.0681233
0.8120127,0.007517481,0.4078063,0.07150024,-0.02591783,-0.07966383
0.8656855,0.05210234,0.4193362,0.04675711,-0.02168368,-0.09273914
0.9489997,0.07256427,0.4149378,-0.1237411,-0.05056133,-0.08629252
1.03345,0.03117212,0.4087389,-0.340146,-0.07907106,-0.04892025
1.112034,-0.01304317,0.4250988,-0.4878293,-0.06030226,-0.01704084
1.124003,-0.009261276,0.4394508,-0.4971545,-0.01690954,-0.07894088
1.040785,0.04143057,0.4942896,-0.5214888,0.05831321,-0.2476448
0.976558,0.09030611,0.5511226,-0.6876428,0.1633998,-0.4038908
1.019128,0.03195212,0.5381895,-0.740599,0.2775074,-0.4529512
1.094144,-0.1116213,0.4792157,-0.5857697,0.3195971,-0.2996915
1.139848,-0.2490417,0.4147729,-0.3155769,0.2017283,-0.01742145
1.166191,-0.3651825,0.3538176,0.0121416,0.09956672,0.2040398
1.169767,-0.4795025,0.3063688,0.3897756,0.2006663,0.2951666
1.118566,-0.5389119,0.2854,0.7152436,0.3774857,0.1467719
0.9684912,-0.4411313,0.24947,0.7586972,0.443969,-0.1114282
0.8461398,-0.2676297,0.2019047,0.5403119,0.2227666,-0.1947331
0.9006682,-0.116268,0.1723976,0.2172021,-0.1803751,-0.1552531
0.995195,-0.008997884,0.1397344,0.02126334,-0.3247937,-0.05057137
1.024784,-0.04552835,0.1345931,0.02505324,-0.2954168,0.08968253
1.012829,-0.1225777,0.1873962,0.02296516,-0.3703162,0.1235783
0.9299605,-0.1601594,0.2517477,0.1267123,-0.4074627,0.05072365
0.8472717,-0.2255221,0.2660623,0.3715546,-0.4287138,-0.02222724
0.8234179,-0.1974068,0.2463635,0.5836379,-0.4590313,-0.0126471
0.8330207,-0.1448028,0.2434994,0.7724738,-0.4491388,0.04004924
0.8716394,-0.1381133,0.2333026,0.8873259,-0.5137869,0.08939478
0.9113951,-0.0543138,0.2055273,0.9343794,-0.5197973,0.1288182
0.9543329,0.0006022132,0.1863796,0.8937557,-0.4185286,0.1347285
0.9686361,0.04156801,0.1776522,0.766074,-0.3280449,0.1617759
0.9491853,0.1165863,0.1902507,0.6283858,-0.2062426,0.1637936
0.9486022,0.1244044,0.2147944,0.3968321,-0.1234111,0.1304883
0.9276608,0.1223845,0.2293924,0.1832156,-0.07680499,0.1553773
0.9198324,0.09911514,0.2467822,0.0899523,-0.04443471,0.2088957
0.9476946,0.04195345,0.2568178,0.0627161,-0.07209107,0.3321774
0.9652511,-0.005101337,0.2562442,0.1616347,-0.05161843,0.4764587
1.008823,-0.06085174,0.2799593,0.3334,-0.04259535,0.4910634
1.041414,-0.08098764,0.3031883,0.5000522,-0.06556608,0.3828823
1.042635,-0.07486716,0.3167739,0.6562995,-0.03803362,0.1907102
1.052548,-0.02792802,0.3446992,0.7955867,-0.06844759,0.04077746
1.057495,0.08999759,0.3471506,0.8684566,-0.1501701,-0.004121705
1.075894,0.1809838,0.3308545,0.8146643,-0.2602372,-0.007718248
1.118779,0.1923604,0.3171855,0.6548286,-0.3571255,0.005623662
1.171566,0.1516843,0.2968208,0.334888,-0.332982,-0.06143551
1.213802,0.08590504,0.298835,-0.05696793,-0.2685859,-0.2328085
1.243664,0.0166426,0.2956676,-0.3350915,-0.1802543,-0.3697096
1.237985,0.008253467,0.2455837,-0.5440901,-0.0381156,-0.3440051
1.149238,-0.0197678,0.1393779,-0.7239063,0.1810748,-0.2864981
1.075772,-0.1865383,0.02485415,-0.8118664,0.3967644,-0.3734166
1.078118,-0.2650179,0.08146006,-0.6800109,0.3626157,-0.4181441
1.098262,-0.2154281,0.3037381,-0.4158897,0.2929091,-0.3716368
1.140344,-0.2447079,0.4528808,-0.2667302,0.3583186,-0.2345251
1.161832,-0.2379123,0.4359427,-0.218784,0.3339693,0.03716584
1.082761,-0.1310039,0.3281192,-0.3194531,0.3522893,0.1054967
0.957073,-0.03179463,0.2502701,-0.5361334,0.4292602,0.09276121
0.9140116,-0.0006245778,0.2082886,-0.7077245,0.4350359,0.2227987
0.8895175,-0.04785966,0.1761885,-0.8621705,0.4804071,0.1889733
0.8052862,-0.07519177,0.2194747,-0.8847219,0.4750114,0.1295359
0.7731815,-0.1029753,0.2585234,-0.8224921,0.4315584,0.1459355
0.742237,-0.1563858,0.2806038,-0.7774322,0.3685616,0.08105919
0.7096585,-0.1601039,0.3298051,-0.6171832,0.1884993,0.07478612
0.7617477,-0.1661929,0.3186925,-0.4886196,0.1063053,0.05165129
0.7821676,-0.1591454,0.3197438,-0.4079023,0.09437496,-0.01118927
0.7890982,-0.1117776,0.3539875,-0.2574004,-0.02035331,0.001540475
0.794493,-0.07207812,0.3765894,-0.1758612,-0.1320426,-0.0145502
0.7630797,-0.005347338,0.416472,-0.1735713,-0.193634,-0.02358515
0.7925517,0.05757282,0.4134996,-0.2204576,-0.1718153,-0.02700385
0.8583025,0.09249221,0.4038813,-0.3226873,-0.1164248,-0.1055021
0.9469664,0.1054943,0.4106695,-0.4628528,-0.1034464,-0.1676554
1.038132,0.04904958,0.4036046,-0.5985694,-0.0925235,-0.1884916
1.110273,-0.02060871,0.4195977,-0.6154358,-0.06491068,-0.2451863
1.176769,-0.0417884,0.4470073,-0.581854,0.08869625,-0.3889134
1.142773,-0.03121577,0.4978534,-0.5882424,0.3066141,-0.516397
1.133461,-0.04701687,0.5173578,-0.5708339,0.3652219,-0.5024729
1.202631,-0.1417593,0.4396088,-0.4967069,0.3054891,-0.4025133
1.204122,-0.2577365,0.3510736,-0.3528618,0.2279052,-0.2248984
1.199069,-0.3426099,0.3227684,-0.1556943,0.1883082,-0.02495175
1.12284,-0.4014243,0.322467,0.1178742,0.2795665,0.0196135
0.9670024,-0.4227641,0.2660077,0.3627793,0.3586119,-0.05762976
0.9052718,-0.353967,0.1788074,0.2332362,0.1100328,-0.1044675
0.9235953,-0.1908621,0.132595,-0.1010969,-0.2951648,-0.08658383
0.9842274,-0.09468269,0.1000256,-0.1529461,-0.3614445,-0.03879282
1.002333,-0.1584817,0.1184808,-0.008784698,-0.1274913,0.01750321
0.9626933,-0.2635295,0.2283688,0.2426002,-0.01857005,0.02817969
0.9204729,-0.2988755,0.3210464,0.6635666,-0.2535591,-0.04908312
0.8342233,-0.2701533,0.2984985,1.044619,-0.5066746,-0.09988995
0.8019595,-0.2087801,0.2305132,1.229299,-0.4427554,-0.05054199
0.8328544,-0.1287989,0.2083941,1.227158,-0.4167525,0.04077486
0.847378,-0.04794944,0.1919525,1.217658,-0.5048031,0.1586863
0.8783386,0.0320951,0.1773455,1.132884,-0.4417122,0.2674807
0.9235625,0.07945121,0.1863593,0.8506884,-0.3990892,0.3060902
0.9838252,0.09076223,0.1845994,0.6684427,-0.3238385,0.2859443
1.001234,0.1100853,0.2026318,0.5128176,-0.1534843,0.2281176
0.9726321,0.1223229,0.2326809,0.2926413,-0.09712695,0.1534711
0.9481733,0.1303788,0.2376362,0.132523,-0.05886098,0.152519
0.9061031,0.126485,0.2475778,-0.05298849,-0.009432568,0.2560166
0.9040061,0.1001698,0.2580115,-0.09162107,-0.01284202,0.4048625
0.9347159,0.06942479,0.2656857,0.002308013,-0.02240942,0.5772234
0.962509,0.009694742,0.2751507,0.08540444,-0.07422438,0.6553599
1.006157,-0.04554458,0.2846639,0.2386883,-0.1084629,0.5770739
1.019905,-0.08179755,0.3044475,0.3764383,-0.09949273,0.4395061
1.020935,-0.1044253,0.3275793,0.5149455,-0.1207187,0.1905594
1.042082,-0.0470796,0.3559022,0.647636,-0.1685723,-0.08193127
1.051891,0.06480771,0.366307,0.6847071,-0.243777,-0.1305056
1.061618,0.1461312,0.3611526,0.6517419,-0.3302519,-0.08774204
1.134989,0.1422387,0.3605781,0.4695029,-0.3792878,-0.1541557
1.248753,0.06343239,0.3297472,0.1334984,-0.3275427,-0.2855242
1.266939,0.007388405,0.25793,-0.2105125,-0.2144932,-0.4353121
1.181637,0.002670199,0.1291498,-0.5276088,-0.1029671,-0.5006186
1.105267,-0.03783725,0.01987025,-0.8089151,0.1127012,-0.4482347
1.083232,-0.1605288,0.08371213,-0.8757966,0.3818998,-0.447387
1.12737,-0.2670814,0.2606283,-0.7264461,0.4919455,-0.4564903
1.207889,-0.272464,0.4122947,-0.5195173,0.4474285,-0.3148392
1.235229,-0.2047478,0.447116,-0.3032027,0.4402755,-0.08795473
1.156333,-0.1064859,0.3419779,-0.3126035,0.483577,0.1012247
1.007397,-0.03769539,0.2461004,-0.5256817,0.4213587,0.1911626
0.8994788,-0.01884488,0.1947961,-0.6382296,0.3588001,0.2727601
0.8604232,-0.05906701,0.180295,-0.6920735,0.3666396,0.3590027
0.7909748,-0.1541618,0.2490553,-0.6686044,0.3466604,0.297227
0.7123427,-0.1833958,0.2725724,-0.524374,0.3421581,0.2219363
0.713785,-0.1493578,0.2847417,-0.3712878,0.3069944,0.1963615
0.734315,-0.1396278,0.3349509,-0.2731587,0.2416491,0.1274484
0.7398229,-0.1300603,0.3153639,-0.2860401,0.180335,0.1220487
0.7849845,-0.1244426,0.3204989,-0.2788575,0.1060946,0.102144
0.8162883,-0.116233,0.3558086,-0.2155131,0.1218941,0.05768594
0.7998463,-0.0911641,0.3964486,-0.1343058,0.1008706,0.09041519
0.8000742,-0.06435497,0.4677732,0.02273895,0.01823186,0.05644681
0.8046386,-0.03340813,0.4630026,0.06242963,0.03043933,-0.02811505
0.8207326,-0.004122236,0.4314818,-0.03423473,0.03074827,-0.1185647
0.8550883,0.0351619,0.4076146,-0.1818411,0.01143281,-0.1963256
0.8627297,0.03551821,0.3874166,-0.389301,-0.05026534,-0.1636716
0.9398759,0.001863169,0.4264972,-0.3993202,-0.1305688,-0.1557824
1.074101,0.01566748,0.4664244,-0.2590278,-0.01712398,-0.224453
1.085661,0.01640035,0.4921786,-0.2665186,0.1139967,-0.3223724
1.055262,-0.005821312,0.489909,-0.4206612,0.1058187,-0.4423138
1.12545,-0.03315196,0.4763539,-0.5649146,0.1444685,-0.4099034
1.17996,-0.1125655,0.4754848,-0.4763082,0.1805633,-0.2174136
1.171808,-0.2171192,0.391962,-0.2061792,0.06717041,0.001150433
1.232084,-0.3726354,0.2972633,0.0796568,0.01705631,0.1502062
1.285682,-0.4660581,0.2877801,0.3818282,0.2534096,0.0959125
1.128091,-0.3881887,0.2527478,0.4538726,0.4847467,-0.05692612
0.8919458,-0.3213068,0.172038,0.2364683,0.370982,-0.2057997
0.855298,-0.2099142,0.1662921,0.03151106,0.06451168,-0.318472
0.9455318,-0.04383815,0.2078942,-0.05380234,-0.2342409,-0.2044608
1.001797,-0.06881645,0.2088627,0.02705556,-0.4061836,-0.02946304
1.040294,-0.1560764,0.2257137,0.200385,-0.3529648,0.02010495
0.9945872,-0.2051581,0.2491321,0.4340508,-0.3623113,0.04277266
0.8807853,-0.2518323,0.2393074,0.7609851,-0.4629066,-0.02773
0.8414873,-0.1892959,0.2320107,0.8839312,-0.4031702,-0.06130002
0.8298253,-0.1174463,0.2125014,0.8755713,-0.4494895,0.02586132
0.8169931,-0.08261432,0.2038158,0.9547709,-0.5340679,0.09093792
0.8518989,-0.03165712,0.2100082,0.9345565,-0.4633784,0.2017527
0.903146,-0.0057122,0.2018062,0.9026047,-0.4755559,0.2890821
0.9515039,0.0330889,0.201344,0.8741532,-0.4056542,0.2864535
0.9725495,0.06952308,0.1980067,0.6867594,-0.2442966,0.259319
0.9689368,0.1329575,0.1991143,0.4668408,-0.1601626,0.2186276
0.9557047,0.2088098,0.2135428,0.237817,-0.06571432,0.2234277
0.9244059,0.1887278,0.2332131,0.01525037,-0.04773821,0.2558083
0.9229471,0.1583112,0.2589437,-0.1038302,-0.05518795,0.3693203
0.9417524,0.1080329,0.2671717,-0.1322596,-0.06274109,0.5473128
0.9592925,0.01457938,0.272936,-0.03098594,-0.1101408,0.6242305
1.011214,-0.03660575,0.2904395,0.1659444,-0.1058625,0.5886911
1.050306,-0.08388579,0.3092667,0.3710167,-0.1072403,0.4301532
1.046499,-0.09132731,0.3302245,0.5732166,-0.1204276,0.1829817
1.036228,-0.036295,0.3389547,0.7034493,-0.1789441,-0.01550486
1.029664,0.06255869,0.3302377,0.7203008,-0.3180235,-0.06469691
1.038338,0.1987881,0.3044935,0.6477545,-0.4475061,-0.03011199
1.088534,0.220848,0.2696166,0.4511099,-0.4667692,-0.05895387
1.200264,0.09598044,0.2515821,0.08070981,-0.2579004,-0.1599129
1.281734,-0.0363474,0.2386422,-0.3428772,-0.03886043,-0.3408841
1.212372,-0.07039067,0.1669619,-0.6306128,-0.00243853,-0.457947
1.096445,-0.06204217,0.05188983,-0.8190094,0.176313,-0.4137876
1.068275,-0.1548332,0.04191442,-0.8776014,0.4908774,-0.4389353
1.112972,-0.2670453,0.204491,-0.683383,0.5137625,-0.4869578
1.218345,-0.2788885,0.3989371,-0.4301368,0.3972049,-0.3826136
1.275696,-0.2233707,0.4357505,-0.2970698,0.4033824,-0.2137103
1.156115,-0.1167773,0.3386845,-0.3000549,0.3584957,-0.05767261
0.9878975,0.003967177,0.2689792,-0.4611667,0.3516666,0.02803286
0.9178135,0.04345434,0.227928,-0.7029857,0.4153653,0.1170406
0.8727742,-0.01767426,0.2080593,-0.9189851,0.4093676,0.2690882
0.7931574,-0.07918783,0.233211,-0.9984383,0.4558777,0.2713693
0.7641687,-0.1254056,0.2360939,-0.9768221,0.4788704,0.1966684
0.7678546,-0.1895204,0.2635035,-0.957492,0.4430206,0.2163584
0.7267013,-0.2135297,0.314863,-0.8505303,0.3738079,0.1627876
0.7223642,-0.2122542,0.3137503,-0.6820857,0.1917346,0.1031032
0.7502606,-0.2032674,0.3365692,-0.5343585,0.101075,0.08174162
0.7444547,-0.1590734,0.3694374,-0.3749986,0.0354065,-0.008219182
0.7448023,-0.08101299,0.3853847,-0.2250782,-0.1347352,-0.01587752
0.7447326,0.002643363,0.4295981,-0.1099484,-0.1990863,-0.002469689
0.7804352,0.0287794,0.4267605,-0.09751754,-0.1947534,-0.04981672
0.8844321,0.05831465,0.3991032,-0.1976186,-0.09998118,-0.09122946
0.9907974,0.07428489,0.4110139,-0.3308667,0.05239818,-0.172905
1.074735,0.006613208,0.40904,-0.464016,-0.03530323,-0.1958489
1.1204,-0.009427079,0.4125683,-0.5403131,-0.1062073,-0.1990419
1.113342,-0.002555947,0.4537363,-0.553754,0.1136557,-0.3152818
1.064225,-0.0006843305,0.5152161,-0.5540256,0.3138627,-0.4622161
1.040672,0.03213665,0.5506431,-0.5961343,0.419175,-0.5308703
1.115234,-0.07775269,0.4752036,-0.633021,0.4722261,-0.4418261
1.204487,-0.265561,0.3491016,-0.490092,0.3131653,-0.2552178
1.232311,-0.3987214,0.2899941,-0.2015434,0.1507959,0.01329308
1.217494,-0.5020712,0.2742508,0.09750712,0.2846389,0.2256507
1.080706,-0.4958336,0.2441944,0.3782975,0.5099373,0.1067592
0.8503563,-0.3921435,0.1795204,0.4765497,0.5319472,-0.08730731
0.8192998,-0.2432053,0.1482445,0.2222861,0.2936339,-0.2089884
0.9783436,-0.1115594,0.1768331,-0.06309775,-0.1201899,-0.3335596
1.058262,-0.1064405,0.1779956,0.006549889,-0.3253723,-0.1904934
1.073719,-0.1746919,0.2066704,0.1496443,-0.2305828,0.03809881
1.012606,-0.2377537,0.2751552,0.2868408,-0.3138036,0.0947852
0.8977343,-0.2565374,0.2677753,0.671214,-0.4858982,0.131561
0.8483947,-0.2086991,0.2355123,0.9270742,-0.4585686,0.11517
0.7606419,-0.1628533,0.2290472,0.984825,-0.4888647,0.1514403
0.7501131,-0.1571347,0.2237069,1.131314,-0.5889344,0.2333623
0.8535435,-0.1304195,0.2158993,1.133687,-0.611998,0.2423653
0.8802772,-0.05115741,0.184522,1.053994,-0.5979707,0.3446732
0.9519828,0.0008237199,0.1713355,1.021065,-0.5103962,0.3906075
1.002115,0.01149624,0.1873962,0.8563415,-0.3482156,0.3217182
0.9793019,0.06078136,0.1900293,0.678078,-0.1922702,0.2901991
1.013881,0.09805762,0.2035107,0.5042834,-0.0851044,0.2581694
0.9547442,0.07843385,0.2340702,0.3057534,-0.02832229,0.3051732
0.9094159,0.08674108,0.2633625,0.2093702,-0.01919862,0.4024112
0.9633172,0.09440555,0.2751559,0.1772778,-0.01035003,0.5219369
0.9648089,0.0508219,0.2709765,0.233436,0.004751919,0.6436441
1.00277,0.02451894,0.2862969,0.3367138,-0.02626353,0.6116445
1.018138,0.0005832942,0.2945156,0.3903195,-0.05973678,0.468839
0.994082,-0.03744803,0.2891753,0.4867637,-0.09997162,0.2086776
1.020984,-0.04468793,0.3079166,0.5862862,-0.1579548,-0.08579772
1.018432,-0.02157804,0.322036,0.6247707,-0.1703885,-0.1805842
1.03258,0.05256119,0.330714,0.6244793,-0.1802584,-0.1464536
1.051534,0.1359696,0.3430725,0.5210431,-0.2023115,-0.1158142
1.071475,0.1377396,0.3445616,0.3232415,-0.1995199,-0.1275945
1.151204,0.06424434,0.3463394,0.02685266,-0.2005191,-0.2600959
1.180666,-0.009878761,0.2980434,-0.4296254,-0.1859897,-0.4887804
1.15641,-0.04007404,0.1761081,-0.824001,-0.06616128,-0.5863749
1.137107,-0.09465103,0.07000755,-0.8554215,0.1741378,-0.5163407
1.122044,-0.207088,0.07274695,-0.7124947,0.3316335,-0.5100282
1.122784,-0.2954634,0.2137502,-0.537528,0.289552,-0.484956
1.176197,-0.3096985,0.3897522,-0.1704842,0.2791372,-0.3036084
1.241069,-0.2632298,0.4378056,-0.04079285,0.3377903,-0.1280373
1.133799,-0.1703854,0.3597609,-0.2584175,0.3023335,-0.05513786
0.9482477,-0.04357601,0.2898823,-0.3291762,0.3006658,-0.04468384
0.8749545,0.01967531,0.2477877,-0.5310829,0.3383439,0.02535136
0.8299072,-0.02260937,0.2172299,-0.8004795,0.3253549,0.118778
0.8066139,-0.07789921,0.245863,-0.7611844,0.3999726,0.1046856
0.8061884,-0.1433966,0.2656793,-0.7746146,0.4778192,0.105377
0.7693116,-0.1973939,0.2658799,-0.7591494,0.454284,0.1130955
0.756938,-0.1860144,0.3108055,-0.6317788,0.3987282,0.05821474
0.7793263,-0.1925487,0.3227317,-0.5713845,0.3207676,0.02928427
0.7914637,-0.2000163,0.314782,-0.4279274,0.2481601,-0.01644264
0.7803276,-0.1417883,0.346296,-0.3172047,0.05951005,-0.05351864
0.7675312,-0.07483972,0.3807508,-0.230251,-0.1727929,-0.05174529
0.7779597,-0.01987702,0.4044538,-0.157409,-0.1732685,-0.05513393
0.791136,0.008492012,0.3981375,-0.211866,-0.1305443,-0.02725591
0.8242713,0.0222576,0.3975258,-0.2313359,-0.1554799,-0.03920414
0.9112415,0.03406333,0.4161902,-0.3371152,-0.097602,-0.1090052
1.030289,0.001462295,0.4103939,-0.5120984,-0.09338607,-0.1905234
1.105041,-0.009834891,0.4132858,-0.5763369,-0.1058517,-0.2729538
1.09857,0.01958349,0.4263567,-0.6550157,0.04858429,-0.3217793
1.082922,0.05710265,0.4560094,-0.7187272,0.1609767,-0.3806918
1.085886,0.1003761,0.5171765,-0.7809681,0.1447135,-0.3767796
1.108937,0.05223704,0.5355024,-0.851532,0.2268405,-0.2614402
1.155684,-0.06935065,0.5015343,-0.7402206,0.3499922,-0.1177801
1.158761,-0.2134729,0.4469951,-0.4802053,0.2566246,0.04736818
1.136787,-0.3897684,0.3699128,-0.1703579,0.1552768,0.1162844
1.1118,-0.4900407,0.3227908,0.1865085,0.3723832,0.06787533
0.9952292,-0.5056759,0.3061062,0.454515,0.5230568,0.001050627
0.8171133,-0.457794,0.2571346,0.5626569,0.3310366,-0.1126563
0.7638343,-0.2991479,0.2072273,0.5519228,0.05324746,-0.1522576
0.9024532,-0.141376,0.1750566,0.371001,-0.2792602,-0.02792418
1.041659,-0.10154,0.1501569,0.2329627,-0.4708879,0.1031528
1.048273,-0.156669,0.1792423,0.3040737,-0.3294513,0.1228554
0.9831929,-0.2046632,0.2383845,0.3554423,-0.260014,0.06226837
0.8937014,-0.2010968,0.2756684,0.4616474,-0.4058885,0.004288877
0.8427432,-0.1917396,0.2713682,0.7073177,-0.450948,-0.02556156
0.8478456,-0.1428262,0.2444898,0.8897544,-0.4144148,-0.00472953
0.8525854,-0.06677667,0.2524467,0.9957774,-0.4839946,0.07015065
0.8701256,-0.01952474,0.2435497,1.035783,-0.5771895,0.1474888
0.9167125,0.02506529,0.2095303,0.9664331,-0.6094161,0.1962239
0.9700282,0.05731762,0.2063398,0.8383911,-0.5557781,0.198432
0.9851506,0.09454778,0.1992101,0.7234123,-0.4288886,0.1956447
0.9597727,0.1257424,0.2090674,0.5806345,-0.3002332,0.1988979
0.9458436,0.1181109,0.2317556,0.3965488,-0.1623881,0.1890462
0.9391768,0.1165339,0.2395727,0.2533692,-0.06374238,0.2357831
0.9442742,0.09243244,0.2609026,0.1653507,-0.03900207,0.3288411
0.9808432,0.03966708,0.2665253,0.1979748,-0.08020158,0.4274088
1.027861,-0.001075066,0.270271,0.3629954,-0.155748,0.5320499
1.055328,-0.01691858,0.2855321,0.5921079,-0.1649734,0.557788
1.046191,-0.001862195,0.2941173,0.7456187,-0.1323565,0.4458304
1.040029,-0.001587237,0.3131724,0.7169254,-0.1077991,0.2393873
1.048426,0.0156886,0.3117295,0.7040269,-0.1732886,0.05672737
1.047904,0.06550306,0.3029262,0.7041742,-0.2924281,-0.003337316
1.075486,0.1038937,0.3095749,0.6435321,-0.2956729,0.01380704
1.127993,0.1534607,0.2971487,0.584312,-0.2527473,0.01672705
1.149096,0.1258847,0.2869401,0.3898537,-0.1095719,-0.03636348
1.13595,-0.0194066,0.2787483,0.1665343,0.08865081,-0.2035352
1.127985,-0.117205,0.2248991,-0.05924557,0.06424533,-0.4684268
1.121402,-0.09251482,0.1646311,-0.4198126,0.04948522,-0.6011397
1.061831,-0.07075236,0.1869863,-0.6081939,0.1628887,-0.5716137
0.9784917,-0.1550414,0.2492703,-0.5199817,0.1385911,-0.5740232
0.9718503,-0.2131881,0.2757005,-0.3459327,0.1429444,-0.4486812
1.043322,-0.1815926,0.3199669,-0.1128058,0.304148,-0.1432204
1.090535,-0.1881011,0.3663571,0.02413496,0.3960851,0.04278098
1.059428,-0.1855562,0.3471904,-0.06335232,0.3877964,0.09008703
0.9967147,-0.1070205,0.3010767,-0.2001672,0.3751153,0.09320897
0.9293488,-0.02383307,0.2561407,-0.396204,0.410779,0.0877025
0.8669336,-0.00417591,0.2294266,-0.7054456,0.4246347,0.1104262
0.8367596,-0.05315112,0.238305,-0.8588082,0.3625326,0.08257246
0.8077366,-0.0799525,0.2513852,-0.8891562,0.316757,0.03843207
0.78638,-0.09800213,0.2704185,-0.9081926,0.2349151,0.03513625
0.8068372,-0.1409372,0.31769,-0.7866318,0.1903524,0.03567166
0.8204656,-0.151187,0.3500622,-0.6205219,0.2238927,0.05530462
0.8125935,-0.1557148,0.348829,-0.4701212,0.1342888,0.06692746
0.7956507,-0.1347748,0.3633569,-0.3693651,-0.01339377,0.08063179
0.7703963,-0.07255814,0.3771493,-0.3414164,-0.1720347,0.112337
0.7753254,-0.02157456,0.3700525,-0.3041238,-0.2556673,0.1084746
0.8110881,0.01809644,0.3717907,-0.3276475,-0.167584,0.08778452
0.8702803,0.01666617,0.3733974,-0.3599897,-0.1238277,0.02900607
0.9620189,-0.01755464,0.3850204,-0.3796247,-0.09128561,-0.09026898
1.041963,-0.05178141,0.408954,-0.4177579,-0.04191168,-0.1821583
1.086815,-0.08240946,0.4153099,-0.3799727,-0.05333431,-0.2080322
1.100186,-0.05882312,0.4187084,-0.3687031,-0.002919374,-0.2485411
1.060317,0.03201827,0.4535922,-0.4159028,0.09042786,-0.3460453
1.022785,0.1107749,0.507974,-0.5181552,0.2442225,-0.3726972
1.06368,0.04518155,0.5102266,-0.6375395,0.3613696,-0.2884991
1.113838,-0.1302366,0.4610028,-0.4915939,0.231458,-0.1677122
1.125852,-0.2547483,0.4179021,-0.1872293,0.008039143,-0.001247466
1.166219,-0.3621262,0.3667856,0.0598276,-0.06680271,0.08982783
1.188718,-0.4625005,0.306836,0.4025454,0.2259775,0.0215084
1.086996,-0.4588169,0.2501758,0.661501,0.5754876,-0.06777964
0.915943,-0.3627717,0.1898784,0.5428539,0.3343777,-0.1658323
0.843164,-0.2189596,0.1635754,0.2934146,-0.08349558,-0.2436869
0.9195958,-0.1063211,0.1780624,0.1409841,-0.2467095,-0.1476723
0.98711,-0.08875098,0.1830704,0.09223767,-0.3953336,0.01825046
0.9675063,-0.1241751,0.1895723,0.1979965,-0.3497186,0.1081302
0.9383842,-0.1460008,0.2256565,0.3111597,-0.3049169,0.1568691
0.886974,-0.1461815,0.239637,0.4103983,-0.4682657,0.1454494
0.832401,-0.1527193,0.2257223,0.5772937,-0.4713025,0.1237881
0.8385293,-0.1405476,0.2189298,0.6354922,-0.5136361,0.1408212
0.8624215,-0.1161189,0.2017198,0.6734642,-0.5814373,0.1554954
0.9047923,-0.0954831,0.1951888,0.7547791,-0.5053849,0.2071066
0.9618053,-0.06093539,0.1991829,0.7686814,-0.4838013,0.2194657
0.9810731,-0.03112074,0.1935568,0.8196585,-0.3350385,0.1706979
0.9757616,0.02400554,0.211824,0.8116169,-0.1895012,0.1595558
0.9541854,0.09353898,0.2261655,0.6771062,-0.169909,0.146449
0.9275459,0.1288631,0.2196598,0.4592355,-0.1019016,0.1655992
0.9183964,0.1406191,0.2221726,0.1862871,-0.1294812,0.2551689
0.9379214,0.1128153,0.2220548,0.08005387,-0.1407574,0.3931132
0.9834314,0.06800853,0.2238803,0.1017752,-0.09891624,0.5268845
1.019949,0.02086208,0.2331328,0.1988629,-0.1062792,0.5312307
1.053384,-0.03762046,0.2536016,0.4114754,-0.05596203,0.4515577
1.073332,-0.06287731,0.2901276,0.5623676,-0.01451726,0.3095425
1.064931,-0.05110849,0.3111468,0.6860904,-0.01287005,0.07700735
1.06775,0.01101439,0.3130843,0.7652855,-0.06078318,-0.1151454
1.081575,0.103788,0.3092122,0.6712296,-0.1568512,-0.1942816
1.132849,0.1157554,0.3026037,0.4757072,-0.1953514,-0.1937078
1.221254,0.05361747,0.302743,0.1707739,-0.1478197,-0.2578587
1.244775,0.01112974,0.2852741,-0.08608755,-0.07864525,-0.3957176
1.207239,-0.004380167,0.2185467,-0.1305367,-0.06034328,-0.3976357
1.177927,-0.03647013,0.1191858,-0.2387833,0.1205492,-0.3102875
1.121086,-0.148429,0.0737949,-0.4527784,0.5140856,-0.2834157
1.046982,-0.3124307,0.1738538,-0.4677661,0.6932947,-0.3101572
1.039788,-0.3708606,0.3416527,-0.261603,0.5480545,-0.3307233
1.048255,-0.3375329,0.4141672,0.00524974,0.4144325,-0.2364293
1.022821,-0.2748982,0.3818057,0.1426769,0.4072293,-0.0545358
1.020566,-0.1218688,0.3145961,0.06485257,0.3225892,0.07049311
1.016447,-0.03567455,0.2466018,-0.06586706,0.2803173,0.1173423
0.9840748,-0.07235378,0.2192501,-0.240216,0.4326946,0.1836995
0.9368397,-0.06608418,0.2395623,-0.485823,0.4866237,0.2535716
0.8665233,-0.08511642,0.2508266,-0.599339,0.4118575,0.2112465
0.7954429,-0.1236323,0.262255,-0.5961218,0.3156868,0.1810524
0.7243335,-0.1307735,0.3116,-0.5863778,0.2027655,0.214041
0.712178,-0.1622728,0.3253391,-0.5291181,0.1861391,0.1912065
0.7775966,-0.1584875,0.3108752,-0.450996,0.1896858,0.2131165
0.7945365,-0.1682967,0.3403831,-0.2845018,0.1547519,0.2379832
0.7946671,-0.1648926,0.3620237,-0.07400056,0.07179955,0.200502
0.7975634,-0.0920615,0.3797557,-0.02506362,-0.09574425,0.2012917
0.7457487,-0.0670512,0.4053306,-0.03517859,-0.2548138,0.163767
0.7499868,-0.02610455,0.4051023,-0.02753844,-0.3116372,0.1168532
0.8019575,0.02541615,0.4088625,-0.05425049,-0.2234079,0.1096769
0.8723899,0.02046722,0.3957177,-0.1097563,-0.1567458,0.06911529
0.9895127,0.02394227,0.3800189,-0.2615689,-0.1724509,0.006938261
1.048997,-0.0006276846,0.3986865,-0.4136674,-0.1300646,-0.07572079
1.06795,-0.02848721,0.4215536,-0.4496126,-0.0610553,-0.1353364
1.068016,-0.02562426,0.4751834,-0.4458019,-0.003710208,-0.2186619
1.050116,0.002015246,0.5411887,-0.4579965,-0.0420294,-0.3389559
1.088788,0.0431865,0.5548138,-0.5035713,-0.07939366,-0.3422512
1.154651,-0.004240101,0.5248356,-0.5324594,0.0936573,-0.2658779
1.216346,-0.09773365,0.4745739,-0.456035,0.2327688,-0.133087
1.179223,-0.1994175,0.4151796,-0.2977548,0.1860991,0.04854726
1.08707,-0.3372079,0.370667,-0.1332284,0.176426,0.09147495
1.074317,-0.4134568,0.3652039,0.08670552,0.2879315,-0.00678626
0.9436973,-0.412386,0.3389632,0.3460491,0.3383199,-0.1344226
0.7491023,-0.3603057,0.2627884,0.4919461,0.1546607,-0.263038
0.7673812,-0.2620339,0.2058222,0.4924964,-0.1576674,-0.261339
0.9282323,-0.1625618,0.1410778,0.3042312,-0.3460076,-0.07036432
1.096769,-0.1004527,0.07859167,0.04788099,-0.2628247,0.1339732
1.113822,-0.1442433,0.120708,0.01070594,-0.02758869,0.214548
0.9643323,-0.2237601,0.2250301,0.1305814,0.09577623,0.1411184
0.8685074,-0.2165466,0.2947637,0.2893537,-0.09713394,0.00717679
0.8404497,-0.2051794,0.296359,0.5542438,-0.5025457,-0.0644464
0.8360338,-0.203996,0.2608175,0.8124232,-0.6480294,-0.08013543
0.8811632,-0.1419294,0.2431379,0.843875,-0.5405662,0.01301984
0.922168,-0.07580586,0.2092101,0.8382192,-0.5354922,0.1422814
0.9188534,-0.04775729,0.1882774,0.9449404,-0.5185644,0.1893846
0.9075418,-0.03989814,0.2235255,0.8831832,-0.4209941,0.2266786
0.9477828,-0.01344124,0.2245613,0.8261236,-0.3735329,0.2102883
0.9834173,0.03268999,0.2243699,0.8352,-0.3491347,0.1623458
0.9815584,0.07905796,0.24334,0.6468712,-0.2811013,0.1364575
0.9722674,0.1415146,0.225704,0.5004327,-0.1880485,0.1302259
0.9348659,0.1622863,0.2398705,0.2969184,-0.1287416,0.2253934
0.9353361,0.1480144,0.2463258,0.05574573,-0.08399224,0.351635
0.961846,0.1361801,0.2329586,0.08541749,-0.05656658,0.4818682
0.9792779,0.0647996,0.2614226,0.1349524,-0.04269729,0.5566491
1.038365,-0.02311223,0.2737465,0.2676892,-0.03309929,0.4925848
1.059707,-0.06909483,0.2906222,0.4557433,-0.0383061,0.3647967
1.048435,-0.06622448,0.3032802,0.4845617,-0.02872246,0.09996983
1.057996,-0.02362258,0.2954132,0.5606409,-0.0676232,-0.1440943
1.05089,0.03214055,0.3177623,0.6148764,-0.1272366,-0.1628081
1.048677,0.125314,0.3236224,0.6228344,-0.1715768,-0.148558
1.067343,0.1537834,0.316926,0.5984995,-0.2175112,-0.1589484
1.15509,0.0598554,0.3115317,0.4135992,-0.158185,-0.1940817
1.254365,-0.01003527,0.2823404,0.1324232,-0.09115445,-0.3330379
