accx,accy,accz,gyrox,gyroy,gyroz
0.9205844,-0.3370832,-0.04280155,-0.3822182,0.2225238,0.01758911
0.9177687,-0.3270948,-0.02366342,-0.3577278,0.1648755,0.01697044
0.9177607,-0.2871915,-0.02014831,-0.3250529,0.06632727,0.02104879
0.9044856,-0.2775289,-0.02677534,-0.239558,0.01631881,0.05874447
0.9065326,-0.2385521,-0.01535912,-0.1841388,-0.06214042,0.1048468
0.9283839,-0.2449008,-0.0156042,-0.1387253,-0.04199519,0.1013114
0.9537066,-0.2528243,-0.005956072,-0.1113991,-0.01060857,0.06222384
0.9554253,-0.2003173,0.0281968,-0.1108012,-0.04722618,0.01555262
0.9295528,-0.1610009,0.03830128,-0.09890099,-0.04864082,-0.001476983
0.9082529,-0.1150096,0.04742757,-0.1182454,-0.1164263,-0.01166931
0.8918631,-0.09673261,0.05881041,-0.1104217,-0.1737138,-0.03940709
0.8872788,-0.08422988,0.04862737,-0.1038763,-0.225808,-0.08045886
0.8987884,-0.05009221,0.03251047,-0.1491898,-0.3071202,-0.1391282
0.9231964,-0.0637743,0.01915986,-0.2259186,-0.2666536,-0.1693152
0.9778622,-0.08525383,0.01134131,-0.3743026,-0.2296555,-0.122495
1.036761,-0.1212337,0.006613329,-0.4364806,-0.2356544,-0.03023831
1.067639,-0.1451407,0.0003240752,-0.3590564,-0.2292539,0.02147098
1.090454,-0.1177399,-0.01030286,-0.3406216,-0.2558816,0.02665883
1.125224,-0.1094661,-0.003796465,-0.4251782,-0.2354061,0.03532213
1.193174,-0.09161916,-0.003221789,-0.5538045,-0.2112627,0.09403009
1.339783,-0.08529442,-0.08081235,-0.6472843,-0.1978096,0.2582887
1.476066,-0.1776574,-0.1766625,-0.6031311,-0.02261772,0.4466407
1.435075,-0.3669885,-0.1916691,-0.3434572,0.2741237,0.4731504
1.298526,-0.5145984,-0.145539,0.01101547,0.4484334,0.3255919
1.132689,-0.4410532,-0.05332752,0.09343554,0.4054344,0.1581722
0.923827,-0.3094408,0.04103411,-0.1527919,0.2233989,-0.0004963914
0.891655,-0.2825,-0.02000234,-0.378544,-0.05413019,-0.0791227
0.9375024,-0.2538661,-0.1792165,-0.4311009,-0.2912599,0.06986885
0.8690783,-0.2929287,-0.2474284,-0.3704941,-0.3157579,0.2563595
0.9327161,-0.4061246,-0.3103154,-0.2665403,-0.1468767,0.3036226
1.023469,-0.4801297,-0.3403608,-0.1707335,0.1016569,0.2287147
0.973612,-0.5128234,-0.2458255,0.012984,0.1805462,-0.001827176
0.94089,-0.4251542,-0.1806268,0.1878532,0.05803166,-0.2697853
0.8649684,-0.2963143,-0.1405348,0.2166832,-0.08161478,-0.3736853
0.8192016,-0.2299994,-0.1352049,0.2895264,-0.305778,-0.2578797
0.8611882,-0.1773669,-0.1945875,0.3331066,-0.4146097,-0.09656054
0.8652812,-0.1833627,-0.2145653,0.245139,-0.283807,0.03052911
0.9045558,-0.1779202,-0.2422388,0.1587766,-0.2234107,0.1731109
0.925096,-0.1493425,-0.241156,0.01140913,-0.1502972,0.1734552
0.8977675,-0.1552323,-0.2152272,-0.1507665,-0.07526446,0.1563283
0.9093882,-0.1379934,-0.2346003,-0.2394874,-0.1455016,0.2430576
0.9089602,-0.1702009,-0.2117547,-0.2661858,-0.1528109,0.2558623
0.9381756,-0.2238123,-0.1999725,-0.2017925,-0.1583595,0.275603
1.00029,-0.2398594,-0.1985203,-0.09953026,-0.1636481,0.2487787
1.009492,-0.2452239,-0.1670705,0.03377233,-0.06315255,0.1448832
0.983206,-0.1900533,-0.1582316,0.1183012,-0.05146409,0.118345
0.9682297,-0.1331781,-0.1241162,0.1215505,-0.0753223,0.09866703
0.9792535,-0.1092266,-0.1000391,0.1783089,-0.05721026,0.1232392
0.9815698,-0.1102646,-0.09234818,0.2440728,-0.04932472,0.155909
0.9753346,-0.1318703,-0.07498861,0.3378893,-0.006452925,0.1327579
0.9777426,-0.1287274,-0.1083504,0.4944413,-0.002892597,0.1597465
0.9747574,-0.1444785,-0.147936,0.5528799,-0.01168518,0.1636727
0.9868739,-0.1618072,-0.1638345,0.5153385,0.004229212,0.1265178
1.006827,-0.1647237,-0.1711799,0.4501192,-0.01194139,0.07831804
1.040121,-0.1694532,-0.1610248,0.3452329,0.004190221,-0.00365783
1.146839,-0.1493734,-0.1299862,0.2925393,0.05801102,-0.109972
1.261392,-0.1488051,-0.08721873,0.4060196,0.1499922,-0.2291847
1.274357,-0.1603969,-0.07437564,0.6129198,0.2482185,-0.2547166
1.303575,-0.1895406,-0.05403916,0.6702576,0.2545139,-0.2571439
1.379343,-0.2351059,-0.0351655,0.3730361,0.138631,-0.2976334
1.265222,-0.2250043,-0.1517832,-0.1958788,-0.09874471,-0.215917
1.080316,-0.2361869,-0.3214915,-0.5958129,-0.2098446,-0.155359
1.092908,-0.3419925,-0.33062,-0.5594047,0.02623846,-0.3332444
1.133244,-0.4916953,-0.2642533,-0.2495586,0.3918912,-0.5641172
1.102351,-0.572322,-0.2391807,0.1599663,0.6287973,-0.5864868
1.056578,-0.5150905,-0.1379795,0.4183871,0.652797,-0.4289951
0.9434551,-0.415187,-0.03113636,0.3347616,0.454255,-0.240554
0.8665646,-0.2746319,-0.04881974,0.1004941,0.1447805,-0.05552383
0.8895067,-0.1244744,-0.09848355,-0.1876837,-0.0395496,0.07137413
0.9293073,-0.1409487,-0.1514045,-0.4574538,0.02825368,0.1001494
0.9592845,-0.2239999,-0.1738839,-0.4684959,0.1567828,0.100204
0.9196982,-0.2808968,-0.1289786,-0.3505023,0.2096418,0.1130879
0.8418571,-0.3676328,-0.09570396,-0.2965651,0.2723864,0.1299229
0.8306759,-0.3544226,-0.0702343,-0.2685791,0.2820558,0.1232398
0.8476542,-0.28433,-0.04475737,-0.3370318,0.2080852,0.1139764
0.8537955,-0.2692062,-0.03988022,-0.4054214,0.1317369,0.1266149
0.8608848,-0.2389927,-0.01631243,-0.3595349,0.01438012,0.1264453
0.8593178,-0.2365135,0.01377025,-0.3088793,-0.08861844,0.1300148
0.859691,-0.2197939,0.01637134,-0.238218,-0.1594617,0.1340346
0.864192,-0.1594223,0.01484176,-0.1940665,-0.2452664,0.1029053
0.8625872,-0.146491,0.02637071,-0.2159095,-0.2825478,0.05570728
0.8633876,-0.1136153,0.02148978,-0.2051167,-0.310679,0.008276682
0.8823814,-0.07619433,0.0003069832,-0.2323146,-0.2947418,-0.01481457
0.9429235,-0.07901698,-0.01035153,-0.315827,-0.1973594,-0.001269949
1.029118,-0.09925283,-0.02122662,-0.3666636,-0.1203437,0.04267656
1.075935,-0.1722799,-0.05336968,-0.3822855,-0.08971038,0.08995809
1.076796,-0.2233627,-0.09462158,-0.3245576,-0.1633159,0.07406087
1.0918,-0.1883284,-0.07491963,-0.2380011,-0.2336565,0.03428294
1.157479,-0.06772267,-0.01593534,-0.2952924,-0.1664682,0.03729907
1.262927,0.07877669,-0.02610092,-0.4937871,-0.1331323,0.09105368
1.371995,0.08005015,-0.1198844,-0.6460027,-0.1327897,0.2661577
1.451426,-0.08506695,-0.2634867,-0.5875288,0.03272486,0.4875987
1.407869,-0.339,-0.3098881,-0.3211871,0.326494,0.566004
1.189282,-0.5967135,-0.1899257,0.04109331,0.5048849,0.5385478
0.9513245,-0.6670755,-0.0802819,0.2930158,0.5254122,0.3873588
0.8310591,-0.5448058,-0.0357232,0.1055743,0.540104,0.02224216
0.8383518,-0.4185771,-0.05027267,-0.215622,0.3457108,-0.1930159
0.8545886,-0.2993002,-0.1018497,-0.2232595,-0.1504093,-0.01489335
0.8203149,-0.242787,-0.1135881,-0.2698178,-0.3953707,0.1002556
0.9380341,-0.3679225,-0.1798284,-0.2124991,-0.1998901,-0.01567477
1.071626,-0.4853872,-0.2511966,0.139234,-0.08665513,-0.07177804
0.9911822,-0.4730524,-0.1938885,0.3401699,-0.1968438,-0.1646281
0.9100944,-0.3855547,-0.1498684,0.4527751,-0.2277455,-0.2808482
0.8459917,-0.2407657,-0.1947136,0.3894253,-0.2346693,-0.2025503
0.7774453,-0.1730797,-0.2215273,0.1903342,-0.277012,-0.1133111
0.80632,-0.1793105,-0.213183,0.1686235,-0.2381549,0.00495833
0.8208207,-0.1678469,-0.239525,0.06323542,-0.2584349,0.2318801
0.8449519,-0.1896338,-0.2625744,-0.0128364,-0.2606218,0.2938648
0.9174627,-0.217687,-0.2410711,-0.02783082,-0.1131411,0.2413323
0.9285489,-0.2269196,-0.2162282,-0.09044575,0.006378731,0.1976161
0.9083411,-0.2143749,-0.1627916,0.03198886,0.05220846,0.1316665
0.9126247,-0.1697289,-0.126114,0.1049827,-0.01015833,0.1435986
0.9177213,-0.1398735,-0.1398722,0.1108302,-0.06413623,0.1997964
0.9326208,-0.1137479,-0.1281326,0.1367078,-0.01132321,0.2418858
0.9622827,-0.1013579,-0.1159384,0.07573113,-0.008918149,0.2516647
0.960618,-0.1254109,-0.1148283,0.1023159,0.03315356,0.19206
0.9444039,-0.1576046,-0.1082224,0.2011938,0.06875418,0.1149732
0.9595238,-0.1953444,-0.1178947,0.397138,0.03186267,0.05945751
1.005542,-0.2214829,-0.1319708,0.585206,0.07220653,0.06201004
1.07029,-0.2256133,-0.1475694,0.5513933,0.08317984,0.04162835
1.101567,-0.1890982,-0.1407313,0.4374705,0.05505032,-0.08474316
1.130525,-0.1040555,-0.1131868,0.2568695,0.04003587,-0.1947726
1.245708,-0.06857896,-0.09214153,0.1607876,0.0415682,-0.2218523
1.398004,-0.1530016,-0.06579192,0.2419596,0.1559186,-0.2026184
1.478237,-0.3056082,-0.08068529,0.1802417,0.2776916,-0.2141182
1.386905,-0.4150616,-0.1778659,-0.161664,0.1939061,-0.2532932
1.166071,-0.422511,-0.3002437,-0.6357088,-0.2163242,-0.2342534
1.038075,-0.4083467,-0.357876,-0.7817395,-0.5460182,-0.2425356
1.089129,-0.4377445,-0.3298287,-0.4885042,-0.196693,-0.3188511
1.137639,-0.4521051,-0.2588557,-0.2125849,0.3320212,-0.3758258
1.008526,-0.4346869,-0.1619118,0.01775945,0.4545585,-0.3563464
0.8458116,-0.4050971,-0.1155261,0.1539812,0.6463654,-0.1983571
0.7858323,-0.3301572,-0.1109624,-0.03153943,0.7802369,-0.01088836
0.7526987,-0.2629462,-0.04322541,-0.2163972,0.4522235,0.0213222
0.77348,-0.2544034,-0.03262227,-0.2708132,0.2081847,-0.06789976
0.7903309,-0.2635735,-0.07991999,-0.3205429,0.04668734,-0.1051907
0.7985371,-0.3087767,-0.06605936,-0.2148736,-0.1340954,-0.0463056
0.8940608,-0.3619454,-0.09037584,-0.06299531,-0.04786555,-0.003973132
0.9253761,-0.3538709,-0.1040603,-0.01889513,-0.007034538,0.01125115
0.8974585,-0.3011662,-0.06122225,-0.02330137,0.03809054,0.009184674
0.8812961,-0.2311342,-0.03917888,-0.05793869,0.07534907,-0.01135617
0.8466511,-0.1840537,9.200586e-05,-0.04523881,-0.09750044,0.01043406
0.8708426,-0.1706409,0.0055622,-0.01977177,-0.1576827,0.02728061
0.8897042,-0.1541256,-0.01009622,-0.002490382,-0.1833127,0.04773726
0.8696038,-0.1351035,0.01316615,0.03548309,-0.1869653,0.09835567
0.8681704,-0.1235584,0.02030168,0.0256457,-0.1743206,0.1085333
0.8560909,-0.08540399,0.04611431,0.03054087,-0.2929479,0.104068
0.8586118,-0.03242287,0.07136588,-0.02100341,-0.2921172,0.1010191
0.919025,-0.05614959,0.03885642,-0.2368077,-0.2636597,0.09973361
1.011294,-0.1179076,-0.005929084,-0.4436609,-0.2216154,0.1131591
1.0809,-0.1843523,-0.05558367,-0.4808591,-0.1295163,0.1134947
1.158928,-0.3034025,-0.1104756,-0.3807229,-0.1700119,0.09465839
1.208991,-0.2892892,-0.1110819,-0.2856996,-0.1644998,0.03130515
1.25887,-0.1036768,-0.09291427,-0.2307335,-0.1128124,-0.005151713
1.51867,0.0008702091,-0.1738792,-0.3308338,-0.05355274,0.09734088
1.715337,-0.02978175,-0.2433063,-0.5147252,0.1248912,0.244753
1.539617,-0.2035609,-0.1943893,-0.3769674,0.4258827,0.3069023
1.229522,-0.5070779,-0.1438345,-0.1228338,0.7096222,0.2901439
0.9543688,-0.6820407,-0.09836637,-0.05239692,0.6603786,0.1396782
0.8344824,-0.5348209,-0.05025246,-0.1324245,0.5220787,-0.1813513
0.7975421,-0.2942364,-0.02854755,-0.4028092,0.3822141,-0.3471327
0.7204848,-0.2302103,-0.04791757,-0.503078,-0.1560785,-0.1576232
0.8671189,-0.2155135,-0.1718262,-0.369939,-0.4605994,0.09261246
1.035668,-0.2984358,-0.3082059,-0.2613792,-0.1747526,0.1776779
1.03203,-0.5235836,-0.342085,-0.02134889,-0.04395536,-0.00896853
1.073377,-0.5734238,-0.262561,0.2698608,-0.06977681,-0.366926
0.9782643,-0.497416,-0.1590653,0.5034539,-0.09032871,-0.5002293
0.848327,-0.3824321,-0.1673421,0.6111975,-0.2838892,-0.4375335
0.8248445,-0.2079402,-0.2030112,0.476326,-0.3682083,-0.3532258
0.771624,-0.1572239,-0.2168837,0.3471055,-0.3733594,-0.1571388
0.8293516,-0.1788251,-0.2515917,0.2985915,-0.4207965,-0.009518194
0.8776508,-0.1931906,-0.2538683,0.2704828,-0.3374808,0.02538226
0.8828246,-0.1983238,-0.2602564,0.2751214,-0.2461822,0.09931022
0.8994309,-0.1736251,-0.2562722,0.2442695,-0.1812477,0.1404089
0.8351746,-0.1527301,-0.2174945,0.2338002,-0.1688552,0.1454076
0.8642603,-0.1356697,-0.2120245,0.2532171,-0.18229,0.1833783
0.9059459,-0.1429752,-0.1990847,0.271362,-0.03429211,0.2212898
0.9285631,-0.1097342,-0.1640617,0.2877205,0.04171084,0.2437075
0.9924515,-0.0439608,-0.1377181,0.2297994,0.01201516,0.2380995
0.9712997,-0.01272453,-0.123957,0.120041,0.093025,0.2025293
0.9891612,-0.004228887,-0.123276,0.09214138,0.1482453,0.137881
0.9946189,-0.0618184,-0.105409,0.1923204,0.113577,0.09091212
0.9636726,-0.1203622,-0.1074161,0.2825546,0.07844489,0.09465022
1.02286,-0.1472416,-0.1445869,0.2592568,0.1173889,0.07312019
1.068858,-0.1703787,-0.1729401,0.1814679,0.1703805,0.001740133
1.12453,-0.1662578,-0.1778281,0.08823035,0.1735116,-0.1017822
1.177325,-0.1780898,-0.1253979,0.07601408,0.2065043,-0.2510443
1.218138,-0.2247498,-0.04040459,0.3473864,0.1980146,-0.3735619
1.321847,-0.3430411,-0.003369302,0.6768595,0.1354498,-0.4274145
1.352558,-0.4307608,-0.07277131,0.5448599,0.006670334,-0.5217436
1.233914,-0.344948,-0.2535539,-0.015876,-0.2749992,-0.5989904
1.059951,-0.2496407,-0.4407579,-0.6394743,-0.4484187,-0.533883
1.023257,-0.2511355,-0.4913743,-0.8420136,-0.2871606,-0.4923159
1.176694,-0.2986818,-0.371734,-0.3638361,0.1166812,-0.5194364
1.274597,-0.3916951,-0.2413852,0.03826353,0.6227228,-0.4350297
1.16313,-0.4340745,-0.1805137,0.009416686,0.9380098,-0.2315764
0.9096428,-0.2973122,-0.08686896,0.04830617,0.8185638,0.005883332
0.704467,-0.08336449,-0.009131801,-0.07722887,0.461702,0.1689408
0.7171144,-0.01092359,-0.03446208,-0.511051,0.03048435,0.2132176
0.8534199,-0.08875563,-0.1253133,-0.7970027,-0.1999828,0.2514805
0.9050522,-0.2146878,-0.1895645,-0.7945837,0.1367631,0.3074493
0.8892269,-0.3408243,-0.1423547,-0.5976355,0.3992647,0.3551995
0.881706,-0.3625712,-0.07626377,-0.4272596,0.2555061,0.3838867
0.844535,-0.2864663,-0.06701872,-0.3515459,0.2102748,0.3232041
0.8294725,-0.2571914,-0.04915542,-0.3292672,0.08210028,0.2476799
0.8371561,-0.2152719,-0.02803748,-0.3590356,-0.1114996,0.2322234
0.8352912,-0.134358,-0.02625315,-0.3036242,-0.1500213,0.2107777
0.8617287,-0.1350512,-0.02221128,-0.2283292,-0.2075736,0.2034083
0.8634154,-0.1364962,-0.004079232,-0.1486917,-0.2340932,0.2028327
0.8669018,-0.1192216,0.02469173,-0.0313485,-0.2899771,0.1606163
0.8895944,-0.1279722,0.03554933,-0.02131237,-0.3109267,0.08092408
0.9151728,-0.1034264,0.01371887,-0.08826982,-0.2392628,-0.01824666
1.008549,-0.1142282,-0.01495973,-0.2302936,-0.2342345,-0.03300925
1.115024,-0.1483079,-0.04333896,-0.3594743,-0.1763557,0.04151236
1.184444,-0.1670346,-0.06557699,-0.3298859,-0.1351037,0.07568753
1.208843,-0.1927347,-0.05846289,-0.2752908,-0.1285137,0.02505059
1.214789,-0.1303964,-0.05807001,-0.2769763,-0.02948817,-0.03456825
1.296996,-0.03679651,-0.0995624,-0.3611096,0.02490936,0.0001215346
1.436942,-0.06628804,-0.2145349,-0.4656734,0.03914776,0.14002
1.521692,-0.3145011,-0.3975277,-0.3710509,0.09530303,0.4015028
1.433288,-0.6833603,-0.4497588,-0.01718252,0.3359639,0.5893956
1.171054,-0.7571202,-0.2654305,0.3646738,0.7202895,0.3516108
0.8373536,-0.4840969,-0.06500068,0.3621071,0.8103593,-0.0971226
0.646863,-0.2473446,-0.03669405,-0.02809071,0.5190519,-0.3391779
0.7318614,-0.1506561,-0.1078335,-0.2808807,0.004220238,-0.2709662
0.8508017,-0.1643481,-0.1831162,-0.1799616,-0.4711879,0.05216205
0.9560036,-0.3278557,-0.2648176,0.0295593,-0.4367028,0.2939965
1.057904,-0.4939102,-0.2777956,0.2633075,-0.1685058,0.2293237
0.9805681,-0.4981454,-0.2079605,0.5395763,-0.1926018,-0.03069867
0.9401625,-0.4015144,-0.1925822,0.6160891,-0.2276897,-0.2978222
0.9129419,-0.2456414,-0.215461,0.4481544,-0.203963,-0.326829
0.7619948,-0.03880264,-0.2153646,0.2695458,-0.2813588,-0.1524002
0.7845924,-0.02857568,-0.2233277,0.08607796,-0.2758055,0.03168128
0.8609555,-0.1677625,-0.2267058,-0.01284976,-0.2771827,0.1779295
0.8839494,-0.1634081,-0.239487,0.05466852,-0.239493,0.2243787
0.9790825,-0.2049267,-0.2454253,0.06556118,-0.08317287,0.2107918
0.9493621,-0.2471703,-0.2208113,0.06423848,-0.0234281,0.1969695
0.8800283,-0.1606521,-0.2083919,0.1227474,0.01155652,0.1554697
0.9047175,-0.196105,-0.1932349,0.1293913,-0.0001625873,0.1397318
0.9041093,-0.168869,-0.1756826,0.1827651,-0.02433319,0.1711371
0.9454767,-0.09595225,-0.1626115,0.2459213,0.043686,0.1805474
0.9834377,-0.136324,-0.1410711,0.23239,0.04721462,0.1663691
0.9356525,-0.08165102,-0.1214024,0.2691745,0.04968788,0.1727497
0.9141135,-0.07892405,-0.09053457,0.3839411,0.03486608,0.2007354
0.9305759,-0.1187909,-0.0945315,0.5209737,0.000892648,0.2213763
0.969393,-0.1346623,-0.1476562,0.5848282,0.0587297,0.1761318
1.031001,-0.2045494,-0.1811665,0.5137828,0.1053183,0.1145345
1.069134,-0.1575633,-0.1861174,0.37908,0.1361354,0.09186628
1.110826,-0.1123512,-0.1726197,0.2363927,0.0988601,-0.05358011
1.173883,-0.1212952,-0.1331341,0.2339733,0.02124099,-0.2926168
1.235007,-0.1466563,-0.05598213,0.4702826,-0.005615859,-0.367688
1.317055,-0.265976,-0.01700843,0.5833504,-0.09938008,-0.3411945
1.376833,-0.3029708,-0.1205608,0.1413655,-0.1876231,-0.3661207
1.301355,-0.3050556,-0.3007187,-0.6557769,-0.2111761,-0.3036882
1.142127,-0.3588537,-0.4475379,-1.035616,-0.1854825,-0.1995851
1.070577,-0.3813167,-0.4658099,-0.7094403,0.03853427,-0.3105201
1.117407,-0.4325277,-0.3317547,-0.3051649,0.4240706,-0.4855291
1.147057,-0.4717525,-0.1795703,-0.08920508,0.7338383,-0.4799891
1.035568,-0.435114,-0.07731735,0.1056079,0.8037573,-0.2955427
0.8764598,-0.339578,-0.04904448,0.07140069,0.5422225,0.007923061
0.8134848,-0.2048709,-0.09337998,-0.1063942,0.07530697,0.1633503
0.829121,-0.1381184,-0.1280362,-0.3007146,-0.124513,0.1047201
0.8879901,-0.210714,-0.1735995,-0.5703823,0.02865249,0.0916526
0.9235578,-0.3085234,-0.2033088,-0.5704503,0.1820741,0.1056122
0.8964966,-0.3606047,-0.1516582,-0.3645777,0.3663486,0.1349835
0.8466139,-0.3976791,-0.09451744,-0.2429238,0.4918409,0.1980236
0.7920661,-0.3451818,-0.04944852,-0.1955727,0.3412809,0.1350334
0.7900677,-0.2643677,-0.01139854,-0.2729485,0.1548439,0.07202548
0.8243062,-0.2325364,-0.005794768,-0.2746297,-0.005046503,0.1210518
0.8415184,-0.1866675,-0.007183766,-0.2050581,-0.1373319,0.12579
0.8573333,-0.1770313,-0.009289548,-0.1855321,-0.1327022,0.09271946
0.8494235,-0.1515913,0.005480342,-0.07623485,-0.1957542,0.08808727
0.8400417,-0.1042619,0.0285145,-0.0101971,-0.2954107,0.07220265
0.8541931,-0.1037379,0.02865354,0.02831216,-0.2771831,0.005026772
0.8762169,-0.06137567,0.026081,0.01601765,-0.2526901,-0.1207235
0.9337325,-0.03858298,0.008694219,-0.2215457,-0.1979744,-0.1851478
1.020182,-0.08361974,-0.03530821,-0.4516504,-0.1730289,-0.04967494
1.102797,-0.1638754,-0.07476349,-0.4616773,-0.2517183,0.1563472
1.169799,-0.270861,-0.07616115,-0.233105,-0.2712559,0.2030955
1.218894,-0.2676422,-0.02678275,-0.02693425,-0.1756775,0.1039407
1.264149,-0.1189045,-0.0001395751,-0.1206064,0.01073597,0.05339613
1.333047,0.06780472,-0.08992297,-0.4729123,0.176852,0.1651148
1.441295,0.09018142,-0.2527038,-0.8296234,0.2344236,0.3142427
1.489421,-0.2126108,-0.3427417,-0.677663,0.3027538,0.4218087
1.322377,-0.6034125,-0.2995564,-0.139363,0.4889281,0.5311593
0.9988296,-0.704435,-0.1603153,0.1876556,0.699425,0.4159355
0.766596,-0.5283575,-0.02468485,0.1536747,0.6749229,0.02479197
0.7665058,-0.3726183,-0.04459192,-0.1908951,0.4412185,-0.2754181
0.8738079,-0.285284,-0.1558459,-0.4572096,0.09717816,-0.3063777
0.9371625,-0.2488961,-0.2119795,-0.4379413,-0.2825414,-0.1097929
1.020511,-0.38864,-0.2577366,-0.2507866,-0.287888,0.0495215
1.062393,-0.5424204,-0.2428733,0.1383172,-0.1275688,-0.04132005
0.9703083,-0.5459444,-0.1745532,0.480553,-0.2004358,-0.201827
0.9003525,-0.4425393,-0.1777154,0.6930366,-0.2121811,-0.3568813
0.8329901,-0.2744382,-0.1797438,0.7366796,-0.2450182,-0.390992
0.7609721,-0.1858629,-0.1900872,0.5502828,-0.3757047,-0.2001049
0.7896032,-0.1744298,-0.2272422,0.4822193,-0.3756936,-0.03946806
0.8319779,-0.1598568,-0.2352859,0.4319809,-0.3819138,0.06580293
0.9028081,-0.1741016,-0.267887,0.3093889,-0.3357434,0.1664047
0.9528439,-0.1718376,-0.2605822,0.2575826,-0.1694129,0.1830347
0.8877178,-0.1662187,-0.2239706,0.1915963,-0.05801172,0.1908855
0.8614543,-0.1688286,-0.2102873,0.2185134,-0.04595439,0.2032541
0.9079155,-0.1520672,-0.1646932,0.2465092,-0.09111104,0.2277177
0.9552342,-0.1407099,-0.1555327,0.2551998,-0.05236319,0.2516962
0.9804065,-0.1050631,-0.1408998,0.3122203,0.01338109,0.240011
0.9706251,-0.07635142,-0.0896684,0.2485005,0.04990348,0.2411873
0.9615357,-0.08900711,-0.0731805,0.2333036,0.1264948,0.2106914
0.9503513,-0.1140807,-0.05753985,0.3216157,0.1122189,0.1468264
0.9355095,-0.1571159,-0.08070225,0.4555026,0.05742519,0.1095359
0.9440204,-0.1826367,-0.1169405,0.6392134,0.03466622,0.117229
0.9927236,-0.1841203,-0.1247596,0.6570023,0.03816075,0.1216975
1.081447,-0.1995022,-0.1625975,0.5168306,0.0992308,0.02192565
1.153115,-0.1969734,-0.1616059,0.3175819,0.08698405,-0.1425219
1.177204,-0.1594483,-0.09540724,0.2118317,0.06511343,-0.2810755
1.239682,-0.1464638,-0.03725194,0.3634156,0.06477285,-0.3102449
1.336373,-0.2126547,-0.03144652,0.4569814,0.04149386,-0.2787339
1.336059,-0.3482827,-0.106426,0.1687328,0.05375483,-0.3506455
1.277866,-0.431666,-0.2250022,-0.3533863,-0.09882805,-0.4087835
1.160813,-0.3665411,-0.3453571,-0.7434078,-0.3109144,-0.3576644
1.01247,-0.3158655,-0.4138351,-0.7271912,-0.2473702,-0.356287
1.104341,-0.3886457,-0.3615534,-0.349852,0.1447605,-0.4797122
1.261166,-0.4397351,-0.256456,0.01457402,0.7236583,-0.5740559
1.187011,-0.4457263,-0.1614022,0.09782836,0.8930562,-0.4243688
1.029409,-0.4237246,-0.05826555,0.002548025,0.600491,-0.1837345
0.8164937,-0.2997417,-0.02739113,-0.1563703,0.3936077,-0.08428843
0.6930982,-0.14351,-0.0641139,-0.4023464,0.06191992,-0.01224481
0.788755,-0.09536581,-0.07668796,-0.5735968,-0.2626655,0.05919986
0.8327087,-0.2080611,-0.1037462,-0.4848229,-0.1408628,0.08399108
0.8625063,-0.367703,-0.1127846,-0.3188507,-0.00806324,0.1437331
0.9074655,-0.414297,-0.08062693,-0.1812917,0.06782707,0.166292
0.8354155,-0.357802,-0.07311561,-0.1169218,0.1706233,0.08260846
0.836481,-0.2813421,-0.04668161,-0.2434786,0.0532327,0.02436564
0.86413,-0.2350437,-0.01722396,-0.2707989,-0.04366369,0.04726837
0.846569,-0.1844962,-0.01073717,-0.1800501,-0.1177402,0.07973839
0.8818249,-0.1364963,0.009855853,-0.1355746,-0.239329,0.09869265
0.8544396,-0.1406824,0.01232438,-0.01205915,-0.2565051,0.1090017
0.8270645,-0.1059237,0.02191916,0.01140281,-0.3463344,0.07454874
0.8490384,-0.05790987,0.03581004,-0.0310107,-0.3854088,-0.01633616
0.8714198,-0.04499104,0.01334352,-0.07316989,-0.2851026,-0.108844
0.9721665,-0.0307632,-0.004609049,-0.2960388,-0.2485356,-0.1239067
1.074068,-0.09678377,-0.03308812,-0.4755617,-0.2219878,-0.01886494
1.141728,-0.1759817,-0.08038004,-0.4926405,-0.2278563,0.09106365
1.192915,-0.1868146,-0.09186664,-0.3826193,-0.2147986,0.07231536
1.21371,-0.1496409,-0.04426875,-0.2592808,-0.1245227,0.001191872
1.279517,-0.01850989,-0.02204175,-0.3584299,-0.09570178,-0.005909136
1.423055,0.05693221,-0.177436,-0.5603847,-0.06675443,0.1286361
1.575869,-0.1706925,-0.4091968,-0.6853246,0.05667349,0.4136445
1.50462,-0.6045222,-0.4421546,-0.4774348,0.2825592,0.6723179
1.187811,-0.788132,-0.2705801,0.135047,0.56337,0.7134708
0.8616869,-0.6199346,-0.09648555,0.4725057,0.8192757,0.4167141
0.6662323,-0.4371171,-0.03577621,0.09322595,0.8432292,-0.09902749
0.7373645,-0.2664595,-0.06570899,-0.4683259,0.3991182,-0.4089832
0.8830962,-0.1607391,-0.1276838,-0.5854446,-0.1697831,-0.360605
0.950481,-0.2769301,-0.2116312,-0.4048536,-0.4554309,-0.1161845
1.053685,-0.4154426,-0.2690839,-0.1767826,-0.4615309,0.1463856
1.007038,-0.5055379,-0.239297,0.2136725,-0.3139633,0.1412216
0.9373128,-0.5441363,-0.2081582,0.5721148,-0.2270511,-0.1125372
0.9363915,-0.4160722,-0.211505,0.6865582,-0.1965307,-0.2861061
0.7915596,-0.2675325,-0.1926221,0.6467693,-0.2293191,-0.2966292
0.7596111,-0.1852215,-0.2042604,0.5456715,-0.3500126,-0.17657
0.8245491,-0.1555627,-0.2393754,0.4573127,-0.4105375,-0.009032702
0.8728057,-0.1903655,-0.2712875,0.3471225,-0.4355957,0.1245745
0.9867461,-0.1745076,-0.3072233,0.2676797,-0.3141937,0.20443
0.9490687,-0.1870642,-0.2747169,0.2601248,-0.1037636,0.147467
0.8822568,-0.2401992,-0.2258328,0.2720066,-0.04847171,0.09113795
0.8995565,-0.2090643,-0.1970424,0.3563472,-0.02846793,0.1170941
0.8872614,-0.1828914,-0.1556204,0.4252072,-0.02776478,0.101568
0.9365883,-0.1202983,-0.1566205,0.4266461,-0.01736279,0.1226554
0.9704882,-0.05654254,-0.1377283,0.3995483,0.06744756,0.1540819
0.9559397,-0.06947745,-0.08393777,0.3545867,0.1191964,0.1341429
0.9519222,-0.04976686,-0.07244998,0.3718517,0.1370951,0.1323854
0.9387937,-0.06988075,-0.07638216,0.4292752,0.10047,0.1264951
0.9567718,-0.1066088,-0.1074259,0.5062803,0.07109044,0.1745981
0.9865534,-0.1139337,-0.1402443,0.5151331,0.08760278,0.2390108
1.05882,-0.1772443,-0.1293108,0.3567411,0.07915787,0.1945105
1.169568,-0.2218886,-0.1262645,0.153083,0.09666478,0.05282096
1.188624,-0.2147757,-0.1210285,0.05553057,0.1083326,-0.2165352
1.191087,-0.2114685,-0.05408762,0.2461468,0.09498237,-0.4540387
1.339133,-0.2814543,0.04687587,0.6385415,0.1058393,-0.4505879
1.477722,-0.3538102,0.0511661,0.7843399,0.1381779,-0.4331997
1.363597,-0.3144738,-0.1237272,0.3662965,0.1253198,-0.4968973
1.07445,-0.2822729,-0.3732862,-0.3477113,-0.07856006,-0.4267238
0.8618062,-0.2796993,-0.4782896,-0.6565567,-0.3388448,-0.3720953
0.9398577,-0.279068,-0.3801186,-0.568734,-0.3731744,-0.4406089
1.177621,-0.3367094,-0.2803572,-0.4143171,-0.08859549,-0.4334306
1.208203,-0.4148794,-0.212706,-0.129738,0.4525874,-0.3718692
1.052096,-0.4417943,-0.09849885,-0.01397189,0.7683534,-0.2543575
0.8341147,-0.3115281,-0.08624838,-0.1351712,0.5654821,-0.07988637
0.6836402,-0.1127088,-0.1400999,-0.3244536,0.3394906,0.02615666
0.746062,-0.07479552,-0.1274041,-0.7228484,0.2550288,0.09933105
0.7951567,-0.1341749,-0.1282612,-0.9099396,0.1153277,0.1284928
0.8072154,-0.1863295,-0.1136635,-0.6454703,0.1372947,0.1441019
0.8405842,-0.3007856,-0.06538845,-0.3697763,0.2032709,0.2120164
0.795783,-0.4090612,-0.03992708,-0.1621999,0.1448453,0.2212186
0.8219919,-0.3886214,-0.0217504,-0.04670408,0.1876948,0.153876
0.8437954,-0.3131136,-0.02515803,-0.1156242,0.1308361,0.07790285
0.8231415,-0.2266453,-0.002601444,-0.11899,-0.07690469,0.06314413
0.8597143,-0.1327599,0.03915565,-0.02621774,-0.2104906,0.1181182
0.8421242,-0.1246353,0.04107294,0.02937859,-0.3152335,0.137752
0.849811,-0.1425138,0.05330619,0.1433873,-0.3070533,0.100098
0.844666,-0.1119188,0.06105753,0.2191318,-0.2906081,0.03410612
0.8076031,-0.0860607,0.04258853,0.1764304,-0.3035461,-0.03153338
0.9042728,-0.05739532,0.01700113,0.07876625,-0.1652472,-0.04272953
1.018245,-0.06887968,-0.02045511,-0.1610129,-0.1090317,0.01052372
1.077174,-0.1455237,-0.05043788,-0.2930613,-0.2141678,0.06022207
1.1024,-0.2094584,-0.05437447,-0.1134534,-0.317112,0.03273937
1.166594,-0.2029973,-0.005888717,0.007077259,-0.3116484,-0.02477387
1.333552,-0.06735904,0.01950346,-0.1334748,-0.1717219,-0.01848644
1.458043,0.07118862,-0.1129563,-0.4342344,-0.04814726,0.1415908
1.513355,-0.02212084,-0.3157162,-0.7253389,0.01612042,0.4088747
1.472007,-0.3609816,-0.3709797,-0.6272353,0.05160376,0.5645216
1.271345,-0.7362221,-0.2560405,-0.06743377,0.3036026,0.5795698
0.9936819,-0.7865476,-0.1107585,0.3015263,0.6940929,0.3603274
0.773446,-0.5123486,-0.0247726,0.06157179,0.6062015,-0.09962775
0.782569,-0.3320927,-0.06437141,-0.3110334,0.2119431,-0.2361479
0.8665821,-0.2768241,-0.1590726,-0.3572254,-0.1013762,-0.02415686
0.8775584,-0.2607826,-0.1889967,-0.2126909,-0.315456,0.1137537
0.9964211,-0.3820307,-0.2411517,0.03633481,-0.2527188,0.2290712
1.051,-0.5057663,-0.2524081,0.4270937,-0.217006,0.08890045
0.9405808,-0.5308811,-0.1682894,0.6679768,-0.3451963,-0.2758676
0.8750122,-0.4246261,-0.1622018,0.6772495,-0.3259251,-0.3193154
0.790251,-0.229621,-0.1828458,0.5627231,-0.3367871,-0.1917048
0.7369397,-0.1412211,-0.2005335,0.3111834,-0.3494894,-0.06958604
0.7830794,-0.1257041,-0.2476158,0.1680944,-0.2744133,0.126203
0.8119451,-0.1499188,-0.2493492,0.1189238,-0.2703767,0.2330035
0.8826853,-0.1918308,-0.2599906,0.03619115,-0.1510675,0.2572838
0.94261,-0.1787892,-0.2432949,0.04682109,0.01357938,0.2349336
0.9186403,-0.1938219,-0.1898848,0.06339776,0.04587249,0.1901054
0.9100174,-0.1817536,-0.1679936,0.09840375,0.03481308,0.1852061
0.9125262,-0.1353069,-0.1383993,0.141623,0.008406731,0.1885014
0.92385,-0.1146069,-0.1349805,0.1106662,0.03003289,0.2291485
0.9572468,-0.07390664,-0.1159355,0.1046128,0.04375477,0.2400816
0.9682098,-0.08292018,-0.07770338,0.1081765,0.06111853,0.1805632
0.9609346,-0.1315405,-0.08512956,0.2134036,0.09384474,0.1137981
0.968517,-0.1822494,-0.08169359,0.4518892,0.0353317,0.046789
1.011235,-0.2267107,-0.1152522,0.5977156,0.02877239,0.03007705
1.088786,-0.1995418,-0.1789515,0.5472893,0.09435809,0.02163119
1.165471,-0.1492608,-0.1858463,0.3285295,0.1640891,-0.04855094
1.21556,-0.1215265,-0.1329734,0.1275333,0.1969621,-0.1983884
1.294106,-0.198709,-0.02951166,0.1727307,0.1201853,-0.3893165
1.400945,-0.4123114,0.01152928,0.4008537,0.0847524,-0.462251
1.405625,-0.5438209,-0.08668113,0.4252006,0.1010594,-0.4930614
1.24914,-0.4895199,-0.2610801,-0.09020781,0.03451934,-0.5664837
1.00968,-0.3707333,-0.3960639,-0.8069595,-0.1879071,-0.5090805
0.9066858,-0.2990789,-0.3975241,-0.8941067,-0.3840094,-0.4290558
1.098537,-0.3162056,-0.3266796,-0.3875862,-0.07049483,-0.5023944
1.295041,-0.405687,-0.256167,-0.0853584,0.5664417,-0.5364369
1.200711,-0.4848704,-0.1626179,-0.02721984,0.917314,-0.4538025
0.9664762,-0.459101,-0.06248071,-0.0195458,0.8932163,-0.3582715
0.7254035,-0.318814,-0.02185239,-0.1618181,0.511531,-0.2029002
0.628171,-0.1372954,-0.04522529,-0.3461292,0.002348072,-0.05005069
0.7790906,-0.08871888,-0.07287998,-0.5347854,-0.1201205,-0.011705
0.8578385,-0.2235871,-0.08659717,-0.5481787,0.01724807,0.01581711
0.8340482,-0.3382904,-0.08623776,-0.3466889,0.05672441,0.0739654
0.8767385,-0.3519762,-0.07276864,-0.2139499,0.1281568,0.09930746
0.8719146,-0.3067228,-0.06507925,-0.1993151,0.2048092,0.07678294
0.891615,-0.2260063,-0.03890706,-0.2869001,0.1483929,0.01901896
0.8884903,-0.1624264,0.005782276,-0.3055118,0.05588902,-0.02432739
0.8206033,-0.1097168,0.01997823,-0.256492,-0.1141403,0.001263639
0.8486905,-0.09761126,0.02333202,-0.232116,-0.2705868,0.05463345
0.8342771,-0.1189437,0.04789693,-0.06826842,-0.2639393,0.03691352
0.8136745,-0.08606527,0.05611618,0.06653421,-0.2816893,-0.03040112
0.8872029,-0.03947607,0.03706182,0.0571781,-0.2701779,-0.1212902
0.9518888,-0.02010209,0.01350291,-0.1193553,-0.09990536,-0.2038818
1.037422,-0.04053472,-0.0120206,-0.4230258,-0.01035711,-0.1554878
1.077088,-0.100364,-0.03864585,-0.4753955,-0.1392966,-0.01293485
1.106802,-0.1236534,-0.0647117,-0.3126687,-0.3235541,0.1564611
1.206307,-0.1212024,-0.04912224,-0.1465993,-0.2912212,0.2318328
1.279336,-0.1126856,0.02699177,-0.05489499,-0.08889076,0.0889171
1.353354,-0.09621794,0.041396,-0.2026544,0.09324663,0.04432331
1.472812,-0.12146,-0.1337228,-0.4739262,0.3171825,0.2717218
1.577432,-0.2317087,-0.3668338,-0.5800296,0.4965638,0.4474465
1.391947,-0.4890393,-0.3583338,-0.3627996,0.5273485,0.3953774
0.963536,-0.677462,-0.1494556,0.07442673,0.5276398,0.2885192
0.8113677,-0.5133382,-0.05382241,0.2932984,0.5754551,0.2177772
0.850715,-0.3114413,-0.1139754,-0.04184266,0.4979211,0.05017347
0.8595798,-0.3309799,-0.1941947,-0.4584474,0.194445,0.02857156
0.9488124,-0.353784,-0.226302,-0.3698537,-0.007832832,0.2945591
1.006267,-0.4176833,-0.2204606,-0.1442707,-0.04979313,0.3842365
1.018381,-0.5388978,-0.1664899,0.08668933,-0.07064128,0.1888986
0.9791681,-0.4814881,-0.06891097,0.5453618,-0.1632315,-0.1030083
0.8775197,-0.3591353,-0.07767389,0.7642565,-0.4469675,-0.2950837
0.8533309,-0.2844212,-0.1264649,0.709794,-0.5602326,-0.2471281
0.8341273,-0.1702416,-0.1318882,0.6308396,-0.4906516,-0.1138972
0.8067384,-0.08944528,-0.2081754,0.3859691,-0.4853865,0.1075802
0.8233836,-0.0979689,-0.2163079,0.2418598,-0.3790423,0.2678375
0.8634848,-0.1489096,-0.1734587,0.244166,-0.3191643,0.2332577
0.9214209,-0.1470202,-0.207609,0.1845966,-0.3086667,0.2487995
0.9214276,-0.1262113,-0.1918091,0.1856802,-0.2098588,0.2664381
0.9156301,-0.1565399,-0.1782467,0.1844945,-0.1425329,0.2649554
0.9339306,-0.1462465,-0.1756121,0.1741612,-0.06937816,0.2891885
0.9263074,-0.1455522,-0.1288519,0.2087304,-0.02564747,0.2515844
0.9305057,-0.132969,-0.1231136,0.2164857,-0.01474294,0.2381248
0.9398846,-0.05709238,-0.1058485,0.218639,-0.0005706824,0.2511909
0.9534767,-0.05870051,-0.08833644,0.2124959,0.009701588,0.251516
0.9624292,-0.09939214,-0.1113872,0.273679,0.06546945,0.2042485
0.9696409,-0.1588131,-0.1056791,0.4046393,0.06603918,0.1239509
0.9913449,-0.2265829,-0.1070776,0.5240607,0.06444284,0.1125783
1.025214,-0.2126676,-0.1187846,0.5735807,0.09276329,0.08183587
1.116089,-0.1672365,-0.1153079,0.3859615,0.01218297,-0.02917242
1.193678,-0.1205259,-0.1256622,0.09578156,-0.02754621,-0.1546686
1.255072,-0.1417443,-0.09962542,-0.0009899414,0.08047768,-0.2183877
1.423243,-0.2456785,-0.03071722,-0.001202328,0.1757892,-0.2372285
1.531292,-0.3885918,-0.01668334,-0.2047019,0.1351206,-0.3409828
1.399581,-0.5261692,-0.136644,-0.6086085,-0.01878767,-0.4577204
1.17707,-0.4967198,-0.3187929,-0.7736497,-0.2756431,-0.4648994
1.016676,-0.4402834,-0.3557458,-0.4284512,-0.4706489,-0.4484077
1.000549,-0.470676,-0.2670738,0.08751381,-0.1675459,-0.4883526
1.072099,-0.4138831,-0.2083156,0.3198156,0.3468788,-0.4984075
1.016012,-0.3735153,-0.1395789,0.3033386,0.4539141,-0.3567537
0.9048054,-0.360691,-0.07927965,0.1931467,0.410735,-0.1436991
0.8265645,-0.2757622,-0.08630237,-0.108022,0.4131882,-0.07957423
0.7639276,-0.2341957,-0.08900218,-0.4840726,0.336735,-0.1731021
0.8284265,-0.2015973,-0.07874467,-0.6373519,0.2282295,-0.1952494
0.8455336,-0.1953271,-0.06034251,-0.5079666,0.0456149,-0.09441355
0.8144698,-0.2668414,-0.03447658,-0.3094636,-0.0585167,0.02156943
0.8970916,-0.3044354,-0.04390944,-0.1809933,-0.02079604,0.1141984
0.9133499,-0.3188949,-0.05066851,-0.1165956,-0.009112573,0.1132081
0.9182691,-0.2975313,-0.03426486,-0.207447,0.00349156,0.07310478
0.9132088,-0.2441717,-0.02773259,-0.2653196,-0.02086182,0.0923394
0.8429923,-0.2099285,-0.01802371,-0.2093583,-0.07095848,0.1094036
0.8453939,-0.1535668,0.001325812,-0.2532677,-0.08733391,0.1177342
0.8137531,-0.1383222,0.02513572,-0.2238638,-0.1737733,0.08956489
0.7981437,-0.1404418,0.06665868,-0.114454,-0.3471126,0.03476888
0.8445639,-0.09750334,0.1010058,-0.04450785,-0.4607041,0.0519732
0.8580111,-0.07721138,0.06555889,-0.01102448,-0.3653698,0.03868346
0.9300765,-0.07837657,-0.005024633,-0.1227091,-0.2449509,-0.02814407
1.004576,-0.1433262,-0.02479158,-0.1902423,-0.2838439,-0.0004006467
1.040487,-0.2348934,-0.04803471,-0.1400473,-0.3308471,0.08178999
1.070724,-0.2385259,-0.08430752,-0.01753086,-0.3550893,0.1023571
1.128849,-0.2099039,-0.04192621,0.1289408,-0.3259569,0.04487561
1.2562,-0.1535869,-0.009592837,-0.005341385,-0.2495505,0.03321608
1.344045,-0.05153118,-0.09148734,-0.2597769,-0.2331041,0.2207941
1.482227,-0.06719843,-0.238036,-0.3227987,-0.01760215,0.4955042
1.609629,-0.3437486,-0.3480716,-0.1581974,0.42971,0.5443647
1.365501,-0.6337973,-0.2896113,0.2311179,0.7809795,0.2627599
0.9397194,-0.5722259,-0.1054879,0.3961908,0.9499716,-0.06032145
0.7230061,-0.3551833,0.008602157,-0.03599504,0.689652,-0.1820228
0.7219612,-0.2723338,-0.02545533,-0.4549405,0.06384089,-0.1622933
0.8637151,-0.2573325,-0.1413381,-0.2240828,-0.3136139,0.0201808
1.041215,-0.3719345,-0.2309129,0.09802219,-0.3608443,0.2482481
1.118624,-0.5739327,-0.2840675,0.1744,-0.1143709,0.1454626
1.067957,-0.6196651,-0.2563889,0.4641835,0.2340263,-0.1924011
0.946225,-0.5106516,-0.1459256,0.6739796,0.1132649,-0.4618813
0.8109276,-0.3264696,-0.1107509,0.6627229,-0.17641,-0.5616253
0.703981,-0.1841559,-0.1116183,0.6910277,-0.3739988,-0.3518415
0.7173599,-0.1584775,-0.1314677,0.5629491,-0.6425311,-0.06786734
0.800789,-0.1768035,-0.2067261,0.5011251,-0.6335632,0.09345552
0.8575984,-0.2234173,-0.2283692,0.53694,-0.4712951,0.2261637
0.9276133,-0.2362723,-0.2484823,0.4484811,-0.3127813,0.1499029
0.926945,-0.206042,-0.236573,0.3841996,-0.07754458,0.08655706
0.8889396,-0.1718027,-0.1699061,0.3261785,-0.04902692,0.1903316
0.9139458,-0.1285422,-0.1562661,0.3800539,-0.05792155,0.178861
0.9140856,-0.1120127,-0.1341972,0.4382305,-0.04807421,0.2359951
0.9409467,-0.07489684,-0.1357441,0.3720925,-0.1084308,0.3018192
0.9747074,-0.05495966,-0.1457492,0.3496515,-0.02754245,0.2513863
0.9655665,-0.05677825,-0.1161914,0.2486131,0.0590469,0.2695999
0.9828102,-0.03230387,-0.1180671,0.2166041,0.1336209,0.2350359
0.9634877,-0.08465557,-0.09560447,0.3172656,0.171728,0.2023493
0.9534917,-0.1607084,-0.09125747,0.3810098,0.0685565,0.2072977
1.000456,-0.2166102,-0.1306791,0.4474293,0.02905166,0.1709155
1.079041,-0.2457229,-0.143086,0.3247746,0.05534357,0.1363373
1.207344,-0.2026323,-0.1353686,0.1115531,0.1037098,-0.06668518
1.280323,-0.206165,-0.06002318,0.1168297,0.1529654,-0.3583246
1.312088,-0.2695252,0.02702039,0.3249885,0.1406929,-0.4864718
1.374926,-0.364054,0.01814614,0.5128603,0.1178017,-0.4936807
1.375018,-0.4368469,-0.1061417,0.3154047,0.0194165,-0.5246795
1.24005,-0.3898314,-0.3060892,-0.1654578,-0.1698387,-0.5525059
1.069228,-0.3636692,-0.421716,-0.5619889,-0.363768,-0.4232791
1.073624,-0.3939065,-0.383958,-0.6455054,-0.4010365,-0.3418664
1.192222,-0.3805967,-0.2875537,-0.2549751,-0.04377456,-0.4921748
1.201485,-0.3812226,-0.1857037,0.1566201,0.5295074,-0.5837183
1.072504,-0.3837955,-0.08414221,0.172344,0.8064559,-0.4146745
0.8581319,-0.3161666,-0.05263528,0.04695706,0.770533,-0.1815139
0.7214157,-0.200668,-0.07922774,-0.1891051,0.6802653,-0.1360743
0.7230084,-0.1145935,-0.06600846,-0.5964138,0.3942226,-0.1456177
0.7331854,-0.1300358,-0.05808221,-0.8115778,0.02570753,-0.04546679
0.7907961,-0.2334825,-0.06704447,-0.6725302,-0.09244728,0.1004461
0.8913128,-0.371417,-0.05735491,-0.4431989,-0.03961528,0.2343656
0.9254413,-0.4611445,-0.05755527,-0.1801862,0.1039489,0.2159193
0.9071584,-0.4112596,-0.04085572,0.04338949,0.2366892,0.1077996
0.8508562,-0.2709537,-0.004946809,-0.05554841,0.2102587,0.05031108
0.8002568,-0.1349181,0.03873168,-0.1229667,0.01641497,0.003894089
0.8100916,-0.08625867,0.05616,-0.005015084,-0.2231892,0.06674626
0.8520486,-0.1261027,0.03378054,-0.03611858,-0.2841778,0.1667714
0.8693643,-0.09610661,0.05001708,0.05643431,-0.2653279,0.1681186
0.8455722,-0.05131514,0.07629161,0.1612229,-0.3326165,0.1599146
0.8384573,-0.04343427,0.0764057,0.04834735,-0.3669262,0.1225768
0.8834379,0.0483987,0.05624281,-0.04881461,-0.2885207,0.07040369
0.9896297,0.05973465,-0.01062012,-0.375358,-0.1617819,0.07566992
1.117445,-0.05240162,-0.06674868,-0.7393984,-0.1187738,0.1428323
1.167345,-0.1633569,-0.08074214,-0.675598,-0.2077434,0.2337225
1.152021,-0.2708612,-0.06068715,-0.4041545,-0.3048748,0.2339625
1.211335,-0.2512375,-0.04993612,-0.2355728,-0.2521049,0.2067265
1.414934,-0.1715195,-0.1703076,-0.3854025,-0.123872,0.2668634
1.651655,-0.204434,-0.3825693,-0.6115624,0.1002739,0.3986456
1.721771,-0.4223712,-0.4744294,-0.5253569,0.5786994,0.5453059
1.415315,-0.7324292,-0.3336645,-0.268739,0.9178103,0.5002162
0.8922073,-0.7004519,-0.1163396,-0.1069207,0.8753939,0.2172524
0.5958025,-0.401508,0.01890556,-0.34585,0.7122633,-0.1243612
0.5076867,-0.2302911,0.09783907,-0.769598,0.2845194,-0.3094317
0.6159868,-0.1657652,0.02457014,-0.7169551,-0.3971025,-0.08734956
1.001802,-0.2432276,-0.1881557,-0.3770365,-0.6329025,0.2651103
1.239189,-0.3496736,-0.3180306,-0.07007111,-0.3317506,0.3443799
1.161186,-0.4067675,-0.3242361,0.1644743,-0.143146,0.2554089
0.9799889,-0.518743,-0.2390778,0.1255981,-0.003728439,0.03315004
0.8267594,-0.4584191,-0.1757205,0.2135889,0.12069,-0.1872435
0.7837377,-0.3129737,-0.1777126,0.4298542,-0.1574404,-0.2056283
0.7629567,-0.2194032,-0.1616582,0.3041841,-0.3920486,-0.1091283
0.7896776,-0.07854209,-0.2165589,0.2070702,-0.3806156,0.07264172
0.8891527,-0.09870552,-0.2805632,0.1558488,-0.3385045,0.224973
0.9349034,-0.1601471,-0.2643085,0.03806347,-0.156415,0.2746271
0.9289481,-0.131011,-0.2399349,0.09535823,-0.0339551,0.2601756
0.8875708,-0.1443093,-0.1940128,0.08240766,0.01747683,0.2282173
0.873088,-0.1040841,-0.175491,0.05639112,0.008572511,0.2677473
0.923805,-0.1073336,-0.1529864,0.1154187,-0.05421826,0.2479062
0.9954748,-0.1376644,-0.08296186,0.1185683,0.1228321,0.1786822
1.03675,-0.1089744,-0.06307672,0.2762707,0.2866171,0.05109026
0.9924913,-0.1729438,-0.08712094,0.5522216,0.301667,-0.1624283
0.9544174,-0.2290269,-0.1252633,0.7710912,0.2946773,-0.1445931
0.9709946,-0.2316828,-0.1550363,0.7770375,0.2690149,-0.005945816
1.055081,-0.2211791,-0.157334,0.4233185,0.3559243,-0.01225652
1.226724,-0.205002,-0.1377619,0.1670696,0.4031296,-0.1976777
1.352926,-0.3072707,-0.0767747,0.4420224,0.413108,-0.5214473
1.429863,-0.473074,-0.02679849,0.6644009,0.5248718,-0.6383058
1.471776,-0.5717247,-0.1058612,0.1386652,0.5504943,-0.5684985
1.335095,-0.5182314,-0.2510655,-0.5789832,0.2443742,-0.4851764
1.041657,-0.3820331,-0.2537754,-0.7318878,-0.3224564,-0.2790296
0.8561122,-0.3271719,-0.2066441,-0.4189076,-0.4833747,-0.171058
1.004915,-0.3412918,-0.2111274,0.04287384,-0.1212868,-0.1958185
1.24305,-0.4139278,-0.1601403,0.2466015,0.3354462,-0.1377465
1.214567,-0.4589976,-0.1343396,0.1466842,0.8116181,-0.1211366
1.026557,-0.4163772,-0.0951976,0.05874607,0.8792427,-0.1532018
0.7990378,-0.3126593,0.0190692,-0.1040486,0.4523016,-0.2016918
0.6740998,-0.149609,0.04262686,-0.3978257,0.07177212,-0.293567
0.7679015,-0.1329556,0.002041097,-0.5807618,-0.1832348,-0.233389
0.7978292,-0.2109245,-0.01874781,-0.5016705,-0.2469323,-0.07267329
0.8188767,-0.2383893,-0.03333475,-0.3335438,-0.09136094,0.01379522
0.9350772,-0.3522747,-0.03943205,-0.250253,0.01045626,0.04323459
0.9045426,-0.3840385,-0.03736194,-0.2707379,0.02867854,-0.0009575242
0.8710361,-0.3100338,-0.01669022,-0.3843683,0.0003226893,-0.03025234
0.8697198,-0.3263356,0.01402971,-0.3565285,-0.07543177,-0.0270442
0.8246056,-0.3005749,0.05243691,-0.2451461,-0.1680477,-0.03757815
0.8691773,-0.2502277,0.07005504,-0.146254,-0.2609743,0.04426137
0.8848701,-0.2331259,0.06684881,0.03848244,-0.2736186,0.128481
0.8694459,-0.1629236,0.07785001,0.08152024,-0.2794647,0.1291733
0.8809363,-0.09630232,0.06870405,0.0746694,-0.3375025,0.1102963
0.871347,-0.04349659,0.03985051,0.06030177,-0.3728602,0.07912055
0.9285911,-0.03330611,-0.01364724,-0.133317,-0.3690906,0.07378583
1.024447,-0.127855,-0.07953505,-0.3163548,-0.2416249,0.0666302
1.081191,-0.2464709,-0.09073856,-0.387589,-0.1045651,0.04431418
1.081593,-0.2950271,-0.06782014,-0.1777514,-0.1575282,0.009701229
1.098953,-0.209282,-0.003079179,0.131983,-0.2641188,-0.06742926
1.175645,-0.03884332,0.07041396,0.08914554,-0.3674735,-0.06188699
1.250077,0.05827797,0.002544049,-0.1901077,-0.4018475,0.1074869
1.480453,-0.02399421,-0.1805573,-0.5414353,-0.07448105,0.3184264
1.709697,-0.2628264,-0.3276129,-0.6369202,0.3708167,0.4154468
1.478476,-0.5389626,-0.3430843,-0.2780482,0.4710293,0.4534079
1.034488,-0.7313185,-0.2173815,0.05986783,0.5402473,0.4211709
0.7895377,-0.6694003,-0.09017541,0.08958888,0.7017453,0.1026712
0.6761746,-0.4472928,-0.01979085,-0.1016086,0.5325616,-0.2494406
0.6676829,-0.3146261,0.04226007,-0.2463174,0.1048222,-0.2632149
0.7952746,-0.2356663,0.006440544,-0.1674416,-0.4524771,-0.0824987
1.018731,-0.2971357,-0.1199855,-0.01721924,-0.7181181,0.00157829
1.194376,-0.4427686,-0.2111227,0.1800275,-0.2241375,-0.1127048
1.129268,-0.4654582,-0.2303976,0.3988179,0.1508492,-0.2709815
0.9596382,-0.4400617,-0.1626629,0.5218271,-0.002353952,-0.3521104
0.801342,-0.2896991,-0.1164818,0.553248,-0.1494883,-0.3100945
0.6788999,-0.1497862,-0.1527948,0.3693214,-0.421555,-0.1672797
0.7391327,-0.1588897,-0.1739624,0.1059913,-0.6428099,-0.05662316
0.8393524,-0.1653381,-0.2028083,0.14675,-0.5454071,0.07161929
0.9363581,-0.2432937,-0.2313282,0.2849036,-0.3870472,0.1273163
1.037671,-0.2623302,-0.214956,0.3054087,-0.1782091,0.06254043
0.9596252,-0.2066536,-0.1911227,0.3640592,-0.04298772,0.08932725
0.9054948,-0.1950292,-0.1374158,0.3559893,-0.0782227,0.1191385
0.9251039,-0.1320779,-0.08840968,0.3304055,-0.08810836,0.1243126
0.8969767,-0.1276613,-0.08180522,0.3955111,-0.07388154,0.1663329
0.9448323,-0.1227341,-0.06159114,0.4080638,-0.07130574,0.1580985
0.9637794,-0.1113176,-0.0390228,0.4944779,-0.03485366,0.1395891
0.9488592,-0.1601718,-0.0412027,0.6787531,-0.01496666,0.08981298
0.9758448,-0.1386781,-0.06348479,0.8276096,-0.04147735,0.04653327
0.9888453,-0.1427153,-0.09956463,0.9049002,-0.04544774,0.06484215
1.073936,-0.1443218,-0.115904,0.7779759,-0.01931296,0.07129806
1.161093,-0.1231055,-0.09336729,0.529941,-0.0004504711,0.0573433
1.205722,-0.1633686,-0.03794079,0.327761,0.007714785,-0.1036078
1.29141,-0.2152296,0.03506631,0.3326294,0.01147044,-0.3362465
1.357164,-0.3338061,0.05849978,0.627586,0.02507705,-0.3760958
1.353972,-0.391608,-0.05748899,0.7622916,0.01201265,-0.4080245
1.217309,-0.3115859,-0.2698274,0.3668938,-0.0802786,-0.5227176
1.026021,-0.282564,-0.4147225,-0.2338791,-0.2834514,-0.4412995
0.9951093,-0.3283275,-0.412635,-0.433005,-0.4007891,-0.3190114
1.095635,-0.3718283,-0.3487061,-0.2133272,-0.1129909,-0.3974716
1.151617,-0.37825,-0.2961932,0.02267864,0.3655642,-0.4367904
1.101929,-0.3955474,-0.1503748,0.3150425,0.6070626,-0.399853
1.030163,-0.4252519,0.03273313,0.4615601,0.5984537,-0.3226153
0.9530024,-0.3656691,0.003439977,0.2425055,0.4583994,-0.1088941
0.8324273,-0.1667639,-0.08528035,-0.01157776,0.2239926,-0.01017855
0.7434569,0.02772727,-0.04640311,-0.4009539,-0.03010471,-0.003655543
0.7740059,-0.0663699,-0.07391459,-0.6708416,-0.1177549,0.08134804
0.8574447,-0.285235,-0.1128585,-0.3890438,-0.01369327,0.09319576
0.8354788,-0.3420989,-0.04481717,-0.1683032,0.06068917,0.1024138
0.8114491,-0.3852065,-0.01804161,-0.1254985,0.08223864,0.09099394
0.8495868,-0.3585435,-0.01206914,-0.04278953,0.04985794,0.0209194
0.8144168,-0.2177723,0.007676043,-0.1421561,-0.09850564,0.0449377
0.8232001,-0.1609495,0.009940699,-0.1524496,-0.2155175,0.07472357
0.8617343,-0.1313066,0.02855895,-0.0713007,-0.3041504,0.1106423
0.8517868,-0.127876,0.03616914,-0.05722627,-0.353928,0.1626261
0.8846581,-0.1337798,0.05577465,0.06545186,-0.3014205,0.1511679
0.873968,-0.08873289,0.06172205,0.09065579,-0.3137462,0.1118379
0.8820244,-0.07957103,0.02660842,0.002589482,-0.2977457,0.002132432
0.9600165,-0.04951817,0.01803778,-0.1478755,-0.2071402,-0.05855174
1.029554,-0.0709501,0.005222899,-0.4094998,-0.2122541,0.008500263
1.143806,-0.1555658,-0.02174702,-0.451194,-0.214821,0.06335285
1.211368,-0.1872497,-0.04631224,-0.3212754,-0.1813423,0.08643617
1.233464,-0.2230507,-0.03433572,-0.3098161,-0.09305273,0.01787046
1.287259,-0.123902,-0.00730349,-0.3928754,0.05096401,-0.02325628
1.353447,-0.001193594,-0.109675,-0.4602698,0.1595727,0.2218757
1.481558,-0.1391221,-0.2651405,-0.4075573,0.4400486,0.4689327
1.495612,-0.3856506,-0.3111573,-0.2340989,0.7582009,0.3761896
1.19397,-0.5590859,-0.216908,0.08898325,0.6572643,0.2203361
0.7933483,-0.5102318,-0.07421294,0.2963066,0.4111904,0.1236681
0.7110756,-0.3341666,-0.06041403,-0.0744845,0.319695,-0.03098949
0.928778,-0.2910261,-0.1435806,-0.5034483,0.07509357,0.1049969
1.02641,-0.3155585,-0.2290438,-0.3418008,-0.1928619,0.3887305
1.007436,-0.4363925,-0.2670033,-0.04305149,-0.1805703,0.3206314
1.021658,-0.6075453,-0.2143135,0.2458447,-0.1511075,0.1233281
0.9938366,-0.5720591,-0.1781423,0.673911,-0.237576,-0.1458203
0.9605958,-0.4012216,-0.175384,0.7630813,-0.3206006,-0.364127
0.8883793,-0.2190605,-0.1736098,0.6258598,-0.3369204,-0.2389429
0.7937996,-0.116221,-0.1923166,0.5331071,-0.3467932,-0.1098677
0.7678639,-0.1514765,-0.1883523,0.2778044,-0.4106704,0.03810799
0.7516485,-0.1540615,-0.198785,0.1361177,-0.4063623,0.2623316
0.7869067,-0.1470052,-0.2195945,0.1488016,-0.3783568,0.2973122
0.8783863,-0.1987585,-0.209156,0.07726074,-0.2800782,0.3227909
0.9300718,-0.2157263,-0.2078213,0.05579681,-0.03271483,0.3049841
0.9308516,-0.2320096,-0.1952455,0.07426106,0.09722478,0.2057555
0.8998673,-0.2315491,-0.1589515,0.1469429,0.08568874,0.198395
0.8928279,-0.1923478,-0.1139567,0.2945045,0.05228164,0.187693
0.9226297,-0.147371,-0.08250062,0.3566958,0.02308159,0.2066804
0.9581867,-0.08034109,-0.08991862,0.3478953,0.04992362,0.2254478
0.9794449,-0.06900881,-0.08639442,0.4089805,0.08543712,0.1966171
0.9828861,-0.122148,-0.07273183,0.5481456,0.1219643,0.2021041
1.004848,-0.1728505,-0.08747994,0.6089482,0.1368768,0.1644657
1.033525,-0.2089822,-0.1058908,0.5590567,0.1170894,0.1232085
1.057095,-0.1904289,-0.1165234,0.3828583,0.1074663,0.07235137
1.106006,-0.1528404,-0.1115852,0.03121804,0.06724809,-0.08503766
1.206875,-0.1551673,-0.07016493,-0.1183189,0.03630643,-0.2946256
1.334182,-0.2272063,-0.01206237,0.185074,0.09883866,-0.4343762
1.374732,-0.3789426,-0.01761316,0.413028,0.1852633,-0.4122821
1.294733,-0.4516468,-0.1578734,0.1566415,0.1420568,-0.3966149
1.137044,-0.3959316,-0.3428891,-0.2811916,-0.0931002,-0.3741608
1.003753,-0.3858977,-0.3878873,-0.601584,-0.4063418,-0.2520389
1.078197,-0.4254307,-0.3131208,-0.6087854,-0.5135006,-0.3386805
1.255496,-0.4399518,-0.2677945,-0.2072342,-0.1485206,-0.5224452
1.270092,-0.4530648,-0.2219874,0.1799586,0.4341436,-0.5312401
1.102809,-0.4125946,-0.1340202,0.2580305,0.6818226,-0.4586909
0.8615781,-0.3073385,-0.07823606,0.04730876,0.6161768,-0.2963977
0.7685871,-0.2369347,-0.08214001,-0.4070028,0.4941172,-0.1884039
0.8265419,-0.1774927,-0.1137886,-0.8175079,0.2402109,-0.1654223
0.7847528,-0.1059646,-0.1046401,-0.9473649,-0.02587181,-0.06254383
0.7966272,-0.1643538,-0.08941506,-0.7637064,-0.05531593,0.02683741
0.8891914,-0.3299693,-0.104249,-0.5177419,0.04913622,0.1121593
0.8345278,-0.4033384,-0.07374491,-0.3628498,0.1070795,0.1693249
0.8215358,-0.3859886,-0.06216735,-0.2357632,0.1075176,0.1573886
0.8680087,-0.3360206,-0.06599183,-0.3220335,0.1109882,0.1518066
0.8455899,-0.2402752,-0.02860427,-0.3768699,0.05230519,0.1059727
0.8578348,-0.1709057,-0.02065049,-0.305789,-0.09761778,0.1140407
0.8585616,-0.1360877,0.002284732,-0.3550221,-0.1794857,0.1565488
0.8477578,-0.1081329,0.02602803,-0.2385345,-0.21983,0.1521095
0.8493916,-0.09960302,0.02358826,-0.1080625,-0.2985918,0.1885132
0.8310574,-0.07355795,0.04470662,-0.09319028,-0.3112199,0.1691563
0.8836533,-0.05851069,0.02692967,-0.08652993,-0.2204912,0.1087329
0.9815363,-0.07911486,-0.01051518,-0.3726141,-0.07131522,0.0754601
1.061942,-0.1338006,-0.03329462,-0.6361854,-0.01201258,0.0700394
1.115358,-0.2382513,-0.06137938,-0.5248344,-0.1559822,0.1669898
1.137084,-0.2978231,-0.07139021,-0.2418196,-0.2532548,0.2052425
1.198027,-0.2538475,-0.06359864,-0.03496753,-0.08508374,0.08977898
1.260093,-0.12721,-0.0272273,-0.09395992,0.07627126,0.003737473
1.279377,0.02124279,-0.03825156,-0.3524201,0.03207117,0.1029194
1.367437,-0.02109737,-0.2288554,-0.5665655,0.06092239,0.3110217
1.468948,-0.3246108,-0.4846311,-0.510867,0.2231848,0.4771852
1.356783,-0.5658056,-0.4765206,-0.3179194,0.3381956,0.5706674
1.012206,-0.5218543,-0.196437,-0.05931311,0.5345477,0.33903
0.724687,-0.4394263,-0.03219954,0.2159335,0.6988729,-0.1056211
0.7989808,-0.4074833,-0.09730395,-0.02258845,0.4776608,-0.2318144
1.000554,-0.2676347,-0.1755756,-0.3680589,0.0685815,-0.1623067
1.005836,-0.2833475,-0.2025674,-0.1765719,-0.1605164,-0.03709402
1.061909,-0.4584738,-0.2470176,0.0313578,-0.1691422,0.1245595
1.051013,-0.4360677,-0.2196265,0.2444569,-0.1235477,-0.007255514
0.8559235,-0.4098953,-0.1224098,0.5845596,-0.2187937,-0.2447015
0.8796583,-0.3902794,-0.1478688,0.5736326,-0.3438106,-0.2774382
0.8489242,-0.2249977,-0.1723786,0.4254587,-0.3717001,-0.175523
0.7137751,-0.1407451,-0.1449261,0.315616,-0.4341524,0.01771424
0.8010648,-0.1475989,-0.1944771,0.1722561,-0.4675047,0.1578232
0.8372983,-0.1954639,-0.1979504,0.196637,-0.4050334,0.2039876
0.8992296,-0.1900391,-0.2254225,0.1713361,-0.2929786,0.2670965
0.9897719,-0.1541656,-0.2728214,0.08781636,-0.07782447,0.2842211
0.9122075,-0.1994562,-0.2017545,0.09759866,0.03629763,0.2606857
0.8862631,-0.1365043,-0.1590407,0.06041918,-0.05324498,0.2774845
0.8870465,-0.1031513,-0.1465187,0.08488821,-0.06888355,0.3206585
0.8903423,-0.1193355,-0.1302643,0.09037681,-0.01217727,0.3725044
0.9328583,-0.04886228,-0.1190647,0.02242348,-0.006483986,0.3802357
0.9442767,-0.06804044,-0.0890358,0.02094018,0.02871322,0.3016492
0.9646018,-0.09837464,-0.1094411,0.05692691,0.05117199,0.1681577
0.9671258,-0.164614,-0.1183529,0.2388415,0.03982218,0.0748279
0.9971662,-0.2696678,-0.1212442,0.4842009,0.1088891,0.1268743
1.069141,-0.2779012,-0.1514928,0.5570264,0.1676357,0.1583646
1.122258,-0.2514557,-0.1354074,0.3896785,0.107978,-0.05141712
1.199267,-0.1555479,-0.1110557,0.1251958,0.0546388,-0.3064593
1.311032,-0.1141459,-0.07160012,0.06919218,0.08117462,-0.3701788
1.405643,-0.225174,-0.03312727,0.147728,0.1165396,-0.3317277
1.394347,-0.3955292,-0.07223899,0.1216322,0.1064927,-0.3627446
1.28467,-0.5041764,-0.185776,-0.1607272,0.02657815,-0.4286502
1.153316,-0.4379879,-0.3307807,-0.6206161,-0.1170834,-0.4017303
1.065779,-0.4042802,-0.3611111,-0.7509956,-0.1846454,-0.4099033
1.080643,-0.4431661,-0.292589,-0.4874279,0.02510933,-0.496526
1.134264,-0.4253054,-0.2686919,-0.1845055,0.4506942,-0.4923186
1.153958,-0.4504688,-0.1812316,0.06281639,0.6939682,-0.4145834
1.058708,-0.4609599,-0.05410792,0.1359506,0.5995387,-0.2946544
0.8446289,-0.3677618,-0.05011442,-0.02184548,0.4186382,-0.1870903
0.7258807,-0.2328558,-0.06864834,-0.2471603,0.190165,-0.1206634
0.7537447,-0.1677324,-0.07055901,-0.5018387,-0.03414358,-0.02715406
0.811292,-0.2243217,-0.09712456,-0.6346194,-0.06152845,0.001162713
0.8630076,-0.2993625,-0.09105178,-0.4095466,-0.04589773,0.01939121
0.8746728,-0.3684729,-0.07752279,-0.1300028,-0.03742992,0.0896086
0.8548534,-0.4095341,-0.06984808,-0.05283362,0.03017878,0.09487903
0.8414557,-0.3512738,-0.05353291,-0.04451066,0.03253127,0.08073863
0.8303523,-0.2812555,-0.0428246,-0.09659709,0.002348009,0.05726966
0.8254275,-0.2193208,-0.02547344,-0.1061333,-0.07794504,0.04150432
0.8411402,-0.131134,0.001510586,-0.06337545,-0.2424212,0.09004596
0.8566332,-0.09857982,0.04655264,-0.03917191,-0.3266417,0.1374571
0.8437668,-0.09123162,0.0657527,0.05151655,-0.3465712,0.1593917
0.844148,-0.064729,0.04984411,0.07157177,-0.355433,0.1194691
0.8912479,-0.04426502,0.04500661,-0.01819389,-0.2745683,0.04530647
0.977375,-0.02779187,0.005922818,-0.2033277,-0.1745649,0.01013427
1.081766,-0.09062386,-0.04126471,-0.5048449,-0.171786,0.01980487
1.149035,-0.2016318,-0.05822429,-0.6031104,-0.26252,0.1069448
1.191473,-0.2670202,-0.08246959,-0.3886538,-0.328776,0.1604317
1.258324,-0.2882851,-0.07699833,-0.1477956,-0.2456682,0.06554091
1.349936,-0.2118874,-0.08394603,-0.0837963,-0.1599952,0.02034445
1.519592,-0.1415047,-0.1874062,-0.09092995,-0.1789502,0.2642766
1.701046,-0.2690414,-0.3229694,0.1073352,0.01201448,0.5632193
1.591545,-0.5268857,-0.3669608,0.4584786,0.5395399,0.5312858
1.199571,-0.68127,-0.2740342,0.5769233,0.9478643,0.3462346
0.8183062,-0.5599626,-0.12576,0.3530695,0.875077,0.1229351
0.5907226,-0.3232002,0.00390708,-0.03003044,0.5733917,-0.2722375
0.6723197,-0.2067209,0.0313407,-0.4590125,0.2063966,-0.4421502
0.8671709,-0.1737379,-0.0720734,-0.5694919,-0.3329459,-0.2342457
0.9549009,-0.2563874,-0.1684083,-0.2636533,-0.5516719,-0.07135019
1.112602,-0.4241405,-0.2462911,0.02127113,-0.281784,-0.0194465
1.087822,-0.4747671,-0.2762001,0.3696917,-0.1281306,-0.03238533
0.9289788,-0.4335081,-0.1972104,0.6261686,-0.07866161,-0.1511911
0.9071037,-0.3363265,-0.1639893,0.4884523,-0.06869633,-0.2216919
0.7618779,-0.2014814,-0.1647828,0.370975,-0.2443919,-0.203261
0.7333787,-0.1481598,-0.1609683,0.1808068,-0.356227,-0.1233701
0.842435,-0.1627381,-0.2096572,-0.01670545,-0.4069439,0.02927936
0.8505342,-0.1956623,-0.2286117,0.07461983,-0.3560577,0.1745369
0.9515969,-0.2071922,-0.2353985,0.0506689,-0.1557791,0.2574659
0.937245,-0.1958273,-0.228415,0.03501734,-0.02697279,0.2485953
0.8686964,-0.1799926,-0.1887153,0.09693915,0.04908674,0.2218449
0.9022056,-0.1424111,-0.1667087,0.03774355,0.0146027,0.2465429
0.8731369,-0.1197528,-0.1319358,0.07935485,-0.0348397,0.2500947
0.9252871,-0.09757473,-0.1185359,0.08844831,-0.000497225,0.2682391
0.9693003,-0.09252585,-0.1063647,0.1034594,-0.04549552,0.2983284
0.9683398,-0.1312124,-0.0813805,0.2517704,0.02670693,0.2746463
1.007007,-0.1870889,-0.0889802,0.4252889,0.1390656,0.2233384
0.9937498,-0.2584121,-0.08590884,0.7088882,0.1049273,0.1307547
1.03953,-0.2611033,-0.1224426,0.8174119,0.1185347,0.07509615
1.108051,-0.1942285,-0.1657559,0.5437678,0.1196354,0.04631857
1.155125,-0.1371726,-0.1319041,0.1514216,0.0963888,-0.1754418
1.229842,-0.1411024,-0.066288,-0.007503189,0.1221497,-0.4927712
1.299662,-0.2663184,0.03590051,0.28187,0.2046353,-0.6032011
1.376733,-0.4460184,0.06992276,0.5419155,0.3323344,-0.5748506
1.327609,-0.5238829,-0.09633259,0.3158992,0.2422783,-0.5931873
1.145182,-0.4035561,-0.3307463,-0.1480851,-0.1465942,-0.5599713
1.015866,-0.2922782,-0.4258451,-0.576732,-0.6311271,-0.4473541
1.084103,-0.3826437,-0.3853702,-0.6075761,-0.7472315,-0.3950258
1.275828,-0.4691645,-0.3165361,-0.05647109,-0.1074048,-0.4680084
1.270278,-0.4975003,-0.1991633,0.3908387,0.6615259,-0.5952817
1.055824,-0.4840377,-0.07465627,0.3604568,0.8310945,-0.5419876
0.7830596,-0.3316766,-0.03965255,0.2055826,0.6765528,-0.3175583
0.6469643,-0.1674201,-0.04958023,-0.04104337,0.461002,-0.1188509
0.7677818,-0.08836743,-0.08090098,-0.3884808,0.09195836,-0.02495835
0.8326009,-0.1462628,-0.1175646,-0.5852362,-0.0830742,-0.05428414
0.871542,-0.2981661,-0.1096413,-0.4894914,0.05833418,0.0053486
0.9465346,-0.3659044,-0.09144407,-0.2906373,0.1163893,0.0815012
0.8651769,-0.372978,-0.08552067,-0.1607851,0.1779504,0.02251168
0.8525291,-0.3044628,-0.06070811,-0.08384594,0.2348627,0.0485799
0.8548139,-0.199554,-0.02170742,-0.1982546,0.06571803,0.03065435
0.8016206,-0.1652969,0.005529882,-0.2611285,-0.06846068,-0.01130817
0.8737067,-0.1141804,0.01835747,-0.1451996,-0.1905056,0.07924531
0.8887735,-0.1034412,0.03086892,-0.1153647,-0.313201,0.1383895
0.8742229,-0.1192567,0.04652495,-0.002172182,-0.297706,0.2335136
0.8885834,-0.0729979,0.05570964,0.1045084,-0.3378774,0.2529701
0.8601998,-0.04764811,0.05990787,0.09092529,-0.3090482,0.1204703
0.9043115,-0.03279024,0.0507702,0.003378598,-0.215903,0.02249127
1.006695,-0.05449807,-0.004507001,-0.3378335,-0.2291053,-0.02571257
1.145055,-0.1260008,-0.0760837,-0.6120304,-0.2380735,0.07623122
1.220697,-0.2157627,-0.0793558,-0.552061,-0.267398,0.1953236
1.235573,-0.2697243,-0.02589018,-0.3191393,-0.1739846,0.1646775
1.318359,-0.1728682,-0.009195298,-0.1659947,0.04340727,0.0878173
1.329395,-0.04611454,-0.07957465,-0.276175,0.1193003,0.004851119
1.396143,-0.04216307,-0.2348721,-0.4071071,0.06637581,0.08176836
1.531425,-0.3027072,-0.4073664,-0.3871776,0.06610683,0.3052179
1.40845,-0.7370941,-0.4723868,-0.1934216,0.3711916,0.4453716
1.232948,-0.8241791,-0.3994509,0.2022927,0.7587408,0.3964565
1.052435,-0.5985283,-0.2433,0.3910352,0.8745878,0.1315811
0.6802774,-0.3741189,-0.04048176,-0.03802537,0.833251,-0.1716606
0.5744352,-0.1576236,0.04275037,-0.6114195,0.4103667,-0.2950317
0.8371183,-0.2079252,-0.1018216,-0.6490045,-0.3228134,-0.1271422
1.043783,-0.4140031,-0.2586629,-0.4032874,-0.4831851,0.1372156
1.193444,-0.4193257,-0.3098357,-0.1151185,-0.1695957,0.1639361
1.142384,-0.4562181,-0.2723627,0.3426763,-0.1427485,-0.02409892
0.8973779,-0.4991942,-0.156988,0.6314093,-0.1671324,-0.2733871
0.861872,-0.3737682,-0.1342668,0.6032649,-0.1581265,-0.2953485
0.8088642,-0.245398,-0.1679996,0.4839523,-0.3377844,-0.09721693
0.7407428,-0.1390742,-0.1683582,0.3542099,-0.3439998,-0.00795714
0.8631732,-0.1292155,-0.2133835,0.3035905,-0.309188,0.1067077
0.875587,-0.166256,-0.2119681,0.333145,-0.3586963,0.2102795
0.9301499,-0.1355714,-0.2005213,0.320149,-0.194023,0.209854
0.9880843,-0.1489693,-0.2231779,0.2710578,-0.04245202,0.2487921
0.8902277,-0.1265047,-0.1885162,0.238243,-0.03671397,0.2343789
0.915067,-0.09289369,-0.1717658,0.1977058,-0.07002793,0.2742923
0.9204573,-0.1095612,-0.1585194,0.1781565,-0.0680114,0.3176451
0.9246875,-0.08572274,-0.1231421,0.1761037,-0.02052905,0.2618965
0.9969549,-0.08936346,-0.1064231,0.1667504,-0.01980501,0.2753538
0.983281,-0.111324,-0.1013928,0.2508817,0.04867153,0.2239786
1.000629,-0.1525978,-0.1235246,0.4101005,0.1202579,0.1472571
1.006664,-0.2060227,-0.1320927,0.536824,0.121697,0.1507893
1.028487,-0.1932121,-0.1550142,0.551139,0.141941,0.1341671
1.078808,-0.1578834,-0.1843435,0.3484977,0.1054624,0.09253441
1.100675,-0.1226677,-0.1536326,0.02745989,0.06581832,-0.05643437
1.23519,-0.1593082,-0.09935642,-0.05466839,0.08544632,-0.233379
1.348512,-0.2916259,-0.0172693,0.3134086,0.1716701,-0.312634
1.365829,-0.4229851,0.00855398,0.6587867,0.273251,-0.3790125
1.327944,-0.4440945,-0.08990973,0.4252141,0.2299847,-0.458433
1.151321,-0.2984556,-0.2365449,-0.1845372,0.02545914,-0.4528897
0.9526269,-0.2064,-0.3670514,-0.8220283,-0.2672413,-0.3950931
0.934553,-0.3013417,-0.3523761,-1.044423,-0.3744522,-0.4423297
1.116529,-0.4439054,-0.2561943,-0.5700861,-0.1026218,-0.4529977
1.215743,-0.5446031,-0.2209388,-0.02341482,0.3157754,-0.3873897
1.111557,-0.5354469,-0.1395167,0.2940772,0.6154057,-0.3755636
0.9504388,-0.430859,-0.06663765,0.3664477,0.6157241,-0.2985027
0.7646665,-0.2842556,-0.0709404,0.008137414,0.3334847,-0.206404
0.7091323,-0.1270474,-0.05388027,-0.2787775,0.01526648,-0.1349098
0.8174553,-0.1086324,-0.07427958,-0.4250424,-0.1811309,-0.0516116
0.9076347,-0.2303392,-0.1100705,-0.4992301,-0.157957,-0.01030509
0.9732291,-0.320755,-0.1014009,-0.2435398,0.04111395,0.05882562
0.9903176,-0.3436393,-0.09892616,-0.125532,0.2042387,0.06877033
0.9450195,-0.2933724,-0.07673219,-0.1561957,0.2536586,0.0453462
0.9188412,-0.2077342,-0.05322484,-0.2305734,0.206607,0.07477628
0.8961334,-0.1800626,-0.02451512,-0.3984906,0.1244365,0.06977629
0.8742607,-0.1649541,0.01748436,-0.2716639,0.007129415,0.1085525
0.8859436,-0.1496494,0.02116968,-0.1476149,-0.1419892,0.1392482
0.8717658,-0.1387656,0.03218818,-0.08969772,-0.1738458,0.1232087
0.8334173,-0.08361187,0.04730747,0.04079257,-0.2083107,0.1229442
0.8375325,-0.03529998,0.04181019,-0.02511897,-0.2836818,0.07234063
0.8764593,-0.01077273,0.01976076,-0.1137088,-0.2303106,0.04102854
0.9680305,-0.03208577,-0.02987983,-0.2903116,-0.1508029,0.03262226
1.083934,-0.1186197,-0.05001327,-0.5279316,-0.04745251,0.02858939
1.129525,-0.1959931,-0.0570169,-0.5363134,-0.02193137,0.04978927
1.120362,-0.2269761,-0.06361812,-0.3779942,-0.1555848,0.02671168
1.135387,-0.155556,-0.01296351,-0.1414328,-0.1730079,0.00591581
1.175767,-0.009637373,0.03013796,-0.120525,-0.08819449,-0.03277732
1.188529,0.08163951,-0.005270726,-0.3828521,-0.0128578,-0.04540922
1.276073,-0.007446386,-0.1321143,-0.6265996,0.02493075,0.1086484
1.454555,-0.3442182,-0.3474104,-0.6551644,0.08582801,0.291536
1.46855,-0.6381395,-0.4657669,-0.3609856,0.371294,0.3536794
1.300575,-0.6370622,-0.3080959,0.1043386,0.7244553,0.3036925
1.08546,-0.582346,-0.1177277,0.3738894,0.9157793,0.09652303
0.8603732,-0.5132626,-0.1176049,0.06232523,0.8395253,-0.2408136
0.7773603,-0.2378037,-0.1372771,-0.4643064,0.4249482,-0.3185859
0.8338196,-0.1135057,-0.1700545,-0.517194,-0.05132919,-0.008814684
0.8857678,-0.2738705,-0.2559216,-0.3807707,-0.1452483,0.1743192
0.9645786,-0.3642385,-0.2328114,-0.1098961,0.02314946,0.06232404
1.010388,-0.5427996,-0.1385165,0.5246662,-0.08916825,-0.175832
0.9428383,-0.652776,-0.07018346,0.9572428,-0.2650987,-0.4586171
0.87728,-0.4128381,-0.07028283,0.9498533,-0.2869743,-0.503311
0.8443049,-0.2463899,-0.1330434,0.8006781,-0.401344,-0.2742257
0.830156,-0.1281796,-0.1562843,0.6681693,-0.3426653,-0.05558212
0.8590709,-0.03798728,-0.1749505,0.5535109,-0.2659847,0.09213128
0.8857528,-0.1103466,-0.1841358,0.4343538,-0.3335805,0.212501
0.9317648,-0.08891545,-0.1613808,0.357674,-0.2448038,0.2462899
0.9755971,-0.1040765,-0.1744902,0.2712907,-0.218418,0.1927393
0.9511993,-0.1511143,-0.1573297,0.233272,-0.1939344,0.1618862
0.9506848,-0.1186037,-0.1346356,0.2279704,-0.103473,0.1763894
0.9828739,-0.131702,-0.147944,0.1475395,-0.08644215,0.1838939
0.9827021,-0.0831516,-0.1183642,0.1303901,-0.02075547,0.1969406
0.9758911,-0.04709221,-0.08414738,0.1348905,-0.04820548,0.2509128
0.9556805,-0.05780938,-0.06498394,0.1353437,-0.06949239,0.3075847
0.9441109,-0.04954385,-0.05469705,0.2002362,-0.02137435,0.3117959
0.9618986,-0.0978075,-0.07170136,0.2616861,-0.05923156,0.2740538
0.9768961,-0.1302565,-0.09716608,0.3536078,-0.03863523,0.1901327
0.9988925,-0.1486633,-0.1421022,0.3894151,-0.02737096,0.1083755
1.029058,-0.1532585,-0.1749652,0.3024448,-0.02844315,0.09440278
1.073174,-0.1367564,-0.1671009,0.1960094,0.002636832,0.04643692
1.134438,-0.1476445,-0.131659,0.1417589,-0.04655183,-0.09375504
1.185151,-0.139176,-0.07257461,0.2399387,-0.04215301,-0.1810927
1.226318,-0.1805775,-0.03115654,0.4666384,0.06366865,-0.1858856
1.263434,-0.2758512,-0.02886118,0.6212913,0.1450999,-0.3071414
1.286332,-0.3235826,-0.05338268,0.446456,0.03851513,-0.5042139
1.229753,-0.3124329,-0.1248093,-0.03682452,-0.2125986,-0.5186537
1.05885,-0.2953623,-0.2801661,-0.4759962,-0.3329665,-0.4569666
0.9451351,-0.3579713,-0.4251525,-0.5835978,-0.2762131,-0.5136483
1.036014,-0.4353495,-0.3922758,-0.2301488,0.0220334,-0.5560144
1.148965,-0.4897663,-0.2505792,0.2303126,0.4912103,-0.5426934
1.102484,-0.5132371,-0.1460063,0.4064224,0.7154989,-0.5059884
1.026711,-0.3966969,-0.07741093,0.433946,0.6297156,-0.3462233
0.9619215,-0.1985801,-0.04904841,0.2183227,0.4228408,-0.1597446
0.8734301,-0.02085565,-0.05868939,-0.2823976,0.1272169,-0.06221875
0.8824313,0.02355928,-0.0911747,-0.715944,-0.06661603,0.001861579
0.9301988,-0.1070045,-0.1282647,-0.8504213,0.01727816,0.05712456
0.9473369,-0.2066515,-0.1148751,-0.5619969,0.1269006,0.116129
0.9538318,-0.2542036,-0.07316983,-0.2100004,0.1671086,0.1333689
0.9140221,-0.3232535,-0.043989,-0.159789,0.2357641,0.1119894
0.9064896,-0.2693767,-0.03831183,-0.1701078,0.1874874,0.1199288
0.8974488,-0.1437227,-0.03341582,-0.1619339,0.08855645,0.1462965
0.8771201,-0.1585474,0.009349092,-0.1490433,-0.02260463,0.2144073
0.9219616,-0.1905345,0.01943507,-0.05431863,-0.1521959,0.2840448
0.9257148,-0.1323276,0.0105395,0.03627778,-0.1267134,0.2751934
0.9005053,-0.1223687,0.03658525,0.07147646,-0.155718,0.2205328
0.8867137,-0.09478577,0.03272542,0.03858801,-0.2589147,0.1598159
0.8821729,-0.01614885,0.02867123,-0.005490873,-0.2544902,0.1089715
0.9033732,0.03629682,0.03640002,-0.05956128,-0.2534039,0.07310776
0.8850683,-0.07008021,-0.0891083,-0.5026907,0.09795342,-0.1509378
0.9585166,-0.1562038,-0.1143786,-0.9512744,0.09157741,-0.02453096
1.04642,-0.1891496,-0.1150993,-0.9430333,0.1849915,0.04904384
1.050271,-0.2821032,-0.1203728,-0.756871,0.3410863,0.07275176
0.976767,-0.3551358,-0.08719269,-0.7276994,0.3798403,0.09366672
0.9654187,-0.3496023,-0.06223123,-0.692979,0.3745878,0.09282234
0.9395978,-0.348762,-0.06313679,-0.736291,0.2840599,0.07443375
0.8839437,-0.2782152,-0.03920335,-0.7642417,0.194622,0.1146409
0.9020649,-0.2616629,-0.03733029,-0.7001344,0.2021092,0.1567409
0.9259726,-0.3046664,-0.03684168,-0.651774,0.1984582,0.1603903
0.9374381,-0.2498778,-0.01558742,-0.574526,0.1631142,0.1533327
0.9379592,-0.246593,0.003654572,-0.5157046,0.06746079,0.1235676
0.9190854,-0.2238225,0.01696303,-0.488666,-0.03178001,0.1122751
0.9229473,-0.1512038,0.01182054,-0.4647338,-0.08065161,0.1053569
0.9242086,-0.1542594,0.01117355,-0.4669157,-0.09352095,0.08998475
0.925897,-0.09951027,0.01097034,-0.4754314,-0.1034991,0.09878254
0.918562,-0.06265686,5.224184e-05,-0.5221609,-0.1726092,0.1080795
0.9074875,-0.07373589,-0.01488018,-0.5950717,-0.1929687,0.129539
0.9572634,-0.08144403,-0.03814409,-0.6659295,-0.1421843,0.1469008
1.031658,-0.1776129,-0.04510906,-0.7080642,-0.07375389,0.13674
1.069112,-0.2480792,-0.03481389,-0.6437101,-0.0106628,0.1046136
1.05831,-0.2545942,-0.02335192,-0.5018074,-0.04661455,0.0426644
1.03547,-0.1972205,-0.005164797,-0.3827481,-0.1195733,0.009733016
1.023148,-0.069089,0.01298484,-0.4114716,-0.2040899,0.02850775
1.024188,0.005685752,-0.0124246,-0.6060499,-0.3159167,0.1224086
1.138492,0.0006276647,-0.09782047,-0.7702179,-0.3227888,0.3189872
1.353524,-0.1212272,-0.1845961,-0.7672149,-0.09309976,0.442212
1.447271,-0.3153712,-0.2467653,-0.6247287,0.3930214,0.3960213
1.321518,-0.4679045,-0.2632747,-0.4059603,0.748634,0.3315408
1.121275,-0.5215048,-0.1735966,-0.1425503,0.6680756,0.2528873
0.9654148,-0.4442367,-0.03261465,-0.009340599,0.5144168,0.07871526
0.8738821,-0.3431343,0.01270355,-0.1736413,0.4166258,-0.09065745
0.8676336,-0.250337,-0.04449749,-0.3573655,0.1107121,-0.1554792
0.8587623,-0.2076449,-0.123451,-0.4079959,-0.1917145,-0.02386445
0.8602569,-0.3043965,-0.2483649,-0.4840732,-0.2264251,0.2277658
0.9661266,-0.4329599,-0.3358845,-0.4731212,-0.03910843,0.2695401
1.014013,-0.5374913,-0.2759209,-0.3221277,0.261722,0.1188938
0.9699687,-0.5635471,-0.1980174,-0.08497285,0.3389295,-0.05508381
0.932364,-0.442441,-0.1287421,0.1933492,0.1253752,-0.246734
0.8854165,-0.2936046,-0.07860395,0.2700566,-0.09420429,-0.2922912
0.8931128,-0.2006929,-0.1472874,0.1605755,-0.2646736,-0.2205633
0.9222819,-0.1750599,-0.1937042,0.07647368,-0.3303758,-0.1538351
0.9271626,-0.1930407,-0.19296,0.009911836,-0.2948424,0.01663919
0.9494867,-0.2031776,-0.222142,-0.06768133,-0.2425797,0.1744621
0.9446884,-0.2330445,-0.1873609,-0.1118859,-0.1567974,0.1543514
0.9324069,-0.2625796,-0.1522595,-0.09585198,-0.1294774,0.08221802
0.9368052,-0.2468353,-0.1598888,-0.04412982,-0.1739208,0.06942993
0.9510747,-0.2181983,-0.1492856,0.02621568,-0.2142087,0.09646507
0.9828936,-0.19271,-0.1569414,0.0788492,-0.2304774,0.1477282
0.9875741,-0.1830124,-0.1609691,0.08053959,-0.191096,0.1820805
0.9786296,-0.1865156,-0.1526167,0.07990547,-0.1343015,0.1652248
0.9784444,-0.1758156,-0.1448866,0.06703773,-0.1192145,0.1437279
0.9681828,-0.1704962,-0.1252683,0.05872095,-0.1163714,0.1257736
0.9653039,-0.1720512,-0.1238796,0.1118715,-0.05464444,0.1240653
0.9768994,-0.1697661,-0.1264419,0.1964697,0.03681836,0.1317635
0.9810886,-0.1762852,-0.1242883,0.2867262,0.09134723,0.08181095
0.9667151,-0.1683532,-0.1293592,0.3195254,0.09487163,0.009011418
0.9526203,-0.1538523,-0.1340603,0.2811664,0.0554528,-0.04450794
0.960676,-0.1606221,-0.1441451,0.2615697,0.01297117,-0.0578107
0.9965537,-0.1723323,-0.1522506,0.2735975,-0.04029459,-0.04808958
1.068237,-0.1847291,-0.1528163,0.2899387,-0.04875984,-0.08713915
1.152152,-0.1854302,-0.1319647,0.364634,0.03451715,-0.1460359
1.208647,-0.1795711,-0.08142544,0.5522724,0.1021825,-0.1943223
1.269657,-0.188821,-0.02712275,0.6722498,0.1302321,-0.208526
1.320604,-0.1815513,-0.01291682,0.5354088,0.1037258,-0.2172608
1.271167,-0.1505734,-0.09035044,0.2305468,-0.03130732,-0.2726605
1.193399,-0.1249405,-0.2253738,-0.1613377,-0.1592259,-0.25691
1.180706,-0.1707789,-0.2942873,-0.4191987,-0.08621068,-0.2205995
1.165483,-0.3773029,-0.2558843,-0.2804613,0.1609005,-0.2706553
1.092546,-0.628618,-0.2117121,-0.02244188,0.3792576,-0.3228047
0.981407,-0.6683434,-0.1965692,0.2091916,0.470892,-0.4115844
0.895664,-0.5157076,-0.132404,0.500405,0.3508417,-0.4449759
0.8384692,-0.3104558,-0.075668,0.5000725,0.1039494,-0.3050617
0.8332432,-0.07559087,-0.1036729,0.2182769,-0.02208711,-0.113739
0.9129646,-0.06298415,-0.1305737,-0.07280757,0.005995517,0.06516662
0.9479455,-0.2637799,-0.1207514,-0.3250855,0.08803741,0.08633783
0.9802992,-0.30904,-0.1289958,-0.2985784,0.08582703,-0.01406846
1.008645,-0.3437984,-0.1336107,-0.1643358,0.1297326,-0.0003116696
0.9146196,-0.375926,-0.09861084,-0.1289614,0.2486395,0.02094022
0.8872316,-0.2904468,-0.0642787,-0.0371638,0.1798982,0.04673549
0.8786722,-0.3118501,-0.03550602,0.003010055,0.1156666,0.1224366
0.8339653,-0.251183,-0.005581576,0.03758887,0.04866805,0.104271
0.9044098,-0.1544954,-0.0101864,0.030448,-0.09700936,0.1000037
0.9339737,-0.1821242,-0.01979364,-0.06126098,-0.0552934,0.1539214
0.9429566,-0.1301425,-0.0153401,-0.04542859,-0.01773814,0.1794339
0.9613662,-0.1483785,-0.003032671,-0.06147584,-0.03083324,0.1949405
0.9139087,-0.1625907,0.02869515,-0.06534259,-0.04190698,0.1791454
0.903138,-0.1063931,0.04957765,-0.02112637,-0.1652945,0.1723035
0.8770015,-0.139227,0.06102578,-0.04265336,-0.2221647,0.174866
0.8704895,-0.1171669,0.0674564,-0.005297262,-0.2425966,0.1359529
0.8877202,-0.113809,0.05833076,-0.007390115,-0.2630008,0.07135581
0.8744521,-0.1226943,0.04252646,-0.05959615,-0.2445024,-0.02248166
0.935544,-0.09364584,0.01045618,-0.112163,-0.252703,-0.0671623
1.007483,-0.1297908,-0.007251246,-0.2078971,-0.1870999,-0.03574176
1.07898,-0.1262716,-0.009203264,-0.2269664,-0.1204408,-0.01983689
1.156386,-0.1386948,-0.02037836,-0.2346391,-0.1223079,0.007833171
1.20245,-0.1680973,0.005714993,-0.2382182,-0.07236159,0.09507387
1.288551,-0.1662586,0.02124209,-0.1956765,-0.004901651,0.256993
1.399172,-0.2375616,-0.07641203,-0.1499711,0.03540263,0.540146
1.521006,-0.340334,-0.1992256,0.03573846,0.2389143,0.6988086
1.504064,-0.4214248,-0.1979821,0.2711022,0.60293,0.3642206
1.240708,-0.3843491,-0.1008861,0.2424795,0.6647364,-0.1281209
0.9311489,-0.2644213,-0.00576019,-0.1210409,0.4165534,-0.2931903
0.7680892,-0.1979064,0.03652205,-0.4606597,0.08610681,-0.2916795
0.8361452,-0.1759508,-0.04266925,-0.3986868,-0.4371714,-0.04593603
0.9055529,-0.287089,-0.2242607,-0.177677,-0.6389819,0.4740807
0.8905686,-0.4453856,-0.3626966,-0.1138862,-0.2217002,0.6204896
1.01301,-0.5202978,-0.3583058,-0.0836084,0.1593835,0.338894
1.058757,-0.5817565,-0.2604371,0.001627269,0.3161555,-0.01533956
0.9810921,-0.5402021,-0.1935004,0.06179642,0.3160037,-0.4099691
0.9541282,-0.39132,-0.138273,0.03553988,0.05675146,-0.5116142
0.8527392,-0.2304709,-0.08918821,-0.01495297,-0.2608782,-0.28983
0.7882361,-0.1270911,-0.1350835,0.004591837,-0.4936967,-0.129097
0.8018404,-0.1688836,-0.1990878,-0.01466118,-0.5484988,0.07326563
0.8159813,-0.2201462,-0.251049,-0.1173638,-0.3757925,0.2377686
0.90086,-0.245289,-0.2915069,-0.2157163,-0.1359028,0.1603747
0.923399,-0.2872622,-0.2508887,-0.2842784,0.05265595,0.1234785
0.8785554,-0.247369,-0.2031161,-0.2206485,0.09093804,0.1263305
0.8660085,-0.2260465,-0.1565746,-0.06827219,0.02859474,0.1142696
0.8620732,-0.2285009,-0.1160387,0.07774115,-0.01438775,0.2166021
0.877959,-0.1586422,-0.1311696,0.1996196,-0.06189497,0.252703
0.8802682,-0.1251071,-0.1227248,0.1828047,-0.0795249,0.2504241
0.9006032,-0.1290258,-0.1105576,0.162746,-0.05172953,0.2703159
0.9533814,-0.1361886,-0.1043826,0.2175125,0.002102364,0.2034646
0.9784002,-0.1697776,-0.07317338,0.3191282,0.06820887,0.1331865
0.9842876,-0.2109917,-0.0821679,0.5714152,0.08014317,0.06025754
0.9976884,-0.23381,-0.1120993,0.6962072,0.07493861,0.06858512
1.060919,-0.1834696,-0.1443654,0.5609981,0.09093305,0.100875
1.127241,-0.1168471,-0.1617063,0.3304143,0.068582,-0.0667646
1.181827,-0.09948647,-0.1277942,0.03271133,0.04389416,-0.2608984
1.303859,-0.1369982,-0.08451853,0.003039999,0.06696202,-0.3512555
1.415966,-0.2572479,-0.04876109,0.3219283,0.07231702,-0.3454885
1.405139,-0.3466985,-0.09800816,0.4490201,0.06109164,-0.3519842
1.249842,-0.3238557,-0.2610054,0.1375632,0.04884984,-0.4296466
1.028056,-0.299572,-0.3926816,-0.3914283,-0.001670238,-0.3504588
0.9375605,-0.3415588,-0.4107164,-0.7825573,-0.01272032,-0.3133815
1.061286,-0.3985548,-0.3110091,-0.795038,0.09209499,-0.4976257
1.207317,-0.4656124,-0.1781733,-0.4821657,0.2867137,-0.5941445
1.193516,-0.5220632,-0.09646868,-0.06814769,0.4664014,-0.5008869
1.04245,-0.4533291,-0.05544294,0.2181449,0.507828,-0.3131152
0.8364235,-0.3042503,-0.08255767,0.3023051,0.3895684,-0.1527863
0.7752186,-0.1690309,-0.1225033,0.1365499,0.1558609,-0.01334432
0.87598,-0.1264346,-0.1309785,-0.2756627,-0.05018737,0.06530644
0.8901238,-0.2134314,-0.1442796,-0.6180075,-0.06135657,0.01490305
0.8874316,-0.2261373,-0.1304026,-0.6984148,0.07333992,0.06096403
0.9050734,-0.2050163,-0.1194206,-0.6026845,0.1622562,0.1209927
0.8340807,-0.2885679,-0.08232517,-0.4388709,0.189073,0.08938967
0.7904086,-0.3195392,-0.003321885,-0.3374717,0.2316231,0.1177904
0.7732568,-0.2669927,0.001462313,-0.3333022,0.1388665,0.09874704
0.7774742,-0.1820416,-0.002353612,-0.3759809,-0.09791043,0.06772127
0.823285,-0.1399596,0.0205899,-0.3371137,-0.2117054,0.09647611
0.8377256,-0.1483641,0.003153286,-0.2706571,-0.2104169,0.09085938
0.8476038,-0.1104369,0.005313645,-0.2647331,-0.2282286,0.05839169
0.8275983,-0.08459517,0.008741782,-0.1814224,-0.2362422,-0.02079619
0.8222473,-0.06234513,-0.013527,-0.1868414,-0.2061116,-0.104707
0.9029802,-0.0766639,-0.01723696,-0.3007016,-0.1447562,-0.1190397
1.017191,-0.1483177,-0.03177526,-0.3631744,-0.1242787,-0.03736959
1.128829,-0.1534137,-0.05259363,-0.4226988,-0.1787306,0.08720662
1.185232,-0.1610879,-0.04357269,-0.3255539,-0.1787369,0.112185
1.260434,-0.175588,-0.0107447,-0.2292234,-0.0156784,0.05919122
1.346146,-0.15223,0.0056425,-0.3313111,0.1871828,0.07498447
1.386201,-0.1236874,-0.07416242,-0.5274721,0.2189412,0.2708328
1.477594,-0.1286002,-0.2302717,-0.6774469,0.2544979,0.4917384
1.404906,-0.3688311,-0.2964582,-0.2626812,0.5298652,0.4964508
1.115518,-0.6660115,-0.2005787,0.440699,0.692283,0.4417939
0.8796335,-0.6157589,-0.09997754,0.4944267,0.5282696,0.3142895
0.7574139,-0.4433912,-0.1061582,0.1089217,0.3762948,-0.04034609
0.8792815,-0.41226,-0.1330419,-0.1048212,0.2161376,-0.153751
1.058008,-0.3930569,-0.1717765,-0.06222328,-0.1306059,0.09521893
1.032057,-0.4476523,-0.2394496,0.110462,-0.2498601,0.2037488
1.048185,-0.5534349,-0.2268522,0.2719332,-0.01521231,0.155923
1.016464,-0.5014021,-0.1531428,0.4461827,0.06502356,-0.004365654
0.8728065,-0.3960352,-0.1128229,0.5970803,-0.1156118,-0.272634
0.8348935,-0.2578276,-0.1082735,0.639089,-0.3277454,-0.3147323
0.7738109,-0.1153793,-0.1420516,0.5777054,-0.4820924,-0.1810983
0.7368886,-0.1400695,-0.1777258,0.3959369,-0.5852061,-0.05042891
0.7813752,-0.1690914,-0.1989489,0.2594713,-0.6374301,0.1270232
0.7888978,-0.1736658,-0.2296932,0.2369069,-0.5444256,0.2504054
0.8380362,-0.2188784,-0.2335477,0.2025974,-0.3730376,0.292184
0.8730194,-0.2156656,-0.2105461,0.1902725,-0.1697825,0.314405
0.873493,-0.2269489,-0.176224,0.2015921,0.029182,0.2763521
0.8972352,-0.2115524,-0.137375,0.2527113,0.06278146,0.2197223
0.8887976,-0.1463834,-0.107703,0.3323201,0.07634367,0.2080414
0.9098927,-0.0896247,-0.06205708,0.3454171,0.1041848,0.1790823
0.9584159,-0.0442908,-0.04235431,0.3182983,0.07761903,0.1350797
0.9745552,-0.06935365,-0.06195048,0.3105685,0.1217679,0.07759728
0.9818087,-0.09104575,-0.05629479,0.4327171,0.1284878,-0.02977339
0.9874107,-0.1234436,-0.06065192,0.5726986,0.06830851,-0.04817177
1.027041,-0.2259925,-0.1048395,0.4831258,0.01384052,-0.02794805
1.088516,-0.2451487,-0.1385506,0.200235,-0.02091481,-0.1851177
1.181656,-0.213274,-0.1082541,-0.09339049,0.05956158,-0.4279327
1.423261,-0.2345125,-1.723926e-05,-0.1165399,0.1727063,-0.5427726
1.639722,-0.2790644,0.07362703,0.04012978,0.2265571,-0.486095
1.532371,-0.4184066,-0.03216586,-0.05921924,0.1493201,-0.462294
1.299915,-0.5692063,-0.2581567,-0.4433581,-0.1094745,-0.5346018
1.132574,-0.4775693,-0.3986303,-0.7851786,-0.2826708,-0.5389681
1.030893,-0.3302711,-0.3963236,-0.6504113,-0.1087229,-0.5610977
1.224842,-0.3996661,-0.3192613,-0.2367075,0.3185503,-0.6087132
1.395839,-0.4737355,-0.2065516,-0.105434,0.6440023,-0.5738101
1.135582,-0.4882187,-0.104785,0.01874391,0.6666429,-0.4762361
0.8349547,-0.4763623,-0.03912698,0.166562,0.4805915,-0.2365135
0.6666644,-0.2995685,-0.02904122,0.01742692,0.195566,-0.03580509
0.631239,-0.1617812,-0.0670162,-0.1715857,-0.09583299,-0.03818122
0.7641982,-0.1874021,-0.09111201,-0.3216423,-0.2291582,-0.01836266
0.7950531,-0.2561035,-0.090692,-0.325754,-0.1358054,0.04078834
0.7644287,-0.3331827,-0.06723294,-0.2136599,-0.03847596,0.08255804
0.7735752,-0.324178,-0.03360583,-0.253208,0.03978472,0.09066341
0.7690092,-0.2695516,-0.007408466,-0.2437181,0.131839,0.004070616
0.7970393,-0.1844556,0.02553439,-0.2641198,-0.04127474,-0.06371536
0.8129258,-0.05435647,0.04790292,-0.3567788,-0.2668884,-0.0590454
0.8343546,-0.0306663,0.05883379,-0.3202599,-0.3259995,-0.005074259
0.8457686,-0.06126478,0.06309026,-0.2628911,-0.3647773,0.04755149
0.8362748,-0.05973634,0.05813774,-0.1784399,-0.2972042,0.04079256
0.8801196,-0.07268976,0.05098912,-0.2251656,-0.2238331,0.02736423
0.941461,-0.1306894,0.02107276,-0.436559,-0.2137227,0.02608671
1.040675,-0.2181644,-0.02549969,-0.5067759,-0.245771,0.07334025
1.173041,-0.2530203,-0.05713053,-0.3149392,-0.3059165,0.1356033
1.337594,-0.2287575,-0.054067,0.0305433,-0.1196186,0.1216234
1.469162,-0.1282342,-0.02877228,0.05975593,0.1718719,0.1023082
1.417509,0.0651494,-0.03937232,-0.2219805,0.2794552,0.1264167
1.378928,0.1258398,-0.1554667,-0.3551513,0.2860486,0.2460127
1.383264,-0.1960261,-0.3018969,-0.2922334,0.3606487,0.5093409
1.193577,-0.6296343,-0.2707538,-0.03135195,0.505719,0.6262646
0.9277619,-0.6641761,-0.1317933,0.1628561,0.4534566,0.2923823
0.7957219,-0.4409367,-0.09405656,0.02241245,0.3252635,-0.1020175
0.9390246,-0.3398964,-0.1496539,-0.1988495,0.2929134,-0.06610213
1.138995,-0.3392785,-0.2506815,-0.2814594,0.1324604,0.08446491
1.043646,-0.3880565,-0.2817851,-0.1565679,-0.03787858,0.08570396
0.9675231,-0.4583912,-0.2075018,0.07054926,-0.1541733,0.0862822
0.9899605,-0.4820543,-0.1680179,0.3185037,-0.3218009,-0.0446348
0.8754634,-0.4178772,-0.1636801,0.6151936,-0.4605815,-0.2400961
0.8297194,-0.2796625,-0.1861083,0.7439385,-0.5432134,-0.2273428
0.7747678,-0.2087299,-0.2242731,0.6053964,-0.4718197,-0.1214699
0.6961072,-0.2065801,-0.2271621,0.4419516,-0.3759553,-0.01075631
0.7627332,-0.1900081,-0.2360079,0.3911994,-0.3579161,0.1469013
0.778472,-0.1805215,-0.2340749,0.3492069,-0.2401185,0.2704566
0.8099115,-0.1559241,-0.219254,0.3080645,-0.1631462,0.3006602
0.8523109,-0.1385358,-0.1950388,0.2849205,-0.1334391,0.2775165
0.8231262,-0.1370087,-0.1465397,0.2612757,-0.07619172,0.2684512
0.8817719,-0.1019143,-0.1196579,0.3101956,-0.08512418,0.2642011
0.8819491,-0.06954986,-0.1018875,0.3356123,-0.04498915,0.2566534
0.8545527,-0.05433519,-0.1031017,0.3206212,-0.03076104,0.25895
0.9042942,-0.05522131,-0.1102064,0.3699747,-0.05501655,0.2196273
0.9344694,-0.09496696,-0.1011754,0.4899018,-0.005456213,0.1293164
1.038467,-0.1600432,-0.1253331,0.7031221,0.03473612,0.01987802
1.102944,-0.1891919,-0.1393107,0.7797117,0.1575248,-0.0370821
1.103468,-0.1503646,-0.1344914,0.578995,0.2491393,-0.01969621
1.206356,-0.09434562,-0.1408607,0.3208247,0.1610294,-0.1074287
1.260804,-0.04643895,-0.1289958,0.2138737,0.09978224,-0.3230592
1.262381,-0.0875313,-0.09401244,0.3919894,0.09665262,-0.4288518
1.339178,-0.2756081,-0.06664909,0.5435075,0.1666265,-0.411086
1.341443,-0.4784094,-0.1461157,0.1994376,0.2385088,-0.4545525
1.163008,-0.53442,-0.2991383,-0.4635349,-0.02041485,-0.5238142
1.007685,-0.3770578,-0.3478209,-0.870356,-0.5689804,-0.5157107
1.102251,-0.2485074,-0.2922929,-0.6860902,-0.8180631,-0.4956306
1.376867,-0.3556895,-0.2569056,-0.3217249,-0.2473659,-0.4072238
1.533264,-0.4729052,-0.2587098,-0.1935647,0.641825,-0.220775
1.281537,-0.4853741,-0.2044179,-0.09700224,0.8533833,-0.1010734
0.8180404,-0.3587334,-0.111265,-0.3163448,0.5063014,0.01952196
0.6581933,-0.1138635,-0.07653101,-0.8256126,0.2238553,0.1293369
0.7222891,-0.0752714,-0.0676529,-0.9234488,0.02872808,0.09100589
0.7415391,-0.1883071,-0.0683507,-0.8868075,-0.05482432,0.1340379
0.7864371,-0.2332417,-0.1034386,-0.8644735,0.09675464,0.2608371
0.7789181,-0.3117588,-0.1264281,-0.6730963,0.2899036,0.2591506
0.7376063,-0.334684,-0.1036524,-0.5966873,0.3214204,0.2308055
0.7475075,-0.2754957,-0.03917184,-0.5121514,0.2068998,0.1582171
0.7099582,-0.2555441,0.01861683,-0.4849818,-0.02351327,-0.002982173
0.735003,-0.1945381,0.02796956,-0.5272326,-0.2964292,-0.1170219
0.8239404,-0.1558545,0.02912587,-0.3662194,-0.378789,-0.174092
0.8585197,-0.1867327,0.04345606,-0.1648182,-0.236061,-0.1940473
0.8809988,-0.1576103,0.03150404,0.02883586,-0.08752846,-0.162833
0.9041151,-0.09750956,0.0009340277,0.02150517,-0.01325457,-0.08401656
1.005976,-0.06367872,-0.02477212,-0.2431125,-0.01079933,0.03176709
1.118339,-0.0792059,-0.07041378,-0.3810698,-0.129779,0.1264357
1.151206,-0.1485357,-0.09254769,-0.2785273,-0.2233059,0.1436175
1.245458,-0.1775963,-0.04634983,-0.07555584,-0.06227042,0.09959061
1.377183,-0.1142832,-0.02722206,-0.1282361,0.1808386,0.0682832
1.470453,-0.01736056,-0.1427166,-0.4514471,0.2372095,0.09806767
1.511515,-0.07187277,-0.3550101,-0.6101846,0.2030394,0.2739709
1.468875,-0.4205973,-0.4569059,-0.1348344,0.2842728,0.4755835
1.30821,-0.8244717,-0.338038,0.7652889,0.5852415,0.3463013
0.9442506,-0.8342785,-0.1494406,0.9325204,0.8758507,-0.009818204
0.6526254,-0.5072858,-0.02463989,0.3878543,0.7124396,-0.315835
0.7694406,-0.2843197,-0.002150585,0.03489428,0.1377068,-0.4289557
0.9601341,-0.1995959,-0.08456153,-0.008737718,-0.4344336,-0.1030892
1.00463,-0.2247681,-0.186464,0.2095602,-0.6292374,0.2363666
1.094104,-0.3856731,-0.2419265,0.4271491,-0.3934272,0.09736552
1.052973,-0.453083,-0.2089111,0.6138071,-0.3022569,-0.124058
0.9032041,-0.4081143,-0.1398933,0.8569819,-0.4435242,-0.2542234
0.8480094,-0.2811179,-0.170346,0.8166284,-0.392612,-0.2807126
0.7206755,-0.1331979,-0.1974729,0.6304457,-0.430587,-0.06924779
0.6971311,-0.1192294,-0.184618,0.4593841,-0.5105598,0.1115817
0.8103131,-0.1340541,-0.2366827,0.3547731,-0.4033738,0.2196097
0.8353263,-0.1547532,-0.2334042,0.4113748,-0.359703,0.2859966
0.8978974,-0.1664217,-0.1960276,0.4167592,-0.191933,0.2206584
0.8800711,-0.1403526,-0.1802393,0.4235638,-0.0271433,0.1911694
0.8369771,-0.1171188,-0.1280853,0.4268732,-0.06459,0.173161
0.898238,-0.02843509,-0.1249204,0.3421571,-0.02277813,0.2077459
0.8885623,0.02708957,-0.1158614,0.2681799,-0.01603405,0.357796
0.9340711,0.001194019,-0.0909309,0.1350904,-0.02250216,0.3932564
0.9805489,-0.0767444,-0.1026459,0.1038247,0.036128,0.3428275
0.9617786,-0.1786492,-0.07708364,0.29321,0.03566878,0.275232
1.004841,-0.1942019,-0.1091884,0.4270073,0.04693335,0.2054687
1.043641,-0.1973473,-0.1856313,0.3626298,0.0548083,0.2148572
1.159574,-0.2054026,-0.187621,0.2182744,0.09287164,0.1343892
1.288098,-0.207018,-0.1308622,0.1826106,0.1546859,-0.1313182
1.32741,-0.285944,-0.01441305,0.3118159,0.1772296,-0.3824174
1.361714,-0.4261094,0.02982162,0.4351812,0.2329633,-0.4265938
1.295607,-0.5111952,-0.1213644,0.2135648,0.2129158,-0.357694
1.122368,-0.3985572,-0.3258564,-0.4216855,-0.05902735,-0.3397273
0.9912907,-0.2876167,-0.3990521,-1.033451,-0.5341051,-0.2845604
1.117425,-0.3712973,-0.3688803,-1.122942,-0.7184764,-0.2230108
1.40483,-0.4603022,-0.3545995,-0.6455479,-0.1353165,-0.2775971
1.454529,-0.525213,-0.311763,-0.2279969,0.6834625,-0.3182816
1.302385,-0.552108,-0.221674,-0.1772967,0.900128,-0.2613409
0.9352834,-0.4038893,-0.1086898,-0.1666621,0.6699686,-0.1343574
0.4959441,-0.2203824,0.02759247,-0.2080525,0.4237458,0.03244468
0.5882262,-0.1643354,0.01691776,-0.3350169,0.0558071,0.07909639
0.8459052,-0.2044501,-0.09354959,-0.4587115,-0.2279078,0.043399
0.810705,-0.2811251,-0.09503078,-0.5268839,-0.1039342,0.1104468
0.8857875,-0.3428174,-0.09929308,-0.4342631,0.05957768,0.1269647
0.9054565,-0.3667254,-0.09624963,-0.3388793,0.1373554,0.0590038
0.7888736,-0.3151401,-0.008319807,-0.2483044,0.2261281,0.0247542
0.8402504,-0.2223348,0.02590485,-0.1580833,0.06347866,-0.06211157
0.8106321,-0.1645341,0.03463093,-0.1746872,-0.146114,-0.1013264
0.7764129,-0.1159144,0.04660114,-0.1189792,-0.218576,-0.08240009
0.8239485,-0.09260604,0.04732844,-0.001098074,-0.3221196,-0.12592
0.7844595,-0.06742516,0.06006922,0.1132053,-0.307097,-0.1442111
0.8697654,-0.02883578,0.01052931,0.1379515,-0.2326049,-0.1692067
0.9668803,-0.05356963,-0.0299013,-0.1621435,-0.1659527,-0.1348858
1.029475,-0.1109077,-0.03819901,-0.5079601,-0.1015595,0.02690091
1.174221,-0.2015399,-0.07440603,-0.4864924,-0.2613946,0.1163729
1.235801,-0.2533706,-0.07716075,-0.2570646,-0.3669873,0.1075376
1.316831,-0.2007098,-0.07296108,-0.1026157,-0.1657549,0.08683711
1.39374,-0.1860555,-0.1080652,-0.06588937,0.05988429,0.1293071
1.455857,-0.2337133,-0.2731006,-0.2076429,0.1975295,0.281681
1.592829,-0.3358815,-0.5353819,-0.3266203,0.410807,0.4839027
1.477482,-0.454512,-0.5484951,-0.01833869,0.6016525,0.5865906
1.029772,-0.4308387,-0.2183492,0.4646394,0.5161711,0.4254787
0.6108492,-0.3762049,0.04987017,0.5604984,0.4603196,0.1073849
0.6047476,-0.4006981,-0.02460732,0.1057612,0.465472,-0.2307045
0.8552357,-0.3210672,-0.1247807,-0.3737779,0.07930868,-0.366548
0.9512063,-0.2192533,-0.1022704,-0.2194556,-0.3754818,-0.1092436
1.056736,-0.2966552,-0.2039852,0.1223129,-0.4694377,0.09679696
1.070374,-0.4285439,-0.2417641,0.2661194,-0.3703989,0.06493057
0.9238283,-0.5146572,-0.1762108,0.456744,-0.3605227,-0.05361365
0.978476,-0.4708793,-0.2147452,0.4437173,-0.4270555,-0.2686111
0.9082512,-0.3095385,-0.1734731,0.360864,-0.3841829,-0.2693801
0.7375278,-0.2369359,-0.1695792,0.3850811,-0.3844608,-0.1071643
0.8001592,-0.197759,-0.2633649,0.2587711,-0.3958355,-0.004462971
0.7911221,-0.1831603,-0.22766,0.2754504,-0.2799378,0.1684563
0.8248117,-0.2246837,-0.2361643,0.3499302,-0.19528,0.2483697
0.8910317,-0.1865881,-0.2477914,0.2910778,-0.09267337,0.2476881
0.8224956,-0.1668835,-0.1894364,0.3420118,-0.0234745,0.2879082
0.8487913,-0.1456121,-0.1973986,0.3015503,-0.03209892,0.2857175
0.8472215,-0.08152159,-0.1616502,0.2367108,0.0004993399,0.3137518
0.8477687,-0.09202396,-0.1299135,0.2845712,0.002322059,0.3089353
0.8982784,-0.07014331,-0.1124639,0.2823549,0.005814291,0.2799171
0.8914218,-0.0644114,-0.08463169,0.3736807,0.01713339,0.2710251
0.9815196,-0.1399212,-0.120483,0.5479193,0.03092135,0.1532258
1.05224,-0.1796536,-0.1210096,0.7139816,0.1065966,0.03912369
1.04534,-0.1921992,-0.1542368,0.7621949,0.1876466,0.001358315
1.090917,-0.1548468,-0.2017783,0.5010232,0.2493795,-0.06885994
1.167795,-0.09715175,-0.1661957,0.1325125,0.1983105,-0.2713989
1.231277,-0.07985584,-0.1147555,0.02966307,0.07027725,-0.5506745
1.267285,-0.1644786,-0.006408255,0.3056866,-0.03440215,-0.6142746
1.322819,-0.3817575,0.007059418,0.4943248,-0.1181545,-0.48335
1.285794,-0.4783878,-0.1951663,0.1251029,-0.04951413,-0.4295757
1.129321,-0.3800479,-0.3908432,-0.5060276,-0.03109486,-0.4683481
1.037288,-0.2690968,-0.4055095,-0.8472303,-0.3330305,-0.4968431
1.147804,-0.2198148,-0.3048714,-0.6738519,-0.465332,-0.4812521
1.438932,-0.3018247,-0.2795958,-0.3986798,0.1801918,-0.4270014
1.518419,-0.4657501,-0.2688566,-0.3863,1.090678,-0.3051391
1.191371,-0.5165157,-0.1705463,-0.3537326,1.151079,-0.1460762
0.7821859,-0.3561371,-0.08577585,-0.3732314,0.5488935,-0.01102554
0.6776722,-0.1510956,-0.06276024,-0.567203,0.09129149,0.0473661
0.8340672,-0.1342286,-0.128071,-0.7028807,-0.1457664,0.02900787
0.8462621,-0.2286985,-0.178588,-0.8176417,-0.04064033,0.1098882
0.802457,-0.3084026,-0.1466798,-0.7586981,0.1794664,0.2157182
0.8143719,-0.3840819,-0.1149974,-0.5803021,0.1753585,0.2128951
0.7252125,-0.3817103,-0.04800626,-0.4971621,0.197912,0.2282281
0.7255574,-0.2983116,0.0021136,-0.3151097,0.0661542,0.1816598
0.7766867,-0.2239551,0.002202692,-0.24102,-0.1745994,0.07487787
0.7756463,-0.1567953,0.01866607,-0.2787594,-0.2381394,0.02107037
0.8102104,-0.1242209,0.02196636,-0.1945532,-0.3009288,-0.01328465
0.7886767,-0.1060875,0.03971318,-0.1236087,-0.2842314,0.009176111
0.7928424,-0.04201946,0.05234217,-0.00567849,-0.299045,0.02605407
0.8929702,-0.03002471,0.02099299,0.009367994,-0.3404222,0.03161303
1.041927,-0.0849879,-0.01725327,-0.1422319,-0.2173451,0.07036693
1.188099,-0.1324388,-0.06997732,-0.2697573,-0.1823329,0.1215589
1.215378,-0.1671793,-0.09057905,-0.35683,-0.1867712,0.2391984
1.242092,-0.1638,-0.06567229,-0.2567726,-0.1447453,0.2588999
1.307319,-0.1177376,-0.06363311,-0.1889491,-0.0391292,0.1313657
1.332457,-0.0268478,-0.1144426,-0.3200091,0.1101709,0.1174562
1.490216,-0.02906935,-0.240112,-0.3544537,0.1362873,0.3406438
1.64761,-0.3461123,-0.3794823,-0.2410952,0.318622,0.6321634
1.414793,-0.77593,-0.4052746,0.05049421,0.6759357,0.6338722
1.069614,-0.8362014,-0.3146093,0.4888561,0.8776085,0.4124967
0.9258246,-0.5101466,-0.1384476,0.6569754,0.8461332,0.1184201
0.69921,-0.2673809,0.0534023,0.1945354,0.5756499,-0.3875511
0.6628698,-0.265757,0.01899611,-0.3283881,0.08685471,-0.602443
0.9643257,-0.2952337,-0.1410771,-0.1517059,-0.4341619,-0.1918427
1.043339,-0.2991794,-0.1710643,0.2120758,-0.5113522,0.2170661
1.100061,-0.3648694,-0.2447902,0.4155667,-0.2317494,0.2663063
1.123919,-0.4965821,-0.2628021,0.6692116,-0.1053095,0.01997681
0.9101874,-0.5056107,-0.1432399,0.6905231,-0.106875,-0.2996912
0.8939564,-0.3758524,-0.1499059,0.6641377,-0.1983407,-0.3372552
0.7966773,-0.2645179,-0.1407414,0.65987,-0.3592592,-0.1891134
0.6747109,-0.160403,-0.1433501,0.4453279,-0.5130144,-0.02969537
0.8056282,-0.1381367,-0.2274655,0.4071747,-0.5929838,0.2000261
0.7874133,-0.1765673,-0.2177989,0.4296485,-0.434709,0.3182463
0.8687089,-0.1738973,-0.2440444,0.346037,-0.2128067,0.2448001
0.9670046,-0.2017595,-0.2276877,0.3716545,-0.07599637,0.2021143
0.8660655,-0.1905533,-0.1611698,0.3461189,-0.002946228,0.2002162
0.9000504,-0.1289686,-0.1676767,0.3268077,-0.01966855,0.1753342
0.8999181,-0.08215353,-0.11424,0.291318,-0.008548125,0.2180453
0.9015928,-0.03610073,-0.0973035,0.1841863,0.03599557,0.2665524
0.9788593,-0.04629961,-0.09031206,0.2174994,0.1197821,0.2391592
0.9886831,-0.06631525,-0.04585019,0.3244456,0.2392634,0.1837931
0.9990761,-0.09800594,-0.07468143,0.4916272,0.2332457,0.1245583
0.9782275,-0.1851826,-0.08993202,0.5656317,0.1890462,0.1449152
1.028477,-0.2154399,-0.1180665,0.3578119,0.1759013,0.1614645
1.118994,-0.1940841,-0.1390946,0.0869937,0.08711353,-0.03458467
1.181602,-0.1898061,-0.08499374,-0.0471098,0.04321641,-0.3339418
1.287078,-0.2044186,-0.02509875,0.07705903,0.1311644,-0.5025929
1.319433,-0.2741107,0.0005141799,0.2462483,0.2099528,-0.4715587
1.297364,-0.3635882,-0.09050428,0.1576104,0.1793207,-0.4033344
1.208157,-0.3614277,-0.2623837,-0.1800406,0.03297991,-0.3507825
1.096244,-0.3086778,-0.3720101,-0.6493379,-0.1277777,-0.1943277
1.156075,-0.3268943,-0.3550538,-0.7649123,-0.1351161,-0.2039404
1.322721,-0.3923055,-0.2595375,-0.4911237,0.1679355,-0.4719768
1.415908,-0.4731639,-0.1646916,-0.374037,0.6741577,-0.6150103
1.218965,-0.5021741,-0.05586022,-0.2620059,0.8314786,-0.5296375
0.8806167,-0.3948798,-0.01551975,-0.1529073,0.5618638,-0.3813924
0.7958427,-0.2672245,-0.07388,-0.3867528,0.334958,-0.3151203
0.8200216,-0.2004034,-0.1070481,-0.6200619,0.1541487,-0.2383358
0.7876988,-0.2224591,-0.1147594,-0.6491383,0.0629623,-0.1129529
0.7941624,-0.3297481,-0.09516967,-0.5617213,0.1580765,-0.0572799
0.7644418,-0.4001984,-0.04851507,-0.3179282,0.1602628,0.04341769
0.7219536,-0.4098876,-0.02218021,-0.04865831,0.1526813,0.07171622
0.7346806,-0.3354988,-5.057493e-05,0.07929731,0.1696843,-0.008556108
0.7516396,-0.2196124,0.003654614,0.03702592,0.04112593,0.006272341
0.8169094,-0.144326,0.01557325,0.03426466,-0.086979,0.004635116
0.8805946,-0.06276198,0.05337898,0.0971201,-0.2099837,0.02320835
0.8723463,-0.04948637,0.05653649,0.1196513,-0.2544247,0.06186899
0.8602247,-0.04773231,0.07446069,0.2484399,-0.1906806,0.07654803
0.8481462,0.02362829,0.1116577,0.3088002,-0.2448732,0.1560468
0.857755,0.01488355,0.07378826,0.1620998,-0.2609503,0.1475585
0.9477859,-0.02322126,0.01955986,-0.06818547,-0.189944,0.09725564
1.100885,-0.07036682,0.006637081,-0.281884,-0.1845925,0.09274651
1.204103,-0.1706108,-0.01317226,-0.2317348,-0.1670884,0.110402
1.213309,-0.1946316,-0.01148449,-0.0598641,-0.1411014,0.1505784
1.244053,-0.1549065,0.02678658,0.02990859,-0.1061376,0.05256697
1.297695,-0.06386938,0.02234959,0.07741398,-0.1254351,-0.03086211
1.400027,0.02753246,-0.1166459,-0.07209121,-0.1779603,0.09179895
1.533384,-0.1482276,-0.357019,-0.1821085,-0.004232621,0.2920873
1.416474,-0.5051989,-0.4195938,0.04106447,0.387737,0.4112024
1.063998,-0.6376417,-0.1931961,0.2670158,0.6904385,0.2632685
0.7444944,-0.5124357,0.004706544,0.205767,0.5563629,-0.05863217
0.6555155,-0.361334,-0.01219934,-0.09467195,0.2623848,-0.3410473
0.8429968,-0.27299,-0.07174658,-0.4190789,0.1425678,-0.4844651
1.004889,-0.2748083,-0.08743406,-0.4287354,-0.2066984,-0.3299557
1.06428,-0.3753573,-0.1440311,-0.0454164,-0.4267911,-0.07727419
1.094021,-0.4626119,-0.1743934,0.3520921,-0.2082711,-0.04671104
0.9857078,-0.440113,-0.1186716,0.499589,-0.2114046,-0.1456592
0.9104276,-0.3337351,-0.1058305,0.499915,-0.255361,-0.235497
0.860018,-0.1983312,-0.1337991,0.4497693,-0.2170597,-0.2022281
0.7851761,-0.1359371,-0.1414079,0.348832,-0.369734,-0.04552478
0.8450444,-0.1625177,-0.1552875,0.2510441,-0.3975532,0.110411
0.8598489,-0.1433728,-0.161852,0.2733663,-0.3670321,0.2911207
0.8627303,-0.1235149,-0.160724,0.3323829,-0.3222688,0.3483603
0.9248096,-0.1506563,-0.141359,0.3116677,-0.1636943,0.2755099
0.9151644,-0.123677,-0.121438,0.3134917,-0.1026107,0.2609778
0.9306247,-0.1015805,-0.1282888,0.3068102,-0.06146866,0.2191406
0.9194754,-0.08956061,-0.1143814,0.2800829,-0.04910614,0.2630773
0.9064264,-0.02139089,-0.08081948,0.2866719,-0.07244544,0.3876894
0.9362243,0.001445794,-0.05187371,0.2717382,-0.0005534873,0.3721316
0.920874,-0.05073257,-0.04845461,0.3634594,0.0352677,0.2805157
0.9488586,-0.1137135,-0.05185691,0.568233,0.01358985,0.1313341
0.961797,-0.1460207,-0.05099696,0.6594249,8.908113e-05,0.04748428
1.000813,-0.1216387,-0.1257767,0.5305299,-0.01287841,0.07526026
1.128469,-0.07812602,-0.1946173,0.1770856,-0.04209598,-0.009128497
1.208931,-0.05779424,-0.1386007,-0.2355232,-0.02950844,-0.1854077
1.339521,-0.120674,-0.05288532,-0.3584492,0.1692085,-0.3471433
1.466717,-0.2985704,-0.02977595,-0.09037917,0.3789418,-0.4118047
1.40167,-0.4395252,-0.08064991,0.0374646,0.3169721,-0.3867464
1.212676,-0.4086012,-0.1949468,-0.2653316,0.06543415,-0.3908851
1.005015,-0.3283115,-0.2885344,-0.4612224,-0.1792552,-0.369189
0.959276,-0.323244,-0.2654904,-0.3294812,-0.2720263,-0.3428536
1.143359,-0.3464456,-0.1772714,-0.1270738,-0.07179214,-0.3609764
1.258637,-0.4077367,-0.09902536,0.1350898,0.2892629,-0.3192509
1.16157,-0.4605774,-0.0280096,0.4070338,0.5069495,-0.2183031
1.015357,-0.3482613,-0.02158463,0.4158049,0.4857577,-0.07163763
0.8627422,-0.1666663,-0.05507385,0.1633958,0.2801111,0.04884057
0.7822176,-0.1091093,-0.05755083,-0.1092195,0.04348236,0.05376313
0.829252,-0.1618212,-0.07176835,-0.2927372,-0.130082,0.0624695
0.8245515,-0.2147145,-0.07855331,-0.2658054,-0.1508392,0.1030694
0.7994712,-0.2406056,-0.06867101,-0.1889859,0.03448398,0.1568252
0.8142018,-0.2780837,-0.05654456,-0.2524336,0.1307549,0.2063019
0.7828462,-0.2626209,-0.01232308,-0.239443,0.07715615,0.1553656
0.794105,-0.2025191,0.01149192,-0.2487,-0.0107458,0.1099899
0.8260143,-0.179118,0.0230894,-0.2961258,-0.1876185,0.1029974
0.8168223,-0.1481092,0.05059224,-0.2214849,-0.3139178,0.0846869
0.8287448,-0.1412104,0.04828222,-0.1790095,-0.3458386,0.1284307
0.806794,-0.1440588,0.05759674,-0.09000131,-0.3538484,0.1535261
0.7835887,-0.09575875,0.07419146,-0.01021386,-0.3706485,0.116965
0.8377759,-0.08096058,0.05076352,-0.06849662,-0.3662563,0.04372395
0.9374934,-0.08686328,0.02255045,-0.1683823,-0.3074034,-0.05364544
1.073135,-0.1065722,-0.01044678,-0.3823824,-0.3378853,-0.04852884
1.181719,-0.1664501,-0.04013056,-0.4923433,-0.3822747,0.03503632
1.244644,-0.1981619,-0.02980488,-0.3291284,-0.3524926,0.07545656
1.318511,-0.1862185,0.008225899,-0.2042973,-0.2140477,0.07050128
1.384382,-0.0786403,0.02279534,-0.2368339,0.01984227,0.1089661
1.478871,0.02513134,-0.0765588,-0.295502,0.03076793,0.3076691
1.554063,-0.1488272,-0.2517653,-0.2649441,0.04918819,0.5513298
1.361603,-0.4942745,-0.2993355,0.03214378,0.3691554,0.5915749
1.004421,-0.6525877,-0.1980016,0.6104822,0.5355533,0.495609
0.8337653,-0.5519104,-0.1138463,0.8590299,0.4216615,0.3543551
0.8066494,-0.4057268,-0.08866451,0.431427,0.3650914,0.03624721
0.8527197,-0.339968,-0.08654942,0.06294418,0.3149849,-0.1627797
0.971636,-0.3274873,-0.1187906,0.1671333,-0.007464747,0.01342469
0.9959955,-0.4135891,-0.1756042,0.3919659,-0.3342708,0.1675638
1.000784,-0.5366147,-0.2092658,0.6888338,-0.3473786,0.1983823
1.016218,-0.5313256,-0.1994642,1.009438,-0.3522103,0.1103884
0.9404615,-0.4017816,-0.1814517,1.116642,-0.4700227,-0.1715724
0.8754256,-0.2142379,-0.1780627,1.118182,-0.538524,-0.2334393
0.8228649,-0.1228004,-0.1861855,0.9457639,-0.5249041,-0.1041366
0.8108426,-0.14703,-0.2250161,0.4858852,-0.4730758,-0.009770486
0.8295919,-0.09754747,-0.2721495,0.1416705,-0.4086968,0.2000272
0.8045425,-0.08434063,-0.2728786,-0.008563073,-0.2177488,0.2927988
0.8625775,-0.1517016,-0.2436768,-0.1223945,-0.0648467,0.2495263
0.9097452,-0.1426154,-0.2118102,-0.1337281,-0.04308002,0.2920093
0.8767867,-0.1416711,-0.1747958,-0.1492328,0.05841997,0.2793123
0.8845218,-0.1470722,-0.1563021,-0.1603085,0.1189867,0.246112
0.8770078,-0.1127645,-0.139942,-0.1618663,0.1258601,0.2535323
0.8797127,-0.1026003,-0.1104111,-0.2267981,0.1647051,0.2414562
0.9126201,-0.08338494,-0.104083,-0.2358898,0.1422922,0.2436002
0.9402575,-0.07702527,-0.087775,-0.1844061,0.1293836,0.2205846
0.9728304,-0.1249767,-0.07784624,-0.02149099,0.1498824,0.1686931
0.9805713,-0.2191375,-0.1184616,0.1952339,0.1999569,0.1420615
1.019604,-0.2968046,-0.1342386,0.2182878,0.2731201,0.1279789
1.085454,-0.2721013,-0.1313911,0.08879527,0.2679102,0.0312491
1.157083,-0.2291909,-0.11906,-0.04446506,0.1876885,-0.2014353
1.257556,-0.2179858,-0.06336732,-0.04684132,0.125782,-0.4041544
1.338721,-0.2453811,-0.04387895,0.1086849,0.1522489,-0.4610554
1.386806,-0.4058593,-0.08834436,0.1651592,0.1924275,-0.4752074
1.309038,-0.5478168,-0.1872539,-0.2028179,0.1254934,-0.4701992
1.100389,-0.4473545,-0.3165882,-0.8088496,-0.1363648,-0.3915422
0.9837855,-0.2942656,-0.3753967,-0.9175703,-0.4109732,-0.3209343
1.094523,-0.3180565,-0.3274959,-0.4563369,-0.2078286,-0.3484526
1.317533,-0.3869116,-0.2399617,-0.0557129,0.2856083,-0.4330261
1.349656,-0.4648624,-0.167243,0.03917231,0.4858548,-0.4850014
1.08592,-0.5545842,-0.08931989,-0.01012743,0.4662245,-0.4381137
0.7635513,-0.4431,-0.07367946,-0.09820051,0.4220815,-0.2849171
0.6875658,-0.2412419,-0.1235895,-0.326778,0.3847283,-0.1017893
0.8032575,-0.1492774,-0.109818,-0.5534027,0.277093,-0.01244552
0.7881483,-0.146522,-0.09113928,-0.5295323,0.04639145,-0.005517833
0.7679285,-0.2447036,-0.08159217,-0.3854851,0.007182115,0.0755247
0.824833,-0.3192869,-0.05138381,-0.1953751,0.09960586,0.196705
0.7890926,-0.3209529,-0.05149033,-0.07702783,0.08195717,0.1997846
0.8082021,-0.2834211,-0.02208881,-0.1476701,0.07604068,0.112415
0.8210913,-0.1756972,0.003366939,-0.2212769,-0.005934794,0.0158341
0.774863,-0.1015655,0.01295865,-0.2901551,-0.1802864,-0.02020511
0.8029002,-0.06618884,0.05459826,-0.3149635,-0.3189597,0.05724928
0.8045587,-0.06224243,0.07055382,-0.1672151,-0.3932702,0.1413921
0.8338093,-0.08031888,0.07526231,-0.007414737,-0.3724092,0.1417695
0.9063199,-0.0362492,0.05155163,0.002901262,-0.3100365,0.08799117
0.9898787,-0.0264091,-0.002634521,-0.2369616,-0.1886933,0.01048066
1.107266,-0.07822038,-0.03211738,-0.5957534,-0.1404548,-0.01332024
1.133767,-0.1690151,-0.05672288,-0.6594648,-0.2729378,0.07151811
1.191949,-0.2687022,-0.05581468,-0.3934757,-0.323653,0.1506682
1.311459,-0.2596441,-0.02054642,-0.1996669,-0.1685103,0.1468823
1.383522,-0.2108331,-0.0358813,-0.255325,-0.01628572,0.2420155
1.56253,-0.2286019,-0.2558269,-0.2288077,-0.03583973,0.5291688
1.718042,-0.4152234,-0.538161,0.2080391,0.1265095,0.7322553
1.49624,-0.7488153,-0.4750685,0.8550548,0.690932,0.6076374
0.9820319,-0.8343253,-0.2030477,1.076281,1.073212,0.1618859
0.6703047,-0.517492,-0.05954033,0.4423386,0.9531906,-0.406769
0.738021,-0.1980201,-0.02469509,-0.4821627,0.5323498,-0.6213159
0.866136,-0.1791035,-0.07627397,-0.7668917,-0.1037216,-0.3174739
0.9640581,-0.2910633,-0.1397714,-0.3363749,-0.5669556,0.03816838
1.093406,-0.3813398,-0.2105253,0.2052873,-0.3961906,0.2201318
1.082115,-0.5193873,-0.2798248,0.4322618,-0.1113323,0.1710632
0.9509071,-0.561103,-0.1892026,0.5362325,-0.1574388,-0.1483332
0.8720226,-0.4156078,-0.1295266,0.6102762,-0.1583762,-0.3353162
0.7755994,-0.2713357,-0.17058,0.4978964,-0.2672657,-0.3397007
0.723279,-0.1696435,-0.1675881,0.4088906,-0.4710064,-0.2483792
0.7863417,-0.1310131,-0.2212841,0.3642201,-0.4122826,0.0212408
0.8023922,-0.1862098,-0.237828,0.3628093,-0.3409977,0.1737719
0.8531694,-0.2086094,-0.1983987,0.4482437,-0.1844746,0.2298113
0.9010666,-0.2009055,-0.1957115,0.4077908,-0.028197,0.2018532
0.8509216,-0.1744767,-0.1442361,0.4119196,-0.05278656,0.07796717
0.8757494,-0.08165179,-0.1184866,0.425492,0.002427169,0.1184112
0.8875907,-0.01116945,-0.1179673,0.2997262,-0.01136783,0.09972443
0.8874705,0.01387386,-0.0997592,0.2411643,-0.003527464,0.07513201
0.9431595,0.006124936,-0.1041826,0.1969254,0.06401213,0.1142447
0.9450771,-0.05784732,-0.1108215,0.2774865,0.04863399,0.02054721
0.9811902,-0.1297973,-0.1479123,0.49405,0.1643311,0.02447734
1.05358,-0.1511923,-0.1618046,0.5445009,0.253271,0.07062467
1.125309,-0.1126358,-0.1453487,0.3674278,0.2599211,0.07037377
1.186471,-0.07376554,-0.1324447,0.005044068,0.1695483,-0.03766688
1.212533,-0.07098153,-0.05497554,-0.1706881,0.01594115,-0.3183919
1.331259,-0.190686,0.03939204,0.0600586,0.1121562,-0.4257924
1.408591,-0.471308,0.04533069,0.3658251,0.1804727,-0.4304373
1.261887,-0.6081453,-0.1182245,0.4271012,0.1444674,-0.5171827
1.042683,-0.4599135,-0.3519107,-0.006297971,0.09965791,-0.5504919
0.9379834,-0.3115337,-0.4031319,-0.6458296,-0.30987,-0.4741344
1.09287,-0.3124695,-0.3036077,-0.7405069,-0.6991341,-0.3945759
1.406377,-0.4078997,-0.2300639,-0.2787721,-0.3343253,-0.4806564
1.548282,-0.5363884,-0.1693262,0.1227416,0.3804547,-0.5240048
1.396423,-0.5338018,-0.1134031,0.2275039,0.5895606,-0.3803551
0.9992065,-0.293028,-0.1366795,0.1203226,0.3858577,-0.1640933
0.6368158,-0.03190222,-0.1657249,-0.2571327,0.2001746,0.08569824
0.6948582,-0.0003012588,-0.1484784,-0.8561543,0.1257564,0.1607222
0.8707769,-0.1223082,-0.152322,-1.175742,0.1580645,0.09449123
0.788028,-0.2519641,-0.1181157,-0.9529197,0.1529455,0.1160898
0.7855222,-0.3774741,-0.06723809,-0.690068,0.1622135,0.158084
0.8331183,-0.3978117,-0.07315354,-0.5150867,0.2096268,0.1745619
0.7411067,-0.3375625,-0.0551827,-0.324851,0.1887569,0.1948047
0.767268,-0.3466234,-0.02314203,-0.3935167,0.116144,0.1841756
0.7810948,-0.2531346,0.00660176,-0.3967562,-0.1068683,0.1523181
0.7692806,-0.1184424,0.04447045,-0.2872111,-0.3041425,0.1394806
0.8616394,-0.1213867,0.02836528,-0.3220345,-0.3318018,0.1384977
0.8372949,-0.0684538,0.01143434,-0.1953348,-0.3559198,0.1401956
0.8315041,-0.05777822,0.02369251,-0.1270324,-0.3510311,0.1155358
0.8998138,-0.108605,0.004889813,-0.1871214,-0.2762537,0.03166009
0.9596687,-0.1107664,-0.01875601,-0.2402187,-0.1750254,-0.02422641
1.090272,-0.1969751,-0.04004165,-0.3921217,-0.1732012,0.02233336
1.14801,-0.2232004,-0.06322892,-0.2317563,-0.2434786,0.1176185
1.19618,-0.1983666,-0.05365818,0.04388699,-0.2115503,0.1602088
1.276263,-0.1931632,-0.04963445,0.008218657,-0.07206947,0.1485279
1.317122,-0.09419966,-0.08709337,-0.185513,0.1041256,0.197236
1.510245,-0.04657875,-0.2030361,-0.3905385,0.1384854,0.3613378
1.701205,-0.1429063,-0.3747985,-0.1698756,0.2484324,0.5846463
1.521974,-0.4453981,-0.3904764,0.3704491,0.6599689,0.6540496
1.122004,-0.7511926,-0.2469151,0.6281249,0.8440937,0.3654224
0.838764,-0.6369035,-0.1279802,0.4657707,0.7080815,-0.0921451
0.6982563,-0.3592475,-0.03576555,-0.03404419,0.5259236,-0.2928332
0.7855224,-0.2468199,-0.03445401,-0.3591426,0.05251627,-0.1653686
0.9918352,-0.1993924,-0.1272021,-0.1825925,-0.4747995,0.04708993
1.00887,-0.3082736,-0.19065,0.1190395,-0.4688959,0.203405
1.052906,-0.5082951,-0.243391,0.3173569,-0.2111844,0.1283684
1.050833,-0.5346136,-0.2115508,0.5088977,-0.1796241,-0.1445463
0.8901866,-0.4654211,-0.1356934,0.6203483,-0.2751687,-0.2948577
0.8586488,-0.334892,-0.1595419,0.5288228,-0.3749036,-0.3009817
0.7681542,-0.1942099,-0.1728461,0.4330344,-0.4381658,-0.1653356
0.7138317,-0.1741461,-0.193599,0.3292871,-0.4553899,0.07486967
0.8010083,-0.1714505,-0.2361294,0.2373322,-0.473645,0.2181419
0.8052041,-0.2082677,-0.2234829,0.3071746,-0.3435581,0.3178654
0.9008851,-0.2556504,-0.2313578,0.2576671,-0.1114783,0.3172472
0.934013,-0.2387369,-0.2012949,0.2459972,0.02801812,0.2199389
0.8565273,-0.2136631,-0.1330839,0.3696229,0.06835083,0.2137
0.8873963,-0.1355513,-0.1084283,0.3334316,0.01245422,0.2154049
0.8842332,-0.08934255,-0.07921449,0.3153759,-0.003484001,0.2500974
0.9049847,-0.09072258,-0.06675931,0.2713718,0.02888048,0.2966854
0.9426704,-0.09498291,-0.06668839,0.254343,0.02353092,0.2306197
0.9346519,-0.1470762,-0.07418742,0.4201892,0.06241311,0.1435159
0.9800028,-0.1900377,-0.1099024,0.532629,0.08008996,0.08138742
1.036874,-0.2359391,-0.1478814,0.5524306,0.09445497,0.1345481
1.127571,-0.2197963,-0.173719,0.3707065,0.1405832,0.1879773
1.203715,-0.1318184,-0.131006,0.09785162,0.1094706,-0.007441278
1.236478,-0.1072425,-0.06343895,0.04458643,0.07605494,-0.2600862
1.28795,-0.1703648,-0.03128397,0.1669123,0.1095804,-0.3637325
1.304828,-0.336376,-0.01845979,0.2851362,0.2051271,-0.3742737
1.285914,-0.4770179,-0.1028128,0.1104864,0.2523966,-0.4174142
1.143371,-0.4970146,-0.2557667,-0.3135968,-0.01284249,-0.4614461
0.9306629,-0.4614543,-0.3411823,-0.7193344,-0.422962,-0.3766378
0.9496334,-0.4193493,-0.3359918,-0.7706725,-0.4603529,-0.3358467
1.171906,-0.444172,-0.2729668,-0.2807818,-0.1378708,-0.4366143
1.356019,-0.4541632,-0.1969974,0.1374417,0.2396889,-0.4668438
1.337184,-0.4226644,-0.1436371,0.1790825,0.5051877,-0.3041363
1.082334,-0.3893661,-0.1203132,0.04042577,0.4277306,-0.08715892
0.8105094,-0.2754586,-0.1339621,-0.3125838,0.2797764,-0.07981883
0.7319472,-0.2131058,-0.1536281,-0.728983,0.3467364,-0.1914297
0.7759046,-0.2531766,-0.1152888,-0.8923404,0.276254,-0.1859053
0.7576179,-0.2908559,-0.05266334,-0.6575694,0.1574125,-0.08838312
0.718709,-0.3599607,-0.02960534,-0.3814993,0.1114819,0.09679611
0.7600562,-0.3879674,-0.0234378,-0.1985791,0.02489126,0.2452562
0.7766603,-0.3356156,-0.02784409,-0.02874837,0.08007408,0.2254684
0.7747347,-0.2750179,-0.02625896,-0.1584196,0.07175759,0.1602816
0.801471,-0.1966118,-0.01295353,-0.2645906,-0.03055032,0.07528894
0.803761,-0.1425675,-0.007643071,-0.2755311,-0.03563318,0.003129849
0.8277615,-0.1369534,0.0340337,-0.3390478,-0.1131888,0.005580114
0.8446223,-0.1108031,0.08229661,-0.08849031,-0.1809676,-0.02260705
0.8458118,-0.08256006,0.07468114,0.09995174,-0.2189766,-0.1042346
0.9093482,-0.09180278,0.02684176,0.04101478,-0.2333561,-0.1337451
0.982177,-0.1057898,-0.0210375,-0.1448593,-0.1821792,-0.03110509
1.027782,-0.1454258,-0.03421439,-0.3994052,-0.2199375,0.1424832
1.099974,-0.1900118,-0.04416217,-0.2435071,-0.2539739,0.2571543
1.27905,-0.1704678,-0.04425512,-0.03904437,-0.2865053,0.3000854
1.44985,-0.1470893,-0.03617262,-0.05615377,-0.316239,0.2998718
1.459775,-0.1544917,-0.1339155,0.01873065,-0.3124176,0.3785223
1.526365,-0.2373275,-0.314522,0.1005006,-0.344368,0.652934
1.593345,-0.4934544,-0.3918897,0.3756751,-0.01489865,0.7880956
1.264161,-0.6890503,-0.2743787,0.6924892,0.6514068,0.3758185
0.8079801,-0.5254667,-0.09736837,0.5563735,0.9454928,-0.2308057
0.7414154,-0.2723904,-0.03732112,0.07385737,0.6497246,-0.3864677
0.8951471,-0.2537128,-0.07646351,-0.4306159,0.1599204,-0.178169
0.9580376,-0.3058339,-0.1366535,-0.5357732,-0.2199846,0.04793944
1.00278,-0.3847279,-0.2023287,-0.1576519,-0.4233058,0.3205978
1.045523,-0.5463769,-0.2597057,0.1555488,-0.2489529,0.3822061
1.014013,-0.6007192,-0.2626466,0.1863244,0.04320766,-0.0008425992
0.9814358,-0.5396834,-0.221656,0.2403414,0.08755916,-0.3510361
0.8983838,-0.3992154,-0.1839086,0.3635315,0.01668333,-0.3867635
0.7384864,-0.1979303,-0.1246106,0.3996732,-0.258238,-0.2754405
0.7142089,-0.1567783,-0.1323536,0.3358334,-0.4763603,-0.1170401
0.781875,-0.2351583,-0.2260076,0.2713377,-0.4615011,0.05706487
0.7851346,-0.2406464,-0.2594227,0.2760942,-0.4652896,0.2325174
0.8257486,-0.2430381,-0.2760051,0.2409612,-0.2536246,0.2657533
0.8629388,-0.2585373,-0.2659209,0.2031226,0.003745878,0.2142055
0.8508729,-0.2114243,-0.2093676,0.2371873,0.08378002,0.241029
0.8738336,-0.1851116,-0.1915708,0.2594212,0.1138498,0.2252249
0.8749073,-0.1656808,-0.1487227,0.3034851,0.06113075,0.2212951
0.8929647,-0.06493763,-0.1022732,0.3099734,0.08506668,0.2513933
0.9336951,-0.001085697,-0.08143572,0.2204768,0.09550472,0.2329138
0.9267476,-0.03448447,-0.0722252,0.1300793,0.08659672,0.230095
0.9602432,-0.08723776,-0.08480616,0.128046,0.1431573,0.1556386
0.9835548,-0.131521,-0.07252459,0.2344941,0.1400952,0.06710482
0.9855949,-0.1889232,-0.1088457,0.2735172,0.2159613,0.08488519
1.067761,-0.2320558,-0.1426208,0.1305552,0.2672693,0.06556098
1.157936,-0.2174514,-0.110789,-0.08796295,0.250332,-0.1069885
1.266017,-0.231184,-0.09207281,-0.1521759,0.2618385,-0.39337
1.401818,-0.3240163,-0.05279334,-0.0004300757,0.2278383,-0.5620249
1.437643,-0.4840972,-0.08722227,0.01766148,0.2356131,-0.5203397
1.298198,-0.5974718,-0.2372013,-0.3644414,0.1705546,-0.485999
1.044536,-0.4785367,-0.3652096,-0.9079242,-0.07976527,-0.4781054
0.9518443,-0.324424,-0.3688124,-1.00305,-0.3291865,-0.4145404
1.146596,-0.3450361,-0.2507535,-0.5030975,-0.2317869,-0.469788
1.313788,-0.4194298,-0.1902852,-0.06456905,0.2234557,-0.5726928
1.202153,-0.4792401,-0.1591501,-0.04889533,0.5770198,-0.4961311
0.9671721,-0.4419278,-0.0912868,-0.2016547,0.6590859,-0.4062587
0.7543659,-0.2938936,-0.09409574,-0.3824024,0.4146803,-0.3137561
0.65951,-0.1603822,-0.1169558,-0.6589645,0.1330589,-0.1542045
0.7976485,-0.1005802,-0.1487568,-0.8409709,0.1391307,-0.07935105
0.8657775,-0.1989906,-0.1610763,-0.7871832,0.1222537,0.006763467
0.7764236,-0.3481341,-0.1083892,-0.7287014,0.1271747,0.08110985
0.8026969,-0.379466,-0.07149408,-0.5911684,0.1699937,0.06955447
0.7999665,-0.3738886,-0.04664534,-0.4198376,0.1564564,0.08443755
0.7770291,-0.298933,-0.03175297,-0.4792953,0.2224854,0.04438794
0.8183202,-0.1681161,0.002338123,-0.4891475,0.1212285,-0.007286915
0.7992429,-0.1141916,0.04901977,-0.4222795,-0.06716102,0.02173643
0.8258596,-0.09282421,0.04675137,-0.3800953,-0.2059634,0.06480896
0.8502871,-0.08044805,0.04585417,-0.2019264,-0.3566704,0.1234483
0.8492631,-0.06649611,0.01645573,-0.1104568,-0.3452928,0.1391067
0.9378081,-0.07250115,-0.02935532,-0.1797228,-0.2537214,0.112263
1.055503,-0.1327678,-0.03353479,-0.2713394,-0.1079519,0.1065524
1.146329,-0.1811691,-0.0617138,-0.4266877,-0.008559221,0.08504135
1.144371,-0.2061727,-0.08902858,-0.5209674,-0.05362574,0.06235482
1.165662,-0.1911089,-0.06316034,-0.4216956,-0.03504555,0.0677657
1.24775,-0.1343349,-0.006563284,-0.296075,-0.02658248,0.0644977
1.261989,-0.02216618,0.004502478,-0.2908605,-0.01710416,0.08369157
1.404314,0.03344985,-0.1701852,-0.2830165,0.01530109,0.2568735
1.587657,-0.271918,-0.4505405,-0.1703827,0.05217971,0.4796441
1.422718,-0.7107684,-0.4867484,0.107312,0.3899682,0.4599535
1.035504,-0.7572369,-0.2303062,0.3578173,0.8040424,0.2617979
0.7865746,-0.4876007,-0.02047285,0.1851544,0.8513434,0.05208825
0.8085707,-0.2908132,-0.007961662,-0.1883462,0.6931846,-0.1509582
0.9426943,-0.2754234,-0.08167811,-0.4031175,0.3019635,-0.1490725
0.9557621,-0.32765,-0.1138328,-0.3746598,-0.3288095,0.03991167
0.9655757,-0.4361027,-0.1357248,-0.05468796,-0.4116273,0.1056828
1.039888,-0.583804,-0.204498,0.2827384,-0.09982273,0.007955493
0.9887584,-0.5668753,-0.1896128,0.5219654,-0.230662,-0.1751609
0.884096,-0.3680326,-0.1464695,0.6618568,-0.3114813,-0.3001381
0.7791148,-0.2078809,-0.1695016,0.6045427,-0.2973616,-0.2526687
0.710382,-0.1664906,-0.1600146,0.5047125,-0.5110467,-0.1372228
0.77922,-0.2012524,-0.1784787,0.3684729,-0.4941265,0.04195395
0.8008864,-0.2134482,-0.2224762,0.3096542,-0.483568,0.2147285
0.8107934,-0.1801471,-0.2198405,0.3696016,-0.4354934,0.2811019
0.8759523,-0.2012451,-0.2145638,0.2858771,-0.1585441,0.3070023
0.8700434,-0.1987165,-0.1827621,0.2667723,-0.07582937,0.2640125
0.8815582,-0.1652382,-0.1478954,0.3316532,-0.02561904,0.2238982
0.8773814,-0.1613832,-0.1301065,0.3142072,-0.04014563,0.2689605
0.8674878,-0.09461501,-0.08932407,0.3562989,-0.1330847,0.3056146
0.9121323,-0.065523,-0.07095651,0.3588032,-0.09339882,0.3121695
0.937468,-0.0922886,-0.09883094,0.3688531,-0.09788469,0.2689183
1.003067,-0.09205705,-0.1259467,0.4660637,0.001625148,0.149284
1.035645,-0.1491507,-0.1308905,0.5234472,0.1343052,0.02437545
1.035395,-0.2110811,-0.1476589,0.5337605,0.1293862,-0.02581835
1.083126,-0.2192004,-0.170999,0.390239,0.1039847,-0.0473686
1.088332,-0.1665118,-0.1663637,0.1266335,0.0007573224,-0.1536958
1.165363,-0.104022,-0.1374977,-0.03376555,-0.01364063,-0.2998371
1.328511,-0.1642996,-0.08181291,0.003163201,0.1923705,-0.3787272
1.406651,-0.3113391,-0.04188931,0.0482978,0.4572822,-0.4225014
1.360936,-0.4745621,-0.07621475,-0.160081,0.4610777,-0.4733335
1.172021,-0.5193184,-0.187284,-0.5025244,0.08491349,-0.4502616
0.9787722,-0.3937993,-0.309892,-0.7327756,-0.3140878,-0.3510935
1.002932,-0.3478229,-0.3211648,-0.5576243,-0.4158865,-0.3238292
1.217614,-0.4296846,-0.2437804,-0.0849241,-0.01136715,-0.4151236
1.331175,-0.513201,-0.1771177,0.1585027,0.5211784,-0.4924569
1.156263,-0.5554163,-0.08450285,0.242459,0.5746953,-0.3926997
0.8907162,-0.4527359,-0.02415781,0.202311,0.3920178,-0.2156788
0.777065,-0.2594473,-0.07672068,-0.0505541,0.2141164,-0.1527228
0.7981612,-0.1698152,-0.1056816,-0.3089079,-0.01271145,-0.1083308
0.8175745,-0.2096025,-0.09265957,-0.4690605,-0.1815528,-0.04953624
0.8113194,-0.2966348,-0.1007666,-0.2808767,-0.188204,0.003788299
0.8053631,-0.3783801,-0.07445532,-0.03952751,-0.05354879,0.08710017
0.7936721,-0.4141017,-0.06006494,-0.06593455,0.04793001,0.06791785
0.8157984,-0.3423882,-0.05745356,-0.05208263,0.1074575,0.00956276
0.8350433,-0.2285875,-0.01701955,-0.1258376,0.07971498,0.01154219
0.8109729,-0.1706526,0.009242341,-0.1868053,-0.09812672,0.01483651
0.7991708,-0.1268923,0.03313403,-0.1283455,-0.2455859,0.06845503
0.8142835,-0.1100207,0.05108731,-0.1083733,-0.3122504,0.0957419
0.8279295,-0.09575904,0.05220556,0.05751501,-0.298753,0.06910306
0.8388888,-0.04454339,0.05293873,0.1058855,-0.2785348,0.04876849
0.9287424,-0.03573068,0.01835326,-0.09263092,-0.2169847,-0.02495909
1.09451,-0.03527583,-0.03128982,-0.3921913,-0.03432547,-0.09337865
1.183288,-0.05124594,-0.06298081,-0.7336445,-0.02426055,-0.1021243
1.17851,-0.138397,-0.06171037,-0.7453046,-0.1736646,-0.02684596
1.196469,-0.2025181,-0.03110818,-0.5017865,-0.2322332,0.07648162
1.261129,-0.1925045,-0.03175699,-0.3619685,-0.1145812,0.07599502
1.363181,-0.1160482,-0.1086304,-0.4242063,0.1149157,0.1197208
1.484477,-0.1147118,-0.2468755,-0.4715691,0.1728656,0.2546906
1.480026,-0.4058696,-0.3502551,-0.1353567,0.2042681,0.3410124
1.305407,-0.7943029,-0.352795,0.4693744,0.4359806,0.3723777
1.026749,-0.8041846,-0.2305073,0.8758339,0.620137,0.2064746
0.777242,-0.4726077,-0.06305756,0.5786497,0.5882894,-0.1294835
0.844804,-0.2458038,-0.07376692,-0.08326331,0.3800353,-0.3104252
1.015007,-0.2241023,-0.1662194,-0.2896825,0.0418717,-0.287339
1.010009,-0.3252862,-0.1775506,-0.1419817,-0.2895512,-0.1424203
1.084939,-0.4747208,-0.2207096,0.2529172,-0.2740192,-0.009347015
1.054637,-0.5372407,-0.1996525,0.7784879,-0.1256231,-0.09257175
0.8893209,-0.4812772,-0.1304085,1.012425,-0.2440344,-0.2426681
0.8894447,-0.3106924,-0.1690898,0.9983261,-0.2700151,-0.2721793
0.797277,-0.1679519,-0.1711811,0.7768058,-0.2887692,-0.2203786
0.7282954,-0.1296854,-0.1624946,0.5340556,-0.4503724,-0.07366965
0.8015741,-0.124761,-0.2008668,0.4743212,-0.440487,0.1004401
0.789954,-0.1770439,-0.2033545,0.4860788,-0.4581093,0.2326874
