accy,accz,accx,gyroy,gyroz,gyrox
-0.3777777777777778,-0.7644444444444445,-0.0388888888888888,0.11,0.2055555555555555,0.1711111111111111
-0.915625,-0.723125,0.4625,0.1525,0.14625,0.195625
-1.1953846153846155,-0.8092307692307692,0.783076923076923,0.1776923076923077,0.0076923076923076,0.2161538461538461
-1.323076923076923,-0.9838461538461538,0.3415384615384615,0.2507692307692308,-0.1392307692307692,0.26
-1.2733333333333334,-0.7683333333333334,-0.3258333333333333,0.2975,-0.2416666666666666,0.29
-1.116,-0.359,-1.178,0.291,-0.279,0.335
-1.0253333333333334,-0.1966666666666666,-1.6953333333333334,0.2613333333333333,-0.3353333333333333,0.3666666666666666
-0.1176923076923077,-0.3969230769230769,-2.225384615384616,0.2407692307692307,-0.6207692307692307,0.2046153846153846
0.5758333333333333,-0.3483333333333333,-3.0691666666666664,0.1058333333333333,-0.7799999999999999,0.175
1.3853846153846154,0.3346153846153846,-5.456153846153847,-0.1561538461538461,-0.5546153846153846,0.29
1.45,0.605,-6.055,-0.285,-0.4,0.2375
1.5411764705882351,0.5970588235294118,-3.771764705882353,-0.2652941176470588,-0.3735294117647059,0.1852941176470588
2.0825,0.215,-1.1375,-0.1333333333333333,-0.2933333333333333,0.4316666666666666
2.230769230769231,0.0215384615384615,0.6530769230769231,0.0161538461538461,-0.1723076923076923,0.5261538461538462
1.8533333333333333,-0.1558333333333333,0.7891666666666667,0.2091666666666666,-0.1608333333333333,0.3725
1.6233333333333333,-0.0922222222222222,0.0711111111111111,0.28,-0.1855555555555555,0.2488888888888889
1.61125,-0.44375,-0.63125,0.255,-0.115625,0.064375
1.2836363636363637,-1.2063636363636363,-0.9072727272727272,0.2672727272727273,0.05,-0.1054545454545454
0.95,-1.2635714285714286,-0.6792857142857143,0.3399999999999999,0.2114285714285714,-0.2657142857142857
0.4018181818181818,-0.9390909090909092,0.019090909090909,0.4445454545454545,0.3190909090909091,-0.3890909090909091
0.1738461538461538,-0.5492307692307692,0.8615384615384615,0.5661538461538462,0.3146153846153846,-0.4276923076923076
-0.1992857142857143,0.5078571428571429,2.215,0.6735714285714286,0.1207142857142857,-0.4621428571428571
-0.1325,0.9383333333333334,2.845833333333333,0.7225,-0.1066666666666666,-0.4575
0.505,1.2333333333333334,3.333333333333333,0.7000000000000001,-0.2133333333333333,-0.3966666666666666
1.0284615384615383,1.2269230769230768,3.516923076923077,0.6276923076923077,-0.1746153846153846,-0.3346153846153846
1.2154545454545451,0.9736363636363636,3.617272727272727,0.5727272727272728,-0.1218181818181818,-0.2581818181818182
1.0185714285714285,0.6835714285714286,3.547857142857143,0.5692857142857143,-0.1014285714285714,-0.1671428571428571
0.51,0.5892307692307692,2.8661538461538467,0.5553846153846155,-0.133076923076923,-0.1061538461538461
0.3958333333333333,0.4383333333333333,2.265,0.5191666666666667,-0.1416666666666667,-0.08
0.4646153846153846,0.2615384615384615,1.3838461538461535,0.4815384615384615,-0.1076923076923077,-0.0392307692307692
0.5916666666666667,0.54,0.9025,0.3616666666666666,-0.0158333333333333,-0.0066666666666666
0.4615384615384615,0.8138461538461539,0.5023076923076923,0.2269230769230769,0.0453846153846153,-0.0146153846153846
0.165,0.7775,0.19,0.1466666666666666,0.0791666666666666,0.0275
-0.0792307692307692,1.0076923076923077,-0.3,0.0369230769230769,0.1176923076923077,0.0146153846153846
-0.0674999999999999,0.925,-0.4624999999999999,-0.0675,0.1508333333333333,-0.0141666666666666
-0.1738461538461538,0.5107692307692309,-0.2569230769230769,-0.113076923076923,0.1853846153846154,-0.0176923076923076
-0.4541666666666666,0.2008333333333333,-0.0341666666666666,-0.1133333333333333,0.1716666666666666,-0.0533333333333333
-0.8730769230769231,-0.0623076923076923,0.3638461538461539,-0.093076923076923,0.1476923076923076,-0.0892307692307692
-1.1191666666666666,-0.0916666666666666,0.7041666666666666,-0.1241666666666666,0.1225,-0.1533333333333333
-1.45,-0.36,0.8866666666666667,-0.1541666666666666,0.0466666666666666,-0.2325
-1.6123076923076924,-0.51,0.8538461538461538,-0.1215384615384615,-0.0615384615384615,-0.3069230769230769
-1.5953846153846152,-0.1523076923076923,0.7107692307692308,-0.0523076923076923,-0.1723076923076923,-0.3907692307692307
-1.4525,0.4408333333333333,0.4816666666666667,-0.0375,-0.2558333333333333,-0.4491666666666666
-1.4084615384615384,0.9423076923076924,-0.0723076923076923,-0.0861538461538461,-0.3330769230769231,-0.4815384615384615
-1.2858333333333334,0.855,-0.625,-0.1383333333333333,-0.4075,-0.4408333333333333
-0.4607692307692307,0.6253846153846153,-1.66,-0.15,-0.5092307692307693,-0.3361538461538461
0.1133333333333333,0.5499999999999999,-2.8075,-0.1266666666666666,-0.5599999999999999,-0.2233333333333333
0.7984615384615383,0.2946153846153846,-5.072307692307692,-0.0084615384615384,-0.4153846153846154,-0.0707692307692307
0.9333333333333332,0.2733333333333334,-6.1175,0.0883333333333333,-0.1966666666666666,-0.0508333333333333
0.6233333333333334,-0.1241666666666666,-5.513333333333333,0.13,-0.1241666666666666,-0.0966666666666666
0.8053846153846153,-0.2446153846153846,-3.838461538461538,0.1707692307692307,-0.0976923076923076,-0.1838461538461538
1.24,0.29,-2.45,0.08,-0.08,-0.24
1.8320833333333333,0.5145833333333333,-0.7745833333333333,-0.1016666666666666,-0.0404166666666666,-0.3416666666666666
2.015454545454545,-0.4281818181818181,0.1427272727272727,-0.3036363636363636,0.0309090909090909,-0.4454545454545455
1.9228571428571428,-0.8407142857142856,-0.1128571428571428,-0.33,-0.0278571428571428,-0.4028571428571428
2.207692307692308,-0.5076923076923077,-1.0415384615384615,-0.3553846153846154,-0.1023076923076923,-0.2076923076923077
2.6,-0.2,-1.4383333333333337,-0.3575,-0.0225,-0.0933333333333333
2.686666666666667,-0.15,-1.2966666666666666,-0.325,0.1183333333333333,-0.0233333333333333
1.941578947368421,0.0136842105263157,-0.3257894736842105,-0.2942105263157895,0.2857894736842105,0.1252631578947368
0.5953846153846154,0.233076923076923,1.1015384615384616,-0.3399999999999999,0.3061538461538461,0.2338461538461538
0.1483333333333333,0.1108333333333333,1.6608333333333334,-0.4608333333333334,0.1708333333333333,0.235
-0.0716666666666666,-0.4725,2.3433333333333333,-0.5308333333333334,-0.01,0.255
0.1153846153846153,-0.6407692307692308,2.646153846153846,-0.6076923076923076,-0.1684615384615384,0.2384615384615384
0.5661538461538462,-1.213846153846154,2.861538461538461,-0.58,-0.2638461538461538,0.183076923076923
0.73,-1.3333333333333333,3.0658333333333334,-0.4825,-0.2916666666666667,0.175
0.7238461538461538,-1.093076923076923,3.29,-0.4369230769230769,-0.3084615384615384,0.11
0.6849999999999999,-1.044166666666667,3.2550000000000003,-0.4324999999999999,-0.2941666666666666,0.0691666666666666
0.5527272727272727,-0.8463636363636364,2.9845454545454544,-0.4654545454545454,-0.2672727272727273,0.0627272727272727
0.4592857142857142,-0.7242857142857143,2.716428571428572,-0.4792857142857142,-0.2242857142857142,0.05
0.3266666666666666,-0.7033333333333333,2.245,-0.4316666666666666,-0.1491666666666666,0.05
0.0438461538461538,-0.5815384615384616,2.02,-0.3669230769230769,-0.1238461538461538,0.0507692307692307
-0.4515384615384615,-0.8915384615384615,1.7807692307692309,-0.2815384615384615,-0.2007692307692307,0.0715384615384615
-0.5208333333333334,-1.0233333333333334,1.5041666666666669,-0.1999999999999999,-0.2291666666666666,0.1208333333333333
-0.475,-0.9225,0.5491666666666667,-0.1341666666666666,-0.1658333333333333,0.1658333333333333
-0.5138461538461538,-0.8307692307692308,-0.3053846153846153,-0.09,-0.0607692307692307,0.2523076923076923
-0.6839999999999999,-0.682,-1.28,-0.065,-0.009,0.3
-0.7606666666666667,-0.8053333333333333,-1.2873333333333332,-0.0286666666666666,0.0466666666666666,0.2806666666666667
-0.9936363636363637,-1.0563636363636364,-0.8436363636363636,0.0263636363636363,0.1290909090909091,0.3227272727272727
-1.3442857142857143,-0.8771428571428571,-0.8078571428571429,0.0764285714285714,0.1664285714285714,0.3842857142857143
-1.9863636363636368,-0.3054545454545455,-1.2027272727272726,0.1209090909090909,0.17,0.3845454545454546
-2.000714285714285,0.1271428571428571,-1.6664285714285714,0.1371428571428571,0.1428571428571428,0.3857142857142857
-1.4542857142857142,0.3685714285714286,-2.2657142857142856,0.1571428571428571,0.0271428571428571,0.3485714285714286
-0.1661111111111111,-0.1227777777777777,-2.833333333333333,0.1672222222222222,-0.2166666666666666,0.1772222222222222
1.4366666666666663,-1.0158333333333334,-5.004166666666667,0.075,-0.1958333333333333,0.0925
1.4908333333333337,-1.125,-5.573333333333333,-0.0516666666666666,-0.0858333333333333,0.035
1.525,-0.9975,-3.4308333333333336,-0.0425,-0.0816666666666666,0.0391666666666666
2.202142857142857,-0.9171428571428571,-1.0842857142857143,0.0728571428571428,-0.0542857142857142,0.1714285714285714
2.9525,-0.0116666666666666,1.215,0.2125,0.0933333333333333,0.415
2.723846153846154,0.6900000000000001,1.3046153846153847,0.3169230769230769,0.2084615384615384,0.3984615384615384
1.84,1.3616666666666666,0.3916666666666666,0.3525,0.1899999999999999,0.2291666666666666
1.3961538461538463,1.533076923076923,-0.3607692307692308,0.2423076923076923,0.1253846153846153,0.1653846153846153
1.4083333333333332,0.6416666666666667,-0.735,0.1575,0.1641666666666666,0.1666666666666666
1.5476923076923077,-0.2723076923076923,-0.3838461538461538,0.23,0.2676923076923077,0.1023076923076923
1.4263636363636365,-1.1345454545454543,0.5390909090909092,0.3872727272727272,0.3709090909090909,0.0381818181818181
1.1764285714285714,-1.2335714285714283,1.133571428571429,0.6142857142857142,0.4842857142857143,0.0828571428571428
0.4627272727272727,-0.0236363636363636,1.9309090909090911,0.6990909090909091,0.4545454545454545,0.11
0.0885714285714285,0.5828571428571429,2.406428571428571,0.65,0.2664285714285714,0.0521428571428571
0.24,0.6923076923076923,2.863076923076923,0.5776923076923077,0.0592307692307692,0.0269230769230769
0.6158333333333333,0.7799999999999999,2.8608333333333333,0.49,0.0266666666666666,0.0616666666666666
1.0163636363636364,1.061818181818182,2.6763636363636363,0.4072727272727273,0.0545454545454545,0.0636363636363636
0.93,0.9453846153846156,2.6769230769230767,0.3661538461538461,0.0276923076923076,0.1023076923076923
0.5675,0.7200000000000001,2.48,0.3158333333333333,-0.0375,0.1358333333333333
0.6521428571428572,0.3357142857142857,2.045714285714286,0.2885714285714286,-0.0492857142857142,0.1485714285714285
0.7716666666666666,-0.1425,1.5625,0.2941666666666666,-0.04,0.155
0.7592307692307693,-0.2784615384615385,1.4515384615384617,0.27,-0.0484615384615384,0.0746153846153846
0.71,-0.5027272727272728,1.314545454545455,0.2481818181818181,-0.0581818181818181,0.0309090909090909
0.719,-0.466,1.156,0.2299999999999999,-0.027,0.04
0.6206666666666667,-0.154,0.782,0.1966666666666666,0.042,-0.01
0.4683333333333333,0.0141666666666666,0.4725,0.1633333333333333,0.0908333333333333,-0.0508333333333333
0.2046153846153846,0.2053846153846154,0.3761538461538461,0.1376923076923077,0.1246153846153846,-0.0661538461538461
0.0121428571428571,0.3371428571428571,0.6892857142857143,0.1185714285714285,0.2021428571428571,-0.11
-0.2981818181818182,0.33,0.8754545454545455,0.0709090909090909,0.2345454545454545,-0.1590909090909091
-0.4115384615384615,0.1669230769230769,0.8153846153846154,-0.0053846153846153,0.2030769230769231,-0.1907692307692307
-0.4938461538461538,0.1492307692307692,0.61,-0.0684615384615384,0.1669230769230769,-0.2376923076923076
-0.5669230769230769,0.3815384615384615,0.3907692307692307,-0.0876923076923076,0.1115384615384615,-0.3315384615384615
-0.8376923076923077,0.6638461538461538,0.1692307692307692,-0.083076923076923,0.0038461538461538,-0.4315384615384615
-0.9036363636363636,0.5454545454545454,0.1845454545454545,-0.0645454545454545,-0.0818181818181818,-0.4709090909090909
-0.7923076923076924,0.4492307692307692,0.2330769230769231,-0.0615384615384615,-0.11,-0.47
-0.7876923076923077,0.5599999999999999,-0.0784615384615384,-0.07,-0.11,-0.4707692307692307
-0.8654545454545454,0.7218181818181818,-0.6218181818181818,-0.069090909090909,-0.1154545454545454,-0.4709090909090909
-0.8661538461538462,0.9223076923076924,-0.8415384615384615,-0.09,-0.12,-0.4723076923076922
-0.629090909090909,0.9854545454545456,-1.0636363636363635,-0.1345454545454545,-0.1127272727272727,-0.4390909090909091
-0.402,0.972,-1.494,-0.142,-0.1693333333333333,-0.354
-0.003076923076923,0.8223076923076923,-3.2715384615384617,-0.1307692307692307,-0.2007692307692307,-0.2938461538461538
0.2091666666666666,0.48,-4.7491666666666665,-0.085,-0.1158333333333333,-0.185
0.4236363636363636,0.1218181818181818,-5.564545454545455,-0.0536363636363636,-0.0427272727272727,-0.13
0.4671428571428571,-0.1385714285714285,-4.734999999999999,-0.0042857142857142,-0.0614285714285714,-0.1185714285714285
0.796,0.188,-2.7700000000000005,0.0289999999999999,-0.023,-0.135
1.086,0.681,-1.849,-0.053,0.007,-0.173
1.586875,0.8456250000000001,-1.11125,-0.261875,0.01875,-0.23875
1.825,-0.3914285714285714,-0.8357142857142857,-0.3478571428571428,0.0585714285714285,-0.3821428571428571
1.762,-1.689,-0.733,-0.312,0.073,-0.4939999999999999
1.8753333333333333,-1.912,-0.5913333333333334,-0.2993333333333333,0.0626666666666666,-0.4626666666666666
2.3018181818181818,-1.6236363636363635,-0.4281818181818181,-0.29,0.0981818181818181,-0.2972727272727273
2.54,-1.0792857142857142,-0.2214285714285714,-0.2671428571428572,0.22,-0.1757142857142857
2.0518181818181818,-0.33,0.35,-0.22,0.3463636363636364,-0.0981818181818181
1.352857142857143,0.3207142857142857,0.9135714285714286,-0.2407142857142857,0.3535714285714286,0.0192857142857142
0.4381818181818182,0.8463636363636364,1.5,-0.3018181818181818,0.2709090909090909,0.0927272727272727
0.1521428571428571,0.6749999999999999,1.8785714285714283,-0.3842857142857143,0.1871428571428571,0.1578571428571428
0.1190909090909091,-0.0081818181818181,2.652727272727273,-0.4709090909090909,0.0981818181818181,0.2063636363636363
0.1623076923076923,-0.5415384615384615,3.1453846153846152,-0.483076923076923,0.02,0.2215384615384615
0.2954545454545454,-0.7754545454545455,3.7609090909090894,-0.4927272727272727,-0.0627272727272727,0.1990909090909091
0.2233333333333333,-0.9233333333333332,4.108666666666666,-0.5066666666666666,-0.2433333333333333,0.0833333333333333
0.3563636363636364,-1.4227272727272728,4.08,-0.4672727272727272,-0.3890909090909091,0.0172727272727272
0.4057142857142857,-1.4278571428571427,3.6942857142857135,-0.4321428571428571,-0.4764285714285714,-0.0521428571428571
0.4509090909090909,-1.2254545454545456,2.708181818181818,-0.4136363636363636,-0.5218181818181818,-0.1181818181818181
0.6646153846153846,-1.04,1.7761538461538462,-0.3830769230769231,-0.4907692307692307,-0.1507692307692307
1.0355555555555556,-0.7666666666666666,0.3433333333333333,-0.3333333333333333,-0.3944444444444444,-0.1922222222222222
1.006470588235294,-0.4270588235294117,-0.4705882352941176,-0.2911764705882353,-0.2547058823529411,-0.3164705882352941
0.5225,-0.57,-0.5499999999999999,-0.1983333333333333,-0.1608333333333333,-0.3391666666666666
0.235,-0.63,-0.3716666666666666,-0.0908333333333333,-0.0883333333333333,-0.1975
-0.305,-0.3375000000000001,-0.0974999999999999,-0.0183333333333333,-0.0258333333333333,-0.0641666666666666
-0.7418181818181818,-0.0854545454545454,0.0427272727272727,-0.0354545454545454,-0.0154545454545454,-0.0281818181818181
-1.0178571428571428,-0.3885714285714285,0.31,-0.0628571428571428,-0.0185714285714285,0.0285714285714285
-0.91,-0.9964285714285716,0.2714285714285714,-0.0007142857142857,0.0092857142857142,0.0964285714285714
-0.9063636363636364,-1.2372727272727273,-0.2318181818181818,0.1318181818181818,0.0363636363636363,0.1663636363636363
-0.8335714285714285,-1.0935714285714286,-0.3471428571428571,0.2564285714285714,0.0514285714285714,0.2578571428571428
-0.8463636363636364,-0.6963636363636364,-0.1427272727272727,0.3009090909090909,0.0827272727272727,0.3654545454545454
-0.9514285714285714,-0.3221428571428571,0.0914285714285714,0.2728571428571428,0.0778571428571428,0.4642857142857143
-1.16,-0.049090909090909,0.12,0.2090909090909091,0.0599999999999999,0.5245454545454545
-1.2038461538461538,-0.3192307692307692,-0.223076923076923,0.2015384615384615,0.0807692307692307,0.5392307692307692
-0.9333333333333332,-0.545,-0.8925,0.1999999999999999,0.1216666666666666,0.5616666666666666
-0.4464285714285714,-0.8335714285714285,-1.3914285714285717,0.1964285714285714,0.0107142857142857,0.4242857142857142
0.4663636363636363,-1.0181818181818183,-2.5318181818181817,0.2063636363636363,-0.1272727272727273,0.3236363636363636
0.7435714285714285,-0.5292857142857142,-3.768571428571428,0.1328571428571428,-0.0957142857142857,0.2357142857142857
0.7281818181818182,0.5063636363636363,-4.782727272727272,-0.0172727272727272,-0.0218181818181818,0.1472727272727272
0.86,0.545,-4.456,-0.154,-0.038,0.007
1.7831249999999998,-0.855,-2.7225,-0.17,-0.025625,0.0075
2.2315384615384617,-1.49,-1.2676923076923077,-0.0623076923076923,0.0853846153846153,0.1646153846153846
1.982727272727273,-1.006363636363636,-0.2163636363636363,0.1145454545454545,0.1872727272727272,0.2872727272727273
1.566923076923077,-0.0084615384615384,0.2723076923076923,0.2407692307692307,0.15,0.3115384615384615
1.1081818181818184,1.2963636363636364,0.2036363636363636,0.2718181818181818,0.0118181818181818,0.2463636363636363
1.2192857142857143,1.532857142857143,-0.2699999999999999,0.2164285714285714,-0.0742857142857142,0.1157142857142857
1.6049999999999998,0.7825000000000001,-0.5925,0.1833333333333333,0.0025,0.0891666666666666
1.5992307692307692,0.0653846153846153,-0.5692307692307692,0.2469230769230769,0.1953846153846153,0.0223076923076923
1.0325,-1.1175,-0.24,0.4191666666666667,0.4016666666666666,-0.065
0.5700000000000001,-1.6,0.141,0.597,0.483,-0.103
-0.19,-0.860625,1.030625,0.776875,0.39,-0.121875
-0.2769230769230769,0.3515384615384616,1.8192307692307688,0.7899999999999999,0.1807692307692307,-0.2146153846153846
0.0463636363636363,1.2736363636363637,2.6809090909090907,0.7036363636363636,0.0309090909090909,-0.2909090909090909
0.3771428571428571,1.477142857142857,3.0335714285714284,0.5814285714285715,-0.0371428571428571,-0.3185714285714285
0.588,1.332,3.213,0.4589999999999999,-0.078,-0.284
0.6686666666666667,0.9653333333333332,3.2419999999999995,0.384,-0.1333333333333333,-0.216
0.6418181818181817,0.6963636363636364,2.8227272727272728,0.3372727272727273,-0.21,-0.1609090909090909
0.6228571428571428,0.4714285714285714,2.48,0.3235714285714285,-0.2192857142857143,-0.1342857142857142
0.6327272727272727,0.2136363636363636,1.93,0.35,-0.1981818181818182,-0.0827272727272727
0.6359999999999999,0.263,1.642,0.383,-0.188,-0.033
0.8486666666666667,0.6359999999999999,1.1693333333333331,0.3586666666666666,-0.1493333333333333,-0.0453333333333333
0.9457142857142856,0.6799999999999999,0.9571428571428572,0.2571428571428572,-0.0564285714285714,-0.0814285714285714
0.7509090909090909,0.5309090909090909,0.8027272727272727,0.1672727272727272,0.0209090909090909,-0.0754545454545454
0.4271428571428571,0.47,0.6778571428571428,0.0914285714285714,0.0778571428571428,-0.09
-0.1072727272727272,0.2763636363636363,0.7281818181818182,0.0636363636363636,0.1154545454545454,-0.1290909090909091
-0.2345454545454545,0.08,0.7990909090909092,0.1054545454545454,0.1409090909090909,-0.149090909090909
-0.4114285714285714,0.1149999999999999,0.4892857142857142,0.1371428571428571,0.2364285714285714,-0.1335714285714286
-0.5364285714285714,0.41,0.3578571428571428,0.0657142857142857,0.3057142857142857,-0.1685714285714285
-0.88,0.67,0.73,-0.0581818181818181,0.1954545454545454,-0.209090909090909
-1.1264285714285711,0.6235714285714286,0.8078571428571429,-0.1107142857142857,0.0692857142857142,-0.2557142857142857
-1.201818181818182,0.4354545454545455,0.3263636363636363,-0.1145454545454545,-0.0545454545454545,-0.3472727272727272
-1.0392307692307694,0.4499999999999999,-0.0192307692307692,-0.13,-0.1469230769230769,-0.3861538461538462
-0.9525,0.6925,-0.385,-0.1625,-0.1883333333333333,-0.3658333333333333
-1.136923076923077,0.93,-0.5738461538461539,-0.2061538461538461,-0.2015384615384615,-0.36
-1.444,0.86,-1.024,-0.2429999999999999,-0.244,-0.367
-1.424375,0.425625,-1.719375,-0.226875,-0.354375,-0.29625
-0.6827272727272727,0.0945454545454545,-2.87,-0.1145454545454545,-0.4636363636363636,-0.1054545454545454
0.2523076923076923,0.2938461538461538,-3.860769230769231,-0.0223076923076923,-0.3976923076923077,0.0353846153846153
1.106666666666667,0.7566666666666667,-4.63,0.0183333333333333,-0.1916666666666666,0.0908333333333333
1.258,0.85,-4.648,-0.013,-0.097,0.05
1.0726666666666669,0.4486666666666667,-3.3313333333333333,0.048,-0.1213333333333333,0.0926666666666666
1.52,0.8515384615384616,-1.9553846153846155,0.1292307692307692,-0.0084615384615384,0.0815384615384615
2.1391666666666667,1.649166666666667,-0.9233333333333332,-0.0825,0.1325,-0.0316666666666666
2.163846153846154,0.6876923076923076,-0.2892307692307692,-0.3384615384615385,0.1738461538461538,-0.0969230769230769
1.99,-0.918,0.186,-0.436,0.106,-0.025
2.0113333333333334,-1.3033333333333337,0.054,-0.4233333333333333,0.0553333333333333,0.0446666666666666
2.4041666666666663,-1.005,-0.3208333333333333,-0.3958333333333333,0.1325,0.04
2.367857142857143,-0.7828571428571429,-0.4285714285714285,-0.3942857142857143,0.255,0.0621428571428571
1.4272727272727272,-0.5872727272727273,-0.21,-0.3799999999999999,0.2863636363636364,0.1136363636363636
0.701,-0.4009999999999999,0.156,-0.372,0.206,0.181
0.2,0.0126666666666666,0.67,-0.4406666666666667,-0.0006666666666666,0.1973333333333333
0.5207692307692308,0.1269230769230769,0.9138461538461538,-0.5338461538461539,-0.1446153846153846,0.2284615384615384
1.1224999999999998,-0.125,1.33,-0.5491666666666667,-0.1433333333333333,0.165
1.1092307692307692,-0.6038461538461538,1.856923076923077,-0.4961538461538461,-0.12,0.1923076923076923
0.7883333333333334,-1.0391666666666668,2.6083333333333334,-0.4908333333333333,-0.2058333333333333,0.2066666666666666
0.7323076923076923,-1.2538461538461538,2.796923076923077,-0.4938461538461538,-0.2815384615384615,0.2223076923076923
0.8675,-1.3825,2.645,-0.4508333333333333,-0.2733333333333334,0.1708333333333333
0.6707692307692308,-1.05,2.4615384615384617,-0.3915384615384615,-0.2123076923076922,0.1376923076923077
0.1575,-0.0925,2.26,-0.385,-0.1883333333333333,0.1225
-0.154,0.348,2.264,-0.392,-0.192,0.107
-0.4226666666666666,0.1993333333333333,2.369333333333333,-0.3926666666666667,-0.2633333333333333,0.094
-0.6053846153846154,-0.3307692307692307,2.4184615384615387,-0.3392307692307692,-0.38,0.1261538461538461
-0.555,-0.7225,1.75,-0.3033333333333333,-0.4008333333333334,0.1666666666666666
-0.4338461538461539,-0.6761538461538461,1.2230769230769232,-0.3007692307692307,-0.343076923076923,0.2138461538461538
-0.121,-0.639,0.714,-0.274,-0.2029999999999999,0.297
-0.0325,-0.5691666666666667,0.0149999999999999,-0.2125,0.0216666666666666,0.3758333333333333
-0.3386666666666666,-0.5293333333333333,-0.4626666666666666,-0.1346666666666666,0.336,0.4753333333333333
-0.84,-0.5761538461538461,-0.3461538461538461,-0.0269230769230769,0.5484615384615384,0.643076923076923
-1.5225,-0.2391666666666666,0.0325,0.0358333333333333,0.6166666666666667,0.7691666666666667
-1.94,0.37,0.2009999999999999,0.01,0.5740000000000001,0.857
-2.0933333333333333,0.2626666666666666,0.3033333333333333,-0.0206666666666666,0.4493333333333333,0.9146666666666668
-1.8030769230769232,-0.4338461538461538,0.1415384615384615,-0.0069230769230769,0.2176923076923076,0.8184615384615385
0.375,-2.01,-0.8324999999999999,0.1516666666666666,-0.175,0.5658333333333333
1.484,-2.396,-2.614,0.284,-0.144,0.6799999999999999
1.0161538461538462,-0.9207692307692308,-4.893846153846154,0.4361538461538461,-0.013076923076923,0.583076923076923
-0.086,1.3946666666666667,-4.105333333333333,0.17,-0.148,0.3413333333333333
1.0375,0.7374999999999999,-1.9375,0.0458333333333333,-0.2791666666666667,0.2433333333333333
2.266153846153846,-0.0769230769230769,-0.6330769230769231,0.0992307692307692,-0.19,0.3415384615384615
2.6300000000000003,-0.1708333333333333,-0.4041666666666666,0.0858333333333333,-0.03,0.36
2.1592307692307693,-0.0084615384615384,-0.806923076923077,0.0969230769230769,0.0384615384615384,0.3661538461538461
1.7525000000000002,0.5499999999999999,-1.3675,0.1125,0.0841666666666666,0.3333333333333333
1.7315384615384617,0.7923076923076923,-1.4792307692307691,0.1469230769230769,0.1807692307692307,0.2253846153846154
1.5133333333333334,0.8783333333333334,-1.1208333333333331,0.1733333333333333,0.2641666666666666,0.1233333333333333
1.3176923076923075,0.6223076923076923,-0.6076923076923078,0.183076923076923,0.2730769230769231,0.0476923076923076
1.05,0.0575,-0.0525,0.2066666666666666,0.3308333333333333,-0.015
0.8538461538461538,-0.3823076923076923,0.18,0.2576923076923077,0.4469230769230768,-0.123076923076923
0.2158333333333333,-0.64,0.5941666666666666,0.3675,0.4766666666666666,-0.2183333333333333
-0.2576923076923077,-0.1915384615384615,0.8123076923076924,0.4476923076923077,0.4169230769230769,-0.2546153846153846
-0.6325000000000001,0.8375,1.1175,0.4508333333333333,0.3324999999999999,-0.3191666666666666
-0.3992307692307693,1.2207692307692308,1.5084615384615383,0.4069230769230769,0.26,-0.3053846153846154
0.1209090909090909,1.468181818181818,1.970909090909091,0.35,0.2381818181818182,-0.2554545454545454
0.4606666666666666,1.2146666666666666,2.4546666666666668,0.2966666666666667,0.2546666666666667,-0.246
0.4618181818181818,0.6272727272727273,3.12,0.2472727272727272,0.2245454545454545,-0.2009090909090909
0.2976923076923077,0.1738461538461538,3.257692307692308,0.2707692307692307,0.1776923076923077,-0.1953846153846153
0.0741666666666666,-0.28,3.0541666666666667,0.3258333333333333,0.11,-0.2125
0.0084615384615384,-0.2184615384615384,2.8030769230769232,0.3123076923076923,0.0546153846153846,-0.1969230769230769
0.0208333333333333,-0.0924999999999999,2.5716666666666668,0.2316666666666667,0.0433333333333333,-0.2058333333333333
-0.0753846153846153,0.0646153846153846,2.4323076923076923,0.1646153846153846,0.0661538461538461,-0.1623076923076923
-0.4875,1.0066666666666666,2.0516666666666667,0.0841666666666666,0.0291666666666666,-0.1125
-0.6807692307692308,1.72,1.439230769230769,-0.0238461538461538,-0.0661538461538461,-0.0876923076923076
-0.705,1.8275,0.65,-0.1133333333333333,-0.1883333333333333,-0.0766666666666666
-0.682,1.636,0.42,-0.142,-0.266,-0.044
-0.6885,0.9325,-0.0895,-0.1355,-0.296,-0.02
-0.6553846153846153,0.1992307692307692,-0.7115384615384616,-0.1246153846153846,-0.1961538461538461,-0.08
-0.96,-0.2275,-0.89,-0.1066666666666666,-0.1141666666666666,-0.1241666666666666
-1.1984615384615385,-0.4707692307692308,-0.7438461538461538,-0.0938461538461538,-0.1261538461538461,-0.1638461538461538
-1.1175,-0.5850000000000001,-0.0725,-0.0491666666666666,-0.135,-0.2083333333333333
-1.133846153846154,-0.2084615384615384,0.3153846153846154,0.0023076923076923,-0.0869230769230769,-0.2715384615384615
-1.289090909090909,0.3963636363636364,0.4236363636363636,0.0281818181818181,-0.1463636363636363,-0.3563636363636364
-1.225,0.6428571428571429,0.2235714285714285,0.0264285714285714,-0.2557142857142857,-0.4442857142857143
-0.9325,0.5575,-0.2625,-0.0008333333333333,-0.2858333333333333,-0.5333333333333333
-0.7630769230769231,0.2876923076923077,-0.6230769230769231,-0.0176923076923076,-0.2446153846153846,-0.5784615384615385
-0.645,0.0375,-0.9825,-0.0008333333333333,-0.1475,-0.585
-0.8115384615384615,-0.0515384615384615,-0.9453846153846152,0.0076923076923076,0.0361538461538461,-0.6315384615384616
-1.5233333333333334,-0.2733333333333334,-0.6974999999999999,0.0466666666666666,0.1891666666666666,-0.6766666666666666
-1.9138461538461533,-0.3369230769230769,-0.5692307692307692,0.123076923076923,0.1838461538461538,-0.6546153846153846
-1.3591666666666666,0.0183333333333333,-1.0666666666666669,0.2383333333333333,0.0375,-0.5658333333333333
-0.1185714285714285,0.4792857142857142,-2.151428571428572,0.41,-0.0714285714285714,-0.3557142857142857
1.65,1.8445454545454545,-3.5063636363636363,0.5527272727272727,-0.079090909090909,-0.0718181818181818
2.6315384615384616,2.24,-3.61,0.6176923076923077,0.0446153846153846,0.0907692307692307
3.37,1.7699999999999998,-2.315,0.5825,0.1883333333333333,0.1508333333333333
3.2930769230769235,0.9861538461538462,-0.6830769230769231,0.3984615384615384,0.2361538461538461,0.1307692307692307
3.356666666666667,0.2566666666666666,1.4833333333333334,0.1566666666666666,0.2741666666666666,-0.0
3.2115384615384617,-0.3069230769230769,2.232307692307692,-0.1338461538461538,0.3415384615384615,-0.2053846153846154
2.5275,-1.3616666666666666,1.8525,-0.4091666666666667,0.3633333333333333,-0.3416666666666666
2.164615384615385,-1.7146153846153849,1.013076923076923,-0.6092307692307692,0.3107692307692308,-0.3392307692307692
1.815,-1.845,-0.23,-0.6541666666666667,0.2133333333333333,-0.29
1.5415384615384615,-1.666923076923077,-0.6761538461538461,-0.5053846153846154,0.0976923076923076,-0.1923076923076923
1.24,-0.5608333333333333,-0.6341666666666667,-0.3416666666666666,-0.02,-0.0633333333333333
1.3946153846153846,0.2892307692307692,-0.3292307692307692,-0.2969230769230769,-0.0638461538461538,0.0392307692307692
1.8675,0.48,0.5375,-0.3433333333333333,0.0116666666666666,0.1375
1.926153846153846,0.2646153846153846,0.9469230769230768,-0.4169230769230769,0.0953846153846153,0.2369230769230769
1.6475,0.0041666666666666,1.2658333333333334,-0.5166666666666667,0.1291666666666666,0.2833333333333333
1.2976923076923077,-0.1961538461538461,1.2815384615384615,-0.6184615384615384,0.1192307692307692,0.3223076923076923
0.9275,-0.355,1.0125,-0.68,0.0758333333333333,0.3374999999999999
0.856923076923077,-0.3753846153846153,0.823076923076923,-0.6707692307692308,0.0169230769230769,0.4015384615384615
1.155,-0.3125,0.7324999999999999,-0.5941666666666666,-0.0341666666666666,0.4241666666666666
1.3023076923076924,-0.5215384615384615,0.7107692307692308,-0.4969230769230769,0.0084615384615384,0.3146153846153846
1.2133333333333334,-0.8883333333333333,0.6458333333333334,-0.4208333333333333,0.1283333333333333,0.245
0.963846153846154,-1.0799999999999998,0.4,-0.3576923076923077,0.1592307692307692,0.2238461538461538
0.4466666666666667,-1.1758333333333333,0.1541666666666666,-0.3191666666666666,0.0974999999999999,0.1825
0.2946153846153846,-1.1107692307692307,0.1261538461538461,-0.2623076923076923,0.0615384615384615,0.1353846153846153
0.3875,-0.8575,0.155,-0.175,0.0733333333333333,0.1191666666666666
0.453076923076923,-0.4753846153846153,0.2969230769230769,-0.0753846153846153,0.103076923076923,0.1561538461538461
0.345,0.175,0.465,-0.0349999999999999,0.1441666666666666,0.2191666666666666
0.1838461538461538,0.4776923076923077,0.4246153846153845,-0.0492307692307692,0.1630769230769231,0.2692307692307692
-0.1025,0.4975,0.3275,-0.06,0.1608333333333333,0.2791666666666667
-0.2492307692307692,0.4007692307692307,0.3446153846153846,-0.0684615384615384,0.1384615384615384,0.2715384615384615
-0.2516666666666666,0.1983333333333333,0.4233333333333333,-0.1058333333333333,0.1525,0.2866666666666667
-0.15,-0.0807692307692307,0.5107692307692309,-0.1338461538461538,0.1853846153846154,0.32
0.125,-0.3625,0.5975,-0.1208333333333333,0.1758333333333333,0.3358333333333334
0.1923076923076923,-0.2007692307692307,0.4138461538461538,-0.1169230769230769,0.183076923076923,0.3323076923076923
-0.0766666666666666,0.0308333333333333,-0.0891666666666666,-0.145,0.2208333333333333,0.3366666666666666
-0.2053846153846154,-0.0476923076923076,-0.2884615384615384,-0.1515384615384615,0.2492307692307692,0.3576923076923076
-0.5366666666666666,-0.4083333333333334,-0.0316666666666666,-0.1125,0.1866666666666666,0.3716666666666666
-0.7746153846153846,-0.6138461538461539,0.2069230769230769,-0.06,0.0715384615384615,0.3823076923076923
-0.905,-1.09,0.7399999999999999,0.025,-0.0533333333333333,0.3991666666666666
-1.0046153846153845,-1.2246153846153849,0.9192307692307692,0.093076923076923,-0.183076923076923,0.44
-1.265,-0.95,0.5700000000000001,0.0958333333333333,-0.2891666666666667,0.4624999999999999
-1.43,-0.713076923076923,0.1069230769230769,0.0846153846153846,-0.3723076923076923,0.5292307692307693
-1.6075,-0.15,-0.6725,0.0583333333333333,-0.4441666666666666,0.5666666666666667
-1.676923076923077,0.2976923076923077,-0.9930769230769232,-0.0007692307692307,-0.4961538461538461,0.5338461538461539
-1.5175,0.8125,-1.3949999999999998,-0.1166666666666666,-0.54,0.4875
-1.3299999999999998,1.0707692307692307,-1.74,-0.2276923076923077,-0.56,0.4792307692307692
-1.1466666666666667,2.293333333333333,-2.2433333333333336,-0.4675,-0.6908333333333333,0.5
-0.7646153846153846,2.5561538461538458,-2.229230769230769,-0.7838461538461539,-1.023846153846154,0.37
1.3125,0.2699999999999999,-1.27,-0.7316666666666666,-1.2416666666666667,0.1541666666666666
3.5623076923076926,-1.7507692307692306,-0.7330769230769231,-0.2661538461538461,-1.0307692307692309,-0.0538461538461538
5.4075,-3.6725,-0.8825,0.3458333333333334,-0.51,-0.2625
4.353076923076923,-3.4046153846153846,-1.7915384615384615,0.663076923076923,-0.113076923076923,-0.3069230769230769
2.5500000000000003,-2.0425,-2.4,0.705,0.0441666666666666,-0.3275
2.277692307692308,-1.4061538461538463,-1.9538461538461536,0.7176923076923077,0.133076923076923,-0.3284615384615384
2.45,-0.1441666666666667,-0.5383333333333333,0.7600000000000001,0.2183333333333333,-0.3583333333333333
2.356923076923077,0.8469230769230769,0.5,0.8138461538461539,0.3215384615384615,-0.4123076923076923
1.68,2.0,1.1808333333333334,0.7975,0.3266666666666666,-0.4375
1.2369230769230768,2.5592307692307696,1.0684615384615386,0.6615384615384615,0.1715384615384615,-0.4269230769230769
1.0308333333333335,2.725,0.3825,0.545,-0.0083333333333333,-0.3591666666666666
0.9869230769230768,2.5546153846153845,-0.2484615384615384,0.4499999999999999,-0.1546153846153846,-0.2746153846153846
1.2966666666666666,1.9566666666666668,-0.9216666666666667,0.3708333333333333,-0.1633333333333333,-0.2041666666666667
1.3815384615384616,1.276923076923077,-0.9376923076923078,0.3392307692307692,-0.1092307692307692,-0.173076923076923
1.31,0.3266666666666666,-0.3144444444444444,0.3466666666666667,-0.0533333333333333,-0.18
1.08875,-0.20375,0.3825,0.393125,0.015625,-0.14
0.4725,-0.2908333333333333,1.4174999999999998,0.4016666666666666,0.0775,-0.1175
0.1461538461538461,-0.2484615384615384,1.9415384615384617,0.43,0.0907692307692307,-0.1384615384615384
-0.14,0.1924999999999999,2.6325,0.4725,0.0233333333333333,-0.1208333333333333
-0.2692307692307692,0.78,2.9723076923076923,0.4476923076923077,-0.0707692307692307,-0.0761538461538461
-0.0483333333333333,1.3575,2.9275,0.3974999999999999,-0.1175,-0.0241666666666666
0.1,1.3946153846153846,2.500769230769232,0.3284615384615384,-0.1269230769230769,0.0253846153846153
0.4083333333333332,1.3325,1.9891666666666667,0.2608333333333333,-0.0941666666666666,0.0508333333333333
0.7776923076923077,1.043076923076923,1.6653846153846157,0.1876923076923076,-0.0046153846153846,0.0753846153846153
1.53,0.4785714285714286,1.3257142857142858,0.1428571428571428,0.1571428571428571,0.1128571428571428
1.6755555555555557,0.3705555555555555,1.5155555555555555,0.0916666666666666,0.4088888888888889,0.0866666666666666
-0.2866666666666667,0.2216666666666666,2.04,0.0808333333333333,0.5075,0.0016666666666666
-1.5424999999999998,0.0908333333333333,2.0541666666666667,0.0841666666666666,0.3366666666666666,-0.1358333333333333
-2.079230769230769,-0.0953846153846153,1.6376923076923076,0.0676923076923076,0.103076923076923,-0.2553846153846154
-1.6363636363636365,-0.0263636363636363,1.29,0.0627272727272727,-0.0354545454545454,-0.3281818181818182
-0.5207142857142857,0.3242857142857143,0.3464285714285714,0.0385714285714285,-0.0121428571428571,-0.4578571428571428
-0.2553846153846154,0.4715384615384615,-0.2646153846153846,0.0007692307692307,0.0446153846153846,-0.6
-0.4958333333333333,0.3883333333333333,-0.6466666666666666,-0.0225,0.0533333333333333,-0.6616666666666667
-0.6961538461538462,0.33,-0.8661538461538462,-0.0223076923076923,0.0553846153846153,-0.7353846153846154
-1.055,0.5191666666666667,-1.4733333333333334,0.0116666666666666,-0.0141666666666666,-0.7083333333333334
-0.9346153846153846,0.8684615384615384,-2.016923076923077,0.0746153846153846,-0.1623076923076923,-0.5623076923076923
-0.3490909090909091,1.1627272727272728,-3.119090909090909,0.1372727272727272,-0.2027272727272727,-0.4490909090909091
0.1385714285714285,1.305,-4.1692857142857145,0.1585714285714285,-0.05,-0.3464285714285714
1.1516666666666666,1.2541666666666669,-4.601666666666667,0.0875,0.0974999999999999,-0.3191666666666666
1.6909090909090911,1.1845454545454546,-3.983636363636364,0.0154545454545454,0.1136363636363636,-0.2727272727272727
2.2264285714285714,1.4964285714285714,-2.751428571428572,0.0321428571428571,0.2085714285714285,-0.335
2.223076923076923,1.6884615384615385,-1.9746153846153844,-0.1315384615384615,0.3576923076923077,-0.4169230769230769
2.033333333333333,-0.1116666666666666,-0.4441666666666666,-0.2716666666666666,0.4108333333333333,-0.3625
2.0275,-1.1125,0.2041666666666667,-0.3066666666666666,0.3766666666666666,-0.2875
2.0330769230769232,-1.386153846153846,0.2423076923076923,-0.2946153846153846,0.2792307692307692,-0.1276923076923077
2.332307692307692,-0.8192307692307692,-0.1292307692307692,-0.2684615384615385,0.2261538461538461,0.0192307692307692
2.591818181818182,0.0727272727272727,-0.3872727272727272,-0.2518181818181818,0.2981818181818182,0.1027272727272727
2.1814285714285715,0.6507142857142857,-0.2014285714285714,-0.2657142857142857,0.3892857142857143,0.1592857142857142
1.3690909090909091,1.038181818181818,0.459090909090909,-0.3527272727272727,0.4281818181818181,0.2227272727272727
1.0091666666666668,0.8658333333333333,1.0133333333333334,-0.4683333333333333,0.3825,0.2141666666666667
0.7935714285714285,-0.2185714285714285,2.032857142857143,-0.5414285714285715,0.2799999999999999,0.185
0.7246153846153847,-0.943846153846154,2.613846153846154,-0.5384615384615384,0.1769230769230769,0.1676923076923077
0.605,-1.3966666666666667,2.9408333333333334,-0.5016666666666666,0.1008333333333333,0.1291666666666666
0.5063636363636363,-1.4254545454545455,2.87,-0.4518181818181818,0.0154545454545454,0.0354545454545454
0.7057142857142857,-0.9914285714285712,2.5650000000000004,-0.4078571428571428,-0.0707142857142857,-0.04
1.253076923076923,-0.6315384615384615,2.363076923076924,-0.3807692307692308,-0.0807692307692307,-0.1
1.4525,-0.49,2.11,-0.36,-0.01,-0.1241666666666666
1.2875,-0.2958333333333333,1.9175,-0.3441666666666667,0.0575,-0.1208333333333333
0.5530769230769231,-0.0169230769230769,1.6223076923076922,-0.29,0.0246153846153846,-0.1053846153846154
-0.0515384615384615,0.1853846153846154,1.4784615384615385,-0.2523076923076923,-0.1161538461538461,-0.0723076923076923
-0.4225,0.2858333333333333,1.2075,-0.2275,-0.2008333333333333,-0.0041666666666666
-0.4466666666666667,-0.0075,1.3258333333333334,-0.1775,-0.2675,0.065
-0.1976923076923076,-0.3607692307692308,1.3484615384615384,-0.1384615384615384,-0.3046153846153846,0.0892307692307692
0.1,-0.4361538461538461,0.9723076923076922,-0.1053846153846154,-0.2369230769230769,0.14
0.4158333333333333,-0.4091666666666667,0.2908333333333333,-0.075,-0.0916666666666666,0.1841666666666666
0.343076923076923,-0.3253846153846154,-0.3069230769230769,-0.0553846153846153,0.083076923076923,0.2215384615384615
-0.0327272727272727,-0.449090909090909,-0.4545454545454545,-0.009090909090909,0.1681818181818181,0.2636363636363636
-0.3716666666666666,-0.48,-0.1825,0.0508333333333333,0.1808333333333333,0.3108333333333333
-0.9142857142857144,-0.2371428571428571,0.3742857142857143,0.0878571428571428,0.1228571428571428,0.37
-1.0436363636363637,-0.0954545454545454,0.6854545454545454,0.1118181818181818,0.059090909090909,0.4172727272727272
-1.0678571428571428,0.0292857142857142,0.5778571428571428,0.1399999999999999,0.0221428571428571,0.4342857142857143
-0.94,-0.2084615384615384,0.2415384615384615,0.1669230769230769,0.0053846153846153,0.4607692307692307
-0.635,-0.4791666666666667,-0.3575,0.1949999999999999,0.0225,0.4658333333333333
-0.5958333333333333,-0.5525,-0.61,0.2191666666666666,0.0349999999999999,0.4216666666666666
-0.5423076923076923,-0.8484615384615384,-0.9146153846153846,0.2546153846153846,-0.0469230769230769,0.2815384615384615
-0.2153846153846153,-1.0246153846153847,-1.3946153846153846,0.2761538461538462,-0.19,0.133076923076923
-0.069090909090909,-0.8172727272727273,-2.5427272727272725,0.209090909090909,-0.2618181818181818,-0.0363636363636363
-0.18,-0.4666666666666666,-3.18,0.0316666666666666,-0.3108333333333333,-0.1466666666666666
-0.5235714285714286,0.27,-3.231428571428572,-0.1421428571428571,-0.4342857142857143,-0.1914285714285714
-0.1207692307692307,0.3207692307692307,-2.766153846153846,-0.2276923076923077,-0.5515384615384616,-0.2476923076923077
2.1157142857142857,-0.1771428571428571,-1.8585714285714283,-0.1885714285714285,-0.4857142857142857,-0.2057142857142857
3.5505555555555555,-0.7733333333333333,-1.137222222222222,-0.0594444444444444,-0.1705555555555555,-0.0761111111111111
3.3175000000000003,-1.075,-0.9325,0.1533333333333333,0.1625,0.0825
2.703076923076923,-0.46,-1.0646153846153843,0.2915384615384615,0.2276923076923077,0.1738461538461538
2.0108333333333333,0.96,-1.315,0.2658333333333333,0.1325,0.16
1.9707692307692308,1.4546153846153846,-1.366923076923077,0.1546153846153846,0.0692307692307692,0.1176923076923077
2.1966666666666668,1.3633333333333333,-1.0033333333333332,0.0691666666666666,0.1541666666666666,0.0783333333333333
1.7730769230769228,0.7569230769230769,-0.5053846153846154,0.0923076923076923,0.2946153846153846,0.0384615384615384
0.9463636363636364,-0.1590909090909091,0.0118181818181818,0.2472727272727272,0.4136363636363636,0.0245454545454545
0.7078571428571429,-0.4821428571428571,0.3928571428571428,0.4542857142857143,0.4885714285714285,-0.0207142857142857
0.2299999999999999,-0.1925,1.04,0.5891666666666667,0.5033333333333333,-0.0991666666666666
-0.1038461538461538,0.0853846153846153,1.4484615384615387,0.6569230769230769,0.4538461538461539,-0.1776923076923077
-0.5109090909090909,0.5690909090909091,2.0209090909090905,0.6581818181818182,0.3090909090909091,-0.2190909090909091
-0.7008333333333333,0.7641666666666667,2.5791666666666666,0.625,0.0558333333333333,-0.2533333333333333
-0.9146153846153846,0.8376923076923077,3.349230769230769,0.5476923076923077,-0.2361538461538461,-0.2207692307692307
0.0485714285714285,0.7128571428571429,3.432142857142857,0.475,-0.1721428571428571,-0.1378571428571428
1.7563636363636363,0.5945454545454546,3.041818181818182,0.4909090909090909,0.1290909090909091,-0.1918181818181818
1.8807692307692307,0.5961538461538461,3.26076923076923,0.4861538461538461,0.1838461538461538,-0.1507692307692307
1.1216666666666666,0.6108333333333333,3.0875,0.4308333333333333,0.1383333333333333,-0.0558333333333333
0.3330769230769231,0.6384615384615385,2.327692307692308,0.3592307692307692,0.0638461538461538,-0.0676923076923076
-0.5192307692307693,0.9676923076923076,1.1776923076923076,0.2384615384615384,-0.0853846153846153,-0.13
-0.954,1.075,0.841,0.102,-0.25,-0.128
-0.7521428571428571,0.9328571428571428,0.1285714285714286,0.0078571428571428,-0.3314285714285714,-0.16
0.6176923076923078,0.7753846153846153,-0.6699999999999999,-0.0292307692307692,-0.2038461538461538,-0.2161538461538461
1.425,0.6908333333333333,-0.9533333333333333,-0.055,-0.0124999999999999,-0.2241666666666666
0.9228571428571428,0.6142857142857142,-0.8021428571428572,-0.0635714285714285,0.1085714285714285,-0.1942857142857143
0.1366666666666667,0.6383333333333333,-0.18,-0.0191666666666666,0.1783333333333333,-0.21
-0.4433333333333333,0.7174999999999999,0.5341666666666667,0.0216666666666666,0.1375,-0.2408333333333333
-1.0799999999999998,0.375,1.4,0.0241666666666666,0.055,-0.3266666666666666
-1.4483333333333337,-0.3341666666666666,1.4683333333333335,0.0641666666666666,-0.0441666666666666,-0.4083333333333334
-1.990769230769231,-0.1092307692307692,0.5592307692307693,0.09,-0.1676923076923077,-0.4761538461538461
-1.881428571428572,0.6014285714285714,-0.4007142857142857,0.08,-0.2828571428571428,-0.5642857142857143
-1.0991666666666666,0.8883333333333333,-0.6683333333333333,0.0433333333333333,-0.2633333333333333,-0.6141666666666666
-0.7815384615384615,1.050769230769231,-0.7038461538461539,-0.0469230769230769,-0.1861538461538461,-0.5676923076923077
-0.2825,1.268333333333333,-1.0841666666666667,-0.1458333333333333,-0.1641666666666666,-0.4441666666666666
0.0369230769230769,1.3876923076923076,-1.7353846153846155,-0.1438461538461538,-0.2515384615384615,-0.2561538461538462
0.2683333333333333,1.2516666666666667,-3.651666666666667,-0.0566666666666666,-0.2283333333333333,-0.0933333333333333
0.3358333333333334,0.9041666666666668,-4.791666666666667,0.0666666666666666,-0.025,0.0333333333333333
0.5707692307692308,0.7069230769230769,-5.068461538461539,0.1338461538461538,0.1892307692307692,0.1769230769230769
0.6218181818181818,0.7263636363636364,-4.552727272727273,0.2163636363636363,0.2809090909090909,0.2345454545454545
1.737142857142857,1.9092857142857145,-3.22,0.1807142857142857,0.3414285714285714,0.1128571428571428
2.657272727272727,2.2154545454545453,-2.3390909090909093,-0.0672727272727272,0.4363636363636363,-0.1118181818181818
2.6215384615384614,0.1284615384615385,-0.8623076923076923,-0.2984615384615384,0.4876923076923077,-0.2992307692307692
1.9423076923076923,-1.4830769230769232,0.1884615384615384,-0.3846153846153846,0.3346153846153846,-0.32
1.393333333333333,-2.045,0.9216666666666664,-0.34,0.055,-0.2191666666666666
1.633076923076923,-1.399230769230769,0.8853846153846153,-0.2984615384615384,-0.1176923076923077,-0.093076923076923
2.45,-0.2438461538461538,0.6907692307692308,-0.2738461538461539,-0.0423076923076923,0.0823076923076923
2.38,0.4027272727272727,0.7427272727272727,-0.2818181818181818,0.09,0.1590909090909091
1.4166666666666667,0.9866666666666668,1.366666666666667,-0.3116666666666667,0.135,0.2691666666666666
0.6226666666666667,1.370666666666667,2.0340000000000003,-0.394,0.0726666666666666,0.434
-0.0272727272727272,1.088181818181818,2.8363636363636364,-0.5181818181818182,-0.0872727272727272,0.4436363636363636
-0.1041666666666666,0.5458333333333333,3.2116666666666664,-0.6075,-0.2225,0.3808333333333333
0.3238461538461538,-0.9053846153846152,3.566153846153846,-0.5623076923076923,-0.3,0.3715384615384615
0.7284615384615384,-1.4823076923076923,3.7830769230769232,-0.4823076923076922,-0.29,0.3276923076923076
1.005,-1.6466666666666665,3.796666666666667,-0.4441666666666666,-0.2658333333333333,0.2408333333333333
0.8857142857142858,-1.490714285714286,3.4285714285714284,-0.4692857142857143,-0.26,0.1864285714285714
0.7354545454545455,-1.471818181818182,2.6163636363636367,-0.4763636363636364,-0.2618181818181818,0.0609090909090909
0.6653846153846155,-1.3646153846153846,2.016923076923077,-0.4538461538461539,-0.2438461538461538,-0.0707692307692307
0.6446153846153847,-0.8815384615384616,0.9315384615384616,-0.4192307692307692,-0.1546153846153846,-0.1484615384615384
0.4538461538461539,-0.4907692307692307,0.1992307692307692,-0.3961538461538462,-0.0884615384615384,-0.1576923076923077
0.0325,-0.2141666666666667,-0.1866666666666666,-0.3316666666666666,-0.0958333333333333,-0.1341666666666666
-0.3461538461538461,-0.0976923076923076,-0.1661538461538461,-0.2169230769230769,-0.2061538461538461,-0.1176923076923077
-0.279,0.041,-0.498,-0.11,-0.258,-0.075
0.232,0.2593333333333333,-0.9826666666666668,-0.0773333333333333,-0.1673333333333333,0.0486666666666666
0.6758333333333333,0.1691666666666667,-1.2141666666666666,-0.1166666666666666,-0.0333333333333333,0.2008333333333333
0.5066666666666667,-0.1324999999999999,-0.8825,-0.09,0.0391666666666666,0.3033333333333333
0.049090909090909,-0.3772727272727273,-0.4636363636363637,-0.0545454545454545,0.0781818181818181,0.3127272727272727
-0.3491666666666666,-0.4841666666666667,-0.41,-0.0191666666666666,0.1033333333333333,0.3125
-0.5614285714285714,-0.4942857142857143,-0.1614285714285714,-0.0021428571428571,0.1542857142857143,0.3428571428571428
-0.8571428571428571,-0.5907142857142856,0.3371428571428571,0.0064285714285714,0.1507142857142857,0.35
-1.2875,-0.7374999999999999,0.77,-0.0108333333333333,0.1141666666666666,0.36
-1.4792307692307691,-0.8123076923076924,0.5392307692307692,0.0069230769230769,0.0876923076923076,0.3630769230769231
-1.39,-0.8649999999999999,-0.125,0.0758333333333333,0.0516666666666666,0.3783333333333333
-1.225833333333333,-0.8416666666666667,-0.5041666666666667,0.145,0.0316666666666666,0.4208333333333333
-0.8830769230769231,-0.4338461538461538,-1.3292307692307692,0.1707692307692307,0.0323076923076923,0.4123076923076923
-0.3269230769230769,-0.5453846153846154,-1.9684615384615385,0.2307692307692307,-0.0861538461538461,0.2907692307692308
0.25,-0.5599999999999999,-3.3,0.267,-0.183,0.158
0.3491666666666666,-0.1616666666666666,-4.8133333333333335,0.1266666666666666,-0.0974999999999999,0.0258333333333333
0.3771428571428571,0.2057142857142857,-5.758571428571429,-0.0314285714285714,-0.0592857142857142,-0.0485714285714285
0.7908333333333334,0.105,-4.505,-0.0466666666666666,-0.07,-0.0341666666666666
1.847692307692308,-0.2153846153846153,-1.656923076923077,-0.0,-0.0315384615384615,0.0484615384615384
2.359090909090909,-0.2109090909090909,-0.1463636363636363,0.0954545454545454,-0.0054545454545454,0.2436363636363636
2.345714285714286,0.2921428571428571,0.7242857142857143,0.215,-0.0064285714285714,0.3485714285714286
2.091666666666667,0.7825000000000001,0.6891666666666666,0.26,-0.0383333333333333,0.3658333333333333
1.9846153846153844,1.7615384615384615,0.2361538461538461,0.1646153846153846,-0.0323076923076923,0.2769230769230769
2.1,1.6476923076923076,-0.04,0.0446153846153846,-0.0138461538461538,0.1407692307692307
2.305,0.6559999999999999,0.25,-0.001,0.014,0.092
