accx,accy,accz,gyrox,gyroy,gyroz
0.508,-1.4213333333333331,0.6566666666666666,0.1026666666666666,0.5446666666666666,-0.2446666666666666
0.30000000000000004,-1.5710000000000002,0.753,0.143,0.554,-0.2029999999999999
-0.12333333333333352,-1.4953333333333334,0.9733333333333334,0.2206666666666666,0.53,-0.1113333333333333
-0.4616666666666669,-1.1541666666666666,1.1333333333333333,0.3583333333333333,0.4825,0.0216666666666666
-0.3672727272727272,-0.6490909090909092,0.8509090909090911,0.4363636363636363,0.4472727272727272,0.1063636363636363
0.00846153846153841,-0.2984615384615385,0.7153846153846154,0.4561538461538462,0.4161538461538461,0.1046153846153846
0.4821428571428571,0.175,0.6992857142857142,0.4678571428571428,0.3871428571428571,0.0442857142857142
0.6090909090909091,0.3527272727272727,0.8372727272727272,0.4918181818181818,0.3754545454545454,-0.0218181818181818
0.6221428571428572,0.3999999999999999,0.9035714285714286,0.4842857142857142,0.4178571428571428,-0.0664285714285714
0.507,0.567,0.865,0.454,0.471,-0.057
0.42666666666666664,0.6606666666666666,0.478,0.3253333333333333,0.55,-0.0533333333333333
0.5663636363636364,1.1654545454545453,0.6636363636363637,0.1009090909090909,0.6718181818181818,-0.0663636363636363
1.7421428571428572,1.56,1.6992857142857145,-0.0771428571428571,0.7028571428571428,-0.2114285714285714
1.9236363636363636,1.5745454545454545,2.3181818181818183,-0.0918181818181818,0.6590909090909091,-0.3981818181818182
0.8983333333333334,1.600833333333333,1.7733333333333334,0.0825,0.5891666666666667,-0.4841666666666666
0.055384615384615254,2.246153846153846,0.3784615384615384,0.2469230769230769,0.3315384615384615,-0.5076923076923077
-1.027857142857143,3.977142857142857,-2.4692857142857143,0.1714285714285714,-0.0114285714285714,-0.5621428571428572
-0.3190909090909091,4.735454545454545,-3.857272727272728,-0.17,-0.3181818181818182,-0.7327272727272728
0.6107142857142858,3.623571428571428,-3.886428571428571,-0.4957142857142856,-0.5992857142857143,-0.97
0.7989999999999999,1.606,-3.047,-0.5660000000000001,-0.5900000000000001,-1.035
0.8153333333333335,-1.2426666666666668,-1.784,-0.472,-0.4473333333333333,-0.8806666666666667
0.5309090909090909,-2.630909090909091,-1.510909090909091,-0.5245454545454545,-0.3227272727272727,-0.4481818181818182
0.4257142857142856,-2.975714285714286,-1.0442857142857145,-0.5735714285714285,-0.1357142857142857,0.1478571428571428
1.1527272727272728,-2.6145454545454547,-0.6436363636363637,-0.4609090909090909,0.0418181818181818,0.6618181818181819
2.6921428571428567,-1.66,-0.7614285714285715,-0.2964285714285714,0.075,0.8742857142857143
3.1563636363636363,-0.9272727272727272,-1.3327272727272728,-0.2227272727272727,0.0009090909090909,0.7909090909090909
2.251428571428571,0.2364285714285714,-1.5299999999999998,-0.2078571428571428,-0.1364285714285714,0.6449999999999999
1.0418181818181818,0.3672727272727272,-1.2063636363636363,-0.17,-0.34,0.48
-0.10461538461538478,-0.0369230769230769,-0.9046153846153846,-0.1238461538461538,-0.4838461538461538,0.3246153846153846
-0.5116666666666667,-0.665,-0.7775,-0.09,-0.5841666666666666,0.3208333333333333
0.16230769230769226,-1.1307692307692307,-0.7107692307692308,-0.0192307692307692,-0.713076923076923,0.4046153846153846
0.8283333333333334,-0.9933333333333332,-0.9291666666666668,-0.0075,-0.7816666666666667,0.5316666666666666
1.9658333333333333,-0.6816666666666666,-1.0616666666666668,-0.0316666666666666,-0.7216666666666667,0.615
2.7784615384615385,-0.6807692307692308,-0.7238461538461538,-0.0384615384615384,-0.6676923076923077,0.5715384615384616
3.0375,-1.3375,-0.0166666666666666,-0.01,-0.5825,0.455
2.606666666666667,-1.7533333333333332,0.35,0.0133333333333333,-0.5041666666666667,0.3975
2.303571428571429,-2.020714285714285,0.7464285714285713,0.0249999999999999,-0.4307142857142857,0.3592857142857143
2.4891666666666667,-2.0483333333333333,1.0041666666666669,0.0791666666666666,-0.3833333333333333,0.2441666666666666
2.5761538461538462,-1.826153846153846,1.3761538461538465,0.2346153846153846,-0.3546153846153846,0.0715384615384615
2.3116666666666665,-1.4925,1.3966666666666665,0.3633333333333333,-0.2825,-0.0999999999999999
1.916923076923077,-0.9861538461538462,1.13,0.4076923076923077,-0.1976923076923076,-0.2176923076923076
1.795,-0.6641666666666667,0.8650000000000001,0.3808333333333333,-0.0891666666666666,-0.2741666666666666
1.6857142857142857,-0.06,0.7085714285714285,0.3407142857142857,-0.0028571428571428,-0.2614285714285714
1.6572727272727272,0.5645454545454546,0.8818181818181817,0.3809090909090909,0.0381818181818181,-0.179090909090909
1.703076923076923,1.2815384615384615,0.7953846153846154,0.4176923076923077,0.0492307692307692,-0.0715384615384615
1.6,1.302,0.506,0.382,0.0169999999999999,-0.012
1.1066666666666667,1.2653333333333334,0.122,0.2813333333333333,-0.0793333333333333,-0.0353333333333333
0.27,1.465833333333333,0.2908333333333333,0.1141666666666666,-0.2791666666666667,0.0041666666666666
-0.6230769230769231,1.9469230769230768,1.1346153846153846,-0.0376923076923076,-0.4907692307692307,0.1269230769230769
-0.6525000000000001,2.1133333333333333,1.76,-0.1216666666666666,-0.6433333333333333,0.285
-0.1858333333333333,1.555,2.275,-0.1958333333333333,-0.7475,0.4158333333333333
0.21153846153846156,0.8,2.5346153846153845,-0.2653846153846154,-0.8315384615384616,0.4823076923076922
1.0592307692307692,-0.1046153846153846,3.13,-0.2046153846153846,-0.7861538461538462,0.5123076923076924
1.9872727272727273,0.2518181818181818,2.985454545454546,0.0109090909090909,-0.7181818181818181,0.4509090909090909
2.2642857142857142,1.5057142857142856,1.966428571428572,0.2157142857142857,-0.5985714285714286,0.3742857142857143
2.5650000000000004,2.615833333333333,0.5650000000000001,0.3991666666666666,-0.3241666666666666,0.3691666666666666
2.7575000000000003,3.8075,-1.8041666666666665,0.3825,0.0683333333333333,0.5025000000000001
3.0915384615384616,3.955384615384615,-2.7115384615384617,0.2084615384615384,0.4876923076923077,0.7623076923076924
4.196153846153846,1.7961538461538462,-3.1846153846153844,-0.0161538461538461,0.7092307692307691,0.7915384615384615
3.99,-0.3408333333333333,-3.1983333333333337,-0.215,0.6025,0.5233333333333333
2.4023076923076925,-2.712307692307692,-2.9853846153846155,-0.4407692307692308,0.4815384615384615,0.1846153846153846
0.9883333333333334,-3.348333333333333,-2.283333333333333,-0.5633333333333334,0.435,-0.1558333333333333
-0.5607692307692309,-2.935384615384616,-0.9415384615384615,-0.48,0.3023076923076923,-0.5192307692307693
-1.605833333333333,-2.1750000000000003,-0.19,-0.2291666666666666,0.1908333333333333,-0.6283333333333333
-1.6107692307692307,-1.189230769230769,-0.0976923076923076,-0.0523076923076923,0.1346153846153846,-0.5207692307692308
-0.9199999999999999,-0.247,-0.373,-0.051,0.185,-0.377
0.42266666666666663,1.2146666666666666,-0.6773333333333333,-0.0833333333333333,0.29,-0.2893333333333333
1.8016666666666667,1.1891666666666667,-0.8700000000000001,-0.0733333333333333,0.2166666666666666,-0.3575
1.3830769230769229,0.3061538461538461,-0.923846153846154,-0.2153846153846153,0.1946153846153846,-0.446923076923077
0.4390909090909091,-0.3572727272727273,-0.4381818181818182,-0.2954545454545454,0.2618181818181818,-0.46
-0.036363636363636376,-1.318181818181818,0.2763636363636363,-0.2181818181818181,0.2918181818181818,-0.4727272727272727
0.126,-1.8566666666666665,0.7933333333333332,-0.0006666666666666,0.2373333333333333,-0.5013333333333333
0.4061538461538462,-1.976153846153846,1.3846153846153846,0.2576923076923077,0.2076923076923077,-0.4684615384615384
0.5527272727272727,-1.7772727272727271,1.3154545454545454,0.3554545454545454,0.3181818181818182,-0.3909090909090909
0.6215384615384616,-1.1376923076923076,1.0469230769230768,0.3546153846153846,0.4407692307692308,-0.3061538461538461
0.49461538461538457,-1.0253846153846151,0.8546153846153846,0.3,0.48,-0.2576923076923077
-0.24076923076923062,-1.3276923076923075,0.8976923076923077,0.1961538461538461,0.4792307692307692,-0.2030769230769231
-0.4808333333333332,-1.3191666666666666,1.2266666666666666,0.125,0.5225000000000001,-0.1408333333333333
-0.29666666666666663,-0.9508333333333332,1.6583333333333332,0.15,0.5566666666666668,-0.11
-0.2908333333333333,-0.4958333333333333,1.5750000000000002,0.2366666666666666,0.57,-0.065
0.017857142857142794,0.3035714285714285,1.1185714285714283,0.2671428571428572,0.5678571428571428,-0.0314285714285714
0.6733333333333333,0.6066666666666666,0.7475,0.2041666666666667,0.5650000000000001,-0.0616666666666666
1.1338461538461537,1.0915384615384616,0.3107692307692308,0.0592307692307692,0.4423076923076923,-0.1361538461538461
0.7241666666666666,1.5141666666666669,0.41,-0.165,0.3325,-0.2458333333333333
-0.12416666666666676,2.0483333333333333,1.5108333333333333,-0.345,0.3341666666666666,-0.3183333333333333
-0.16199999999999992,2.039,2.405,-0.381,0.349,-0.363
0.48812500000000003,1.44875,3.283125,-0.211875,0.349375,-0.436875
0.3666666666666667,1.3016666666666663,2.355833333333333,0.1391666666666666,0.2416666666666666,-0.4433333333333333
-0.5358333333333334,2.783333333333333,-0.9791666666666666,0.3233333333333333,0.0025,-0.4441666666666666
-0.33615384615384625,4.247692307692308,-3.650769230769231,0.1915384615384615,-0.1415384615384615,-0.5576923076923077
1.7608333333333333,4.614166666666667,-5.328333333333333,-0.1416666666666667,-0.2883333333333333,-0.7925
2.4610000000000003,2.956,-5.089,-0.4349999999999999,-0.371,-0.889
2.3975,-0.816875,-3.66625,-0.6675,-0.380625,-0.7581249999999999
1.829090909090909,-2.25,-2.4727272727272727,-0.8009090909090909,-0.2963636363636363,-0.4136363636363636
0.6007692307692309,-2.0053846153846155,-0.3946153846153846,-0.6776923076923077,-0.0569230769230769,0.1123076923076923
0.13888888888888884,-1.4944444444444445,0.3766666666666667,-0.4422222222222222,0.0522222222222222,0.6855555555555556
1.6705882352941177,-0.27,0.1764705882352941,-0.1788235294117647,-0.0088235294117647,0.9629411764705884
2.3475,0.2108333333333333,-0.8450000000000001,-0.0758333333333333,-0.1133333333333333,0.8108333333333334
2.1483333333333334,-0.0758333333333333,-1.7425,-0.1708333333333333,-0.2033333333333333,0.5416666666666666
1.8283333333333331,-0.5458333333333334,-1.375,-0.2416666666666666,-0.3358333333333334,0.3408333333333333
1.3076923076923077,-2.109230769230769,-0.23,-0.1815384615384615,-0.5046153846153847,0.2169230769230769
0.6366666666666667,-3.018333333333333,0.42,0.0158333333333333,-0.6058333333333333,0.3216666666666666
1.1685714285714286,-2.8057142857142856,0.5542857142857143,0.1835714285714285,-0.6235714285714286,0.485
2.0,-2.016363636363636,0.5045454545454545,0.3136363636363636,-0.5545454545454546,0.5672727272727273
3.167857142857143,-0.9621428571428572,0.24,0.3942857142857143,-0.5007142857142857,0.4721428571428571
3.0716666666666668,-0.6158333333333333,-0.0441666666666666,0.375,-0.455,0.29
1.946923076923077,-0.8284615384615385,-0.0561538461538461,0.2538461538461538,-0.4269230769230769,0.2153846153846153
1.4575,-1.2108333333333332,0.2558333333333333,0.1075,-0.4125,0.2066666666666666
1.7116666666666664,-1.6933333333333334,0.8891666666666667,0.0391666666666666,-0.3699999999999999,0.1883333333333333
2.193846153846154,-1.8746153846153848,1.273846153846154,0.1084615384615384,-0.3415384615384615,0.0876923076923076
2.653076923076923,-1.6815384615384614,1.5561538461538462,0.2915384615384615,-0.3576923076923076,-0.1053846153846154
2.541666666666667,-1.2183333333333333,1.4108333333333334,0.4116666666666667,-0.345,-0.2883333333333333
1.7346153846153847,-0.5538461538461539,1.136923076923077,0.4553846153846154,-0.2846153846153846,-0.3438461538461538
1.3918181818181818,-0.0809090909090909,0.9854545454545456,0.4618181818181818,-0.1872727272727272,-0.2572727272727272
1.3746153846153846,0.816923076923077,0.903846153846154,0.4738461538461538,-0.1146153846153846,-0.0892307692307692
1.52,1.5715384615384616,0.6323076923076923,0.4446153846153846,-0.0161538461538461,0.0438461538461538
1.5325000000000002,2.5458333333333334,-0.1758333333333333,0.2683333333333333,-0.0158333333333333,0.0999999999999999
1.4130769230769231,3.2684615384615388,-0.1338461538461538,-0.12,-0.2492307692307692,0.123076923076923
0.25749999999999995,3.799166666666667,1.915,-0.4575,-0.5166666666666667,0.1866666666666666
-0.6461538461538461,3.1546153846153846,3.6915384615384617,-0.5053846153846154,-0.6053846153846154,0.3592307692307692
-0.3075000000000001,0.755,5.056666666666667,-0.2883333333333333,-0.6158333333333333,0.5499999999999999
1.145,-0.3241666666666667,4.538333333333333,0.0783333333333333,-0.6358333333333334,0.5616666666666666
3.151428571428572,0.7300000000000001,2.285,0.3864285714285714,-0.5571428571428572,0.3985714285714286
3.307272727272728,1.9418181818181817,0.4754545454545454,0.619090909090909,-0.4209090909090909,0.3545454545454545
2.153076923076923,2.7361538461538464,-2.51,0.7453846153846153,-0.1623076923076923,0.55
1.6974999999999998,2.6141666666666667,-3.826666666666666,0.7166666666666667,0.1083333333333333,0.8841666666666667
1.5735714285714284,0.5864285714285715,-4.719285714285715,0.5085714285714286,0.255,1.0507142857142855
1.3425,-1.0025000000000002,-4.734166666666667,0.1633333333333333,0.2891666666666666,0.9425
1.1815384615384614,-1.883076923076923,-4.044615384615384,-0.2261538461538461,0.2707692307692308,0.6069230769230769
1.0058333333333334,-1.4741666666666668,-3.079166666666666,-0.4741666666666667,0.145,0.15
0.866923076923077,-0.0923076923076923,-1.7615384615384615,-0.63,0.1092307692307692,-0.2976923076923077
1.6,0.2758333333333333,-1.16,-0.7433333333333333,0.1441666666666666,-0.6516666666666667
2.456153846153846,0.1815384615384615,-0.1953846153846153,-0.7107692307692308,0.2007692307692307,-0.7930769230769231
2.2636363636363637,0.3818181818181818,0.21,-0.5572727272727273,0.3809090909090909,-0.7599999999999999
2.0907142857142853,-0.2014285714285714,0.37,-0.3242857142857143,0.5421428571428571,-0.7064285714285713
1.6908333333333334,-1.1925,-0.2316666666666667,-0.2566666666666666,0.6666666666666666,-0.6974999999999999
-0.3461538461538465,-1.9007692307692308,-0.4815384615384615,-0.2738461538461539,0.7484615384615385,-0.6484615384615384
-1.6466666666666665,-1.9975,-0.2183333333333333,-0.2333333333333333,0.7666666666666666,-0.4683333333333333
-0.9958333333333329,-2.0291666666666663,0.7458333333333335,-0.045,0.69,-0.4116666666666666
-0.16923076923076907,-1.810769230769231,1.1907692307692308,0.2076923076923077,0.5361538461538461,-0.4507692307692307
0.3025000000000001,-1.5175,1.0033333333333334,0.3033333333333333,0.4716666666666667,-0.4658333333333333
0.37076923076923074,-1.360769230769231,0.8023076923076923,0.2561538461538462,0.5038461538461538,-0.3823076923076923
0.7830769230769231,-1.2415384615384617,0.6292307692307693,0.1569230769230769,0.5276923076923077,-0.3138461538461538
0.8466666666666667,-1.3791666666666669,0.8791666666666668,0.12,0.5175,-0.2933333333333333
0.24750000000000005,-1.5750000000000002,1.4933333333333332,0.2108333333333333,0.5141666666666667,-0.2358333333333333
-0.17692307692307696,-1.6530769230769229,1.6884615384615385,0.3976923076923077,0.5061538461538462,-0.09
-0.3184615384615386,-1.2476923076923077,1.5346153846153845,0.583076923076923,0.4807692307692308,0.0792307692307692
-0.004166666666666874,-0.6166666666666667,1.1816666666666666,0.6224999999999999,0.4616666666666666,0.1374999999999999
0.7608333333333334,0.2591666666666666,0.8058333333333333,0.5499999999999999,0.4566666666666667,0.0533333333333333
0.8538461538461539,0.6423076923076922,0.856923076923077,0.4561538461538461,0.4438461538461539,-0.0161538461538461
0.8391666666666667,0.9225,0.8908333333333333,0.3741666666666667,0.435,-0.1016666666666666
0.6223076923076922,0.9330769230769232,0.7361538461538462,0.2792307692307692,0.4684615384615384,-0.1592307692307692
0.5084615384615385,1.0815384615384611,0.6661538461538462,0.1484615384615384,0.58,-0.1630769230769231
0.8981818181818182,1.4345454545454546,1.1627272727272726,0.0081818181818181,0.6890909090909091,-0.1818181818181818
1.6441666666666666,1.9566666666666668,2.395833333333333,-0.1216666666666666,0.7508333333333334,-0.2441666666666666
2.1615384615384614,2.16,3.3400000000000003,-0.2815384615384615,0.7584615384615384,-0.3684615384615384
1.6864285714285714,1.6614285714285713,3.772857142857143,-0.4457142857142857,0.6892857142857143,-0.5064285714285715
0.2283333333333334,1.1525,3.7925,-0.3324999999999999,0.5466666666666666,-0.57
-2.4633333333333334,1.3816666666666666,2.5075,0.0391666666666666,0.3999999999999999,-0.4391666666666666
-2.672307692307693,2.48,0.3253846153846152,0.3484615384615385,0.1392307692307692,-0.3715384615384615
-0.8584615384615384,4.251538461538461,-3.802307692307693,0.3415384615384615,-0.2738461538461538,-0.6169230769230769
0.76,4.344545454545455,-5.364545454545454,0.0181818181818181,-0.6745454545454546,-1.0454545454545454
1.57,1.9023076923076925,-5.157692307692307,-0.3238461538461538,-0.95,-1.199230769230769
0.4807692307692307,-0.2292307692307692,-4.202307692307692,-0.5630769230769231,-1.0,-0.8776923076923077
-1.185,-1.2775,-2.901666666666667,-0.8041666666666667,-0.7125,-0.29
-1.105,-0.9866666666666668,-2.020833333333333,-0.8966666666666666,-0.4033333333333333,0.4183333333333333
0.26230769230769235,-0.1084615384615384,-1.146923076923077,-0.8846153846153846,-0.3269230769230769,1.1084615384615384
1.7015384615384617,0.1984615384615384,-0.923846153846154,-0.7584615384615384,-0.4169230769230769,1.386153846153846
3.0825,-0.3175,-0.6766666666666666,-0.5641666666666666,-0.4641666666666666,1.1675
2.706153846153846,-1.5,-0.5753846153846154,-0.3684615384615384,-0.553076923076923,0.8
1.3061538461538462,-3.588461538461538,-0.2769230769230769,-0.1546153846153846,-0.6292307692307693,0.5146153846153847
0.3683333333333333,-4.568333333333333,-0.2075,0.0933333333333333,-0.755,0.4308333333333333
0.7361538461538462,-4.34,-0.0969230769230769,0.3615384615384615,-0.8115384615384615,0.4392307692307692
1.6563636363636363,-3.055454545454545,-0.0036363636363636,0.5499999999999999,-0.7218181818181818,0.4309090909090909
2.885,-0.4578571428571428,-0.2192857142857142,0.5735714285714285,-0.6114285714285714,0.4421428571428571
3.673636363636364,1.048181818181818,-0.66,0.4118181818181818,-0.5327272727272727,0.3263636363636363
3.040714285714286,1.342857142857143,-1.1735714285714285,0.1171428571428571,-0.4607142857142857,0.2114285714285714
1.6800000000000002,0.4266666666666667,-0.6774999999999999,-0.1791666666666666,-0.3716666666666666,0.2008333333333333
0.9358333333333334,-1.24,0.5133333333333333,-0.3324999999999999,-0.325,0.225
1.2923076923076924,-2.153076923076924,1.1700000000000002,-0.2969230769230769,-0.3507692307692307,0.2007692307692307
2.0753846153846154,-3.0946153846153845,2.0746153846153845,-0.03,-0.3969230769230769,0.0576923076923076
2.4541666666666666,-3.049166666666667,2.4491666666666667,0.2983333333333333,-0.3891666666666666,-0.165
2.6169230769230767,-1.937692307692308,2.3515384615384614,0.483076923076923,-0.3846153846153846,-0.3769230769230769
1.8418181818181818,-0.7818181818181817,2.097272727272727,0.5727272727272728,-0.3981818181818182,-0.4245454545454545
0.3185714285714285,0.8057142857142857,1.5607142857142855,0.635,-0.3335714285714286,-0.255
-0.036666666666666625,1.865,0.8325,0.6483333333333333,-0.1108333333333333,-0.0158333333333333
0.7638461538461538,3.0646153846153847,-0.5407692307692308,0.3984615384615384,-0.0823076923076923,0.1261538461538461
0.9775,3.773333333333333,-0.5033333333333333,-0.1816666666666666,-0.3633333333333333,0.21
-0.21307692307692294,3.782307692307693,2.503846153846154,-0.6269230769230769,-0.6061538461538462,0.3607692307692307
-0.9275,2.5483333333333333,4.867500000000001,-0.6441666666666667,-0.6616666666666667,0.5291666666666667
-0.3091666666666668,-0.3183333333333333,6.2491666666666665,-0.255,-0.6916666666666668,0.6333333333333333
1.4523076923076923,-1.1484615384615384,4.871538461538462,0.3792307692307692,-0.7553846153846154,0.4076923076923077
2.783076923076923,1.1653846153846157,1.0176923076923077,0.7607692307692309,-0.6323076923076923,0.1738461538461538
2.6,2.49,-1.3027272727272727,0.8918181818181818,-0.52,0.1872727272727272
0.7807692307692308,2.9984615384615387,-4.093076923076922,0.7992307692307693,-0.2330769230769231,0.5707692307692308
0.32153846153846155,2.536923076923077,-4.895384615384615,0.5684615384615385,-0.05,1.0738461538461537
0.03076923076923077,1.1107692307692307,-5.244615384615385,0.3192307692307692,-0.0838461538461538,1.3753846153846152
-0.26909090909090927,0.36,-5.164545454545455,-0.0645454545454545,-0.2072727272727273,1.2636363636363637
-0.5838461538461539,-0.053076923076923,-4.777692307692307,-0.6269230769230769,-0.24,0.8184615384615385
0.03749999999999998,0.1858333333333333,-4.05,-1.0391666666666668,-0.1983333333333333,0.1858333333333333
1.94,-0.09,-2.445,-1.2485714285714289,-0.1885714285714285,-0.4328571428571428
3.1425,-0.8641666666666667,-1.0733333333333333,-1.2558333333333334,-0.0916666666666666,-0.6658333333333334
4.5746153846153845,-1.1723076923076925,1.022307692307692,-1.0138461538461538,0.15,-0.7423076923076923
4.224545454545455,-1.1827272727272726,1.6154545454545457,-0.5409090909090909,0.2981818181818182,-0.7990909090909092
2.913846153846153,-2.4930769230769227,0.9569230769230768,-0.1084615384615384,0.4561538461538461,-0.856923076923077
0.07461538461538442,-2.51,0.3638461538461539,0.1315384615384615,0.5346153846153846,-0.7246153846153847
-2.61,-2.316923076923077,-0.5407692307692307,0.0538461538461538,0.6330769230769231,-0.5007692307692307
-2.2550000000000003,-2.38,-0.6083333333333333,0.0408333333333333,0.8108333333333334,-0.3433333333333333
-0.253076923076923,-1.8453846153846152,0.15,0.1523076923076923,0.6746153846153846,-0.3723076923076923
0.25090909090909086,-1.2436363636363637,0.6018181818181818,0.25,0.6254545454545455,-0.4027272727272727
0.49615384615384617,-0.7861538461538462,0.8653846153846154,0.2823076923076923,0.6638461538461539,-0.3376923076923077
1.0038461538461538,-0.9730769230769232,0.7523076923076922,0.2261538461538461,0.7207692307692307,-0.2915384615384615
1.1923076923076923,-1.5107692307692309,0.8492307692307691,0.1484615384615384,0.7938461538461539,-0.3115384615384615
0.7858333333333334,-1.915,1.1908333333333332,0.1466666666666666,0.7991666666666667,-0.3008333333333333
-0.29666666666666663,-2.0508333333333333,1.8283333333333327,0.255,0.7816666666666667,-0.1858333333333333
-0.69,-1.5653846153846156,2.093076923076924,0.4792307692307692,0.8238461538461539,-0.023076923076923
-0.1330769230769231,-0.2269230769230769,1.5192307692307692,0.6423076923076922,0.8376923076923076,0.0546153846153846
0.30666666666666664,0.6916666666666668,0.9575,0.5608333333333334,0.8475,0.0841666666666666
1.2525,1.425,0.7008333333333333,0.3766666666666666,0.8025000000000001,0.0391666666666666
1.4684615384615385,1.7323076923076923,0.8438461538461538,0.1938461538461538,0.6469230769230769,-0.1384615384615384
0.44692307692307687,1.9938461538461536,0.8523076923076923,0.0384615384615384,0.5307692307692308,-0.3453846153846154
-0.36749999999999994,2.020833333333333,1.1783333333333337,-0.0991666666666666,0.4958333333333333,-0.4191666666666667
-0.1953846153846155,2.1307692307692307,3.020769230769231,-0.0676923076923076,0.3815384615384615,-0.5
0.1924999999999999,2.188333333333333,3.675833333333333,0.2683333333333333,0.2608333333333333,-0.5916666666666667
0.22000000000000008,3.540833333333333,1.6083333333333334,0.5641666666666666,0.0266666666666666,-0.6583333333333333
-0.3538461538461539,5.131538461538461,-1.1453846153846154,0.4207692307692307,-0.2661538461538461,-0.7738461538461539
-0.872307692307692,5.377692307692308,-4.097692307692308,-0.0769230769230769,-0.4123076923076923,-0.8546153846153846
-0.739090909090909,3.8954545454545455,-4.414545454545455,-0.5136363636363637,-0.4463636363636363,-0.729090909090909
0.33857142857142863,0.7685714285714286,-3.402142857142857,-0.7114285714285714,-0.4635714285714286,-0.5549999999999999
0.6372727272727273,-1.4345454545454546,-2.561818181818182,-0.73,-0.4336363636363636,-0.4209090909090909
0.23642857142857132,-3.262857142857143,-1.3071428571428572,-0.6107142857142858,-0.325,-0.0985714285714285
0.29999999999999993,-3.4066666666666667,-0.7241666666666666,-0.4208333333333333,-0.2275,0.3916666666666666
1.356923076923077,-2.6515384615384616,-0.413076923076923,-0.2246153846153846,-0.1069230769230769,0.806923076923077
2.3663636363636362,-1.4954545454545454,-0.4554545454545454,-0.059090909090909,0.0172727272727272,0.9545454545454546
3.3742857142857146,-0.1664285714285714,-1.0357142857142858,-0.1007142857142857,-0.1192857142857143,0.7335714285714285
3.1266666666666665,0.2883333333333333,-1.02,-0.18,-0.0958333333333333,0.4624999999999999
2.056923076923077,0.5223076923076924,-0.4146153846153846,-0.1653846153846153,-0.0853846153846153,0.3353846153846154
1.2366666666666666,-0.0633333333333333,-0.62,-0.18,-0.145,0.3516666666666666
0.7753846153846153,-1.283076923076923,-1.1,-0.2284615384615384,-0.1761538461538461,0.4346153846153846
0.7566666666666667,-1.8425,-1.0266666666666666,-0.2741666666666666,-0.1483333333333333,0.5716666666666667
0.9984615384615385,-1.883076923076923,-0.3684615384615384,-0.2769230769230769,-0.0753846153846153,0.7207692307692307
2.0516666666666667,-1.350833333333333,0.4166666666666667,-0.1275,-0.0416666666666666,0.6183333333333333
2.3030769230769232,-1.1061538461538465,0.8038461538461538,-0.0315384615384615,-0.113076923076923,0.3861538461538462
1.7016666666666667,-1.3216666666666668,0.9916666666666668,0.0391666666666666,-0.145,0.2433333333333333
1.0958333333333332,-1.883333333333333,1.0483333333333331,-0.0191666666666666,-0.2041666666666667,0.1816666666666666
0.9592307692307693,-2.1584615384615384,1.1076923076923078,-0.1576923076923077,-0.3007692307692308,0.1484615384615384
1.0707692307692307,-2.3423076923076924,1.5592307692307692,-0.1823076923076923,-0.3892307692307692,0.1307692307692307
1.5908333333333333,-2.3641666666666667,2.1441666666666666,0.0825,-0.4775,0.0066666666666666
2.275,-2.299166666666667,2.500833333333333,0.4141666666666666,-0.5158333333333334,-0.1658333333333333
2.5200000000000005,-1.8025,2.2425,0.5983333333333333,-0.5233333333333333,-0.3408333333333333
2.1542857142857144,-0.1757142857142856,1.342857142857143,0.6235714285714286,-0.5364285714285715,-0.4392857142857143
1.335,1.3099999999999998,0.7066666666666667,0.5566666666666666,-0.4066666666666667,-0.3508333333333333
0.7630769230769231,3.54,-0.1415384615384615,0.4223076923076923,-0.1338461538461538,-0.123076923076923
0.7741666666666667,4.516666666666667,-0.0533333333333333,0.0516666666666666,-0.1808333333333333,0.1691666666666667
0.6225,4.759166666666666,1.84,-0.3658333333333333,-0.4516666666666666,0.3891666666666666
-0.06666666666666687,3.633333333333333,3.4825,-0.5825,-0.5625,0.5241666666666667
-0.36285714285714277,0.3857142857142857,5.170714285714285,-0.4471428571428571,-0.6014285714285714,0.635
1.1291666666666667,-1.195,4.405833333333333,0.0616666666666666,-0.6433333333333334,0.5666666666666667
3.2984615384615386,0.2676923076923077,1.3369230769230769,0.4053846153846154,-0.5138461538461538,0.3784615384615384
3.5941666666666667,1.8558333333333328,-0.715,0.6366666666666666,-0.2916666666666667,0.315
2.016153846153846,2.670769230769231,-3.1515384615384616,0.693076923076923,0.0238461538461538,0.5553846153846154
1.1425,2.286666666666666,-4.086666666666667,0.5841666666666666,0.2358333333333333,0.925
0.13230769230769224,0.7599999999999999,-4.994615384615385,0.3261538461538462,0.3469230769230769,1.0961538461538465
0.021666666666666612,-0.03,-5.0825,-0.0591666666666666,0.3358333333333334,1.0025000000000002
0.6133333333333334,0.33,-4.315833333333333,-0.5299999999999999,0.1483333333333333,0.6258333333333334
0.9246153846153847,1.0738461538461537,-3.62,-0.9653846153846154,0.1307692307692307,-0.0376923076923076
1.2578571428571428,1.1392857142857142,-2.7078571428571427,-1.2192857142857143,0.2257142857142857,-0.6449999999999999
2.0727272727272728,0.3190909090909091,-1.7263636363636363,-1.2436363636363637,0.2372727272727272,-0.8681818181818183
2.38,-0.5464285714285715,0.5892857142857143,-1.002857142857143,0.3771428571428571,-0.8099999999999999
2.611818181818182,-1.7172727272727273,1.5199999999999998,-0.5427272727272727,0.5054545454545455,-0.77
1.7292307692307691,-3.77,1.7030769230769232,-0.03,0.6253846153846154,-0.783846153846154
-0.4574999999999998,-4.331666666666667,1.3433333333333335,0.3558333333333333,0.6633333333333333,-0.6316666666666667
-2.7625,-3.3341666666666665,0.725,0.5175,0.6941666666666667,-0.3725
-2.567692307692308,-2.1823076923076923,0.63,0.6484615384615384,0.823076923076923,-0.1561538461538461
0.11615384615384616,-0.7184615384615385,0.2838461538461538,0.69,0.7107692307692308,-0.2276923076923077
0.6733333333333333,-0.1458333333333333,-0.1208333333333333,0.5591666666666667,0.6275000000000001,-0.3833333333333333
-0.15500000000000003,-0.2585714285714285,-0.2671428571428572,0.345,0.5835714285714285,-0.3528571428571428
-0.25636363636363635,-0.8990909090909092,0.0463636363636363,0.1509090909090909,0.5618181818181818,-0.2836363636363636
-0.15692307692307694,-1.4553846153846155,0.833076923076923,0.0715384615384615,0.5338461538461539,-0.2269230769230769
-0.5075000000000001,-1.7,1.1758333333333333,0.0958333333333333,0.5141666666666667,-0.1183333333333333
-0.7007142857142856,-1.522142857142857,1.475,0.2914285714285714,0.5014285714285714,0.0114285714285714
-0.0972727272727274,-0.8481818181818181,1.2963636363636366,0.4772727272727273,0.4581818181818182,0.069090909090909
0.7492307692307694,0.3553846153846154,0.9776923076923076,0.4561538461538461,0.4692307692307692,0.0315384615384615
1.1516666666666666,0.9475,1.044166666666667,0.3408333333333333,0.4941666666666666,-0.1183333333333333
0.8542857142857143,1.3271428571428572,1.227142857142857,0.21,0.4899999999999999,-0.315
0.4536363636363636,1.3272727272727274,1.3127272727272727,0.0681818181818181,0.5263636363636364,-0.4
-0.1378571428571429,1.2564285714285717,1.4328571428571428,-0.0664285714285714,0.4592857142857142,-0.365
-0.8390909090909091,1.288181818181818,1.5736363636363635,-0.2163636363636363,0.3927272727272727,-0.2781818181818182
-1.2853846153846158,1.3761538461538465,2.383076923076924,-0.3107692307692308,0.413076923076923,-0.22
-0.5791666666666666,1.2591666666666663,3.2891666666666666,-0.3091666666666666,0.3783333333333333,-0.2758333333333333
0.08571428571428563,1.2028571428571428,3.742142857142857,-0.0957142857142857,0.29,-0.435
-0.23636363636363633,1.7481818181818185,2.663636363636364,0.2854545454545454,0.2181818181818181,-0.52
0.010000000000000009,3.046666666666667,-0.3983333333333332,0.5775,0.02,-0.605
0.7238461538461539,3.9238461538461538,-3.0015384615384617,0.6361538461538461,-0.2346153846153846,-0.8115384615384615
2.24,3.9153846153846152,-5.577692307692308,0.3046153846153846,-0.4569230769230769,-1.013076923076923
2.0300000000000002,2.1508333333333334,-5.730833333333333,-0.21,-0.54,-0.9358333333333334
0.4176923076923077,-0.38,-4.732307692307692,-0.7,-0.536923076923077,-0.5915384615384615
-0.2825,-1.1341666666666663,-3.415833333333333,-0.9683333333333332,-0.3533333333333333,-0.1983333333333333
-0.5630000000000002,-1.388,-1.417,-0.943,-0.106,0.253
-0.3500000000000001,-0.8979999999999999,-0.664,-0.7193333333333333,-0.098,0.778
0.88,-0.0115384615384615,-0.6984615384615385,-0.5,-0.2507692307692307,1.1107692307692307
2.075,0.03,-1.16,-0.3675,-0.3516666666666666,0.9825
2.4876923076923076,-1.1792307692307693,-1.323846153846154,-0.2307692307692307,-0.4592307692307692,0.6461538461538462
1.5941666666666667,-2.308333333333333,-1.05,-0.1391666666666666,-0.545,0.4391666666666666
0.7715384615384616,-3.196153846153846,-0.43,-0.0207692307692307,-0.6323076923076923,0.3953846153846154
0.6425000000000001,-3.273333333333333,-0.0574999999999999,0.135,-0.6458333333333334,0.4641666666666666
1.2923076923076922,-2.236923076923077,0.1423076923076923,0.2661538461538461,-0.6046153846153846,0.5838461538461538
1.997272727272727,-0.8363636363636363,0.0245454545454545,0.2981818181818181,-0.5309090909090909,0.6218181818181818
2.5307142857142857,0.525,-0.59,0.1892857142857142,-0.4964285714285714,0.59
2.270833333333333,0.6024999999999999,-0.8116666666666666,0.0183333333333333,-0.5133333333333333,0.4191666666666667
1.2946153846153847,-0.11,-0.41,-0.1384615384615384,-0.4638461538461538,0.3061538461538461
1.0766666666666667,-0.8541666666666666,0.1408333333333333,-0.2158333333333333,-0.4025,0.2125
1.2914285714285714,-1.602857142857143,0.6107142857142857,-0.2221428571428571,-0.3985714285714286,0.1514285714285714
1.8118181818181818,-2.07,0.9618181818181818,-0.0572727272727272,-0.4336363636363636,0.0436363636363636
2.1507692307692308,-2.4400000000000004,1.2615384615384615,0.1623076923076923,-0.4623076923076923,-0.1215384615384615
1.7216666666666667,-2.169166666666667,1.2916666666666667,0.2749999999999999,-0.45,-0.2316666666666667
1.3071428571428572,-1.1428571428571428,1.3385714285714287,0.3371428571428571,-0.4278571428571429,-0.2492857142857143
1.0527272727272727,0.2318181818181818,1.5627272727272727,0.3963636363636364,-0.3827272727272727,-0.22
0.6799999999999999,1.1585714285714286,1.5935714285714284,0.4592857142857142,-0.3435714285714285,-0.11
0.8763636363636365,1.520909090909091,1.1763636363636365,0.4218181818181818,-0.3336363636363636,-0.0109090909090909
1.2971428571428572,1.5121428571428572,0.8521428571428571,0.3192857142857143,-0.3585714285714285,0.0221428571428571
1.410909090909091,1.3581818181818184,0.9754545454545456,0.1936363636363636,-0.3790909090909091,0.0554545454545454
1.1928571428571428,1.2985714285714285,1.6271428571428572,0.0428571428571428,-0.4385714285714285,0.1328571428571428
0.7827272727272728,1.2136363636363636,2.8145454545454545,-0.08,-0.4954545454545455,0.2154545454545454
0.61,0.7778571428571428,3.825,-0.0935714285714285,-0.5421428571428571,0.2821428571428571
0.9736363636363637,-0.0363636363636363,4.01,0.0872727272727272,-0.5854545454545454,0.3254545454545454
1.3546153846153846,0.0438461538461538,3.039230769230769,0.42,-0.59,0.2476923076923077
1.5333333333333332,1.6875,0.5883333333333333,0.63,-0.3974999999999999,0.2508333333333333
1.994615384615385,2.936923076923077,-2.1523076923076925,0.6915384615384615,-0.1846153846153846,0.3646153846153846
1.1191666666666666,3.4475,-4.2025,0.5491666666666667,0.0999999999999999,0.7325
0.9446153846153847,2.4853846153846155,-5.046153846153846,0.2907692307692308,0.2515384615384615,1.0653846153846154
0.42333333333333334,0.6033333333333334,-4.738333333333333,-0.035,0.1949999999999999,1.1424999999999998
0.07916666666666661,-0.8133333333333334,-4.007499999999999,-0.3383333333333333,0.0366666666666666,0.945
-0.11307692307692307,-1.1923076923076923,-2.9061538461538463,-0.5484615384615384,-0.0753846153846153,0.5576923076923077
0.25923076923076915,-0.6953846153846153,-1.5276923076923077,-0.5384615384615384,-0.1353846153846153,0.0238461538461538
1.0325,-0.2125,-0.9525,-0.5016666666666666,-0.1858333333333333,-0.4441666666666666
1.9846153846153847,0.2461538461538461,-0.7446153846153846,-0.5415384615384616,-0.1453846153846154,-0.6446153846153847
2.294545454545455,0.8690909090909091,-0.5990909090909091,-0.5745454545454545,-0.0163636363636363,-0.6318181818181818
2.678181818181818,0.7472727272727273,-0.4854545454545454,-0.4981818181818182,0.079090909090909,-0.6645454545454546
2.0586666666666664,-1.0766666666666669,-0.3306666666666666,-0.37,0.1393333333333333,-0.7106666666666667
-0.3376923076923075,-2.281538461538461,0.0053846153846153,-0.3107692307692308,0.1869230769230769,-0.6130769230769231
-2.3275,-2.4325,0.5108333333333334,-0.2808333333333333,0.2366666666666666,-0.4316666666666666
-2.6658333333333335,-2.08,1.175,-0.0691666666666666,0.3441666666666667,-0.2525
-1.3359999999999999,-1.366,1.238,0.176,0.249,-0.217
0.4092307692307693,-0.713076923076923,0.7353846153846154,0.3107692307692308,0.173076923076923,-0.2815384615384615
1.3106666666666666,-0.7753333333333334,0.3653333333333333,0.2873333333333333,0.218,-0.264
1.9323076923076923,-0.9930769230769232,0.5953846153846153,0.213076923076923,0.3723076923076923,-0.2507692307692307
1.4881818181818183,-0.9727272727272728,0.9009090909090908,0.1981818181818182,0.5281818181818182,-0.25
0.895,-1.1,0.9292857142857144,0.1835714285714285,0.6321428571428571,-0.2385714285714285
0.2025,-1.045,0.9816666666666666,0.1941666666666666,0.6675,-0.1641666666666666
-0.2553846153846151,-0.7038461538461539,1.1307692307692307,0.243076923076923,0.6607692307692308,-0.063076923076923
-0.08833333333333337,-0.1741666666666666,1.075,0.2891666666666666,0.67,-0.0216666666666666
0.3241666666666666,0.1775,0.8433333333333333,0.285,0.6675,-0.0716666666666666
0.6872727272727273,0.3254545454545454,0.7363636363636363,0.2454545454545454,0.6345454545454546,-0.18
0.704,0.4026666666666667,0.8006666666666666,0.1913333333333333,0.5393333333333333,-0.3026666666666667
0.26916666666666667,0.5133333333333333,0.8966666666666666,0.0916666666666666,0.4983333333333333,-0.3699999999999999
-0.15384615384615352,0.5446153846153846,1.033846153846154,-0.0169230769230769,0.5507692307692308,-0.3507692307692307
-0.2872727272727271,0.8254545454545454,1.3527272727272728,-0.0781818181818181,0.6281818181818182,-0.2581818181818182
0.25142857142857145,1.4092857142857145,1.8471428571428568,-0.1385714285714285,0.7107142857142856,-0.1707142857142857
1.0033333333333334,1.7466666666666668,2.276666666666667,-0.2316666666666667,0.7733333333333334,-0.165
1.4661538461538461,1.4530769230769232,2.6623076923076923,-0.3,0.7930769230769231,-0.2676923076923077
0.4716666666666667,0.5716666666666667,3.0641666666666665,-0.305,0.6908333333333333,-0.3925
-0.8925000000000001,0.1149999999999999,3.311666666666666,-0.1175,0.5408333333333334,-0.425
-1.968461538461538,1.023846153846154,2.625384615384616,0.2384615384615384,0.3092307692307692,-0.3607692307692308
-1.5815384615384618,2.4384615384615382,0.5307692307692308,0.5315384615384615,0.1792307692307692,-0.3584615384615385
0.5433333333333334,3.2125000000000004,-2.605,0.6375000000000001,0.0083333333333333,-0.5775
2.2376923076923076,3.3623076923076924,-5.1923076923076925,0.373076923076923,-0.2369230769230769,-0.8484615384615384
2.1100000000000003,1.6725,-5.7925,-0.0991666666666666,-0.3358333333333334,-0.8716666666666667
0.8453846153846154,-0.6815384615384615,-5.035384615384615,-0.5246153846153846,-0.3015384615384615,-0.6230769230769231
0.3108333333333334,-1.225,-3.4766666666666666,-0.8466666666666667,-0.0875,-0.2633333333333333
0.42846153846153845,-0.6961538461538462,-1.9,-0.956153846153846,0.0807692307692307,0.2269230769230769
0.6858333333333334,-0.0425,-0.8466666666666667,-0.8525,0.09,0.7633333333333333
1.6766666666666667,0.1433333333333333,-0.505,-0.6699999999999999,-0.0141666666666666,1.0016666666666667
2.3653846153846154,-0.3607692307692308,-0.6215384615384616,-0.4353846153846153,-0.18,0.8276923076923077
1.7776923076923077,-1.0253846153846151,-0.6261538461538462,-0.2338461538461538,-0.3292307692307692,0.4976923076923076
0.19833333333333336,-2.16,-0.3558333333333333,-0.1116666666666666,-0.43,0.3658333333333333
0.13076923076923075,-2.686923076923077,0.1115384615384615,0.0323076923076923,-0.5138461538461538,0.2853846153846154
0.7854545454545455,-2.348181818181818,0.2690909090909091,0.1972727272727272,-0.5790909090909091,0.2736363636363636
1.5171428571428571,-1.2542857142857142,-0.095,0.2928571428571428,-0.5471428571428572,0.35
2.1708333333333334,-0.0233333333333333,-0.965,0.1825,-0.4491666666666666,0.495
2.81,0.3253846153846154,-1.6153846153846154,-0.0546153846153846,-0.3592307692307692,0.5984615384615384
3.165,-0.0025,-1.1266666666666667,-0.2158333333333333,-0.3325,0.4808333333333334
2.1,-0.3716666666666666,0.0858333333333333,-0.2291666666666666,-0.3083333333333333,0.3333333333333333
0.9784615384615385,-1.2761538461538462,0.9407692307692308,-0.083076923076923,-0.2784615384615385,0.2261538461538461
0.7284615384615385,-2.2169230769230768,1.1053846153846154,0.1192307692307692,-0.3315384615384615,0.1161538461538461
1.2183333333333333,-2.7066666666666666,0.9291666666666668,0.3125,-0.3499999999999999,0.0058333333333333
1.6738461538461538,-2.4546153846153844,0.7676923076923077,0.4369230769230769,-0.35,-0.1307692307692307
1.6558333333333333,-1.4675,0.7591666666666667,0.4791666666666667,-0.3516666666666666,-0.2216666666666666
1.4607692307692308,-0.2907692307692308,0.7776923076923077,0.4623076923076923,-0.2884615384615384,-0.2338461538461538
1.1358333333333333,0.43,0.9916666666666668,0.4541666666666666,-0.2391666666666666,-0.1808333333333333
0.7323076923076923,0.6038461538461538,1.103846153846154,0.4753846153846153,-0.2061538461538461,-0.0638461538461538
0.745,0.5516666666666666,0.8300000000000001,0.4491666666666666,-0.2191666666666666,0.0416666666666666
0.966923076923077,0.4653846153846154,0.59,0.3815384615384615,-0.28,0.073076923076923
1.1033333333333333,0.5866666666666667,0.7508333333333334,0.2625,-0.3175,0.0616666666666666
1.1615384615384614,0.966923076923077,1.272307692307692,0.2061538461538461,-0.3446153846153846,0.033076923076923
1.0175,1.3383333333333332,1.6925,0.1741666666666666,-0.355,0.0675
0.9084615384615385,1.4500000000000002,1.926153846153846,0.0746153846153846,-0.4030769230769231,0.1438461538461538
0.5718181818181819,1.1454545454545455,2.484545454545455,-0.0427272727272727,-0.4818181818181818,0.2354545454545454
0.29000000000000004,0.612,3.266,-0.046,-0.527,0.315
0.23062499999999997,0.02375,3.534375,0.21,-0.645,0.3399999999999999
-0.16846153846153844,0.4376923076923077,2.1592307692307693,0.5761538461538461,-0.7084615384615385,0.3261538461538462
0.665,2.115,-0.3941666666666667,0.8283333333333333,-0.5175,0.385
1.230909090909091,3.343636363636364,-3.047272727272728,0.8372727272727274,-0.2536363636363636,0.5972727272727273
1.5992857142857142,3.948571428571429,-4.827857142857143,0.5892857142857143,-0.0685714285714285,0.9892857142857142
2.3807692307692307,2.730769230769231,-5.430000000000001,0.1146153846153846,0.0276923076923076,1.0761538461538462
2.1466666666666665,0.6625,-4.763333333333333,-0.325,0.0416666666666666,0.8624999999999999
1.6358333333333333,-0.7258333333333334,-3.424166666666667,-0.6541666666666667,0.0458333333333333,0.4933333333333333
1.7458333333333336,-1.21,-1.9966666666666668,-0.7958333333333334,0.0841666666666666,0.0133333333333333
1.7564285714285715,-1.2385714285714289,-0.7757142857142857,-0.7364285714285714,0.0614285714285714,-0.4264285714285714
1.775,-1.095,-0.6091666666666666,-0.6866666666666666,0.0675,-0.6708333333333334
1.2076923076923076,-0.66,-0.4946153846153845,-0.6323076923076923,0.1853846153846154,-0.6438461538461537
0.655,-0.2141666666666667,-0.08,-0.5025000000000001,0.29,-0.5191666666666667
0.896923076923077,-0.6661538461538462,-0.1461538461538461,-0.3676923076923077,0.3684615384615384,-0.5161538461538462
0.5766666666666667,-1.2833333333333332,-0.3111111111111111,-0.2577777777777778,0.3644444444444444,-0.5444444444444445
-1.001875,-1.496875,-0.5625,-0.193125,0.43125,-0.446875
-1.1141666666666667,-1.265,-0.4166666666666667,-0.0858333333333333,0.4758333333333333,-0.3183333333333333
-0.16538461538461524,-0.8892307692307693,-0.3892307692307692,-0.02,0.4515384615384615,-0.3315384615384615
0.3627272727272728,-0.75,-0.1690909090909091,0.0327272727272727,0.4309090909090909,-0.3618181818181818
0.42200000000000004,-0.721,0.056,0.074,0.461,-0.316
0.6156250000000001,-0.874375,0.09625,0.0925,0.50875,-0.235625
0.7823076923076924,-0.9823076923076924,0.0315384615384615,0.0507692307692307,0.5346153846153846,-0.213076923076923
0.8466666666666667,-0.9966666666666668,0.0683333333333333,-0.0174999999999999,0.5625,-0.2591666666666667
0.505,-1.102,0.266,-0.039,0.577,-0.278
-0.0006666666666668153,-1.4340000000000002,0.4593333333333333,-0.0146666666666666,0.5626666666666666,-0.228
-0.2907692307692309,-1.593846153846154,0.5953846153846153,-0.0069230769230769,0.5007692307692307,-0.12
-0.1283333333333334,-1.185,1.0316666666666667,0.0258333333333333,0.4308333333333333,-0.0466666666666666
-0.206923076923077,-0.2123076923076922,1.4423076923076923,0.13,0.4023076923076923,0.0007692307692307
-0.050000000000000044,0.4963636363636363,1.2518181818181815,0.2036363636363636,0.3918181818181818,0.01
0.29000000000000004,0.7145454545454545,0.8981818181818183,0.2081818181818182,0.3409090909090909,-0.0281818181818181
0.3493333333333334,0.492,0.732,0.114,0.3066666666666666,-0.0646666666666666
0.4123076923076924,0.1776923076923077,0.8976923076923077,-0.0307692307692307,0.2969230769230769,-0.0953846153846153
0.7025,0.215,1.330833333333333,-0.0883333333333333,0.3633333333333333,-0.1225
1.0008333333333332,0.4875,1.4875,-0.1325,0.5091666666666667,-0.1366666666666667
1.3966666666666667,0.9888888888888888,1.3111111111111111,-0.2166666666666666,0.6577777777777778,-0.14
2.3388235294117647,1.382941176470588,1.23,-0.3764705882352941,0.7894117647058824,-0.2047058823529411
2.74,0.8175,1.5424999999999998,-0.5283333333333333,0.8850000000000001,-0.3716666666666666
1.6438461538461537,-0.2746153846153846,2.223076923076923,-0.5115384615384616,0.8969230769230769,-0.4792307692307692
-0.2858333333333334,-0.4566666666666667,3.1225,-0.2725,0.7533333333333333,-0.4783333333333333
-1.766,0.455,3.008,0.027,0.605,-0.412
-1.98,2.151333333333333,1.55,0.3173333333333333,0.3706666666666667,-0.396
-1.1538461538461537,3.816923076923077,-1.5623076923076922,0.4061538461538462,0.1292307692307692,-0.5838461538461538
0.6641666666666666,4.125,-4.111666666666667,0.2875,-0.0491666666666666,-0.8708333333333332
1.707,2.904,-5.511,0.079,-0.251,-1.004
1.37,0.8353333333333333,-5.339333333333333,-0.1966666666666666,-0.2046666666666667,-0.8
0.7230769230769232,-0.823076923076923,-4.708461538461538,-0.6553846153846153,-0.1892307692307692,-0.4623076923076923
0.6266666666666667,-1.2816666666666667,-2.904166666666667,-0.9558333333333334,-0.085,-0.1408333333333333
0.5338461538461539,-0.6284615384615384,-0.5484615384615384,-0.8792307692307693,0.0653846153846153,0.3361538461538461
0.9890909090909091,-0.1199999999999999,-0.2518181818181818,-0.7181818181818183,0.0527272727272727,0.759090909090909
1.6607692307692308,0.1623076923076923,-1.0892307692307692,-0.6453846153846154,-0.0353846153846153,0.9107692307692308
1.9175,-0.0816666666666666,-1.6391666666666664,-0.6341666666666667,-0.0858333333333333,0.7958333333333334
1.082142857142857,-1.2014285714285715,-1.5685714285714287,-0.6285714285714287,-0.1157142857142857,0.6992857142857142
0.5891666666666667,-2.525,-0.0516666666666666,-0.3516666666666666,-0.2533333333333333,0.515
0.06999999999999995,-3.39,1.285,0.121,-0.388,0.39
0.30666666666666664,-3.02,1.7613333333333332,0.626,-0.4866666666666666,0.324
0.6746153846153846,-1.073076923076923,0.75,0.7123076923076923,-0.5492307692307693,0.3915384615384615
0.8691666666666666,1.0641666666666667,-1.405,0.3616666666666666,-0.5358333333333334,0.5583333333333333
1.6908333333333334,1.3525,-2.7158333333333338,-0.0016666666666666,-0.4891666666666667,0.6291666666666667
2.270769230769231,0.5238461538461539,-2.6738461538461538,-0.5015384615384615,-0.473076923076923,0.583076923076923
2.467,-0.643,-0.893,-0.781,-0.45,0.4549999999999999
2.106,-1.8613333333333333,1.897333333333333,-0.542,-0.4426666666666666,0.31
1.7391666666666667,-2.8625000000000003,3.6033333333333335,0.0183333333333333,-0.4283333333333333,0.145
1.7808333333333333,-2.874166666666667,3.1766666666666663,0.5016666666666667,-0.4608333333333334,-0.0366666666666666
1.5907692307692307,-2.2292307692307696,2.193076923076924,0.7730769230769231,-0.5107692307692309,-0.19
1.0115384615384615,-0.7738461538461539,-0.0546153846153846,0.5553846153846154,-0.4838461538461538,-0.2361538461538461
0.5153846153846153,0.2038461538461538,-1.1969230769230768,0.3146153846153846,-0.4392307692307692,-0.1653846153846153
0.6941666666666667,0.5291666666666667,-1.4283333333333337,0.1233333333333333,-0.3758333333333333,-0.0616666666666666
0.8384615384615385,0.8076923076923077,-0.6799999999999999,-0.0369230769230769,-0.3361538461538461,0.0807692307692307
1.2491666666666665,0.7433333333333333,0.6575000000000001,-0.0116666666666666,-0.3383333333333334,0.1425
1.4646153846153847,0.4238461538461538,2.186153846153846,0.2207692307692307,-0.4315384615384615,0.0853846153846153
0.91,0.4266666666666667,3.0175,0.43,-0.6566666666666666,0.0358333333333333
-0.2515384615384617,1.1484615384615384,2.630769230769231,0.3484615384615385,-0.8738461538461538,0.1007692307692307
-0.9554545454545456,1.9863636363636368,1.3854545454545455,0.0445454545454545,-1.0127272727272727,0.2545454545454545
-0.9957142857142856,1.4200000000000002,0.7385714285714285,-0.255,-1.05,0.3999999999999999
0.22666666666666657,0.1144444444444444,0.828888888888889,-0.5577777777777777,-1.04,0.4066666666666667
1.919230769230769,-1.1953846153846155,2.667692307692308,-0.5230769230769231,-0.9523076923076924,0.3438461538461538
3.019333333333333,-0.6893333333333334,4.1193333333333335,0.0373333333333333,-0.7933333333333333,0.2166666666666666
3.509230769230769,1.5192307692307692,3.813846153846154,0.6453846153846154,-0.5638461538461539,0.1038461538461538
3.27,3.282,1.919,1.089,-0.335,0.199
3.178,4.892666666666667,-1.84,1.1213333333333333,0.1046666666666666,0.502
3.97,4.846666666666667,-4.6575,0.8908333333333333,0.4641666666666666,0.7975
4.247692307692308,2.0384615384615383,-5.829999999999999,0.5676923076923077,0.4407692307692308,0.6576923076923078
2.6308333333333334,-0.8741666666666666,-6.183333333333334,0.0275,0.2341666666666666,0.3166666666666666
0.377,-2.569,-6.07,-0.56,0.1,0.029
-0.9157142857142857,-2.585714285714286,-4.882857142857143,-1.082142857142857,0.0585714285714285,-0.2928571428571428
-1.4621428571428572,-1.912857142857143,-2.766428571428571,-1.4335714285714285,0.0235714285714285,-0.5985714285714286
-1.8016666666666663,-2.0108333333333333,2.9408333333333334,-0.9233333333333332,0.0875,-0.5841666666666666
-0.8474999999999999,-1.2491666666666668,3.1958333333333333,-0.4458333333333333,0.2316666666666666,-0.4033333333333333
1.046153846153846,0.0923076923076923,0.6184615384615384,-0.1615384615384615,0.4384615384615384,-0.3192307692307692
3.163076923076923,0.6607692307692308,-1.3761538461538465,-0.0123076923076923,0.4192307692307692,-0.4092307692307692
3.1275,-0.0258333333333333,-2.3583333333333334,-0.2708333333333333,0.4133333333333333,-0.5458333333333334
0.12076923076923074,-0.5553846153846154,-0.7884615384615384,-0.3738461538461539,0.51,-0.4492307692307692
-1.335,-1.025,1.19,-0.11,0.6291666666666667,-0.3175
-1.0830000000000002,-1.1409999999999998,2.23,0.31,0.6859999999999999,-0.276
0.06583333333333319,-0.6675,0.63,0.3533333333333333,0.5866666666666666,-0.3833333333333333
1.028125,0.07625,-1.704375,0.108125,0.615625,-0.455
1.2066666666666666,-0.525,-2.4066666666666667,-0.1966666666666666,0.6158333333333333,-0.4616666666666666
0.3408333333333333,-0.8574999999999999,-1.5216666666666667,-0.4141666666666666,0.6391666666666667,-0.3966666666666666
-0.8076923076923079,-1.8000000000000005,0.463076923076923,-0.3284615384615384,0.6423076923076922,-0.29
-1.217,-2.508,2.19,0.012,0.612,-0.178
-1.5564285714285715,-2.3542857142857145,2.5142857142857147,0.3857142857142857,0.5864285714285714,-0.0157142857142857
