accy,accz,accx
0.1470588235294117,-0.0070588235294117,1.0094117647058822
0.1508333333333333,-0.0075,1.0041666666666667
0.1461538461538461,-0.0084615384615384,1.0084615384615383
0.15,-0.0033333333333333,1.01
0.156,-0.003,1.01
0.15625,-0.004375,1.006875
0.145,-0.0041666666666666,1.0058333333333334
0.1525,-0.0066666666666666,1.0075
0.1553846153846154,-0.0061538461538461,1.0084615384615383
0.1555555555555555,-0.01,1.01
0.15,-0.00375,1.013125
0.1433333333333333,-0.01,1.01
0.1492307692307692,-0.0053846153846153,1.0092307692307692
0.1533333333333333,-0.0025,1.0
0.15,-0.0053846153846153,1.0046153846153847
0.145,-0.001,1.01
0.1543749999999999,-0.005625,1.01
0.1527272727272727,-0.0045454545454545,1.0027272727272727
0.15,-0.0046153846153846,1.0046153846153847
0.15,-0.01,1.01
0.153125,-0.003125,1.01
0.15,-0.0041666666666666,1.01
0.1461538461538461,-0.0084615384615384,1.0015384615384615
0.15,-0.0033333333333333,1.005
0.1546153846153846,-0.0038461538461538,1.0123076923076924
0.1558333333333333,-0.0066666666666666,1.0133333333333332
0.1515384615384615,-0.0092307692307692,1.0061538461538462
0.15,-0.0016666666666666,1.0058333333333334
0.1546153846153846,-0.0023076923076923,1.0146153846153847
0.1544444444444444,-0.0055555555555555,1.0144444444444445
0.143125,-0.003125,1.01
0.1441666666666666,-0.0041666666666666,1.0125
0.14,-0.0038461538461538,1.0115384615384615
0.1441666666666666,-0.0041666666666666,1.0166666666666666
0.145,-0.008,1.012
0.1486666666666666,-0.008,1.012
0.15,-0.0046153846153846,1.0069230769230768
0.1541666666666666,-0.0058333333333333,1.0066666666666666
0.1538461538461538,-0.01,1.0061538461538462
0.1475,-0.01,1.0141666666666667
0.1446153846153846,-0.01,1.0015384615384615
0.1525,-0.01,1.0066666666666666
0.1515384615384615,-0.0053846153846153,1.0092307692307692
0.1472727272727272,-0.0045454545454545,1.0018181818181817
0.1509090909090909,-0.0072727272727272,1.007272727272727
0.1513333333333333,-0.0066666666666666,1.002
0.15,-0.01,0.9976923076923077
0.1583333333333333,-0.0083333333333333,1.0016666666666667
0.15,-0.0153846153846153,0.9984615384615385
0.15,-0.01,1.0055555555555555
0.15375,-0.01,1.006875
0.16,-0.0058333333333333,1.01
0.16,-0.01,1.0058333333333334
0.1515384615384615,-0.01,1.0061538461538462
0.156,-0.01,1.01
0.16,-0.01,1.01
0.1523076923076923,-0.0015384615384615,1.01
0.1533333333333333,-0.0091666666666666,1.0141666666666667
0.1507692307692307,-0.0115384615384615,1.0061538461538462
0.1544444444444444,0.0011111111111111,1.01
0.146875,-0.0,1.00375
0.1525,-0.0025,1.01
0.1553846153846154,-0.0061538461538461,1.01
0.1483333333333333,-0.01,1.0033333333333334
0.1522222222222222,-0.01,1.0022222222222221
0.1535714285714285,-0.01,1.0057142857142858
0.15,-0.006,1.0
0.1608333333333333,-0.0066666666666666,1.005
0.1561538461538461,-0.01,1.0069230769230768
0.1533333333333333,-0.0033333333333333,1.0066666666666666
0.15,-0.0081818181818181,1.01
0.15,-0.01,1.0064285714285715
0.1454545454545454,-0.0054545454545454,1.009090909090909
0.1464285714285714,-0.0078571428571428,1.0164285714285715
0.158,-0.013,1.012
0.1586666666666666,-0.0046666666666666,1.01
0.1569230769230769,-0.0076923076923076,1.0069230769230768
0.1541666666666666,-0.0041666666666666,1.0116666666666665
0.1516666666666666,-0.0016666666666666,1.0041666666666667
0.1561538461538461,-0.0038461538461538,1.01
0.1544444444444444,-0.0133333333333333,1.01
0.156875,-0.008125,1.01125
0.1476923076923076,-0.0084615384615384,1.0046153846153847
0.15,-0.0075,1.0058333333333334
0.1541666666666666,-0.0041666666666666,1.01
0.1553846153846154,-0.0061538461538461,1.01
0.153076923076923,-0.0053846153846153,1.0015384615384615
0.1541666666666666,-0.0066666666666666,1.0
0.1533333333333333,-0.01,1.0083333333333333
0.16,-0.0076923076923076,1.0076923076923077
0.1518181818181818,-0.0045454545454545,1.0163636363636364
0.1464285714285714,-0.0071428571428571,1.0085714285714285
0.1576923076923077,-0.0123076923076923,1.0038461538461538
0.15,-0.01,1.0025
0.1545454545454545,-0.01,1.0063636363636363
0.15,-0.0084615384615384,1.0038461538461538
0.15,-0.0042857142857142,1.0078571428571428
0.1475,-0.01,1.0058333333333334
0.1527272727272727,-0.0054545454545454,1.0063636363636363
0.1557142857142857,-0.0064285714285714,1.0035714285714286
0.1561538461538461,-0.0015384615384615,1.0084615384615383
0.16,-0.0066666666666666,1.01
0.1553846153846154,-0.0061538461538461,1.01
0.1541666666666666,-0.0058333333333333,1.01
0.15,-0.01,1.0077777777777777
0.15,-0.01,1.0066666666666666
0.156,-0.004,1.0146666666666666
0.15,-0.0007142857142857,1.0078571428571428
0.1536363636363636,-0.0118181818181818,1.008181818181818
0.1528571428571428,-0.0064285714285714,1.01
0.1436363636363636,-0.0054545454545454,1.01
0.1492857142857142,-0.0135714285714285,1.0064285714285715
0.1522222222222222,-0.0044444444444444,1.01
0.152,-0.01,1.0066666666666666
0.15,-0.01,1.008
0.156875,-0.005,1.006875
0.1536363636363636,-0.0054545454545454,1.0118181818181817
0.1464285714285714,-0.0,1.01
0.1581818181818181,-0.0045454545454545,1.0054545454545454
0.1533333333333333,-0.0033333333333333,1.0033333333333334
0.1521428571428571,-0.0064285714285714,1.0035714285714286
0.1518749999999999,-0.005,1.006875
0.1518181818181818,-0.0036363636363636,1.0054545454545454
0.1533333333333333,-0.0066666666666666,1.0066666666666666
0.1538461538461538,-0.0053846153846153,1.0007692307692306
0.1517647058823529,-0.0029411764705882,1.01
0.1572727272727272,-0.0,0.9990909090909091
0.1571428571428571,-0.0035714285714285,1.0064285714285715
0.15,-0.01,1.01
0.153,-0.0,1.007
0.15125,-0.0,1.011875
0.1521428571428571,-0.0057142857142857,1.0064285714285715
0.1509090909090909,-0.0145454545454545,1.0018181818181817
0.16,-0.0123076923076923,1.0053846153846153
0.1522222222222222,-0.0055555555555555,1.011111111111111
0.144375,-0.003125,1.015625
0.157,-0.0,1.005
0.155,-0.003125,1.01
0.1581818181818181,-0.0081818181818181,1.0018181818181817
0.152,-0.006,1.004
0.15,-0.0,1.01
0.1415384615384615,-0.0076923076923076,1.01
0.1508333333333333,-0.0108333333333333,1.0066666666666666
0.1453846153846154,-0.013076923076923,1.0053846153846153
0.145,-0.005,1.01
0.15,-0.0,1.0064285714285715
0.1507692307692307,-0.003076923076923,1.0069230769230768
0.1438461538461538,-0.0046153846153846,1.0038461538461538
0.1508333333333333,-0.0041666666666666,1.0075
0.16,-0.0,1.0133333333333332
0.151875,-0.003125,1.010625
0.1457142857142857,-0.0035714285714285,1.0142857142857142
0.1555555555555555,-0.0055555555555555,1.0133333333333332
0.1453333333333333,-0.0,1.0033333333333334
0.1508333333333333,0.0041666666666666,1.0116666666666665
0.16,-0.0015384615384615,1.0138461538461538
0.1558333333333333,-0.0025,1.0025
0.1561538461538461,-0.0015384615384615,1.0146153846153847
0.1566666666666666,-0.0091666666666666,1.0125
0.1538461538461538,-0.0107692307692307,1.0138461538461538
0.1541666666666666,-0.01,1.0175
0.15,-0.01,1.0146153846153847
0.1583333333333333,-0.0016666666666666,1.0141666666666667
0.15,-0.0076923076923076,1.0061538461538462
0.15,-0.0083333333333333,1.0058333333333334
0.153076923076923,-0.01,1.0115384615384615
0.1508333333333333,-0.0025,1.0158333333333334
0.15,-0.0,1.0107692307692306
0.1527272727272727,-0.0027272727272727,1.01
0.155,-0.0035714285714285,1.0114285714285713
0.1616666666666666,0.0025,1.0166666666666666
0.1546153846153846,0.0023076923076923,1.0115384615384615
0.15,-0.0091666666666666,1.0158333333333334
0.1446153846153846,-0.0107692307692307,1.0161538461538462
0.1475,-0.0033333333333333,1.0125
0.1508333333333333,0.0008333333333333,1.01
0.1518181818181818,0.0018181818181818,1.01
0.146,0.0053333333333333,1.0146666666666666
0.1525,-0.0,1.0125
0.1476923076923076,-0.0,1.0115384615384615
0.1525,-0.0008333333333333,1.02
0.1553846153846154,0.01,1.0107692307692306
0.1525,-0.0008333333333333,1.01
0.1538461538461538,-0.01,1.013076923076923
0.16,-0.003,1.016
0.1486666666666666,-0.0033333333333333,1.0133333333333332
0.1441666666666666,-0.0,1.01
0.1492307692307692,-0.0038461538461538,1.0138461538461538
0.1466666666666666,-0.0,1.01
0.1476923076923077,-0.0,1.0138461538461538
0.1536363636363636,0.0027272727272727,1.01
0.1507142857142857,0.0014285714285714,1.01
0.15,-0.0,1.01
0.1485714285714285,-0.0042857142857142,1.0135714285714286
0.1461538461538461,-0.003076923076923,1.0107692307692306
0.145,-0.0,1.0091666666666665
0.1469230769230769,-0.0,1.0107692307692306
0.1469230769230769,-0.0,1.0069230769230768
0.1483333333333333,0.0008333333333333,1.0133333333333332
0.15,-0.0061538461538461,1.0053846153846153
0.157,-0.008,1.015
0.1506666666666666,-0.0033333333333333,1.0133333333333332
0.1441666666666666,-0.0033333333333333,1.01
0.1453846153846154,-0.0046153846153846,1.0153846153846153
0.1425,-0.0,1.0166666666666666
0.1453846153846154,0.0023076923076923,1.0138461538461538
0.1508333333333333,-0.0066666666666666,1.0133333333333332
0.1453846153846154,0.0038461538461538,1.0153846153846153
0.155,0.01,1.004
0.1466666666666666,-0.0,1.01
0.1486666666666666,-0.0033333333333333,1.01
0.1523076923076923,0.0038461538461538,1.01
0.1554545454545454,-0.0,1.0027272727272727
0.155,-0.0035714285714285,1.0014285714285713
0.1572727272727272,-0.0,1.0063636363636363
0.16,0.0014285714285714,1.01
0.1533333333333333,0.0025,1.01
0.1546153846153846,-0.0015384615384615,1.01
0.1575,-0.0025,1.0025
0.1508333333333333,0.0033333333333333,1.0058333333333334
0.15,-0.0069230769230769,1.013076923076923
0.15,-0.0038461538461538,1.0084615384615383
0.1427272727272727,0.0072727272727272,1.0054545454545454
0.1407692307692307,0.0092307692307692,1.0115384615384615
0.1481818181818181,-0.0,1.01
0.14,0.0007142857142857,1.0064285714285715
0.143076923076923,0.003076923076923,1.0092307692307692
0.15,-0.0038461538461538,1.0146153846153847
0.1572727272727272,-0.0072727272727272,1.01
0.1515384615384615,-0.0053846153846153,1.0061538461538462
0.1525,-0.0,1.0058333333333334
0.155,-0.0035714285714285,1.015
0.15,-0.007,1.013
0.1492857142857142,-0.0057142857142857,1.01
0.1483333333333333,0.0025,1.01
0.1446153846153846,0.0053846153846153,1.01
0.1576923076923077,0.003076923076923,1.0092307692307692
0.1466666666666666,0.005,1.015
0.1566666666666666,-0.0,1.01
0.15,0.0023076923076923,1.01
0.1527272727272727,0.0054545454545454,1.01
0.1442857142857143,0.0028571428571428,1.01
0.1566666666666666,0.0033333333333333,1.01
0.1561538461538461,-0.0,1.0092307692307692
0.1533333333333333,-0.0066666666666666,1.0066666666666666
0.15,-0.01,1.0092307692307692
0.1475,-0.01,1.0016666666666667
0.1407692307692307,-0.0092307692307692,1.003076923076923
0.1518181818181818,-0.0,1.008181818181818
0.1557142857142857,-0.0007142857142857,1.0042857142857142
0.15,-0.0058333333333333,1.01
0.1546153846153846,-0.0015384615384615,1.01
0.1533333333333333,-0.0025,1.0033333333333334
0.1461538461538461,-0.0053846153846153,1.0046153846153847
0.1541666666666666,-0.0025,1.01
0.1507692307692307,-0.0015384615384615,1.0092307692307692
0.1490909090909091,-0.0018181818181818,1.009090909090909
0.1492857142857142,-0.0071428571428571,1.0071428571428571
0.1441666666666666,-0.0066666666666666,1.0025
0.1446153846153846,-0.0046153846153846,1.01
0.1541666666666666,-0.0033333333333333,1.0141666666666667
0.1469230769230769,0.003076923076923,1.01
0.1533333333333333,-0.0083333333333333,1.01
0.1492307692307692,-0.0115384615384615,1.0107692307692306
0.1418181818181818,0.0018181818181818,1.0145454545454544
0.1521428571428571,-0.0035714285714285,1.0157142857142858
0.155,-0.005,1.0125
0.1607692307692307,-0.0115384615384615,1.0153846153846153
0.1475,-0.0058333333333333,1.01
0.1376923076923077,-0.01,1.01
0.16,-0.0016666666666666,1.01
0.1592307692307692,-0.0107692307692307,1.0061538461538462
0.1454545454545454,-0.0118181818181818,1.01
0.15,-0.0038461538461538,1.0138461538461538
0.1592307692307692,-0.0038461538461538,1.0146153846153847
0.15,-0.0,1.0127272727272727
0.1457142857142857,-0.0057142857142857,1.0092857142857141
0.1361538461538461,-0.0092307692307692,1.0023076923076923
0.1491666666666666,-0.0041666666666666,1.0083333333333333
0.15,-0.0046153846153846,1.0153846153846153
0.15,-0.01,1.005
0.1447058823529411,-0.0011764705882352,1.0094117647058822
0.1591666666666666,-0.0075,1.0033333333333334
0.1453846153846154,-0.0038461538461538,1.0
0.1558333333333333,-0.0083333333333333,1.0025
0.1553846153846154,-0.0038461538461538,1.0046153846153847
0.1475,-0.0083333333333333,0.9991666666666666
0.1484615384615384,-0.0038461538461538,1.01
0.1454545454545454,-0.0,1.01
0.15,-0.0007142857142857,1.01
0.1541666666666666,-0.0075,1.01
0.1553846153846154,-0.0,1.01
0.1591666666666666,-0.0041666666666666,1.0116666666666665
0.1584615384615384,-0.0,1.0038461538461538
0.1516666666666666,-0.0066666666666666,1.0116666666666665
0.15,-0.0058333333333333,1.01
0.1558333333333333,-0.0041666666666666,1.0125
0.1557142857142857,-0.0042857142857142,1.0078571428571428
0.1516666666666666,-0.0058333333333333,1.01
0.14,-0.01,1.01
0.1421428571428571,-0.0064285714285714,1.0135714285714286
0.1461538461538461,-0.01,1.0053846153846153
0.15,-0.0075,1.0
0.1536363636363636,-0.0036363636363636,1.0036363636363637
0.1453846153846154,-0.01,1.0046153846153847
0.1371428571428571,-0.01,1.0035714285714286
0.15,-0.0058333333333333,1.0041666666666667
0.15,-0.01,1.0083333333333333
0.1384615384615384,-0.0061538461538461,1.0123076923076924
0.15,-0.0063636363636363,1.0163636363636364
0.15,-0.0107142857142857,1.01
0.1461538461538461,-0.0007692307692307,1.0053846153846153
0.1436363636363636,-0.0054545454545454,1.0018181818181817
0.1407142857142857,-0.0057142857142857,1.0092857142857141
0.1525,-0.0,1.0041666666666667
0.1546153846153846,-0.0007692307692307,1.0046153846153847
0.1508333333333333,-0.0058333333333333,1.0083333333333333
0.1458333333333333,-0.01,1.0116666666666665
0.1461538461538461,-0.0038461538461538,1.0
0.1463636363636363,-0.0,1.0
0.1453846153846154,-0.0092307692307692,1.0053846153846153
0.15,-0.0066666666666666,1.0066666666666666
0.1492857142857142,-0.0057142857142857,1.0057142857142858
0.1336363636363636,-0.01,1.01
0.1464285714285714,-0.0142857142857142,1.0057142857142858
0.1527272727272727,-0.01,1.01
0.1514285714285714,-0.01,1.0064285714285715
0.1516666666666666,-0.01,1.0058333333333334
0.1541666666666666,-0.0016666666666666,1.0058333333333334
0.1433333333333333,-0.01,1.0066666666666666
0.145,-0.0064285714285714,1.0092857142857141
0.15,-0.01,1.0058333333333334
0.15,-0.0038461538461538,1.0061538461538462
0.1463636363636363,-0.0036363636363636,1.0063636363636363
0.1469230769230769,-0.0076923076923076,1.0076923076923077
0.1566666666666666,-0.0166666666666666,1.0
0.1478571428571428,-0.0078571428571428,1.0057142857142858
0.1436363636363636,-0.0036363636363636,1.0063636363636363
0.1461538461538461,-0.0061538461538461,1.0076923076923077
0.1533333333333333,-0.01,1.0033333333333334
0.1471428571428571,-0.0042857142857142,1.0042857142857142
0.1522222222222222,-0.0022222222222222,1.0
0.1518749999999999,-0.005,1.003125
0.15,-0.0036363636363636,1.0036363636363637
0.1484615384615384,-0.01,1.0023076923076923
0.14,-0.0133333333333333,1.0066666666666666
0.1438461538461538,-0.0092307692307692,1.0092307692307692
0.1433333333333333,-0.0,1.01
0.15,-0.0107692307692307,1.0046153846153847
0.15,-0.0166666666666666,1.0033333333333334
0.15,-0.0058333333333333,1.0141666666666667
0.15,-0.01,1.01
0.1538461538461538,-0.01,1.0046153846153847
0.15,-0.0066666666666666,1.0033333333333334
0.1576923076923077,-0.0053846153846153,1.01
0.1466666666666666,-0.01,1.0066666666666666
0.1476923076923076,-0.01,1.0053846153846153
0.1466666666666667,-0.01,1.01
0.16,-0.0076923076923076,1.0046153846153847
0.1566666666666666,-0.0133333333333333,1.0033333333333334
0.1538461538461538,-0.0076923076923076,1.0061538461538462
0.1533333333333333,-0.0,1.01
0.153076923076923,-0.0092307692307692,1.01
0.1466666666666667,-0.01,1.0066666666666666
0.1546153846153846,-0.0061538461538461,1.0053846153846153
0.15,-0.0025,1.0025
0.145,-0.005,1.0008333333333332
0.15,-0.0169230769230769,1.0069230769230768
0.1576923076923077,-0.01,1.0038461538461538
0.15,-0.01,1.0
0.1438461538461538,-0.01,1.013076923076923
0.1566666666666666,-0.01,1.0133333333333332
0.15,-0.013076923076923,1.0107692307692306
0.1466666666666666,-0.02,1.0066666666666666
0.1453846153846154,-0.0092307692307692,1.0
0.1533333333333333,-0.01,1.0
0.1546153846153846,-0.0061538461538461,1.0
0.15,-0.0133333333333333,1.0
0.145,-0.0058333333333333,1.0008333333333332
0.1461538461538461,-0.0061538461538461,1.0069230769230768
0.1546153846153846,-0.0069230769230769,1.0038461538461538
0.15,-0.0133333333333333,1.0
0.1515384615384615,-0.0053846153846153,1.0076923076923077
0.1633333333333333,-0.0033333333333333,1.0
0.1476923076923076,-0.01,1.0092307692307692
0.1533333333333333,-0.01,1.0033333333333334
0.1492307692307692,-0.01,1.0069230769230768
0.14,-0.01,1.0
0.145,-0.005,1.0
0.1466666666666666,-0.0033333333333333,1.0
0.1476923076923076,-0.01,1.0053846153846153
0.1427272727272727,-0.01,1.01
0.15,-0.013076923076923,1.0092307692307692
0.15,-0.0025,1.0
0.1535714285714285,-0.0085714285714285,1.0
0.15,-0.0027272727272727,1.0027272727272727
0.1514285714285714,-0.0078571428571428,0.9978571428571429
0.1545454545454545,-0.0172727272727272,1.0
0.1515384615384615,-0.0138461538461538,1.0038461538461538
0.1461538461538461,-0.0069230769230769,1.0
0.1453846153846154,-0.0038461538461538,1.0
0.1433333333333333,-0.0,1.0
0.1446153846153846,-0.0069230769230769,1.0076923076923077
0.14,-0.0145454545454545,1.0027272727272727
0.1446153846153846,-0.0046153846153846,1.0053846153846153
0.15,-0.0075,1.0025
0.15,-0.0085714285714285,0.9978571428571429
0.1466666666666666,-0.0066666666666666,1.0033333333333334
0.1491666666666666,-0.0091666666666666,1.005
0.15,-0.01,1.0025
0.1469230769230769,-0.01,0.9976923076923077
0.16,-0.0069230769230769,1.0
0.1475,-0.0133333333333333,1.0
0.16,-0.01,1.0025
0.1561538461538461,-0.0107692307692307,1.0023076923076923
0.1569230769230769,-0.0138461538461538,1.01
0.1538461538461538,-0.0092307692307692,1.01
0.15,-0.01,1.01
0.1469230769230769,-0.0061538461538461,1.0023076923076923
0.1575,-0.01,1.0075
0.1607142857142857,-0.005,1.0014285714285713
0.1445454545454545,-0.0027272727272727,1.007272727272727
0.1553846153846154,-0.0023076923076923,1.0076923076923077
0.16,-0.0075,1.0
0.1516666666666666,-0.0,1.0
0.15,-0.0046153846153846,1.0
0.1538461538461538,-0.003076923076923,1.0
0.145,-0.0025,1.0
0.1507692307692307,-0.01,1.0076923076923077
0.1475,-0.01,1.0025
0.1492307692307692,-0.0053846153846153,1.0053846153846153
0.1575,-0.0025,1.0
0.1507692307692307,-0.0092307692307692,1.0046153846153847
0.1575,-0.0025,1.0075
0.1469230769230769,-0.0053846153846153,1.0069230769230768
0.1575,-0.005,0.9925
0.1584615384615384,-0.0115384615384615,1.0
0.155,-0.01,1.0025
0.1484615384615384,-0.0061538461538461,0.9976923076923077
0.15,-0.01,1.0
0.1490909090909091,-0.0054545454545454,1.008181818181818
0.1485714285714285,-0.0007142857142857,1.0007142857142857
0.1523076923076923,-0.0046153846153846,1.0069230769230768
0.15,-0.0075,0.995
0.153076923076923,-0.0076923076923076,1.0053846153846153
0.145,-0.0025,1.0025
0.1476923076923076,-0.0061538461538461,1.0015384615384615
0.1525,-0.01,1.0008333333333332
0.1509090909090909,-0.01,1.0027272727272727
0.1535714285714285,-0.0035714285714285,1.0035714285714286
0.1553846153846154,-0.0053846153846153,0.9976923076923077
0.1475,-0.0,0.9983333333333334
0.1423076923076923,-0.0046153846153846,1.0092307692307692
0.17,-0.0075,1.0
0.153076923076923,-0.0084615384615384,1.003076923076923
0.15,-0.01,0.995
0.1576923076923077,-0.0061538461538461,1.0053846153846153
0.15,-0.01,1.0
0.1541666666666666,-0.0016666666666666,1.0083333333333333
0.1576923076923077,-0.0076923076923076,1.0023076923076923
0.1541666666666666,-0.0083333333333333,1.0016666666666667
0.1653846153846153,-0.0153846153846153,1.0076923076923077
0.1461538461538461,-0.0046153846153846,1.0007692307692306
0.15,-0.0075,1.0075
0.1541666666666666,-0.0041666666666666,1.0
0.1446153846153846,-0.01,1.0
0.1561538461538461,-0.01,1.0084615384615383
0.1575,-0.01,1.01
0.1458333333333333,-0.01,1.0058333333333334
0.1476923076923076,-0.0023076923076923,0.9923076923076924
0.1415384615384615,-0.01,1.0
0.16,-0.01,1.0
0.1446153846153846,-0.0061538461538461,1.0007692307692306
0.155,-0.0124999999999999,1.0075
0.1518181818181818,-0.0072727272727272,1.000909090909091
0.1507142857142857,-0.0028571428571428,0.9992857142857143
0.1583333333333333,-0.0141666666666666,1.0083333333333333
0.1653846153846153,-0.01,1.0076923076923077
0.1627272727272727,-0.0136363636363636,1.0
0.1507142857142857,-0.0128571428571428,1.0042857142857142
0.15,-0.0116666666666666,0.9991666666666666
0.1523076923076923,-0.0123076923076923,1.0076923076923077
0.1558333333333333,-0.0116666666666666,1.0
0.1523076923076923,-0.0023076923076923,1.0
0.1472727272727272,-0.0063636363636363,1.0
0.15,-0.003076923076923,1.0015384615384615
0.1538461538461538,-0.0123076923076923,1.0023076923076923
0.1523076923076923,-0.01,0.9976923076923077
0.1554545454545454,-0.009090909090909,1.0027272727272727
0.1435714285714286,-0.0128571428571428,1.0
0.1545454545454545,-0.0072727272727272,1.0036363636363637
0.15,-0.0007142857142857,1.0007142857142857
0.1492307692307692,-0.0115384615384615,0.9992307692307693
0.145,-0.0025,0.9925
0.1518181818181818,-0.01,1.0036363636363637
0.1592857142857142,-0.0171428571428571,1.0007142857142857
0.1558333333333333,-0.0058333333333333,1.0
0.1523076923076923,-0.01,0.9923076923076924
0.1472727272727272,-0.0027272727272727,1.0118181818181817
0.159,0.01,1.002
