accx,accy,accz,gyrox,gyroy,gyroz
-0.1156122,0.7712939,0.6440968,0.03168246,0.002073007,0.3760492
-0.1144809,0.7730685,0.648342,0.02989256,0.01693435,0.3750699
-0.1129715,0.7718858,0.6543957,0.02998768,0.004137182,0.3765435
-0.1140681,0.771811,0.6570922,0.04122852,-0.01639775,0.3796373
-0.1143441,0.7706821,0.6628437,0.04514781,-0.03703932,0.3819589
-0.1120266,0.7680742,0.6626332,0.04511314,-0.02886174,0.377706
-0.113157,0.7667917,0.6610891,0.04374159,-0.01039113,0.3685205
-0.1130762,0.7650893,0.6649762,0.04748005,-0.01927646,0.3641668
-0.113855,0.7665681,0.6620354,0.06010433,-0.01676712,0.3613117
-0.1136485,0.7692138,0.6566149,0.06618339,-0.004359388,0.3546538
-0.1124061,0.7685963,0.6570647,0.0688483,-0.001888364,0.3467892
-0.118353,0.7701364,0.6577367,0.06919168,-0.009102783,0.3423363
-0.1226004,0.7735529,0.6582019,0.07097149,-0.02898749,0.3428565
-0.1209998,0.7724387,0.6569748,0.06444368,-0.03263143,0.3405568
-0.1201166,0.7713401,0.65455,0.04693542,-0.01883608,0.3379773
-0.1210645,0.7729136,0.6575154,0.04626953,-0.01230559,0.3378909
-0.1214011,0.7726073,0.6621497,0.05208706,-0.014702,0.3335109
-0.1211209,0.7745971,0.6638695,0.05443563,-0.02881159,0.3308319
-0.1226858,0.7773251,0.6599789,0.05663787,-0.04639098,0.3294859
-0.1211551,0.7743736,0.6536342,0.05375883,-0.05810411,0.3259681
-0.1181273,0.7714925,0.6553486,0.05481649,-0.06348614,0.3240328
-0.1175141,0.7710925,0.6580904,0.05381972,-0.06054207,0.320793
-0.1150279,0.7698412,0.6583124,0.05268932,-0.06001412,0.3178754
-0.1133416,0.7684452,0.6625048,0.05852786,-0.06266088,0.3139042
-0.1145413,0.7666498,0.662979,0.06969936,-0.06573227,0.3077146
-0.1185903,0.7639535,0.6600395,0.0847869,-0.07308617,0.3058467
-0.1223554,0.7639524,0.6595234,0.0831853,-0.07611539,0.3053003
-0.1205827,0.7661723,0.6596065,0.0762364,-0.07495737,0.3021637
-0.1183786,0.7653437,0.6609371,0.07998451,-0.07427121,0.2988641
-0.1179454,0.7653975,0.6613643,0.07823708,-0.07366284,0.297873
-0.1176227,0.7694278,0.6607571,0.08082881,-0.07671456,0.2960546
-0.1167056,0.7716769,0.6593236,0.0856602,-0.08007046,0.2897053
-0.112743,0.7713253,0.6539222,0.08040032,-0.07703907,0.2849329
-0.1100168,0.7712202,0.6497297,0.0775237,-0.06987524,0.2854318
-0.1119085,0.7718542,0.6513605,0.07506668,-0.06628692,0.2850409
-0.1132316,0.7691191,0.6541615,0.07428626,-0.06869001,0.2776812
-0.1113,0.7648972,0.6544302,0.07600323,-0.07318265,0.270165
-0.1105827,0.7669564,0.654285,0.0710437,-0.07431597,0.2699766
-0.1116344,0.7694058,0.6531827,0.06932502,-0.07239819,0.2697761
-0.1120673,0.7694879,0.652473,0.0720375,-0.06897443,0.2670065
-0.1137971,0.7719511,0.6576147,0.07288108,-0.06176473,0.2630372
-0.1152979,0.7732364,0.6613292,0.07335017,-0.0616238,0.2594523
-0.1152899,0.7729982,0.660733,0.07359834,-0.07664977,0.2614341
-0.1145166,0.7719321,0.6624085,0.07881463,-0.08353103,0.2607585
-0.1106824,0.7704237,0.6620345,0.08391381,-0.05550871,0.2535055
-0.107343,0.7693658,0.6621999,0.0844871,-0.02596551,0.2484827
-0.109683,0.7668376,0.6676115,0.08654224,-0.04252231,0.2470988
-0.1120172,0.7660355,0.6698957,0.08567215,-0.0580282,0.2461929
-0.1082481,0.7667536,0.6643622,0.07760818,-0.0411903,0.243709
-0.1054625,0.7706532,0.655913,0.06865716,-0.0384078,0.2434145
-0.1079081,0.777191,0.6539648,0.06781807,-0.03618234,0.2420078
-0.1099072,0.7739711,0.6569082,0.07058656,-0.02580323,0.2336168
-0.1114675,0.769695,0.6583459,0.06919545,-0.03362449,0.2305449
-0.1114039,0.7733782,0.6611688,0.06999501,-0.03360294,0.231831
-0.1085864,0.7721446,0.6620096,0.07188966,-0.02960926,0.2288325
-0.1080426,0.7692806,0.6601895,0.0701472,-0.03538994,0.2288027
-0.1085532,0.7689246,0.6604431,0.06739733,-0.03559943,0.2263906
-0.1093375,0.7671322,0.6598175,0.0636718,-0.04015112,0.218429
-0.111084,0.7684461,0.6603426,0.06219481,-0.04078907,0.2129323
-0.1112665,0.7693856,0.662588,0.06444214,-0.03719517,0.208434
-0.1114778,0.7688624,0.6619444,0.06525995,-0.04108303,0.2085301
-0.1132145,0.7691763,0.6620877,0.06427261,-0.03642604,0.210052
-0.1161653,0.7675982,0.6654787,0.064095,-0.03279534,0.2046661
-0.1175785,0.76875,0.6677126,0.06372415,-0.03763177,0.2007026
-0.1162999,0.7703499,0.6658272,0.06298901,-0.03994509,0.1982734
-0.1165409,0.7687828,0.661639,0.06328455,-0.04312644,0.1949302
-0.1169881,0.7687914,0.6589659,0.06351859,-0.04744699,0.194516
-0.1160307,0.7690451,0.6603926,0.06312514,-0.05148601,0.1930547
-0.1150104,0.7702273,0.6643154,0.06286097,-0.04680486,0.1945305
-0.1131831,0.7713085,0.6661409,0.06355313,-0.03663178,0.1981756
-0.1124935,0.7686968,0.666627,0.06577863,-0.03666653,0.1952913
-0.1117041,0.767392,0.6657299,0.0670752,-0.03534125,0.1906564
-0.1095317,0.7685288,0.6616142,0.06514577,-0.02801959,0.1839224
-0.1104036,0.7704905,0.6594302,0.062339,-0.02658923,0.1749085
-0.1144352,0.7740046,0.6598109,0.06225855,-0.03209215,0.1743261
-0.1173005,0.7756057,0.6605388,0.06301534,-0.04069024,0.1762181
-0.1144517,0.7732334,0.6611033,0.06186099,-0.03961701,0.1734345
-0.109917,0.7710159,0.658311,0.06158393,-0.03214364,0.1763053
-0.1116705,0.7714709,0.6561285,0.06275172,-0.03514631,0.1793589
-0.1127181,0.7704437,0.6578048,0.06529906,-0.03781261,0.1753191
-0.1098057,0.767391,0.6589743,0.06862211,-0.03105202,0.1720258
-0.1093426,0.7654025,0.6588105,0.06692155,-0.01885858,0.1624662
-0.1089643,0.7646285,0.6610333,0.06450394,-0.01164596,0.1514241
-0.1111926,0.7660648,0.6654471,0.06770019,-0.04082331,0.1535561
-0.1156954,0.7682244,0.6649772,0.06902847,-0.07545315,0.1550218
-0.1140617,0.7697744,0.6593309,0.06794031,-0.05011362,0.1508276
-0.1128402,0.7706677,0.6555157,0.07049106,-0.01793236,0.1497102
-0.1149199,0.7716124,0.6563526,0.07236308,-0.02831378,0.14843
-0.1145546,0.7754159,0.6580433,0.06910985,-0.0379878,0.1474741
-0.1147256,0.7760602,0.656479,0.06485333,-0.04567615,0.1474363
-0.1131781,0.7727707,0.6571235,0.06355746,-0.0459134,0.1446291
-0.1097284,0.7701678,0.6603827,0.05995023,-0.03172863,0.1426121
-0.1109913,0.7654054,0.6612983,0.05324838,-0.03676042,0.1424888
-0.1119123,0.7666489,0.6616223,0.05240217,-0.03731107,0.1396418
-0.1107971,0.7720192,0.6607475,0.05419838,-0.02953783,0.1357383
-0.1132747,0.7699505,0.6609146,0.05389252,-0.03135864,0.1330366
-0.1158963,0.7679192,0.6613536,0.05563476,-0.02266077,0.1317368
-0.1171744,0.7668838,0.6587302,0.05607315,-0.02105797,0.1315604
-0.1185974,0.7675269,0.6578686,0.05535426,-0.02330866,0.1288776
-0.118156,0.7718533,0.6572141,0.05733411,-0.01678079,0.1265965
-0.1175622,0.7702262,0.6557391,0.05738519,-0.0177221,0.1257836
-0.1173687,0.7691161,0.6554687,0.05472811,-0.01846439,0.1217822
-0.1160145,0.7709829,0.6547212,0.05218029,-0.02035463,0.1178889
-0.1146858,0.7688971,0.6532442,0.05162901,-0.01664321,0.1156589
-0.1141817,0.7691617,0.6516977,0.05309994,-0.01011705,0.1139438
-0.1162102,0.769983,0.6571114,0.05376943,-0.0184367,0.1132641
-0.1190547,0.7688419,0.6638768,0.05430586,-0.02166276,0.1115983
-0.117439,0.7685718,0.6602697,0.05210249,-0.01750296,0.1090196
-0.1157246,0.7668774,0.6580569,0.04948233,-0.01644121,0.1061868
-0.118217,0.766372,0.6607548,0.05213642,-0.01632104,0.1041821
-0.1195827,0.767791,0.6596424,0.05171154,-0.01742114,0.1029308
-0.1200478,0.7679549,0.6595967,0.05016633,-0.01695023,0.1010468
-0.1203719,0.7663233,0.6620417,0.04907321,-0.01829447,0.09958111
-0.1180962,0.764907,0.6633151,0.03869861,-0.01505673,0.0967247
-0.1171637,0.7675062,0.6644468,0.03317533,-0.01107626,0.09329674
-0.1166554,0.7717069,0.6630267,0.0423655,-0.01856323,0.09070162
-0.1145906,0.7725859,0.6595246,0.05118792,-0.0236282,0.08848277
-0.1153992,0.7703878,0.6607889,0.04874465,-0.02132743,0.09006373
-0.1177482,0.7684435,0.6641628,0.04282514,-0.0210539,0.09106909
-0.1193712,0.768544,0.6635247,0.04722655,-0.02409347,0.0920214
-0.1208191,0.7678446,0.661623,0.05348926,-0.02626299,0.0946856
-0.120088,0.7658099,0.6590945,0.05507045,-0.02674466,0.09066375
-0.1162854,0.7650196,0.6579309,0.05571682,-0.02386559,0.08778724
-0.1140068,0.7651128,0.6628298,0.05306731,-0.01666448,0.08108637
-0.1208119,0.7654262,0.6679507,0.05525456,-0.02200082,0.06717626
-0.1300295,0.7653484,0.6682034,0.05774082,-0.04395322,0.07078291
-0.1272604,0.7650664,0.6637165,0.05301976,-0.05754184,0.07510017
-0.1189173,0.7659906,0.654657,0.04942373,-0.03784385,0.06828611
-0.1155343,0.7679299,0.6505512,0.04530732,-0.007106341,0.07090339
-0.1157926,0.7692472,0.6592403,0.04505616,-0.01314832,0.07011221
-0.11784,0.76549,0.668546,0.0473475,-0.02933162,0.06747239
-0.1177159,0.760714,0.6647565,0.04447242,-0.02829448,0.06992554
-0.1183968,0.7641077,0.6578625,0.04580523,-0.03259992,0.0655254
-0.1207894,0.7674123,0.6573572,0.04865609,-0.03634558,0.06398356
-0.1190356,0.7664563,0.6596764,0.05053872,-0.04731274,0.06289606
-0.120037,0.7693196,0.6668051,0.05402928,-0.05672315,0.0586776
-0.121923,0.7705301,0.6702745,0.05196226,-0.0454972,0.0595641
-0.1201146,0.7684193,0.6670922,0.05071701,-0.04420755,0.0566357
-0.121079,0.7687839,0.6685319,0.05227752,-0.04529154,0.05324067
-0.1208062,0.7682177,0.6680238,0.05136472,-0.04476223,0.05498326
-0.1197173,0.7685819,0.6660732,0.05252584,-0.05378235,0.05496591
-0.1205362,0.7709902,0.6665511,0.05373387,-0.04855483,0.05579864
-0.1206279,0.7699116,0.6598049,0.05412617,-0.03989154,0.05598047
-0.1213067,0.7676904,0.6546864,0.05389899,-0.03856912,0.05414606
-0.120246,0.766108,0.6598773,0.04954104,-0.04362636,0.05520425
-0.1183157,0.7652017,0.6625567,0.04701038,-0.0520952,0.05546489
-0.1153056,0.7681092,0.6575076,0.04753481,-0.04179692,0.05189016
-0.1125595,0.7714465,0.6548368,0.04476823,-0.03025063,0.04609
-0.1151277,0.7710219,0.6558023,0.04065657,-0.03117333,0.04258727
-0.1158441,0.7694815,0.6557597,0.03856699,-0.03099212,0.04668198
-0.1138169,0.7693311,0.6578041,0.03528565,-0.03178112,0.04956399
-0.1142346,0.769476,0.6608622,0.03263082,-0.03128687,0.03983228
-0.1164266,0.7695764,0.6627645,0.04165842,-0.03387749,0.02934738
-0.1217962,0.7704227,0.6637435,0.05711792,-0.04469321,0.03274922
-0.1252262,0.770857,0.6639716,0.06238033,-0.05088496,0.04003444
-0.1231911,0.7700491,0.6651064,0.06428212,-0.0421676,0.0428089
-0.1208569,0.7690383,0.6646201,0.06971664,-0.03318752,0.0432004
-0.1184018,0.7687921,0.6612052,0.06474863,-0.04514862,0.03787969
-0.1146242,0.7667507,0.6558736,0.04774669,-0.05178116,0.03272215
-0.1129815,0.7624226,0.6531532,0.03126386,-0.02839136,0.03209561
-0.1146048,0.7620109,0.6548663,0.02497564,-0.004167372,0.02904028
-0.1168087,0.7652251,0.656989,0.0307937,0.001804955,0.0276444
-0.1185931,0.7674836,0.6653209,0.03525928,-0.001241937,0.03221993
-0.1185242,0.7686592,0.674412,0.03514045,-0.00872778,0.03577816
-0.1168865,0.768076,0.6696423,0.03898616,-0.01453359,0.03457746
-0.1156165,0.7671536,0.6598501,0.03933811,-0.000348398,0.03173532
-0.1138115,0.765534,0.6555008,0.03977852,0.01486076,0.02759481
-0.116371,0.7620609,0.6562933,0.04807085,-0.009999091,0.02090965
-0.1225209,0.7627001,0.6599376,0.05062936,-0.03286972,0.01803971
-0.1229383,0.7676856,0.6601242,0.04120463,-0.01625396,0.0201751
-0.1215011,0.7703492,0.6591593,0.02659904,-0.01001026,0.02118252
-0.121603,0.7689448,0.6604159,0.02144527,-0.02061708,0.02105924
-0.1195596,0.767607,0.6603718,0.02676767,-0.01973544,0.01967289
-0.1162637,0.7708583,0.6612547,0.02761316,-0.01877725,0.01700211
-0.1124595,0.7732073,0.6616248,0.02935933,-0.01828761,0.01582728
-0.1113176,0.7697846,0.6606227,0.03234306,-0.01272699,0.01672237
-0.1126217,0.7666094,0.6623941,0.02951383,-0.01067741,0.01790378
-0.1148444,0.7654359,0.6628119,0.02659089,-0.01047435,0.01732203
-0.1192088,0.7651282,0.6611695,0.02457178,-0.005042036,0.01586823
-0.1172685,0.7663334,0.6573983,0.02937666,0.01147087,0.01243785
-0.1133736,0.7669311,0.6526454,0.03660572,0.02399903,0.007719565
-0.1183582,0.7667062,0.6556284,0.03327602,0.006846625,0.006559698
-0.1220404,0.7670812,0.6594872,0.03061927,-0.01093234,0.006273773
-0.1232203,0.7697261,0.6572945,0.0328669,0.0004332451,0.004354663
-0.1255727,0.7733605,0.6571014,0.03107891,0.005646289,0.003253995
-0.1246508,0.7734375,0.6589581,0.02927693,-0.001820688,0.002774601
-0.1250328,0.7714597,0.6606001,0.0279594,0.0008871202,0.002785983
-0.1253518,0.7703983,0.6623902,0.02522416,-0.002738293,0.00401296
-0.1244383,0.7669014,0.6605749,0.02430275,-0.009197412,0.006122642
-0.1254863,0.7611579,0.6591395,0.01788203,-0.001650791,0.00626393
-0.1248045,0.7608909,0.6622027,0.004426667,0.002856405,0.003972306
-0.1246782,0.7662508,0.6647613,-0.0001450311,0.0007046422,0.003380816
-0.1244792,0.7695132,0.6669244,0.01089616,-0.0006733753,0.003239012
-0.1229262,0.7692408,0.6659693,0.02129138,-0.002126772,0.002520031
-0.1239604,0.7689763,0.6620275,0.01726107,0.001480358,0.003758756
-0.1246593,0.7698635,0.6632527,0.01523148,0.005118512,0.002433256
-0.1250126,0.7691447,0.6603583,0.02142774,0.00103737,-0.002558703
-0.1253409,0.7663408,0.654182,0.01942396,-0.005979845,-0.004798585
-0.1249945,0.7620975,0.6563066,0.01780881,-0.008704976,-0.005889061
-0.1269525,0.758144,0.6565961,0.02033498,-0.00365677,-0.008789986
-0.1283827,0.7608779,0.6564028,0.01905581,0.002865953,-0.006138811
-0.1277974,0.7652652,0.6610459,0.02147917,0.001735235,0.003295039
-0.1272143,0.7647018,0.6632879,0.02184935,-0.005441148,0.006691341
-0.1264154,0.7629402,0.6666119,0.0200678,-0.0106312,0.000450819
-0.1263573,0.7607143,0.6687121,0.02267847,-0.01011512,-0.004668769
-0.1281092,0.7635141,0.6647141,0.02063544,-0.009010566,-0.004290867
-0.129408,0.7690516,0.6599168,0.01952814,-0.01503323,-0.001365697
-0.1283085,0.7679873,0.6558157,0.02337944,-0.02240982,0.00163193
-0.1256924,0.7665808,0.6561155,0.02299895,-0.01876768,-0.001388064
-0.1199828,0.7657697,0.6606788,0.01800178,-0.002350434,-0.01113368
-0.1175299,0.7636248,0.6625699,0.01495733,0.005383119,-0.01730713
-0.1265214,0.7639465,0.6642723,0.02399189,-0.03087807,-0.01494621
-0.1333396,0.7642099,0.6644351,0.03393901,-0.06932735,-0.01029399
-0.1288626,0.7652421,0.6608321,0.02628466,-0.04104677,-0.01027611
-0.1258626,0.765816,0.6601023,0.01822789,-0.01362208,-0.01017285
-0.1284574,0.7641878,0.6596188,0.02191015,-0.03572309,-0.007592235
-0.1280998,0.7654707,0.6592026,0.02337934,-0.03721692,-0.009674597
-0.1260034,0.7679261,0.6603062,0.02269376,-0.02880505,-0.01041837
-0.1265028,0.7694139,0.6584949,0.02351898,-0.03723815,-0.008162388
-0.1254048,0.7713448,0.6589604,0.02204778,-0.03047522,-0.008681112
-0.1239367,0.7700618,0.6603297,0.02030341,-0.03265801,-0.008309568
-0.1223353,0.7643731,0.659414,0.02004249,-0.04183881,-0.01014586
-0.118004,0.7609588,0.6604481,0.02241873,-0.03581252,-0.01248204
-0.1172519,0.7633887,0.6622824,0.02308617,-0.03503368,-0.01313203
-0.1191183,0.7649789,0.664696,0.02161972,-0.03241084,-0.01666811
-0.1205867,0.7633572,0.6649263,0.02508848,-0.03631609,-0.01848797
-0.123008,0.7637579,0.6656419,0.02670144,-0.04805042,-0.01940343
-0.1225941,0.7645206,0.669486,0.02686007,-0.0440929,-0.01860864
-0.1217553,0.7643805,0.667427,0.02926382,-0.04291922,-0.01356826
-0.1236179,0.7656945,0.6626052,0.02398594,-0.04518999,-0.01163883
-0.1248537,0.7656849,0.6616169,0.01830667,-0.04388291,-0.01643005
-0.1251155,0.7660555,0.6656845,0.02070138,-0.04940915,-0.02235701
-0.1245752,0.7687226,0.6708399,0.02348078,-0.05118447,-0.01764785
-0.1221751,0.7684042,0.664613,0.02544376,-0.04636022,-0.0118036
-0.1196889,0.7668737,0.6567951,0.02774266,-0.04189339,-0.01573632
-0.1188155,0.7680467,0.6573327,0.02755644,-0.04327117,-0.01590708
-0.1174738,0.7686143,0.6538539,0.02584873,-0.04651501,-0.01715276
-0.1149248,0.7677032,0.6526696,0.02469695,-0.04431513,-0.02173845
-0.113566,0.7678008,0.6577264,0.0214081,-0.04181845,-0.01940649
-0.114505,0.7674853,0.6569836,0.0188761,-0.03799983,-0.01888635
-0.1159052,0.7661101,0.6563006,0.02098812,-0.03822907,-0.02027642
-0.1153332,0.7673406,0.6567739,0.02285767,-0.04102959,-0.02000967
-0.114859,0.7706043,0.6546165,0.02455861,-0.0351994,-0.02186804
-0.1156337,0.7729472,0.655764,0.02460239,-0.03391342,-0.02098812
-0.1153791,0.7728324,0.6560765,0.02213479,-0.04091306,-0.01673593
-0.1161717,0.7710656,0.6558867,0.02275832,-0.04529282,-0.01412963
-0.1181079,0.7706683,0.6582441,0.02250584,-0.04363161,-0.01350913
-0.1176932,0.7692786,0.6594834,0.02080031,-0.03859008,-0.01413615
-0.1151441,0.7686064,0.6618642,0.02172912,-0.03851868,-0.01626482
-0.1112852,0.7703243,0.6626761,0.02461752,-0.03857731,-0.01547529
-0.1073978,0.7687937,0.6620386,0.02857814,-0.03369374,-0.01430906
-0.1055201,0.7673139,0.6637887,0.02743387,-0.02082034,-0.020925
-0.1087489,0.7671381,0.662977,0.02437947,-0.008540596,-0.02717311
-0.1148528,0.7680177,0.6604102,0.02379751,-0.02747824,-0.0281298
-0.114687,0.7724312,0.6574226,0.01792057,-0.04872919,-0.02940568
-0.1127801,0.7727427,0.6553868,0.01186826,-0.02960657,-0.0303475
-0.1151119,0.7702942,0.6607279,0.008469098,-0.009861508,-0.0295548
-0.1164929,0.7690472,0.665886,0.004243066,-0.01129279,-0.02647964
-0.1181355,0.766309,0.6622496,0.00742891,-0.01389093,-0.02142786
-0.1167743,0.766713,0.6595464,0.01198282,-0.01770527,-0.01489524
-0.1118948,0.7688703,0.6626498,0.01026335,-0.01293397,-0.01239843
-0.1120279,0.7696574,0.6631488,0.009783061,-0.005027557,-0.01624518
-0.1120502,0.7698573,0.6623947,0.009386079,-0.01126637,-0.01664645
-0.1104118,0.7689656,0.6655232,0.008316259,-0.01060922,-0.01438226
-0.1109788,0.7690584,0.667476,0.00771441,0.003666604,-0.01470617
-0.1093694,0.7666273,0.6674734,0.005722808,0.01663342,-0.01810435
-0.1076497,0.7622746,0.6699261,0.007234721,0.02086647,-0.02272053
-0.1089865,0.7628684,0.6724799,0.009976337,0.01490213,-0.02138214
-0.112181,0.7675959,0.6668027,0.007779464,0.01494888,-0.02011414
-0.1148864,0.7726163,0.6547501,0.002742595,0.01771091,-0.02260609
-0.1147097,0.7732054,0.6508756,-8.572534e-05,0.0137569,-0.02125928
-0.1159621,0.7715865,0.6557875,0.003586117,0.01152413,-0.01932763
-0.1191475,0.773308,0.6584104,0.007184806,0.006718376,-0.01859439
-0.1179734,0.7741589,0.6568127,0.004993412,0.00668621,-0.01919693
-0.1144558,0.7733101,0.6571242,0.00346685,0.01054652,-0.02201568
-0.1135795,0.773684,0.6622804,0.002022998,0.005915875,-0.02125114
-0.1136968,0.7732997,0.6659705,-0.001076528,0.004224976,-0.01966438
-0.1139969,0.7715631,0.6657382,-0.001469736,0.003272364,-0.02081749
-0.1137364,0.7694732,0.6649208,-0.0014087,0.003567061,-0.02108979
-0.1117494,0.7689016,0.6649386,-0.001940866,0.0122559,-0.02157649
-0.1111535,0.7697809,0.6637682,-0.001195395,0.01487415,-0.02126048
-0.1127236,0.7694494,0.6577279,-0.001069167,0.008671056,-0.01950313
-0.1145775,0.7688785,0.652925,-0.001102235,0.003418756,-0.02116128
-0.1142432,0.7678835,0.6537801,0.0001052374,0.008243859,-0.02303039
-0.1138608,0.7656454,0.6547591,0.001469416,0.01434061,-0.02115087
-0.1179394,0.7651842,0.6544152,0.001011472,0.00733745,-0.01902697
-0.1203929,0.767086,0.6556337,-0.0008643361,0.002471868,-0.0158573
-0.1185517,0.7710015,0.6580443,-0.001170057,0.003690647,-0.01384471
-0.1176531,0.7737883,0.6582818,-0.001413306,0.006910693,-0.01624831
-0.1189001,0.7717454,0.6597815,-0.003750535,0.01155374,-0.01591151
-0.1190708,0.7703244,0.6623501,-0.00429941,0.0005422701,-0.01375428
-0.1138432,0.7695868,0.6606705,0.001552936,-0.007239508,-0.01353827
-0.1092833,0.7671477,0.6598206,0.008296781,0.01473529,-0.01419898
-0.1117577,0.7688646,0.6601809,0.006256612,0.03371635,-0.02108486
-0.1168177,0.7704481,0.66048,0.003888115,0.02068592,-0.0261949
-0.1207734,0.7688354,0.6634993,0.006879737,-0.0003326673,-0.01969968
-0.1211727,0.7693817,0.6639951,0.003478692,-0.004912163,-0.01503491
-0.117634,0.7685882,0.6608024,-0.002787188,0.003716469,-0.02099078
-0.1147109,0.7665528,0.6580031,-0.00506256,0.01551996,-0.02631265
-0.115438,0.7665785,0.6584737,-0.00500992,0.01266454,-0.02414721
-0.1173991,0.7664356,0.6633553,-0.001004443,0.001645933,-0.02134451
-0.1183731,0.7658772,0.6692864,0.0005534514,0.002093924,-0.0179489
-0.1183534,0.7649803,0.6711721,-0.0004707035,0.001950559,-0.0144385
-0.1180209,0.7652555,0.6639188,-0.0003136729,0.00318262,-0.01683785
-0.1199582,0.7665431,0.6547179,-0.002028085,0.004947754,-0.01776566
-0.1208631,0.7666864,0.6544877,-0.001655034,0.001652144,-0.0167146
-0.1165981,0.7668036,0.6564168,-0.001696564,0.009147845,-0.02026508
-0.111367,0.7666034,0.6547692,-0.002904015,0.01577468,-0.02222768
-0.1106961,0.7665639,0.6532747,0.0001701146,0.01794521,-0.01974464
-0.1153485,0.7672253,0.6534745,0.001660184,0.01950553,-0.01727929
-0.1190346,0.7682773,0.6559146,-0.000444402,0.01678388,-0.01774069
-0.1195132,0.770051,0.6565215,-0.002848872,0.02310775,-0.01828308
-0.121363,0.7697266,0.6546721,-0.003781925,0.02593898,-0.01844712
-0.1238315,0.7688803,0.6558631,-0.004247423,0.02225311,-0.01992824
-0.1236789,0.7698006,0.6574786,-0.006625868,0.02169883,-0.01541453
-0.1214553,0.7696151,0.6592578,-0.008714223,0.01899756,-0.009709152
-0.1203611,0.770286,0.6624107,-0.01287357,0.0227086,-0.01192079
-0.1204448,0.7722759,0.6609047,-0.01707994,0.02595114,-0.01289179
-0.1190096,0.7718921,0.6584565,-0.01465424,0.02290954,-0.01135754
-0.116618,0.7691036,0.6585617,-0.008944795,0.01789152,-0.01300644
-0.1160477,0.765271,0.6581937,-0.004745461,0.01174331,-0.01445719
-0.1169262,0.7635098,0.6599813,-0.004574173,0.01686587,-0.0162096
-0.116474,0.7640762,0.660109,-0.005558165,0.0238523,-0.01937356
-0.1179254,0.7636468,0.6574974,-0.004811114,0.02202698,-0.02164996
-0.1207503,0.7630938,0.6586917,-0.006219841,0.02161316,-0.02302257
-0.1200636,0.7634707,0.6616347,-0.00691563,0.02197886,-0.02220045
-0.1221989,0.7647816,0.6643075,-0.004704451,0.02006915,-0.02115042
-0.1262305,0.7659491,0.6662951,-0.004485631,0.01695983,-0.02266709
-0.1247117,0.7650967,0.6667691,-0.005859616,0.01534717,-0.02206493
-0.1232071,0.7653885,0.6656873,-0.008633929,0.02158083,-0.01821966
-0.1222194,0.7674438,0.6601927,-0.01139149,0.02821066,-0.01565492
-0.1199555,0.7683382,0.6550048,-0.008562193,0.01922723,-0.01728256
-0.1217279,0.7683133,0.6560586,-0.005354966,0.005952502,-0.02266677
-0.1231016,0.7679588,0.6556615,-0.00639276,0.00434843,-0.02474409
-0.1222367,0.7689365,0.6501691,-0.006939471,0.004730281,-0.02035199
-0.1249991,0.7694459,0.6518669,-0.007523532,0.003958322,-0.01605768
-0.1272024,0.7662063,0.662179,-0.007149209,0.0009573777,-0.01469848
-0.1241224,0.7626294,0.6659399,-0.003278686,0.001826233,-0.01473471
-0.1171838,0.7616056,0.6616581,0.0001494114,0.02476786,-0.01718638
-0.1135724,0.7618525,0.6605783,0.0002462391,0.04040554,-0.02308907
-0.1224758,0.7614323,0.6651459,-0.0006794911,0.01332208,-0.02828175
-0.1327039,0.7623958,0.665914,0.001025553,-0.01913128,-0.02323993
-0.1298251,0.7649053,0.6558205,0.002289901,-0.01413249,-0.01526765
-0.1269865,0.7641672,0.6471627,0.001274361,0.004194578,-0.01930673
-0.1306439,0.7639508,0.6542818,-0.0004491492,0.008538153,-0.02127735
-0.1291196,0.765427,0.6635722,-0.002260441,0.007509776,-0.01726979
-0.1281987,0.7649231,0.660102,-0.001553999,-0.001438856,-0.02025398
-0.129429,0.7679639,0.6593593,-0.004939441,-0.01042296,-0.0202213
-0.1240214,0.7718915,0.6658282,-0.009732124,-0.007920901,-0.01857924
-0.1211827,0.7704911,0.6646284,-0.005524791,-0.01178287,-0.02097562
-0.1240537,0.768288,0.6623177,-0.003109389,-0.02232793,-0.02151541
-0.1258342,0.7657294,0.6643169,-0.005230982,-0.02792781,-0.02452652
-0.1252605,0.7623933,0.6654502,-0.003374061,-0.02532868,-0.02573048
-0.1242155,0.7610578,0.6699923,0.004082974,-0.02531015,-0.02739908
-0.1255532,0.7602417,0.6743715,0.01946551,-0.04155559,-0.03250949
-0.1250383,0.7607806,0.6732347,0.03430742,-0.05760145,-0.02856926
-0.1244637,0.7641711,0.6707072,0.03774352,-0.06076493,-0.02334345
-0.1258642,0.7662608,0.6661376,0.03396852,-0.05197705,-0.02324338
-0.125414,0.7651153,0.6616896,0.03063544,-0.04576463,-0.0214548
-0.1265638,0.7644679,0.6619026,0.02680147,-0.05326163,-0.01863158
-0.1251869,0.7666159,0.660605,0.02170092,-0.05416938,-0.01458709
-0.1199132,0.7693068,0.65842,0.01857618,-0.04876233,-0.01444937
-0.1157777,0.7710394,0.6595676,0.01540444,-0.04430792,-0.01731009
-0.1122408,0.7725562,0.6564073,0.01492779,-0.03812104,-0.01666665
-0.1127579,0.7725204,0.6540302,0.01731701,-0.0376014,-0.01727355
-0.1154934,0.7708871,0.6623592,0.01701868,-0.04023337,-0.01602873
-0.1169817,0.7705831,0.6688176,0.02203743,-0.0464739,-0.01344734
-0.1163954,0.770838,0.6626379,0.02795593,-0.04941822,-0.01545286
-0.1140163,0.7698332,0.6566498,0.02103422,-0.04197789,-0.01500832
-0.1145848,0.7691977,0.6595119,0.0102343,-0.03594936,-0.0156268
-0.1143059,0.7695719,0.6573717,0.001285185,-0.03221992,-0.01720883
-0.1139495,0.7704365,0.6516262,-0.007363648,-0.02658512,-0.01277277
-0.1166328,0.771113,0.6553555,-0.009656047,-0.02159469,-0.01247762
-0.1165912,0.771019,0.6603644,-0.007630351,-0.02181611,-0.01503542
-0.1161527,0.7716192,0.665241,-0.00320396,-0.02257812,-0.01608336
-0.1146806,0.7725719,0.6707301,0.003719756,-0.0229375,-0.0172301
-0.1125464,0.7719498,0.669355,0.00489665,-0.03366098,-0.01196749
-0.1139904,0.7700453,0.6678739,0.006636264,-0.04216984,-0.007455014
-0.1114476,0.7681109,0.6640743,0.0138244,-0.03674564,-0.008124199
-0.1085499,0.7676148,0.6546066,0.00938924,-0.02633349,-0.008151579
-0.1120463,0.7686025,0.650504,-0.003047293,-0.0189765,-0.007807044
-0.1142371,0.7701169,0.6498346,-0.007162567,-0.01808456,-0.007050949
-0.1123743,0.7720753,0.650335,-0.002303053,-0.01160119,-0.009074145
-0.105777,0.7719439,0.6550433,0.00479852,0.01066787,-0.01325863
-0.09922311,0.7674528,0.6590342,0.0009251374,0.0304038,-0.0169845
-0.1032613,0.7645189,0.6617191,-0.003315214,0.02238061,-0.01841792
-0.110911,0.7688049,0.6642271,0.002629608,0.007857837,-0.01486253
-0.1118148,0.7735933,0.6619825,0.001230981,0.01702734,-0.01191465
-0.1109195,0.7723134,0.6544381,-0.00356912,0.02754791,-0.01057878
-0.1111869,0.7703226,0.6479938,-0.009880369,0.03321037,-0.01066564
-0.1109316,0.7702496,0.6455446,-0.0188657,0.0373879,-0.01244739
-0.1104081,0.7690071,0.6479497,-0.01630347,0.03343708,-0.01134709
-0.1066101,0.7692042,0.6573892,-0.01607922,0.04489757,-0.01131342
-0.1031679,0.7703541,0.6652532,-0.01999984,0.05349723,-0.01284368
-0.106952,0.7707915,0.6631565,-0.01553582,0.03812914,-0.01313405
-0.1117376,0.7728731,0.6582557,-0.01355927,0.02159013,-0.01321799
-0.1115445,0.7726485,0.6558109,-0.01299238,0.008765576,-0.0105211
-0.1111379,0.7714419,0.6522966,-0.01204932,0.01554598,-0.008154677
-0.1143886,0.7727473,0.6522599,-0.01305235,0.02803921,-0.00982332
-0.1179441,0.7718048,0.6575926,-0.011126,0.02047874,-0.01223246
-0.1186761,0.7701394,0.659456,-0.01044564,0.01831183,-0.01320316
-0.1179106,0.7698474,0.6622096,-0.008280598,0.01690898,-0.01375848
-0.1177933,0.7715959,0.6654805,-0.002628976,0.01347611,-0.013882
-0.1183717,0.7751304,0.6636259,-0.00186077,0.01622458,-0.01271698
-0.1179405,0.7747165,0.6657977,-0.004304039,0.00656009,-0.0111701
-0.1179216,0.7743516,0.6661175,-0.00537929,-0.001058318,-0.006911152
-0.1183288,0.7758695,0.6638658,-0.004683952,0.001768435,-0.003101139
-0.117626,0.7736768,0.6658518,-0.003547171,0.00695722,-0.005499858
-0.1172713,0.7703797,0.6620989,-0.003263853,0.01485585,-0.008284878
-0.1164591,0.7673729,0.6589355,-0.002050683,0.01172013,-0.01105652
-0.1163711,0.767907,0.6600265,-0.003264101,0.007556133,-0.0142082
-0.1169135,0.7710242,0.6581188,-0.007136897,0.01215347,-0.01047807
-0.1155169,0.7694362,0.6535052,-0.006752543,0.01474457,-0.005883305
-0.1150028,0.7705562,0.646453,-0.006878155,0.01878091,-0.007737555
-0.1155397,0.7737716,0.647587,-0.01163813,0.02014037,-0.01047986
-0.1164914,0.7717348,0.65257,-0.01300082,0.01700449,-0.01140784
-0.1188054,0.7719267,0.6515265,-0.01135048,0.01384291,-0.0121768
-0.1199949,0.7728092,0.6551396,-0.01089457,0.009033867,-0.01106099
-0.1195111,0.7717054,0.6603406,-0.009861897,0.01407945,-0.007829643
-0.1191518,0.7724972,0.6624453,-0.008542573,0.02142901,-0.005870928
-0.119596,0.7722091,0.6642759,-0.005192336,0.01458147,-0.004020113
-0.1195332,0.7720463,0.6604302,-0.001184083,0.01041341,-0.0009707323
-0.1190404,0.7724767,0.6561735,-0.002525816,0.0143017,-0.001344112
-0.1187521,0.771816,0.6567235,-0.006142537,0.01607263,-0.002928774
-0.1182505,0.7718158,0.6565613,-0.006329631,0.01681315,-0.001629777
-0.1205474,0.771804,0.6591875,-0.002962731,0.008173671,-0.001861073
-0.1223479,0.7712758,0.6637641,-0.0003513547,-0.0004673581,-0.002849635
-0.1169119,0.7691945,0.6589035,-0.003051773,0.01651598,-0.003952762
-0.112217,0.7691771,0.6517213,-0.007996493,0.03729237,-0.008759319
-0.1174272,0.7740751,0.6532439,-0.009700421,0.0307685,-0.01131334
-0.1254178,0.776857,0.6575097,-0.008258202,0.01228049,-0.009291653
-0.1266439,0.776049,0.6625969,-0.005766503,0.002293945,-0.007261519
-0.1215778,0.7736548,0.6651698,-0.003553116,0.006918174,-0.004885217
-0.1159183,0.7715387,0.6602989,-0.002859684,0.01527153,-0.003041898
-0.1158676,0.7739674,0.6564948,-0.003498295,0.007620267,-0.001943196
-0.1186213,0.7755286,0.6560986,-0.007228432,-0.0007551574,-0.001917189
-0.1179151,0.7719109,0.6560675,-0.01187688,0.0007914457,-0.004852773
-0.1184312,0.7688699,0.6573475,-0.008525179,0.002747706,-0.00656208
-0.1211385,0.7694842,0.6571182,-0.003862472,0.007960017,-0.005359134
-0.1224036,0.771659,0.656223,-0.00650474,-0.0003215488,-0.004181734
-0.1212324,0.7725919,0.6554227,-0.005580169,-0.01109651,-0.003394026
-0.1163486,0.7719744,0.6544365,-0.0006425862,0.00357773,-0.004155325
-0.114503,0.7702646,0.6583542,0.0006829376,0.01305146,-0.007195804
-0.1173279,0.7694177,0.6622959,0.0009903687,0.007644815,-0.009884177
-0.1190294,0.7722664,0.6575893,-0.0002965699,0.005783878,-0.009178165
-0.1202293,0.7753768,0.6526749,-0.002209702,0.004550014,-0.007114257
-0.122122,0.7738439,0.6549268,-0.003641838,0.005846433,-0.006870666
-0.1247454,0.7692531,0.656169,-0.006082842,0.006805945,-0.005824509
-0.1254219,0.767012,0.6561799,-0.006517689,0.00343813,-0.004558195
-0.1238564,0.768206,0.6600191,-0.005591016,5.930773e-05,-0.00473321
-0.1207505,0.7693578,0.6605643,-0.004243532,8.495283e-05,-0.002974978
-0.1168574,0.7702105,0.6577337,-0.005102445,0.001300157,-0.000875277
-0.1193707,0.7730449,0.6574471,-0.008147018,0.001906178,-0.001894231
-0.1221959,0.7753809,0.6573595,-0.007452115,0.004895644,-0.005587666
-0.1182814,0.7718154,0.6592708,-0.007636386,0.001403125,-0.009655079
-0.1163087,0.7675405,0.6623797,-0.009060156,-0.003467323,-0.0100658
-0.1167646,0.7689263,0.6611932,-0.008207695,0.002890536,-0.00670808
-0.1167359,0.7676878,0.6609669,-0.008262547,0.008762761,-0.005341534
-0.117674,0.7636531,0.6643477,-0.00756731,0.00980222,-0.009275052
-0.1182639,0.7653564,0.6652315,-0.00702927,0.008256879,-0.01199301
-0.1183358,0.7670868,0.6614848,-0.006428903,0.005545525,-0.007506271
-0.1189747,0.7665095,0.656523,-0.00497736,0.006411347,-0.003339598
-0.1206428,0.7687953,0.6560483,-0.004396313,0.005215728,-0.004151791
-0.121309,0.769864,0.6579341,-0.002548586,0.002979505,-0.0004623076
-0.120591,0.7684018,0.6575745,-0.003329752,0.004278514,0.005526108
-0.1208263,0.7679651,0.6578547,-0.006625474,0.005017576,0.00115986
-0.1204287,0.7687991,0.6561798,-0.007092486,0.004615601,-0.005284639
-0.1180158,0.7699923,0.6534972,-0.007037373,0.002838108,-0.005295437
-0.1155737,0.7697979,0.6576672,-0.007997908,0.001124531,-0.006027895
-0.1145442,0.7708906,0.6620913,-0.009038223,0.005450457,-0.005888974
-0.1144701,0.7733204,0.6621929,-0.01247447,0.01900308,-0.004031751
-0.1160988,0.7731262,0.664081,-0.01603128,0.02743811,-0.001242579
-0.1191213,0.7730892,0.6644329,-0.008388249,0.006262805,0.006011307
-0.1176535,0.7712512,0.6607832,0.0007600196,-0.01296896,0.006653853
-0.1125711,0.7645661,0.6579968,-0.005309839,0.01964671,-0.00499221
-0.1121633,0.7607016,0.6572322,-0.008237364,0.0456076,-0.01408305
-0.119559,0.7628085,0.6609624,0.000850414,0.006328518,-0.01192556
-0.1273503,0.7654544,0.6659794,0.006945275,-0.0231106,-0.007820211
-0.121698,0.7670647,0.6633698,0.008178022,-0.001175996,-0.006816058
-0.1147499,0.7689544,0.6590727,0.004489488,0.01500926,-0.000859941
-0.1227042,0.7691646,0.6577344,-0.002168223,0.01487479,0.001917652
-0.1259351,0.769249,0.6549497,-0.005765387,0.01024407,-0.002218312
-0.1217781,0.7707521,0.6538065,-0.007353807,-0.003370912,8.200353e-05
-0.1223094,0.7699479,0.6540673,-0.00766627,-0.001806423,0.0003111554
-0.1204411,0.7690747,0.6541172,-0.008568986,0.004593496,-0.002093985
-0.1201641,0.7696001,0.6553997,-0.009990058,-0.003681763,0.0006342658
-0.1217704,0.7693247,0.6582428,-0.01001091,-0.002551454,-0.000493179
-0.119846,0.7693799,0.6626314,-0.01100548,0.0002789529,-0.0008155015
-0.1190158,0.7685156,0.6618255,-0.01098875,0.003469823,-0.001254447
-0.1168484,0.7680448,0.6596626,-0.009793587,0.01453101,-0.006631547
-0.1159618,0.7699333,0.6623986,-0.009201734,0.005132308,-0.008005783
-0.1184107,0.7710184,0.6628722,-0.005544372,-0.007398681,-0.006674286
-0.1197289,0.7692877,0.663102,-0.0001728052,-0.004243776,-0.005065697
-0.123239,0.7672353,0.6611212,0.003011787,-0.001372483,-0.00404602
-0.1259398,0.7689299,0.6554149,0.001839399,0.003012537,-0.001811583
-0.123266,0.7703,0.6565462,-0.002165545,-0.0003464879,0.003251949
-0.1211245,0.7689826,0.6580158,-0.003310743,-0.006284194,0.004989769
-0.1221685,0.7694775,0.656972,-0.002179797,-0.002617609,0.004603846
-0.1212672,0.7698359,0.6617324,0.0002341135,-0.003370712,0.0007255127
-0.1172176,0.7700673,0.665411,0.00236969,-0.005538288,-0.003429038
-0.115014,0.7711329,0.6631391,7.106656e-06,-0.005068367,-0.001350506
-0.1150611,0.7694218,0.6587591,-0.00294741,-0.004730311,-0.001630726
-0.1157189,0.7662634,0.656776,-0.004539784,0.002307404,-0.005274893
-0.1175677,0.7650826,0.6610895,-0.005962948,0.009627717,-0.007196067
-0.1201641,0.7677711,0.664604,-0.004371827,0.006630777,-0.006003276
-0.1217195,0.7711201,0.6579754,-0.003267839,0.001629511,-0.003873692
-0.1204973,0.7712576,0.6522433,-0.007174857,0.003371962,-0.004800316
-0.1195509,0.7720951,0.6605137,-0.01006737,0.002942978,-0.003001952
-0.1196682,0.7730018,0.6674802,-0.006319486,-0.0004281519,0.0001411773
-0.1190486,0.7718451,0.6641389,-0.002586013,-0.001060593,-0.0002349532
-0.1199971,0.7727431,0.6643872,-0.003873648,-0.0005209422,0.0005522677
-0.121184,0.7725227,0.6656094,-0.004226453,0.006852863,0.001788885
-0.1215336,0.7699159,0.6629023,-0.002840779,0.01204299,0.002689251
-0.1207572,0.7706636,0.664114,-0.002741648,0.0009279133,0.003426378
-0.1183495,0.7717678,0.6659969,-0.001588277,-0.01126,-8.814417e-05
-0.1178806,0.7723565,0.6646447,-0.0003761019,-0.009972208,-0.003594649
-0.1185591,0.7751741,0.6628777,-0.0007774927,-0.005388823,-0.000302338
-0.1206303,0.7750752,0.6617595,-0.0002036556,-0.006853928,0.003390693
-0.1220905,0.771083,0.6626731,-6.216602e-05,-0.003659979,0.0004212965
-0.1159793,0.7666116,0.6628854,-0.003831336,0.01069729,-0.006117823
-0.1104473,0.7648712,0.6624948,-0.007402115,0.02555353,-0.01253073
-0.1148658,0.7697268,0.665504,-0.00482967,0.02185506,-0.01320074
-0.1215725,0.7742743,0.6664504,-0.001191617,-0.006045892,-0.006806682
-0.1228651,0.7721775,0.6613157,-0.001105499,-0.0221582,-0.001422966
-0.1212848,0.7711277,0.6568147,-0.00131353,-0.003090884,0.0009738143
-0.1204226,0.7721059,0.6595199,-0.004899615,0.015609,0.001773471
-0.120673,0.7705504,0.6630763,-0.008444843,0.005356223,0.001858753
-0.1212353,0.7713206,0.6599834,-0.005487662,-0.00669663,0.002487684
-0.1204284,0.7731601,0.6578086,-0.004221354,-0.003594738,0.001561648
-0.1200028,0.7717257,0.6571748,-0.002654793,-0.002620564,0.001156917
-0.1198873,0.7711389,0.6563809,0.00058228,0.001073877,0.002650833
-0.117947,0.7709466,0.6599038,-0.001567169,-0.004178191,0.00342031
-0.1159969,0.7702242,0.6598175,-0.001069571,-0.01689059,0.002330205
-0.1143134,0.7702851,0.659123,0.0004216438,-0.00247288,0.0006659759
-0.1141252,0.7689419,0.6654398,-0.0006224555,0.00696584,0.0005357612
-0.1158082,0.7684161,0.6684429,0.00186898,-0.0003488517,-0.001546727
-0.1183022,0.7691841,0.666326,0.003102448,0.002370644,-0.00313214
-0.1206747,0.7692797,0.6660785,0.00486187,0.0006951366,-0.001032836
-0.1209671,0.7697862,0.6658309,0.005158208,-0.0002311632,-0.0002641058
-0.1219495,0.7688028,0.6592472,0.0006283325,0.002225382,0.0004468574
-0.1225368,0.7669053,0.6521039,-0.0005884177,0.001156618,0.0006085778
-0.1215783,0.7662554,0.653565,-0.00435096,0.002942178,0.003064556
-0.1207344,0.7662068,0.6557374,-0.009679201,0.003217931,0.007517515
-0.1183296,0.7656419,0.6553386,-0.009972769,0.006567406,0.005151358
-0.1179815,0.7650177,0.657364,-0.009715503,0.009981598,0.004788682
-0.1194507,0.7682021,0.6576173,-0.006132722,0.008111036,0.006570763
-0.1208634,0.7703644,0.6561738,-0.003532298,0.008815009,0.00266955
-0.1214717,0.7672424,0.6580876,-0.007139101,0.01387029,0.0007236452
-0.1182797,0.7660054,0.6617073,-0.009707801,0.01975706,0.001398159
-0.1174746,0.766916,0.6647306,-0.007105425,0.01928495,0.002424374
-0.1188611,0.7675173,0.6644572,-0.003288585,0.01616796,0.001961705
-0.1194737,0.7676289,0.6604604,-0.00397954,0.01599378,0.0002990642
-0.1218234,0.7673532,0.6581588,-0.005699786,0.01532378,0.0001057514
-0.1218689,0.7691731,0.6564994,-0.00754288,0.01449467,-0.0004090912
-0.1220952,0.7698252,0.657026,-0.009941695,0.0129816,0.002701872
-0.1235756,0.7683032,0.6624742,-0.00897772,0.013183,0.005307065
-0.1225182,0.767952,0.6647776,-0.009382351,0.01773182,0.003627115
-0.1221501,0.7689113,0.6641107,-0.01016464,0.02201423,0.004055159
-0.1219506,0.7699123,0.6629258,-0.009619209,0.02196146,0.003957839
-0.1211144,0.7692257,0.6598667,-0.01186523,0.02030671,0.002784771
-0.1198952,0.7683457,0.657136,-0.0139515,0.02097104,0.002095166
-0.1185991,0.7681901,0.6577223,-0.01383565,0.01824924,0.001756541
-0.1191888,0.7687064,0.6647344,-0.00979687,0.0102857,0.001459562
-0.1196884,0.7699509,0.6682606,-0.004799261,0.005577053,-0.001612635
-0.1213044,0.7698546,0.6644245,-0.004100945,0.006926521,-0.001011948
-0.1233642,0.7709042,0.6631396,-0.004225499,0.008388296,0.004992839
-0.1232737,0.7721661,0.6629547,-0.005223383,0.008387022,0.009183912
-0.1229268,0.7675042,0.6598253,-0.008870473,0.01952015,0.00987875
-0.1209667,0.7616487,0.6561076,-0.01208609,0.04155776,0.005357845
-0.1204942,0.7617677,0.6597362,-0.01278739,0.04671329,-0.003333366
-0.1233844,0.7634591,0.664981,-0.01167447,0.0213086,-0.008141334
-0.1248058,0.7636593,0.6608508,-0.01010109,-0.003095936,-0.005052742
-0.1253898,0.7666501,0.6587489,-0.008496966,0.005664919,-0.0006370329
-0.1253559,0.7689916,0.6587167,-0.00835622,0.01898387,0.0010953
-0.1264376,0.7660997,0.6560823,-0.008672836,0.01210315,0.002342696
-0.1291018,0.7642831,0.6588075,-0.007861205,0.00701602,0.002457198
-0.1295334,0.7655312,0.6600953,-0.007297596,0.001772553,0.002088785
-0.1306547,0.7654945,0.6557775,-0.006547824,-0.0004994005,0.001408106
-0.1310447,0.7650072,0.6535282,-0.006129047,0.01074282,0.0009169989
-0.128828,0.7653867,0.6565749,-0.005433129,0.01227224,0.00166216
-0.1276845,0.7651581,0.6597596,-0.00205605,0.006428868,0.0012627
-0.1249231,0.7640792,0.6572935,-0.0002708118,0.005089148,0.0005269075
-0.1226822,0.7628162,0.6559544,-0.002675632,0.009638099,-0.0001571558
-0.1251517,0.7622879,0.6595589,-0.003222917,0.01805855,-0.0009965909
-0.1283054,0.7634331,0.6666336,0.001336288,0.01110524,-0.002889051
-0.1297845,0.7643557,0.6744743,0.004908529,0.003246044,-0.006403117
-0.1293612,0.763429,0.6703314,-0.002004709,0.005821139,-0.00566123
-0.12855,0.7619842,0.661115,-0.01977692,0.005563786,-0.002753442
-0.1285064,0.7621452,0.6623251,-0.03099879,0.009100037,0.0008291458
-0.1273884,0.7679545,0.6630098,-0.01864238,0.0089211,0.007313453
-0.1265574,0.7739421,0.6603696,-0.001635837,0.00571847,0.006475354
-0.1267034,0.7682617,0.6601391,-0.00427893,0.008468029,0.002767745
-0.1269967,0.7612255,0.6593545,-0.00674864,0.007224004,0.004207352
-0.128162,0.7643496,0.6628602,-0.000739503,0.006430675,0.0008783116
-0.1280248,0.7658257,0.6665421,-0.002217015,0.005296994,-0.0009171247
-0.1273068,0.7643818,0.6666783,-0.002360693,0.002049871,0.002077406
-0.1284454,0.7654454,0.6691895,-0.001469945,0.004519102,-8.237879e-06
-0.1295588,0.7624875,0.6692926,-0.002703025,0.007055748,-0.0006675853
-0.1308715,0.7598623,0.6675358,0.001088034,0.007752242,-8.091261e-05
-0.1310652,0.761425,0.666636,0.0004160068,0.007888774,-0.0005464572
-0.1299329,0.7614331,0.6668413,-0.0008291733,0.006402564,0.001985537
-0.1308011,0.7621821,0.668436,-0.000290341,0.005548576,0.0005949888
-0.1307496,0.764651,0.6643036,-0.004114317,0.005641306,-0.001182242
-0.1301348,0.7658785,0.6606647,-0.002875825,0.005996624,0.00140718
-0.1309332,0.7653589,0.661813,-0.00169759,0.005720381,0.000846534
-0.1302174,0.7648591,0.660167,-0.003813401,0.006562481,-0.003551997
-0.1295753,0.765793,0.6596497,-0.002272412,0.007959276,-0.005026172
-0.1293181,0.7666481,0.6625706,-0.002039025,0.006552677,-0.001387803
-0.1296844,0.7694277,0.6644538,-0.001019244,0.001960209,-0.0013026
-0.1312121,0.7713391,0.6623414,0.001366792,-0.003347131,-0.001736188
-0.13071,0.7671322,0.6598628,-0.0005472149,-0.003344986,0.001138086
-0.1310957,0.763758,0.6617556,-0.002153664,-0.00173912,0.0007966702
-0.1324296,0.7649063,0.6641526,-0.001642693,-0.005307592,0.005534758
-0.1305784,0.7641659,0.6683964,-0.001809706,-0.003982763,0.009493158
-0.1281194,0.7613024,0.6727424,-0.001009717,0.01036295,0.005629688
-0.1266529,0.7613715,0.6705162,1.743383e-05,0.02316779,0.003317378
-0.1272143,0.7614381,0.668819,0.0008127074,0.01204463,-0.0007047058
-0.130075,0.7596918,0.6711407,0.00358977,-0.01509925,0.001612214
-0.1312109,0.760657,0.6703797,0.004915368,-0.02552005,0.008444589
-0.1304323,0.7621989,0.6646579,0.00128546,-0.0106043,0.005685443
-0.1303754,0.7644954,0.6583355,-0.002668008,0.007265928,0.002427753
-0.1307303,0.7677388,0.6566894,-0.001533275,0.00535756,0.0001443178
-0.1305226,0.7653435,0.6602971,-0.0002557907,-0.005425687,0.00133707
-0.1304685,0.7606476,0.6639901,-0.002215746,-0.007121307,0.006617095
-0.1306734,0.7593911,0.6627385,-0.0003371818,-0.008680829,0.004558897
-0.1301282,0.7612386,0.6604699,0.002322382,-0.008933392,0.003322014
-0.1287621,0.7642583,0.6619005,0.001857985,-0.01093428,0.004146876
-0.127121,0.7660967,0.6629018,0.003167094,-0.01704021,0.0006243338
-0.1267634,0.7674768,0.6639747,0.004087855,-0.01010058,-1.521013e-05
-0.1278454,0.7636749,0.6647223,0.005215533,-0.003980012,0.0008558326
-0.1300431,0.7570649,0.6626968,0.007516033,-0.007944248,0.001025484
-0.1339864,0.7596837,0.662328,0.008751867,-0.01508449,0.002569864
-0.135729,0.7632497,0.6606325,0.009036689,-0.02685242,0.00197483
-0.1342528,0.7615038,0.6582015,0.007250174,-0.02771704,0.0007049269
-0.133667,0.7620971,0.6581049,0.007963918,-0.02281205,0.003092255
-0.1333052,0.7614035,0.6578104,0.007893076,-0.02575683,0.007326907
-0.1328998,0.762062,0.6638144,0.004138291,-0.02952384,0.01055409
-0.131437,0.7655942,0.6710268,0.005543341,-0.03379224,0.01041666
-0.124801,0.764665,0.6708272,0.007888168,-0.03418561,0.005877721
-0.1174551,0.7658856,0.6671535,0.009193823,-0.03146172,0.002027344
-0.1171882,0.7678453,0.6601507,0.01158662,-0.03039873,0.002244405
-0.1209429,0.7657914,0.6564885,0.01066077,-0.02481287,0.002677131
-0.1221823,0.7653412,0.658941,0.01004861,-0.02001371,0.001101466
-0.1222485,0.7626171,0.6609317,0.01029259,-0.02096014,0.002462125
-0.1228022,0.7599368,0.6631308,0.01036637,-0.02085508,0.004840514
-0.1237312,0.7622521,0.6638759,0.01089965,-0.02016008,-0.0007272541
-0.1256661,0.7631088,0.6603525,0.009822674,-0.02137464,-0.005888461
-0.1253139,0.7622546,0.6570594,0.009306453,-0.02317308,-0.003516273
-0.1243426,0.7624264,0.6591914,0.009701663,-0.0239739,-0.002314097
-0.1254469,0.7626506,0.6621813,0.0106274,-0.02366694,-0.00257182
-0.1245992,0.7626232,0.6625554,0.01096572,-0.02814519,-0.0005267999
-0.122772,0.7634968,0.6653589,0.009321386,-0.03161322,0.00194506
-0.1211398,0.7651969,0.6688171,0.007399432,-0.0250653,0.0007652475
-0.1200855,0.7655398,0.6713958,0.005582327,-0.02314825,-0.001403307
-0.1212175,0.7652084,0.6706627,0.006182109,-0.03090558,0.0001125964
-0.1212921,0.7652347,0.6634608,0.008213611,-0.03531412,4.231497e-05
-0.1222428,0.7653024,0.6594347,0.00827368,-0.03376768,4.57264e-05
-0.1245353,0.7653215,0.6616824,0.007841814,-0.02971596,0.003293325
-0.1232712,0.7646594,0.6652541,0.008056635,-0.02841178,0.004549991
-0.1208431,0.7626634,0.6674771,0.01104866,-0.02790527,0.001936897
-0.1180033,0.7602857,0.6652939,0.01637637,-0.02111466,-0.002860835
-0.1158395,0.7607351,0.662459,0.01821325,-0.01088472,-0.005682519
-0.1188453,0.7632515,0.6634981,0.0166377,-0.009340004,-0.007220075
-0.1223472,0.7678708,0.6676936,0.01611661,-0.02629414,-0.005510055
-0.122459,0.7741376,0.6680044,0.01473716,-0.0408483,0.0005656388
-0.1223666,0.7721973,0.6601503,0.01076175,-0.03232879,-0.0001823647
-0.123061,0.7663809,0.6550334,0.009061006,-0.02211483,-0.00259394
-0.1238824,0.7666188,0.6586049,0.00973585,-0.02267553,0.002087588
-0.1227281,0.7651064,0.6626227,0.009122255,-0.02358729,0.004548922
-0.1175852,0.7642427,0.6628561,0.008691887,-0.0258935,0.004887142
-0.1120135,0.7663206,0.6632891,0.008289931,-0.02896734,0.006962818
-0.111547,0.7636044,0.6621043,0.007496609,-0.03118006,0.006487241
-0.1142446,0.7623252,0.6592245,0.009429503,-0.03731697,0.004956348
-0.114144,0.7619791,0.6651922,0.01153411,-0.0379929,0.003163736
-0.1132788,0.7606653,0.6722768,0.01067008,-0.02867378,-0.001938204
-0.1137268,0.7644483,0.6688424,0.01097781,-0.02231535,-0.004731636
-0.1138501,0.767411,0.6650729,0.01414464,-0.02199777,-0.004254934
-0.1158071,0.7688058,0.6649901,0.01766787,-0.02466533,-0.006660909
-0.117034,0.7710659,0.6647708,0.01851749,-0.02633166,-0.006119314
-0.1170195,0.7719076,0.6628072,0.01404356,-0.0249995,-0.001117197
-0.118256,0.7720394,0.6596886,0.009099923,-0.0245674,0.002081332
-0.1154519,0.7694325,0.6591382,0.00892627,-0.02465361,0.003305943
-0.1124953,0.767134,0.658439,0.009264775,-0.02707653,0.0021055
-0.113986,0.7679632,0.6574823,0.007787855,-0.02653447,0.00177976
-0.1131395,0.768244,0.6579277,0.007031497,-0.01512999,0.002482451
-0.1106087,0.767052,0.6566576,0.00548727,-0.005277445,0.0005366058
-0.1089484,0.7661956,0.6565167,0.002751599,-0.01016261,-0.0008881084
-0.1066289,0.7670227,0.6571634,0.003199958,-0.0190893,-0.001727289
-0.1050744,0.7676302,0.6548566,0.005777921,-0.01676961,-0.001031866
-0.1056193,0.7681263,0.6551564,0.005401009,-0.01256619,0.0008184395
-0.1080601,0.768749,0.6622937,0.004635085,-0.0105703,-0.0003187565
-0.1109644,0.7696373,0.6692219,0.006910117,-0.006989492,-0.0007816022
-0.112918,0.7724431,0.6675954,0.00859246,-0.01012833,-0.00192104
-0.1121625,0.772801,0.6647319,0.008982274,-0.01146793,-0.005687557
-0.1102061,0.7716559,0.6673032,0.01024453,-0.00996656,-0.005368716
-0.1111242,0.772493,0.6647146,0.00960413,-0.01107811,-0.0005052593
-0.1118354,0.7722349,0.659359,0.006060682,-0.009372985,0.004513456
-0.1116323,0.7724096,0.6586525,0.003117176,-0.01353726,0.004213412
-0.1138795,0.7742051,0.6568667,0.002790487,-0.01674465,0.000667367
-0.1140709,0.7748715,0.6566698,0.003852464,-0.01198605,0.002841116
-0.111642,0.7724079,0.6579243,0.003635152,-0.006745286,0.005163655
-0.1104369,0.7685493,0.659105,0.003189825,0.0002342429,0.003903821
-0.1085668,0.768098,0.6626921,0.003680586,0.002652735,0.004815481
-0.105206,0.7684553,0.6632773,0.003297563,0.007352585,0.002363109
-0.1022349,0.7672057,0.6644949,0.00285019,0.01940449,-0.00329353
-0.103769,0.7664781,0.6666768,0.001513996,0.02195076,-0.005603455
-0.1105673,0.7655892,0.6655384,-0.0006321077,0.01093224,-0.005312114
-0.1156836,0.7683056,0.6661576,-0.0007484371,0.0004762506,-0.0007211332
-0.1147418,0.772462,0.6631311,-0.003397769,0.01026403,0.001528152
-0.1130492,0.7700392,0.6566268,-0.009186559,0.02099425,-0.001501109
-0.1170155,0.7683594,0.6561135,-0.008361456,0.008612407,-0.0005750131
-0.1189402,0.7710734,0.6576203,-0.002135671,0.002692686,0.001906939
-0.1143367,0.7708859,0.657974,-0.001576737,0.008187851,0.00611023
-0.111358,0.7696762,0.6593489,-0.003769091,0.008141693,0.009538413
-0.1105043,0.7693978,0.6607518,-0.002447975,0.01003344,0.004405042
-0.1107694,0.769172,0.6623059,-0.004168896,0.007832229,0.0001893146
-0.1092874,0.7693726,0.664508,-0.006656526,0.003874681,-0.00086884
-0.1045088,0.7675784,0.6641038,-0.004611058,0.009517788,-0.002355593
-0.1040142,0.7661577,0.6615227,-0.004210146,0.01552473,-0.003969692
-0.1069898,0.7681259,0.6617403,-0.001354081,0.0159042,-0.009680965
-0.1095672,0.7712208,0.6631732,0.007361692,0.009937923,-0.01096416
-0.1106988,0.7730159,0.6643085,0.01103244,0.003179156,-0.004893979
-0.1122025,0.7721399,0.6658142,0.0067566,0.004029011,-0.0003259907
-0.1164296,0.7710663,0.6652193,0.00251673,0.00414027,0.00207805
-0.1178947,0.7717569,0.6640678,0.0003921432,0.0001882463,0.003903516
-0.117296,0.7727215,0.6638253,-0.003701005,0.0012261,0.007238199
-0.116467,0.7741628,0.6637351,-0.004369592,0.003212391,0.007014046
-0.114803,0.7754208,0.6640532,-0.001809942,0.002693123,0.001292349
-0.1134841,0.7744617,0.6640195,-0.005455715,0.005471747,-0.0007988158
-0.1098764,0.7711555,0.664712,-0.007018216,0.005467228,0.0003684003
-0.1088639,0.7682481,0.665674,-0.003897071,0.00109198,0.002905532
-0.1105651,0.7680654,0.664921,-0.003921049,0.001671642,0.005040382
-0.1102779,0.767375,0.6627978,-0.002778042,0.007413979,0.003231197
-0.1110837,0.7648925,0.6593887,0.0005920695,0.01354611,0.000402375
-0.1095847,0.7640837,0.6572898,0.003900619,0.0148672,-0.002085393
-0.1078377,0.7643177,0.6581977,0.002544188,0.01022406,-0.003967063
-0.1113786,0.7653508,0.657913,-0.002153452,0.002683711,-0.008170389
-0.1144494,0.767639,0.656267,-8.63089e-05,0.001408521,-0.009587822
-0.1142379,0.76778,0.6572746,0.002726523,0.01106251,-0.00210067
-0.1134658,0.7678713,0.6593114,0.002032154,0.01483192,0.00180937
-0.1140061,0.7695336,0.6607801,0.002155322,0.006995429,0.003228509
-0.1140825,0.7694186,0.6617456,0.001002922,0.0003576792,0.005990862
-0.1135668,0.7697814,0.6607183,-0.002030571,0.002691291,0.004805709
-0.1144977,0.7717667,0.6598113,-0.00595436,0.009531796,0.006497192
-0.1156066,0.7742726,0.6589579,-0.005878905,0.008848995,0.007349363
-0.1156702,0.7750995,0.6576497,-0.002925671,0.001395171,0.007339903
-0.1094159,0.7695543,0.6577916,0.0004669252,-0.00389917,0.008079305
-0.1000664,0.7627845,0.6550114,0.006294272,0.008055909,-0.0004961181
-0.100752,0.7615716,0.6523634,0.004651988,0.02427846,-0.007504466
-0.1074669,0.7641681,0.6583646,-3.555476e-06,0.01274867,-0.00687297
-0.1128574,0.7672547,0.6652755,0.001050564,0.002085222,-0.004324048
-0.1170608,0.7686941,0.6642085,-0.002227303,0.00810155,-0.001729276
-0.1156954,0.7695665,0.6603914,-0.00541816,0.008721779,-0.003530715
-0.114314,0.7711828,0.6574573,-0.006401982,0.01155452,-0.002561984
-0.1179848,0.7724989,0.6551259,-0.01018848,0.00661874,0.00183749
-0.1180228,0.7705816,0.6589884,-0.008693777,-0.004325218,0.004974308
-0.1142665,0.7669768,0.6654186,-0.005765205,-0.0002682479,0.007098223
-0.1098344,0.7656589,0.666334,-0.002988713,0.001184303,0.005542712
-0.1066572,0.7624303,0.6683287,0.001327749,-0.001676778,0.004187306
-0.1088063,0.7601984,0.6707596,-0.002478418,0.0007293442,0.001891389
-0.109872,0.764542,0.6687817,-0.005284155,0.001302469,0.0006844077
-0.1089972,0.7683736,0.6683534,-0.001947051,0.006052924,0.0007398564
-0.1094374,0.7696991,0.6678848,-0.0006372664,0.01121846,-0.004184998
-0.1081566,0.7714101,0.6655885,0.002309434,0.006118132,-0.003191139
-0.1100144,0.7724952,0.6638797,0.002668514,0.002242649,0.0006477612
-0.1133761,0.771423,0.6611687,7.578277e-05,0.008074436,-0.0001334319
-0.1135149,0.7692031,0.6590901,0.0003849703,0.01075616,0.002658611
-0.1154849,0.7692867,0.6587524,-0.0009136758,0.002777904,0.005632839
-0.1184655,0.7696664,0.6599612,-0.0009385304,-0.004078387,0.007812848
-0.1191369,0.7692279,0.6615734,0.0002750322,-0.002151307,0.007714684
-0.1151467,0.7697912,0.662278,-8.391338e-05,0.003567902,0.004729638
-0.109653,0.7702623,0.6637333,0.0004494981,0.006935144,0.004846437
-0.1104144,0.7710702,0.6657164,-0.003574551,0.006010658,0.002298005
-0.1112741,0.7707069,0.6702148,-0.008767569,0.005171887,0.0008136746
-0.1086124,0.7685055,0.6716651,-0.007294432,0.007562457,0.002360621
-0.1087501,0.7668426,0.6634397,-0.005913944,0.01111442,-0.0003825184
-0.1086538,0.766172,0.6592717,-0.006539454,0.01815771,-0.001855693
-0.1080281,0.7670053,0.6634336,-0.004047179,0.02529281,-0.003704869
-0.1116231,0.7679349,0.6655332,-0.001652837,0.01810569,-0.005491628
-0.1175664,0.7692515,0.6639197,-0.0008375823,0.006316988,-0.004258985
-0.1230976,0.7720259,0.6593047,0.001297782,0.00844129,-0.004753782
-0.1222043,0.7735162,0.6546065,0.0004962038,0.01193664,-0.0002439376
-0.1167575,0.7738644,0.6505079,-0.004092219,0.01113882,0.004412164
-0.1173648,0.7731145,0.64737,-0.005927622,0.01277007,0.0009067152
-0.1181939,0.7706775,0.6494895,-0.003777607,0.01196961,-0.0001226237
-0.1156576,0.7688763,0.6547624,-0.00125412,0.01157591,0.003261641
-0.1165638,0.7688519,0.6591472,-0.002442698,0.009645551,0.004898629
-0.1162364,0.7690867,0.6595535,-0.005822013,0.001523844,0.00244436
-0.1137622,0.7676727,0.6591769,-0.00681186,-0.002109809,-0.000160151
-0.1119121,0.7678064,0.6626638,-0.006027031,0.002722365,0.0003598052
-0.1093372,0.769616,0.6651951,-0.004193487,0.007139629,-0.0006775326
-0.1117124,0.7693166,0.6668417,-0.001042947,0.003266464,-0.001327403
-0.1150104,0.7693314,0.6660534,0.003258876,0.003290137,-0.0005089738
-0.1101626,0.7685321,0.6576186,0.006803758,0.02137501,-0.002459129
-0.1071403,0.7667257,0.6508466,0.005451494,0.04002066,-0.006419613
-0.113206,0.7673418,0.652324,0.001545953,0.03680603,-0.009612275
-0.1199386,0.7673737,0.6547253,-0.0007465794,0.01427828,-0.00663693
-0.1220326,0.7665291,0.6541115,-0.003433601,-0.0002951816,-0.00110175
-0.1204644,0.7664632,0.6545935,-0.00556555,0.0086156,-0.001452489
-0.1184633,0.7669315,0.6583006,-0.007050698,0.01579525,-0.002009331
-0.1177919,0.767724,0.6614908,-0.008199179,0.006351426,-0.0003129378
-0.1165423,0.7680544,0.6617453,-0.002542144,0.0005082172,0.0006371025
-0.1147519,0.768164,0.6595954,0.0005724386,0.003484178,0.002690765
-0.1133812,0.7669805,0.655633,-0.003852629,0.003783785,0.001872701
-0.1132219,0.7661097,0.6530285,-0.002402991,0.004531526,-0.0008794797
-0.1126613,0.7659802,0.6592299,-0.003878456,0.002466018,-0.001210689
-0.1102714,0.7657854,0.669208,-0.007003968,-0.002239749,-0.002726817
-0.1107805,0.7696896,0.6669675,-0.001231765,0.004707946,-0.003065926
-0.1119052,0.7734643,0.6604601,-0.0004781545,0.01176091,-0.002400215
-0.1114133,0.7705738,0.6591512,0.0001578388,0.01065114,-0.003949034
-0.1156921,0.7669149,0.6572603,0.004192425,0.01053605,-0.003278036
-0.1197024,0.766969,0.6605745,0.003429051,0.009063836,-0.002187083
-0.1181552,0.7658174,0.6640862,0.004218129,0.006756972,-0.002329899
-0.117362,0.763662,0.6638775,0.003513322,0.002076209,-0.00190018
-0.1184419,0.7648626,0.6667011,0.001137553,-0.003310545,-0.002735884
-0.1181639,0.7656411,0.6639756,-0.0009392172,-0.001719097,-0.001563831
-0.1171721,0.7651236,0.6586746,-0.003710795,0.0005238137,0.004315847
-0.1156399,0.7657636,0.6548083,-0.002540046,0.0006794275,0.009424862
-0.1130592,0.7669085,0.6532736,-0.002540113,0.00379356,0.006566513
-0.113176,0.7681729,0.6616928,-0.003131419,0.006345988,0.001417722
-0.1140882,0.7656142,0.6660428,-0.001958588,0.00454509,0.002796584
-0.1122513,0.7626683,0.6637415,-0.001164869,0.00312377,0.0009212458
-0.1121731,0.7648985,0.6655865,0.0004541379,0.004965245,-0.005038548
-0.1113702,0.7660638,0.6664297,-0.001262502,0.009886896,-0.005413008
-0.1104083,0.7649189,0.6635585,-0.002312984,0.01346625,-0.004607867
-0.1142231,0.7655731,0.6592912,0.0003245618,0.005979495,-0.002733231
-0.1174269,0.7672813,0.6596239,0.001614471,-0.003729866,-0.0005225613
-0.1205015,0.7686296,0.6601277,0.001271728,-0.003030941,-0.00185551
-0.1227085,0.7689863,0.6574935,-0.0009524616,0.002368963,-0.002149381
-0.1205633,0.7688716,0.6593933,-0.002686565,0.009784111,-0.002434898
-0.1185652,0.7697556,0.6577909,-0.003602172,0.01481417,-0.003172405
-0.1152545,0.7712132,0.6555792,-0.003303122,0.01178266,-0.002556776
-0.1116467,0.7707908,0.659242,-0.001299637,0.009698076,-0.001583782
-0.1111739,0.7686818,0.660672,-0.0008335209,0.009703553,0.0002752888
-0.1124868,0.7674223,0.6640895,0.001743962,0.001330261,1.870317e-05
-0.1147175,0.7676293,0.6667175,0.004813638,-0.007339815,-0.001057443
-0.1131587,0.7692938,0.6641915,0.005223157,-0.003571179,-0.001080292
-0.11162,0.7716159,0.6625277,0.005970153,0.0004177802,-0.003421279
-0.1147239,0.7722129,0.6598413,0.002769177,-0.002866227,-0.002344541
-0.1176567,0.7715195,0.657531,-0.001742594,-0.002586004,0.005881627
-0.1196522,0.7707263,0.6575454,-0.0007939855,0.0002020273,0.008372262
-0.1161288,0.7684118,0.6582966,-0.00164568,0.005973955,-0.0006488057
-0.1103109,0.7662408,0.6601641,-0.004729282,0.01574673,-0.007333012
-0.1130708,0.7662725,0.6637956,0.0005161695,0.01118967,-0.005179792
-0.1178032,0.769968,0.6683242,0.005542563,-0.006637153,0.0006542374
-0.1180445,0.7756997,0.6664187,-0.001165655,-0.01389475,0.005956949
-0.1154825,0.7735285,0.6628249,-0.00654849,0.000692322,0.004351804
-0.1126937,0.7671321,0.6643428,-0.005010682,0.01852168,-0.0008342744
-0.1137922,0.7655955,0.6636732,-0.005645999,0.01001049,-0.00192771
-0.114583,0.7644859,0.6647441,-0.005918392,-0.001622494,-0.002221128
-0.1133159,0.7656935,0.665027,-0.002951522,0.003834825,-0.001585436
-0.1143987,0.7679881,0.6594572,-0.0009799906,0.001387897,0.001838366
-0.1160567,0.7685262,0.6576914,-0.0004275314,0.002110797,0.004503842
-0.1177711,0.7705156,0.6562667,0.0001227827,0.005155769,0.004789286
-0.1188006,0.7692003,0.660318,0.0002439975,-0.005606297,0.002502426
-0.1171312,0.7688506,0.6678105,-0.0001711221,-0.007089021,-0.0008939794
-0.1152838,0.7703901,0.6588532,-0.001045133,0.001026232,-0.002928486
-0.1134316,0.7686908,0.6523556,-0.001321604,0.007203108,-0.002145166
-0.1128537,0.7696829,0.6594028,0.001787372,0.002226414,-0.001024634
-0.1129029,0.7697398,0.6610135,0.006340221,-0.008317755,-0.001797183
-0.1111933,0.7688322,0.6587197,0.008790947,-0.004016848,-0.0005418971
-0.1150483,0.770423,0.6568567,0.0096658,-0.004945903,0.002324128
-0.1204076,0.7708531,0.6549972,0.005028226,-0.007008409,0.004670335
-0.1179269,0.772792,0.6559592,-0.003242217,0.000573301,0.006015966
-0.116709,0.7727182,0.6600009,-0.003957193,-0.00229483,0.004602575
-0.1168485,0.7711959,0.6649424,-0.003216756,-0.001063232,0.003433171
-0.1125826,0.7719286,0.6647416,-0.00582345,0.002888221,0.002155187
-0.1117506,0.7704268,0.6579499,-0.00323243,-0.0008679589,4.343446e-05
-0.1140008,0.7704803,0.6517055,-0.002695436,-0.0009862308,0.0001531005
-0.114019,0.7714477,0.6540821,-0.004186918,-0.003693244,0.001155566
-0.1138588,0.7698405,0.6585693,-0.0001791875,-0.005296879,0.0006749705
-0.1138871,0.7681134,0.6585712,0.002295917,-0.001754301,-0.0009325852
-0.1138461,0.7650882,0.6613266,0.00335964,-0.0001224361,0.0004233649
-0.1141518,0.7647823,0.663467,0.001236603,-0.001230784,0.001578549
-0.1150612,0.7679995,0.6625867,-0.001666353,-0.006125426,0.0006860833
-0.1173655,0.7690857,0.6643228,0.003879911,-0.01031885,0.002018265
-0.1187387,0.768815,0.665769,0.007056741,-0.01065354,0.0003104512
-0.1172809,0.76787,0.6657142,0.003524741,-0.005817918,-0.0007747948
-0.1140556,0.7678109,0.666001,0.001884459,-0.001353761,0.001220773
-0.1107285,0.7694455,0.6676557,0.003629985,-0.003964265,0.001430482
-0.1105454,0.769162,0.6673513,0.004542523,-0.003532938,0.004254179
-0.1126435,0.767613,0.6631804,0.0008147718,0.002915005,0.004254534
-0.1130421,0.7662511,0.6617222,-0.001312664,0.006807933,0.0007812806
-0.1140636,0.7660676,0.6631125,0.0001031459,0.003118755,-0.0002129781
-0.1160248,0.766367,0.6646234,0.0005559276,-0.00167454,-0.001641342
-0.1153687,0.7649278,0.6646309,-0.0001721508,0.002021303,-0.002615312
-0.1148637,0.7665974,0.6637024,-0.001665913,0.005215266,-0.005160699
-0.1154132,0.7711433,0.6669506,-0.0003809515,0.004642055,-0.006465851
-0.1135947,0.7723906,0.66796,0.003705158,0.005950468,-0.002562224
-0.1099411,0.7695371,0.6643583,0.005577207,0.007665227,-0.001186498
-0.1081838,0.7649222,0.664452,0.00409555,0.01623264,-0.005662529
-0.1126441,0.7648586,0.6648841,0.003603279,0.02136734,-0.009811092
-0.1184783,0.7680275,0.6635862,0.003976706,0.002812589,-0.005165215
-0.1179493,0.7689023,0.6619554,0.00140074,-0.0144378,6.460233e-05
-0.1169237,0.7692242,0.6573205,-1.122276e-05,-0.001914255,-0.002539832
-0.1171031,0.7686387,0.6549748,-0.002424013,0.01035786,-0.002608709
-0.1144281,0.7692371,0.655999,-0.005324604,0.001581874,-0.0009840875
-0.1139056,0.7702485,0.6564178,0.0004749854,-0.002017007,0.0001174212
-0.1117606,0.7684484,0.6585744,0.005219802,-0.001008462,0.002738569
-0.1063173,0.7675811,0.6605758,0.0008956317,-0.001610792,0.0004462463
-0.1078687,0.7655993,0.661668,-0.002629818,0.005043378,-0.001555378
-0.1099382,0.7640633,0.6633081,-0.001884445,0.0007601586,-0.001204648
-0.1081841,0.765299,0.6642952,-0.001471874,-0.005459796,-0.001898891
-0.1099971,0.7643758,0.666253,-0.001878814,0.001188718,0.001494686
-0.1094173,0.7651051,0.6680562,-0.0007788195,0.003239031,0.001951058
-0.1077074,0.7661062,0.6690705,0.001667173,0.004766619,-0.001229315
-0.1116708,0.7650872,0.6677126,0.005079744,-0.0007761511,0.0003513117
-0.1143479,0.7676523,0.6612252,0.005999834,-0.01172177,-0.0004024626
-0.113696,0.7678258,0.6564456,0.004607949,-0.00355317,-0.001885414
-0.1120057,0.7643169,0.6578498,0.005556512,0.005243776,-0.0002057536
-0.1111419,0.7650976,0.6594863,0.003948051,0.003931402,-0.000382534
-0.1150673,0.7687038,0.6581882,0.000164343,0.002894985,0.002142098
-0.1198034,0.7728213,0.65974,0.0006801165,-0.00137701,0.004361469
-0.1191218,0.7757943,0.662449,0.003292325,-0.001853396,0.002280067
-0.1131987,0.7728369,0.6607103,0.003714098,-0.0011254,0.001566023
-0.1076922,0.7682351,0.6608003,0.0001834974,-0.002904053,0.0004242641
-0.1076524,0.7674794,0.6616984,-0.003959651,0.003205702,-0.0001376419
-0.1102677,0.7650485,0.6605882,-0.006993204,0.006966953,0.0001544637
-0.1117451,0.7640446,0.6613879,-0.006549785,0.004732728,-0.001224001
-0.1127736,0.7676792,0.6614743,-0.002418943,0.009349803,7.830125e-05
-0.1128928,0.7673584,0.6628543,-0.002765749,0.01160248,0.001773009
-0.1120532,0.7672235,0.6656423,-0.002136655,0.008465569,0.002032173
-0.1129525,0.7687613,0.6653068,0.000755906,0.009618537,0.003325781
-0.1145506,0.7675707,0.6640493,-0.001321103,0.009030163,0.003208408
-0.11543,0.7683049,0.6627255,-0.0007712021,0.008024991,0.003697946
-0.1159422,0.7681209,0.6621698,0.0009725821,0.008829598,0.006168815
-0.1157328,0.7680383,0.6627851,0.0007851442,0.005611606,0.007473518
-0.1167626,0.7700158,0.6630512,0.001171237,0.002162405,0.00788144
-0.1160854,0.7694926,0.6627222,-0.001353237,-0.002540125,0.006142202
-0.1134217,0.7689918,0.6624274,-0.003166192,-0.005075873,0.003572376
-0.113913,0.7676569,0.6645877,-0.003577914,0.004922297,0.004599677
-0.114037,0.7660919,0.6672994,-0.004935193,0.01518126,0.005134963
-0.1137922,0.7671626,0.6675266,-0.006524957,0.008828241,0.002494444
-0.115106,0.770005,0.664543,-0.006368538,0.001672111,-0.001395362
-0.1160108,0.774402,0.65915,-0.004078528,0.009826565,-0.005548131
-0.1190472,0.7755843,0.6575582,-0.006299911,0.01566656,-0.003414364
-0.12181,0.772859,0.6581608,-0.007060348,0.01393941,0.002861043
-0.1202543,0.7703603,0.6562379,-0.004076241,0.006093409,0.00458637
-0.115457,0.7683814,0.656771,-0.004972829,-0.003247974,0.004004008
-0.110869,0.7633107,0.6575873,-0.004208617,0.01825492,0.001128135
-0.1112251,0.7588833,0.6568781,-0.003786612,0.04249502,-0.00261692
-0.1159945,0.7663679,0.6598813,-0.003455249,0.0254346,-0.002996779
-0.1198882,0.7745129,0.6620551,0.0001443317,0.005812626,-0.003163557
-0.1200705,0.7705129,0.660895,-0.001157814,0.003097924,-0.0006820189
-0.1199736,0.7686871,0.6599722,-0.003383662,0.005926781,0.003673194
-0.1189603,0.7720011,0.6604178,-0.004343402,0.01363926,0.003177642
-0.1155716,0.7701673,0.6642228,-0.008264523,0.008142531,0.002985012
-0.1172808,0.7668174,0.6673387,-0.01209478,0.001431656,0.007338096
-0.1201642,0.7649651,0.6635887,-0.01278521,0.008880362,0.01123669
-0.1181336,0.7630143,0.6599403,-0.008713535,0.01146658,0.01100707
-0.1174315,0.7630445,0.6655627,-0.004868811,0.01284323,0.006252328
-0.116485,0.7657956,0.670024,-0.003244822,0.01044596,0.001594615
-0.1144962,0.7693312,0.6648618,-0.002568003,6.207656e-05,0.003378696
-0.115123,0.7684688,0.6627154,-0.003087977,0.002736605,0.006025222
-0.1146556,0.7659345,0.6662473,-0.001033154,0.009355335,0.003560698
-0.1137528,0.767158,0.6673311,0.0007100948,0.01173727,0.001527873
-0.115826,0.7669765,0.6666086,0.0002939666,0.01384978,-0.00313122
-0.1183218,0.7680155,0.6663823,0.0002882785,0.007884435,-0.009829468
-0.118776,0.7697556,0.6658323,-0.0004290878,0.005606948,-0.007909661
-0.1194899,0.7646709,0.660769,-0.003206679,0.00797369,-0.003563595
-0.1211513,0.761051,0.6543526,-0.007099439,0.007787221,-0.002133007
-0.1193382,0.7634737,0.6563592,-0.006559724,0.009553529,-0.0006227196
-0.116915,0.7657233,0.6634755,-0.004710704,0.007922739,-0.0003744512
-0.1182165,0.7655407,0.6655137,-0.005841855,0.00660323,0.0005385765
-0.1186424,0.7659862,0.6645013,-0.005605118,0.006646614,-0.0001523743
-0.1185039,0.7682354,0.6672023,-0.006205684,0.001494879,-0.002200799
-0.1192064,0.7680418,0.6684328,-0.004432604,-0.002803306,-0.001680583
-0.116033,0.7666278,0.6639358,0.003130564,-0.001112817,-0.003387777
-0.1129379,0.7648127,0.6592867,0.007193604,0.003649918,-0.005115294
-0.1164198,0.763,0.6553487,0.003771869,0.004361914,-0.004007749
-0.1196688,0.7642588,0.6518451,-0.002249142,0.00219013,-0.004915792
-0.1178207,0.7650243,0.6539456,-0.002272402,-0.001184415,-0.005450988
-0.1174622,0.7655714,0.6601204,0.003220387,-0.00721362,-0.003178094
-0.1186956,0.7677742,0.6603998,0.00588135,-0.008790189,-0.001485756
-0.1177905,0.7700667,0.6558011,0.005355374,-0.006495346,-0.00270089
-0.1179213,0.7709881,0.6560872,0.003894447,-0.005734011,-0.004220651
-0.1183904,0.7671564,0.6583494,0.00482219,-0.01001819,-0.002688129
-0.1177515,0.7637734,0.6580533,0.006403403,-0.01781367,-0.0001632802
-0.1180074,0.7653284,0.658496,0.005570053,-0.01959457,0.002219126
-0.1168694,0.7658543,0.6594584,0.005402254,-0.01676167,0.00320334
-0.1144215,0.7648439,0.66202,0.004028967,-0.01667165,0.001971579
-0.1136147,0.7654971,0.6645929,0.004270249,-0.02376569,0.001023177
-0.1153643,0.7662167,0.6595006,0.00568378,-0.0290857,-0.001192741
-0.1194518,0.7659766,0.6545284,0.003044425,-0.01756689,-0.002813094
-0.1218665,0.7659316,0.6582904,0.003067206,-0.007249722,-0.0004207267
-0.1197122,0.7656228,0.6630177,0.006571705,-0.01649306,0.002462995
-0.1140907,0.7643576,0.6688412,0.01116428,-0.0213543,0.001568463
-0.1103224,0.7630481,0.6732421,0.01435115,-0.006175109,-0.005157526
-0.1149674,0.762071,0.6699091,0.01270781,0.001251006,-0.009786157
-0.1202227,0.7617893,0.6673957,0.01271569,-0.01744231,-0.006603517
-0.1162952,0.765081,0.6640795,0.01371371,-0.03602472,-0.00316137
-0.1134015,0.76952,0.6589079,0.01229128,-0.03178949,-0.001640545
-0.1165699,0.7667862,0.661038,0.009937095,-0.02049362,-0.00105093
-0.1172086,0.7633327,0.662301,0.006599458,-0.01981542,-0.001301898
-0.1178853,0.766017,0.6605945,0.006230652,-0.02679026,-0.0003005558
-0.1182741,0.7660061,0.6643166,0.008725073,-0.03459105,0.001011132
-0.1131644,0.766233,0.6679954,0.01016966,-0.03189117,0.004567452
-0.1088707,0.7689478,0.6702713,0.009818467,-0.02310642,0.009648255
-0.1075306,0.7662018,0.6732592,0.01002103,-0.02340553,0.008105885
-0.10782,0.7647074,0.6718708,0.01139578,-0.02298835,0.002639396
-0.1072778,0.7683388,0.6677295,0.009877147,-0.02148372,0.0003764596
-0.1049176,0.7694604,0.6641952,0.008773326,-0.01976586,-0.004281522
-0.1085144,0.7651177,0.6601663,0.01179342,-0.01434573,-0.006082732
-0.1130932,0.7611317,0.6577558,0.01462123,-0.02165231,-0.0005892835
-0.1127651,0.7649676,0.6596512,0.01555996,-0.02895599,-0.001845438
-0.1133883,0.7687894,0.6618043,0.01625061,-0.02788641,-0.00186622
-0.1140888,0.7673753,0.6581123,0.01745494,-0.03131086,0.002332362
-0.113812,0.7698223,0.6535946,0.0158382,-0.02714895,-0.001700725
-0.112759,0.7729105,0.6548703,0.01045961,-0.02211383,-0.001360149
-0.1111958,0.7711662,0.6590262,0.006300176,-0.0294583,0.001109457
-0.1104567,0.7702177,0.6632003,0.005290457,-0.03373557,-0.000123788
-0.1083134,0.7701037,0.6634683,0.006250829,-0.02558505,0.003823779
-0.1062877,0.7689715,0.6612453,0.006467471,-0.0181468,0.002124923
-0.106605,0.7686307,0.6621634,0.005639483,-0.02087114,-0.003068851
-0.1074115,0.7688622,0.6617146,0.005287648,-0.02131858,-0.004105912
-0.1068777,0.7695168,0.660215,0.004236938,-0.01870607,-0.005744513
-0.1068038,0.7697465,0.6596925,0.004261754,-0.01838103,-0.004543425
-0.1082476,0.7691891,0.6568507,0.005352414,-0.01564286,-0.004621636
-0.1087423,0.7694692,0.6549259,0.005808661,-0.0158995,-0.004264372
-0.1101519,0.7697756,0.6555204,0.006930695,-0.01817132,-0.001941058
-0.1117436,0.7703304,0.6626213,0.008173211,-0.02111882,-0.005903191
-0.1107288,0.7721033,0.6712277,0.008461594,-0.02550806,-0.006922632
-0.1091727,0.7726152,0.6659578,0.005468429,-0.02169382,-0.002351236
-0.1076775,0.7720251,0.6581065,0.003865535,-0.01702401,0.001152173
-0.1070685,0.7720513,0.6591843,0.006609448,-0.01721675,0.003593968
-0.1060053,0.771221,0.6624769,0.004892787,-0.01420439,0.003946701
-0.1040122,0.7697787,0.6665516,0.002708352,-0.01351647,0.003929975
-0.1040408,0.7701707,0.6649285,0.001195211,-0.01416534,0.0005802545
-0.1042736,0.7724514,0.6602068,-0.003872162,-0.008595058,-0.002379844
-0.1040789,0.7744874,0.6614083,-0.00226472,-0.002453751,0.001021205
-0.1037211,0.7744167,0.6612312,0.00104221,-1.473109e-05,0.00311789
-0.1014062,0.770354,0.660409,-0.0005899035,0.004801146,0.002102983
-0.1002981,0.7646519,0.6608934,-0.001015861,0.02456106,-0.003091644
-0.1050427,0.7649664,0.6591398,-0.002043101,0.04314969,-0.008489602
-0.1107251,0.7698277,0.6605997,-0.002321701,0.02514994,-0.003766847
-0.1096311,0.7721484,0.6617074,-0.002054668,0.00225176,0.0002864532
-0.1085556,0.7736677,0.6597317,-0.003550611,0.01421673,-0.00586474
-0.1108345,0.7753072,0.6596436,-0.004161084,0.01921751,-0.009124035
-0.1099844,0.7744446,0.6603321,-0.004610881,0.009469575,-0.002609553
-0.1118851,0.7728216,0.6635552,-0.005832939,0.01435387,0.003728909
-0.1146218,0.772056,0.6671763,-0.00873784,0.013011,0.004867902
-0.1091528,0.7695605,0.6662268,-0.009865451,0.0117911,0.004183733
-0.1048994,0.7660813,0.6638397,-0.007785,0.01938563,0.003452378
-0.1061289,0.7676949,0.6616316,-0.006013375,0.01455888,0.002506219
-0.1059464,0.771719,0.6592821,-0.004367253,0.009600239,0.0003228811
-0.1048416,0.773,0.6601716,-0.008476425,0.0105384,-0.0006947088
-0.104781,0.7738843,0.6640333,-0.01472506,0.02298508,-0.001255955
-0.1041804,0.772905,0.664225,-0.01178728,0.04052645,-0.003579009
-0.1042135,0.7692106,0.6624612,-0.006746036,0.03472771,-0.004731365
-0.107422,0.7669267,0.6626489,-0.004792144,0.02564146,-0.006767421
-0.1104007,0.768844,0.6621793,-0.004290987,0.02496298,-0.007324958
-0.1117605,0.7732716,0.66194,-0.006563109,0.02267856,-0.003918197
-0.1133186,0.7757594,0.6596436,-0.006738356,0.02255734,-0.001464031
-0.1143235,0.7756088,0.6581134,-0.007191427,0.01661743,0.002863891
-0.1154547,0.773997,0.6619235,-0.0120088,0.01303054,0.006856888
-0.1145583,0.7726321,0.6622293,-0.01511844,0.01682717,0.008929864
-0.1122379,0.769613,0.6616088,-0.01637545,0.02081577,0.01081715
-0.112373,0.7663511,0.6667874,-0.01655339,0.02809668,0.002337152
-0.1124528,0.7684455,0.6694728,-0.01555643,0.02776891,-0.006669427
-0.1115215,0.768505,0.6677983,-0.01463769,0.02065114,-0.002871341
-0.1101862,0.7660509,0.6662507,-0.01117524,0.0205796,-0.001496515
-0.1073772,0.7663591,0.6612963,-0.008950394,0.02603932,-0.003883525
-0.1057873,0.7656029,0.654818,-0.01039295,0.03263984,-0.0008230797
-0.1107171,0.7667828,0.6570418,-0.01125872,0.03220873,-0.0003292955
-0.1181015,0.7673729,0.6613769,-0.00970483,0.02687731,-0.002919258
-0.1174104,0.7658321,0.6591148,-0.007532342,0.0243963,-0.0008104282
-0.1144242,0.7671329,0.6595227,-0.007605436,0.01958908,0.002267919
-0.115753,0.7666975,0.6613161,-0.008022271,0.01893279,0.003179382
-0.1155723,0.7666414,0.6598841,-0.01092169,0.02157508,0.004524779
-0.1167326,0.7689335,0.6611155,-0.01545699,0.01579382,0.004800643
-0.1185731,0.7698106,0.6632495,-0.01431213,0.01012962,0.005306428
-0.1151811,0.7703188,0.6652167,-0.01320281,0.007811399,0.006080027
-0.1133241,0.7693622,0.6649616,-0.01475217,0.00951856,0.005018348
-0.1166048,0.769193,0.6592483,-0.01289495,0.01394789,0.007111603
-0.1187264,0.7703988,0.655549,-0.007121097,0.01073342,0.008913838
-0.115119,0.7686103,0.6561503,-0.0009570389,0.01034525,0.005627009
-0.1105542,0.7645345,0.6559439,-0.001020496,0.0188131,0.001244241
-0.111366,0.7613625,0.6549017,-0.00413469,0.03422289,-0.003825133
-0.1148166,0.7629491,0.6607558,-0.00463889,0.04822338,-0.00515687
-0.1194576,0.7677986,0.6694665,-0.006532799,0.03279764,-0.004305759
-0.1223856,0.770404,0.665961,-0.007863788,0.008095256,-0.004781059
-0.1205509,0.7696678,0.658639,-0.006998512,0.00877285,0.001869386
-0.1205069,0.7677184,0.6572936,-0.006398647,0.01554847,0.007219709
-0.1223144,0.7669034,0.6602842,-0.006305245,0.01882882,0.004607915
-0.1222004,0.7656918,0.6662877,-0.009195005,0.02025898,0.005095423
-0.1221191,0.764645,0.6642637,-0.01060503,0.012956,0.006191179
-0.1209733,0.7655768,0.6610499,-0.007396741,0.008422477,0.004572169
-0.1184831,0.7653397,0.6636481,-0.004800786,0.009715284,0.002185829
-0.1564355,0.8387645,0.5609556,0.1701822,-0.06013367,0.3186974
-0.1536812,0.8363823,0.5637564,0.1641252,-0.03351771,0.3072802
-0.1601573,0.8316744,0.5632312,0.1589048,-0.02557623,0.2977074
-0.1734455,0.8196984,0.5686716,0.1407233,-0.06381213,0.2963575
-0.1778511,0.8117667,0.5741564,0.1205343,-0.1041454,0.2983863
-0.1704046,0.8298121,0.5707681,0.1432613,-0.1073407,0.2940025
-0.163378,0.8508625,0.5664816,0.1682705,-0.08763378,0.2955097
-0.1670508,0.8409111,0.5635884,0.1480288,-0.08034343,0.3007629
-0.1701848,0.8322341,0.5595388,0.1357936,-0.0857131,0.2947203
-0.1683998,0.8355127,0.5634537,0.1442607,-0.08602291,0.2921512
-0.1701617,0.830311,0.5718049,0.1358005,-0.08757276,0.2921191
-0.1692085,0.8342672,0.5689812,0.1343197,-0.0954472,0.2897261
-0.1661494,0.8399924,0.5671309,0.1460178,-0.1044975,0.2923901
-0.1634711,0.8359548,0.5688837,0.149384,-0.102384,0.2922437
-0.1592562,0.8376125,0.5634194,0.1533235,-0.09211767,0.2910279
-0.1619614,0.8361937,0.5653352,0.1532826,-0.09059601,0.2883619
-0.1670602,0.8335048,0.5699509,0.1522199,-0.09548345,0.2806927
-0.1700496,0.837708,0.5667837,0.1551663,-0.1079094,0.2754108
-0.1724953,0.8397733,0.5652239,0.1511622,-0.1221684,0.2727164
-0.1699156,0.8417868,0.564368,0.1491045,-0.125801,0.2721819
-0.1696918,0.841394,0.5654553,0.1474496,-0.122106,0.2705278
-0.1710966,0.8375186,0.5650426,0.1443277,-0.1172654,0.2694804
-0.1700584,0.8357128,0.5628007,0.1444952,-0.1231646,0.2734851
-0.1713827,0.8362573,0.5664903,0.1397489,-0.1306778,0.2737673
-0.1692792,0.8382969,0.5675843,0.1344155,-0.1299815,0.2698122
-0.1654473,0.8350858,0.5680251,0.1293134,-0.1301893,0.2655959
-0.1624626,0.8307542,0.570982,0.1274229,-0.1236092,0.2605926
-0.1595407,0.83047,0.5716595,0.1320312,-0.1186717,0.2556325
-0.1615305,0.8302107,0.5734863,0.1305111,-0.1227438,0.2531974
-0.1610789,0.8317609,0.5724238,0.1279282,-0.1227101,0.2549087
-0.157616,0.8315041,0.5709187,0.1288115,-0.122807,0.2535763
-0.1580165,0.8313341,0.5710526,0.1276232,-0.1245539,0.2494887
-0.1626295,0.8359504,0.5677302,0.1256414,-0.1285824,0.24462
-0.1690675,0.8402655,0.5673982,0.1196822,-0.1339167,0.2377459
-0.1671117,0.8421957,0.5687311,0.1145656,-0.1324328,0.2371227
-0.1627228,0.8407309,0.5675453,0.1174247,-0.1322641,0.2390049
-0.1634415,0.8398575,0.567698,0.1238526,-0.1351974,0.2397408
-0.1601189,0.8390742,0.5694188,0.1276467,-0.1297141,0.2401645
-0.158683,0.8353143,0.5726228,0.1251871,-0.1138469,0.2330019
-0.1608973,0.8358007,0.5745445,0.1221872,-0.1049407,0.2257119
-0.1610534,0.8370001,0.5731372,0.1228346,-0.1255902,0.2241401
-0.1629637,0.836722,0.5711884,0.1193445,-0.1516225,0.2228882
-0.1620244,0.8398852,0.5684068,0.1104407,-0.14169,0.221359
-0.1600392,0.8404187,0.5659533,0.1045735,-0.1217329,0.2182573
-0.1612512,0.8373384,0.5681014,0.105423,-0.1196872,0.2152421
-0.1593496,0.8353187,0.5733934,0.1082394,-0.1190026,0.2140377
-0.1575047,0.8357718,0.5746324,0.1063439,-0.1223142,0.2141172
-0.1584324,0.8368095,0.5671219,0.1016743,-0.1213894,0.2165146
-0.1585319,0.8357273,0.5594141,0.1005413,-0.1137702,0.2177189
-0.1578597,0.8358186,0.5626011,0.101537,-0.1169801,0.214964
-0.156128,0.8354673,0.5682201,0.1011592,-0.1118064,0.2099109
-0.1530135,0.8331157,0.5687835,0.1010669,-0.1041556,0.2032957
-0.1501325,0.8331833,0.5702484,0.1032904,-0.1049335,0.1957484
-0.1505283,0.8340153,0.5705605,0.1071311,-0.1018902,0.1902548
-0.1545908,0.8358752,0.570283,0.1101631,-0.1045674,0.1889468
-0.1582744,0.8384706,0.5710144,0.1088028,-0.1022561,0.1882054
-0.1573652,0.837505,0.5667662,0.1049141,-0.0926415,0.1849052
-0.1549274,0.8360523,0.5639944,0.1022031,-0.08520155,0.1833202
-0.1558291,0.8361735,0.565524,0.09825654,-0.07795507,0.1852146
-0.1557114,0.8361954,0.5657407,0.09362474,-0.07700412,0.1858544
-0.1550545,0.8370086,0.5677781,0.08824753,-0.07345252,0.1836559
-0.1559242,0.8375014,0.5720603,0.08384856,-0.07213399,0.1808575
-0.1543631,0.8355467,0.5749617,0.08502343,-0.07363526,0.1794676
-0.1538255,0.8332903,0.5728736,0.08443168,-0.07049687,0.1785336
-0.1542358,0.8342343,0.5682196,0.08164995,-0.07061362,0.1762239
-0.153221,0.8370608,0.5655683,0.08057347,-0.05976517,0.1724189
-0.153971,0.8377417,0.5632165,0.07734933,-0.05025297,0.1668644
-0.1559976,0.8356222,0.562773,0.07606243,-0.05702101,0.1616594
-0.1574092,0.8341639,0.5643772,0.07483445,-0.05973267,0.1573945
-0.1552515,0.8355844,0.5680514,0.07100141,-0.06086874,0.1548311
-0.153007,0.8367524,0.5720189,0.07101595,-0.06056467,0.1542769
-0.1545321,0.8359455,0.572261,0.07424536,-0.05606683,0.151743
-0.1543574,0.8357455,0.5725747,0.0789833,-0.05476129,0.1508488
-0.1536265,0.8354823,0.5721083,0.08319434,-0.04920692,0.1502543
-0.153568,0.8346534,0.5716602,0.08374179,-0.02916413,0.1464109
-0.1534249,0.8363934,0.5716367,0.0817617,-0.009119134,0.1460326
-0.1585885,0.8378376,0.5682263,0.08061174,-0.02805971,0.1446238
-0.1656936,0.83479,0.5666574,0.07858416,-0.06874039,0.1419643
-0.1665435,0.8325054,0.563874,0.06782286,-0.07664467,0.1423056
-0.1644001,0.8351103,0.5605845,0.05804707,-0.06049641,0.1398303
-0.1653139,0.8370251,0.5665794,0.06282563,-0.05127096,0.1401026
-0.1657703,0.8348358,0.5732904,0.0695581,-0.06008054,0.1424141
-0.164555,0.8331802,0.5715661,0.06841939,-0.07274122,0.1396703
-0.1643032,0.8332224,0.5695736,0.06689477,-0.06996922,0.1371717
-0.1618987,0.832681,0.5730269,0.06425094,-0.06988316,0.1344378
-0.1599795,0.8331498,0.5731456,0.05825339,-0.0742837,0.1310812
-0.1603765,0.8339822,0.5709078,0.0566542,-0.07573461,0.1293953
-0.1586462,0.8341764,0.5720755,0.05640094,-0.08093507,0.1253532
-0.1580953,0.8354343,0.5678273,0.05502277,-0.07577927,0.1201461
-0.1603936,0.8349446,0.5640015,0.05796519,-0.07031552,0.1188013
-0.1616708,0.8321513,0.5690547,0.05823262,-0.07567661,0.118508
-0.1612139,0.8323189,0.5717618,0.05697644,-0.081132,0.1159621
-0.1607669,0.8356842,0.5670844,0.05894602,-0.09065924,0.1163281
-0.1613178,0.8384486,0.5626937,0.05852179,-0.09311722,0.1177995
-0.1613302,0.8380648,0.5650007,0.05707406,-0.09070621,0.115164
-0.1618045,0.8366168,0.5681117,0.05362971,-0.1008608,0.1133534
-0.1626264,0.8374683,0.5676413,0.05049023,-0.1083028,0.1123296
-0.1603518,0.8360622,0.5665877,0.05095267,-0.1016398,0.1106033
-0.1571639,0.8335252,0.5645191,0.04767108,-0.09063811,0.110077
-0.1567554,0.8350135,0.5649592,0.04460753,-0.08661359,0.1083111
-0.1588392,0.8353915,0.5660517,0.04615373,-0.09150255,0.1061525
-0.1601039,0.8360189,0.5646743,0.0464067,-0.09516291,0.103477
-0.1577577,0.8384362,0.5654364,0.04570258,-0.08950898,0.101194
-0.1551654,0.8368207,0.5656912,0.04591236,-0.0827166,0.1007975
-0.1555221,0.8334822,0.5666513,0.04599365,-0.08525104,0.09472832
-0.1567018,0.8314068,0.5708774,0.04506548,-0.08962141,0.09048533
-0.1576426,0.8322702,0.57026,0.04195838,-0.0918619,0.09443668
-0.1597043,0.8345765,0.5647029,0.03346539,-0.09017537,0.09168495
-0.1612753,0.8340229,0.5642447,0.02552049,-0.08162041,0.08933719
-0.158597,0.8347299,0.5697635,0.03400987,-0.0782867,0.09131631
-0.1543231,0.8361286,0.5730713,0.04783983,-0.07661153,0.08592663
-0.153387,0.8345739,0.5747938,0.04718576,-0.06462805,0.08476601
-0.1541757,0.8328793,0.5757654,0.04527137,-0.05480922,0.08469163
-0.1583839,0.8319012,0.5732233,0.04711136,-0.06898817,0.08067135
-0.1639478,0.8346567,0.5725088,0.04412982,-0.09904618,0.08268492
-0.158145,0.8393839,0.5700128,0.04299772,-0.1041858,0.07964948
-0.1487268,0.8391371,0.5600179,0.04008609,-0.08063952,0.07143598
-0.1500928,0.8372208,0.5526825,0.03341682,-0.06466802,0.06798631
-0.1535246,0.8356814,0.5598046,0.03045191,-0.07208821,0.0715947
-0.155132,0.8339617,0.5709072,0.02633976,-0.07965817,0.07910042
-0.1551133,0.8347436,0.5671053,0.02476992,-0.06717899,0.07963069
-0.1505298,0.8350687,0.5651193,0.02695381,-0.06073507,0.07727864
-0.1489248,0.8340381,0.5720537,0.02446789,-0.06209999,0.0724356
-0.1494694,0.8330771,0.5706557,0.02474042,-0.05387668,0.06608832
-0.1478869,0.831429,0.5720133,0.0293742,-0.04871256,0.06656998
-0.1468006,0.8317981,0.5738669,0.03429154,-0.04003932,0.06512702
-0.1459317,0.8335387,0.5699197,0.03977774,-0.03312106,0.06225926
-0.1484044,0.8342371,0.5709995,0.03687909,-0.03263103,0.06140769
-0.1523666,0.8350246,0.5700941,0.0303314,-0.02620145,0.05940764
-0.152581,0.8347016,0.5717681,0.02968179,-0.02713932,0.05945873
-0.152924,0.8333079,0.574139,0.02918783,-0.02645503,0.05869979
-0.1550829,0.8324019,0.5695665,0.02845731,-0.02083664,0.05824751
-0.1568399,0.8317355,0.5715204,0.02543594,-0.02316509,0.06044642
-0.1571724,0.8327688,0.5742074,0.02090113,-0.02203457,0.05966397
-0.1557462,0.8339303,0.5747086,0.02259111,-0.02063827,0.05648651
-0.1542558,0.8333278,0.5763111,0.02411028,-0.020108,0.05558304
-0.1539737,0.8341124,0.5730056,0.02310349,-0.0178568,0.05433491
-0.1543629,0.8357415,0.5715947,0.02268323,-0.0201337,0.05098341
-0.1547567,0.8368021,0.570976,0.01936248,-0.01994607,0.04871708
-0.1543802,0.8368975,0.5702949,0.01659992,-0.01572928,0.0454183
-0.15427,0.8343392,0.5685866,0.01607306,-0.01073597,0.04370373
-0.1567965,0.833748,0.5629845,0.01466444,-0.008825206,0.04377096
-0.1591872,0.8356274,0.5646829,0.01334831,-0.01331691,0.04074701
-0.1600637,0.8345662,0.5671431,0.01296113,-0.01827116,0.040763
-0.1626959,0.8340755,0.567547,0.01208341,-0.01975807,0.04110223
-0.1641356,0.8344495,0.5697538,0.01126286,-0.01629602,0.04109107
-0.1635458,0.8330492,0.56674,0.01473521,-0.01226134,0.04548495
-0.1641768,0.8349838,0.5680774,0.01819425,-0.009594482,0.04589589
-0.1633428,0.8371909,0.5691988,0.01488932,0.00194275,0.04465321
-0.1609522,0.8358219,0.5659762,0.01354742,0.01996627,0.04185115
-0.159963,0.8359229,0.5668591,0.02141873,0.02005715,0.03532552
-0.1627356,0.836217,0.5642518,0.02674356,-0.01794533,0.0359112
-0.1668456,0.8350261,0.5644989,0.01873652,-0.05489403,0.03652597
-0.1644856,0.834881,0.5650743,0.0109805,-0.03460612,0.03146292
-0.1615184,0.8363998,0.5610354,0.01526852,-0.01089579,0.03003524
-0.1634506,0.8389417,0.5636516,0.01751541,-0.0305471,0.03031569
-0.1641515,0.8412175,0.5644426,0.01329144,-0.031262,0.03176843
-0.1653428,0.8427598,0.5650537,0.01031351,-0.02082414,0.03426594
-0.1647633,0.839024,0.5677523,0.003894384,-0.02786707,0.03127322
-0.1611284,0.8320656,0.5665603,-0.002300937,-0.02005108,0.02600724
-0.1615898,0.8324964,0.5693871,-0.002434961,-0.02520363,0.02314583
-0.1618611,0.8345584,0.5711208,-0.001583845,-0.03646742,0.02355037
-0.1596689,0.832609,0.5723185,0.002919076,-0.02070863,0.02619597
-0.1585314,0.8339012,0.575398,0.01056068,-0.0146538,0.0253731
-0.1581716,0.8369827,0.5734634,0.01444206,-0.01847929,0.02377686
-0.159566,0.8404538,0.5708045,0.01288545,-0.02432101,0.02383958
-0.1609191,0.8422843,0.5658695,0.007174661,-0.03228414,0.02093751
-0.1613295,0.8368206,0.5641277,0.002809538,-0.02334766,0.01783805
-0.1612213,0.8328616,0.5668699,0.00173108,-0.01650516,0.01716632
-0.1613601,0.8349196,0.564677,0.002005047,-0.02059309,0.01844452
-0.164024,0.8356252,0.5662074,0.001997144,-0.02239029,0.01947888
-0.1660458,0.8359104,0.5667011,0.001711339,-0.02280914,0.01862259
-0.1654679,0.8373541,0.5642405,0.001660839,-0.02443948,0.01900256
-0.1648759,0.8371681,0.5722507,-0.00177164,-0.02454796,0.0179777
-0.1653828,0.8370395,0.5827164,-0.003481673,-0.02205053,0.01557455
-0.1649684,0.8380596,0.5877206,-0.001191245,-0.0234493,0.01428381
-0.1622714,0.8370499,0.5797933,-0.000495261,-0.02217515,0.01213131
-0.1606606,0.8353353,0.5647119,0.001416721,-0.01756517,0.01326454
-0.1620879,0.8346949,0.5652103,0.001218306,-0.01812729,0.01517777
-0.1651309,0.8341903,0.566352,-0.0003807534,-0.02154912,0.01323211
-0.1667929,0.8351058,0.5599211,0.001385411,-0.02829137,0.01316271
-0.1661002,0.8351917,0.5636489,-0.0008526643,-0.03116733,0.01454678
-0.1641515,0.8356622,0.5652905,-0.00455706,-0.02851112,0.0144329
-0.162256,0.8371429,0.5615444,-0.005233838,-0.02627445,0.01412678
-0.1657179,0.8359076,0.5649247,-0.004242119,-0.02667705,0.01340959
-0.1692687,0.8373227,0.5722437,-0.001546712,-0.03236808,0.01230674
-0.1636161,0.8386996,0.5797425,-0.001429999,-0.03043865,0.01061915
-0.1570722,0.8363473,0.5756068,0.001499821,-0.01217729,0.008098992
-0.1568706,0.8368056,0.5668326,0.007654999,0.001679628,0.00669954
-0.1606467,0.8364649,0.5713662,0.006324062,-0.02419014,0.006769324
-0.1638732,0.836231,0.5720619,0.00205899,-0.06156949,0.005483068
-0.1624863,0.8384759,0.5675421,-0.002944925,-0.0496911,0.002471844
-0.1608204,0.8370082,0.569991,-0.00899854,-0.02316334,-0.0003949572
-0.1615674,0.8349227,0.5695296,-0.006707094,-0.01830403,0.0001393084
-0.1618653,0.8329545,0.5676627,-0.003160314,-0.02868095,0.005568386
-0.1626526,0.8311601,0.5664962,-0.005670022,-0.04933657,0.008697541
-0.1628877,0.8340208,0.5642772,-0.005114408,-0.04168282,0.006509021
-0.1622215,0.8354567,0.5672186,-0.003627499,-0.03205353,0.005567052
-0.1633981,0.8333114,0.5745411,-0.002866762,-0.04779884,0.006275989
-0.1626999,0.8321382,0.5805986,0.0003345161,-0.04410259,0.0049633
-0.1584381,0.8316772,0.5760365,-0.00297142,-0.03987892,0.003045384
-0.1563684,0.8323337,0.5690345,-0.007045239,-0.03749531,0.001836698
-0.1593818,0.8342191,0.574483,-0.002001128,-0.02421842,-0.0005641378
-0.1626278,0.8368877,0.5767129,0.0009857474,-0.03319906,-0.004359831
-0.161069,0.8380208,0.5711338,-0.0004758281,-0.04076805,-0.005056978
-0.1603136,0.8354711,0.5691127,-0.0005185095,-0.03868863,-0.001761161
-0.1618972,0.8339361,0.565623,-0.0006315817,-0.0422037,-0.000530919
-0.1607997,0.8348662,0.5646019,-0.001439589,-0.03888913,0.001046112
-0.1603854,0.8352677,0.5688456,-0.003643617,-0.04053054,0.004364791
-0.1588908,0.836334,0.5694187,-0.006338421,-0.04068726,0.002363456
-0.1556833,0.8380738,0.5669277,-0.008635632,-0.03304079,0.001922491
-0.1564969,0.8376164,0.565482,-0.01113927,-0.03161201,0.003566212
-0.1558171,0.8360964,0.5710997,-0.01063537,-0.02914297,-0.00103143
-0.1529072,0.8360797,0.5782956,-0.006618368,-0.027222,-0.002918424
-0.1530446,0.8357664,0.5768043,-0.004481278,-0.03060073,-0.00201532
-0.1521575,0.834043,0.5769325,-0.005545969,-0.03211796,-0.004576472
-0.1509325,0.8320704,0.5786496,-0.00565886,-0.02849814,-0.007413817
-0.1533644,0.8311357,0.5741349,-0.004962951,-0.02285162,-0.0106773
-0.1550006,0.831386,0.5719616,-0.005665098,-0.01873547,-0.01170841
-0.1539829,0.8302104,0.5731757,-0.006291961,-0.01226947,-0.0109615
-0.1546952,0.8297335,0.573733,-0.006286438,-0.01105319,-0.01141814
-0.1579657,0.8321284,0.5739526,-0.006451065,-0.02066992,-0.01075874
-0.1606946,0.8337826,0.5737832,-0.007422051,-0.02526301,-0.008352363
-0.1598034,0.8344692,0.5763675,-0.01061619,-0.02221504,-0.003654215
-0.1571455,0.8365132,0.5781076,-0.01393071,-0.01829964,-0.001859912
-0.1567634,0.8393627,0.5739974,-0.01213458,-0.01213087,-0.004845175
-0.1560315,0.8370783,0.5698814,-0.008230091,-0.005603599,-0.006164508
-0.152417,0.8326231,0.5709078,-0.006260659,0.002036615,-0.007211928
-0.149738,0.8349872,0.5742337,-0.0009578357,0.008499584,-0.007854847
-0.1542397,0.8358535,0.5755009,0.004166868,-0.0002977111,-0.007746259
-0.1621232,0.8346449,0.5738939,0.0001873139,-0.02810074,-0.009653379
-0.1613304,0.8381214,0.5678389,-0.009826181,-0.04283526,-0.01018375
-0.1563908,0.8387732,0.5597276,-0.01685144,-0.01386227,-0.0128302
-0.1551649,0.8385798,0.5581351,-0.01424376,0.01589311,-0.01787104
-0.1549969,0.8395149,0.560541,-0.009574424,0.001913846,-0.01695547
-0.1562716,0.8383563,0.5602067,-0.01087891,-0.008117207,-0.0149958
-0.1565144,0.8387153,0.5615319,-0.0121042,0.004081428,-0.01480244
-0.1566293,0.8372799,0.5668169,-0.01292051,-0.001262409,-0.01097621
-0.1572013,0.8353629,0.5712333,-0.01086024,-0.003519293,-0.008923831
-0.1536697,0.8371707,0.5721017,-0.0069139,0.001269879,-0.01179784
-0.1516372,0.8377857,0.5680499,-0.01302546,-0.005696474,-0.0140884
-0.1516693,0.8365223,0.5634794,-0.01695803,0.002266,-0.01590589
-0.152113,0.8357071,0.5659205,-0.00732728,0.008947081,-0.01671141
-0.1551311,0.8361023,0.5688819,-0.0003148169,0.005099053,-0.01541478
-0.1557159,0.836367,0.5693917,-0.002939695,0.006318345,-0.01585896
-0.1561997,0.8358497,0.5732868,-0.005042072,7.264988e-05,-0.01535398
-0.1589182,0.8364138,0.5719541,-0.003848562,0.004527607,-0.01369922
-0.160327,0.8373983,0.56398,-0.009407324,0.01072593,-0.01253191
-0.1614687,0.8394169,0.5586954,-0.01520085,0.001689068,-0.008458036
-0.1612205,0.8407386,0.5574349,-0.009496693,-0.0006562748,-0.009336818
-0.1592796,0.8382008,0.562168,-0.006533814,-0.002696571,-0.01421736
-0.1567547,0.8357831,0.5675344,-0.01137623,-0.002100378,-0.01229628
-0.1538389,0.8359134,0.5690009,-0.01480277,0.001631052,-0.008545431
-0.1535729,0.8362976,0.5701281,-0.0167055,-0.0004526333,-0.009343575
-0.1549062,0.8360782,0.5673125,-0.01641108,0.0007513906,-0.01577286
-0.1549138,0.8354963,0.5635027,-0.01398311,0.0001106071,-0.02020287
-0.1557851,0.8333556,0.5647723,-0.01149589,0.003174692,-0.01771687
-0.1567294,0.8303531,0.5662836,-0.01107822,0.008522941,-0.01643944
-0.1558616,0.8306678,0.5651958,-0.01283748,0.003614011,-0.01607603
-0.1555368,0.832436,0.5654764,-0.01306957,-0.0006643303,-0.01689877
-0.155963,0.833076,0.5676334,-0.01165847,-0.0003164754,-0.02018625
-0.1587317,0.8359433,0.5692593,-0.01049698,0.006442868,-0.02122776
-0.1634623,0.8373128,0.573038,-0.01106703,0.01299438,-0.01996042
-0.164571,0.8351354,0.5736614,-0.01256593,0.002426629,-0.01670701
-0.1621147,0.8352098,0.5698098,-0.01296186,-0.01140363,-0.01481886
-0.158413,0.8349923,0.5693027,-0.01351879,-0.01088534,-0.01376276
-0.1559458,0.8341866,0.56611,-0.01533005,-0.005393123,-0.01235389
-0.1569396,0.8361501,0.5652759,-0.01697247,-0.0009620167,-0.01364751
-0.1581792,0.8361559,0.5701329,-0.01409438,0.004469884,-0.01387665
-0.1567633,0.8349621,0.570333,-0.009047819,0.006250671,-0.01531489
-0.1530715,0.834385,0.571387,-0.008180993,0.01410966,-0.0189475
-0.1509771,0.8325664,0.5709851,-0.004634835,0.02819075,-0.02137584
-0.1551982,0.8319122,0.5707394,0.000545833,0.02030279,-0.02379852
-0.1614614,0.8331196,0.5739311,-0.005661434,-0.003836198,-0.02224918
-0.1614435,0.8364459,0.5680542,-0.01425038,-0.01415884,-0.0202357
-0.1577464,0.8385994,0.5637888,-0.01409386,0.00103547,-0.02109477
-0.1572723,0.8372328,0.5644447,-0.0153125,0.02160656,-0.02010497
-0.1611585,0.8369431,0.5637458,-0.01806613,0.01068847,-0.02054396
-0.164938,0.8356286,0.5698198,-0.01377719,-0.006442365,-0.02030653
-0.1606125,0.8322094,0.5720471,-0.009041694,-0.004392971,-0.01446516
-0.1550024,0.8314508,0.5687252,-0.008841627,-0.007678039,-0.009555279
-0.1571771,0.8335378,0.5692987,-0.009420125,-0.00610379,-0.01200231
-0.1576112,0.836511,0.570492,-0.01019856,-0.005508478,-0.01724616
-0.1557866,0.8377921,0.5719453,-0.01129445,-0.01180322,-0.01770595
-0.1556572,0.8359316,0.5732116,-0.01246281,-4.159496e-05,-0.01838525
-0.1544224,0.8334007,0.5751707,-0.01141031,0.01014212,-0.02414311
-0.1582078,0.8332072,0.5730961,-0.0072105,0.01229069,-0.02824383
-0.1632187,0.8338185,0.5688088,-0.004642513,0.007316323,-0.02607794
-0.1606296,0.8348559,0.5705572,-0.005130715,-0.003154778,-0.02083348
-0.1574379,0.8372979,0.5678707,-0.006264908,0.006577289,-0.01726346
-0.1576119,0.837825,0.5642132,-0.007094877,0.01087138,-0.01466767
-0.1600662,0.8381525,0.5699415,-0.009958031,0.0009515744,-0.01355717
-0.1636866,0.838512,0.574185,-0.01353679,-0.0001215501,-0.01475587
-0.1621877,0.8369573,0.5722593,-0.01313905,0.001681742,-0.01596511
-0.1596063,0.8374628,0.5703803,-0.01287506,0.005880113,-0.01897318
-0.161395,0.8374513,0.5684526,-0.01289759,0.004765589,-0.02088326
-0.1594387,0.8353791,0.5642806,-0.009806954,0.0008632455,-0.01944607
-0.1561467,0.8344183,0.5659813,-0.009301476,0.001386128,-0.01726623
-0.1571302,0.8343979,0.5703001,-0.01158487,-0.0003539557,-0.01543952
-0.1569736,0.8349434,0.5675369,-0.01236348,0.004513478,-0.01914158
-0.1567956,0.8333818,0.5686719,-0.01324379,0.00936969,-0.02347429
-0.1577143,0.8310264,0.5726348,-0.01582998,0.004886681,-0.02098987
-0.1593677,0.8304729,0.572334,-0.01539667,0.002111086,-0.01961659
-0.1621215,0.8314924,0.5739724,-0.01148266,0.005205938,-0.021159
-0.1613714,0.8345857,0.5733318,-0.01062455,0.009248587,-0.01969375
-0.1604027,0.8361539,0.5698015,-0.01060666,0.008783492,-0.01687263
-0.1616019,0.8361641,0.5686061,-0.01040807,0.004086455,-0.01566172
-0.1608543,0.8362919,0.5683224,-0.0108135,-0.0005570049,-0.01648611
-0.1600117,0.836006,0.5675576,-0.009404487,0.004523491,-0.01828359
-0.1597187,0.8373623,0.5674875,-0.009837626,0.01135065,-0.0174452
-0.1592654,0.8386936,0.5722088,-0.01114178,0.002925426,-0.01400884
-0.1592395,0.8387101,0.5759596,-0.01288036,-0.005992927,-0.01096437
-0.159292,0.8372613,0.572919,-0.01445986,-0.006216999,-0.01107086
-0.1615181,0.8350865,0.5677818,-0.01281693,-0.0007332183,-0.01455401
-0.1628447,0.834847,0.564061,-0.0124928,0.007441929,-0.01509267
-0.1581746,0.8329116,0.5665348,-0.01113652,0.0071182,-0.01418581
-0.15228,0.8301856,0.5703654,-0.00813181,0.0154566,-0.01659915
-0.1493129,0.8313338,0.57072,-0.005579074,0.03500284,-0.02072117
-0.1500035,0.8324709,0.5752869,-0.0002732019,0.02995449,-0.02535211
-0.1583284,0.8320436,0.5777249,0.0002304257,0.0004362786,-0.02315288
-0.1668655,0.8327043,0.5728927,-0.005705127,-0.01804829,-0.01838181
-0.1625577,0.8342521,0.5711991,-0.009088917,0.0003781171,-0.01875799
-0.1555568,0.836119,0.5725357,-0.008500712,0.02315671,-0.01501642
-0.1577319,0.8376753,0.5717708,-0.009373781,0.006778316,-0.01090674
-0.160039,0.8362232,0.5694366,-0.01536705,-0.005389899,-0.01112993
-0.1609275,0.8335536,0.5674149,-0.01769417,0.003446991,-0.01138659
-0.1613314,0.8346779,0.568865,-0.0143725,-0.002195565,-0.01463568
-0.1586329,0.8352506,0.5712057,-0.0163098,-0.002754737,-0.01745638
-0.1606381,0.8333474,0.5705089,-0.01790026,-0.003470192,-0.01783206
-0.1619251,0.8341881,0.5685526,-0.01388733,-0.01237747,-0.01763757
-0.1583425,0.8352642,0.5658833,-0.01224413,-0.0007020935,-0.01807097
-0.1584366,0.8353383,0.564746,-0.008206805,0.009007323,-0.01989255
-0.1594431,0.8357339,0.5673261,-0.003830443,0.006461501,-0.01833821
-0.1617341,0.835162,0.568653,-0.007941048,0.003383764,-0.01765336
-0.1633712,0.8350872,0.5668372,-0.009231671,-0.002130817,-0.01889878
-0.1610411,0.833984,0.5653188,-0.008371489,0.003732234,-0.01834694
-0.1609672,0.8330928,0.5650735,-0.01138191,0.01162753,-0.01909666
-0.1613274,0.836246,0.5656949,-0.01060035,0.01069968,-0.01439928
-0.1619195,0.8385255,0.5667534,-0.01015913,0.003595677,-0.006766947
-0.1622969,0.8374855,0.5671008,-0.01044376,-0.006039963,-0.006021716
-0.1587017,0.837104,0.5667832,-0.008671015,-0.002797433,-0.006809751
-0.1559217,0.8377644,0.5683067,-0.008706499,0.001490952,-0.006011403
-0.156526,0.8369917,0.5703198,-0.008338633,-0.0002680837,-0.006366844
-0.1580513,0.8349694,0.5694226,-0.00958249,0.006242201,-0.01257616
-0.1583011,0.8345059,0.5690278,-0.01270477,0.01068312,-0.02022659
-0.1591873,0.8362574,0.5703869,-0.01467588,0.006895878,-0.01892217
-0.1596307,0.8370627,0.5721216,-0.01303372,0.003452447,-0.01587731
-0.1580826,0.8364289,0.5749141,-0.005662601,0.001837152,-0.01759923
-0.1585083,0.8377093,0.5743469,-0.001619584,0.002892649,-0.01821331
-0.1573836,0.8381141,0.5723946,-0.005240689,0.007085625,-0.01716133
-0.1567676,0.8367675,0.5741225,-0.009924391,0.01071834,-0.01598521
-0.1602104,0.8378266,0.5739456,-0.01103632,0.0101115,-0.01292965
-0.1615952,0.8376894,0.5729034,-0.01145058,0.008304179,-0.01105166
-0.1614497,0.8362883,0.5738051,-0.01368068,0.00833677,-0.01149352
-0.1605827,0.8344208,0.571701,-0.01254102,0.009653284,-0.01073154
-0.1599098,0.8306011,0.5698425,-0.01165631,0.01083926,-0.01163652
-0.1589161,0.8327008,0.5694459,-0.01156831,0.005068358,-0.01375632
-0.1561229,0.8393327,0.5654834,-0.007319264,-0.004536374,-0.01313979
-0.1552711,0.8422562,0.561715,-0.006689262,-0.006590715,-0.01204854
-0.1548236,0.8394958,0.5627579,-0.01035997,-0.003474204,-0.01345981
-0.1589335,0.8338103,0.5672008,-0.01269994,0.001557221,-0.01558833
-0.1643284,0.8338842,0.5716478,-0.01114791,0.009900454,-0.01498527
-0.1589794,0.834537,0.5732252,-0.006466009,0.02039313,-0.0174475
-0.1546394,0.8304683,0.5721101,-0.003557166,0.03538311,-0.02043318
-0.1580751,0.8303378,0.5717273,-0.0003046038,0.04153765,-0.01761244
-0.1601371,0.8324217,0.5723637,0.001809036,0.01530022,-0.01690214
-0.1607363,0.8355552,0.5688697,0.001046309,-0.01448433,-0.01202254
-0.1590272,0.8389887,0.5615128,-0.00120371,-0.005528686,-0.00390389
-0.1561793,0.8369173,0.5576008,-0.008747306,0.01160441,-0.005969753
-0.1596412,0.8342046,0.5638044,-0.01430158,0.01013655,-0.009027599
-0.1647173,0.8336012,0.5715394,-0.01223474,0.00437334,-0.01024985
-0.1640583,0.8354755,0.5676779,-0.008597617,-0.005346878,-0.01326292
-0.1635003,0.8381751,0.5644269,-0.006170507,-0.004290179,-0.0121739
-0.1637408,0.8340941,0.5664742,-0.006483808,0.00197766,-0.008530032
-0.1612712,0.8305174,0.5644187,-0.007821464,-0.007662155,-0.007557226
-0.1604718,0.8348996,0.5652441,-0.007851084,-0.008668628,-0.0097392
-0.161158,0.8370548,0.5660666,-0.007289934,-0.002951928,-0.01235435
-0.1607247,0.8330713,0.5642826,-0.00561741,0.002583453,-0.01701892
-0.1606856,0.8305824,0.566302,-0.003816317,0.01546484,-0.01976908
-0.1616964,0.8313684,0.5669788,-0.003695668,0.01064634,-0.01487616
-0.1621086,0.8319499,0.5678186,-0.004203094,0.000997283,-0.01197529
-0.1622971,0.833513,0.5671388,-0.003761356,0.00223224,-0.01238085
-0.1630493,0.8356789,0.5639279,-0.004584847,0.0003285363,-0.009873526
-0.1623607,0.8344182,0.5674911,-0.007690248,0.002936376,-0.008721721
-0.1632342,0.8323546,0.5728994,-0.009723623,0.003336574,-0.01030848
-0.1639451,0.832092,0.5755896,-0.008443404,0.0005556995,-0.01166333
-0.1599056,0.832651,0.5738467,-0.0067089,0.001101656,-0.01155175
-0.1572989,0.8347231,0.5685757,-0.007497856,-0.004066154,-0.01054776
-0.1584499,0.8354187,0.5684714,-0.006286502,-0.004225962,-0.009901381
-0.1604655,0.8353254,0.5672365,-0.004577203,0.003070635,-0.01062661
-0.1606623,0.8375069,0.5658531,-0.008277888,0.01190114,-0.01405854
-0.1589337,0.8368383,0.5714849,-0.01080696,0.02218628,-0.01533772
-0.1577473,0.8318271,0.5722388,-0.008005326,0.02362207,-0.009770983
-0.1556197,0.828232,0.5687706,-0.003562104,0.01921768,-0.005878644
-0.1555112,0.8314913,0.5682377,0.0002050171,0.01503445,-0.009061692
-0.1588214,0.8373735,0.5672016,0.001247392,0.01118175,-0.01336145
-0.1616551,0.8373011,0.5692322,7.006427e-05,0.01135039,-0.01673195
-0.1636412,0.8370248,0.5704957,-0.0007105893,0.01028842,-0.0154981
-0.1648921,0.8383061,0.5656442,-0.001563054,0.007076962,-0.008915988
-0.1656025,0.8362001,0.5647594,-0.006674188,0.008276892,-0.006442091
-0.164021,0.8340149,0.567634,-0.01125767,0.01061252,-0.009026934
-0.1614453,0.8315628,0.5682421,-0.006051348,0.01000645,-0.01152808
-0.1608989,0.8327677,0.5684635,-0.0006617232,0.01032794,-0.01055276
-0.1608727,0.8361833,0.5676615,-0.00500437,0.006981823,-0.007520476
-0.1608339,0.8325684,0.5680142,-0.007952794,-0.003004819,-0.005242125
-0.1584485,0.8312337,0.5685096,-0.006087711,-0.004261566,-0.001769276
-0.1560236,0.8353876,0.5676688,-0.007834549,0.004795096,-0.004051353
-0.1578682,0.8366824,0.5691276,-0.008068649,0.0111269,-0.009294661
-0.1588304,0.8363618,0.5674068,-0.004728849,0.01216728,-0.007939643
-0.1572366,0.8355241,0.5604116,-0.002314035,0.01613186,-0.009564918
-0.157605,0.83474,0.5566968,0.003372302,0.02943447,-0.01268969
-0.1623769,0.8321061,0.564951,0.007440663,0.03248999,-0.01140257
-0.1670777,0.8296877,0.575315,0.00513728,0.01038259,-0.01142849
-0.1651848,0.8338106,0.5710376,0.002086509,-0.00865665,-0.009431188
-0.161452,0.8378172,0.5683427,-0.002450441,0.003430633,-0.004698483
-0.1611136,0.8374205,0.5738867,-0.007291781,0.02065171,-0.004439231
-0.1619906,0.8356582,0.574644,-0.007488047,0.01325974,-0.009242879
-0.1637352,0.8340059,0.5784394,-0.00472178,0.004732213,-0.008926669
-0.1641141,0.8346985,0.5795876,-0.003703631,0.001809096,-0.004048288
-0.1617004,0.8350819,0.5744282,-0.004543218,0.0001801749,-0.005495625
-0.1606317,0.8344127,0.5724465,-0.007620104,0.008147904,-0.00555351
-0.1610979,0.8348369,0.5671469,-0.0125293,0.004231473,-0.004846973
-0.1610466,0.8347672,0.5687518,-0.009465342,-0.0005291937,-0.01015022
-0.1598964,0.8342597,0.5753333,-0.003806787,0.005193781,-0.01283061
-0.1574995,0.8330224,0.5694449,-0.006502572,0.007807651,-0.01565266
-0.1571502,0.8311848,0.5682036,-0.006907063,0.01663278,-0.01640285
-0.1606793,0.8311867,0.5727892,-0.003618501,0.007649611,-0.01156558
-0.1646642,0.8325113,0.5718158,-0.002097341,-0.009532028,-0.009854336
-0.1647242,0.8339024,0.5723207,0.0001756384,-0.002160106,-0.00874099
-0.1639242,0.8358235,0.5707065,5.560849e-05,0.001546596,-0.007795316
-0.1661151,0.8381619,0.5699009,-0.002196469,0.003904109,-0.003729886
-0.1664493,0.8388863,0.5718439,-0.004290868,0.008423159,0.003704866
-0.1662551,0.8353834,0.5706745,-0.005745548,0.002236776,0.002018158
-0.1673351,0.8323109,0.5722117,-0.005745673,0.00403805,-0.00189709
-0.1655611,0.8359495,0.5731309,-0.004922959,0.008263977,-0.00293311
-0.1628414,0.838588,0.5709189,-0.0009384605,0.008168314,-0.005888365
-0.1591728,0.8344759,0.5697593,0.0003722203,0.009773011,-0.007024596
-0.1571302,0.8318838,0.567449,-0.005187982,0.008507041,-0.009879398
-0.1593823,0.8330235,0.5679347,-0.005565297,0.008188899,-0.01294634
-0.1607158,0.8334631,0.5719429,-0.001330037,0.0083903,-0.01085163
-0.161733,0.8333689,0.5741191,-0.002223398,0.009700173,-0.009013729
-0.162559,0.8333462,0.5735135,-0.001709452,0.01351075,-0.008131315
-0.1641112,0.8330671,0.569943,-0.0001465541,0.01240136,-0.008591468
-0.1672162,0.8328741,0.5682047,-0.002771705,0.009084673,-0.01014824
-0.1656931,0.8331046,0.5702474,-0.001339534,0.005488363,-0.00799046
-0.1636525,0.8334704,0.5706339,0.0002715946,0.001933864,-0.006070328
-0.1640427,0.8313943,0.5714896,-0.002998052,0.008800942,-0.004723643
-0.1639463,0.826013,0.5731037,-0.005565946,0.01738033,-0.002780961
-0.1659304,0.8226939,0.5713416,-0.009215633,0.009897885,-0.003896754
-0.1664671,0.826676,0.5693714,-0.007700469,-0.001284272,-0.002509557
-0.1630941,0.8338643,0.5685488,-0.002752998,-0.004365889,-0.001045959
-0.1601238,0.8351383,0.5719821,-0.00546732,-0.004295113,-0.003130366
-0.1616539,0.8324314,0.5780922,-0.005615184,0.001821145,-0.002102477
-0.1647277,0.8322616,0.5763694,-0.002664115,0.007401259,-0.0001567743
-0.1626075,0.8318713,0.5722891,-0.003774415,0.00887272,0.0003182838
-0.1582637,0.8305451,0.5715869,-0.002621524,0.02311943,-0.004581718
-0.1557131,0.8296437,0.5728965,-4.669897e-05,0.03830516,-0.01131944
-0.160984,0.8295954,0.5824965,0.00309041,0.02192567,-0.00724638
-0.1705168,0.8336918,0.5897884,0.00493294,-0.01491882,-0.003714947
-0.1685997,0.8373144,0.5815823,0.002131768,-0.02890317,-0.007245096
-0.1653603,0.8344526,0.5732319,-0.0009637475,-0.0071095,-0.007003505
-0.1678006,0.8309873,0.5736596,-0.00494891,0.01432678,-0.006295192
-0.1661183,0.8319507,0.5710165,-0.005825369,0.005913819,-0.005406842
-0.165937,0.8324081,0.5684293,-0.002867158,-0.004494928,-0.001991849
-0.1652147,0.8316156,0.5705705,-0.004134483,0.0007411815,-0.002503826
-0.1635971,0.8331094,0.5680598,-0.004599129,0.0008072995,-0.003169265
-0.1676431,0.8336508,0.5693491,-0.004502171,0.002884297,-0.0001439666
-0.1668536,0.8331672,0.5750013,-0.006049537,-0.000594397,0.001056426
-0.1616626,0.8334573,0.5728294,-0.003301597,-0.01221735,0.0003919523
-0.1597917,0.8330245,0.5748368,-0.001153833,0.0006542474,-0.001490444
-0.1597905,0.8325322,0.5792607,0.0002624669,0.01035638,-0.00553776
-0.1637462,0.8316777,0.5799978,0.002493324,0.003337055,-0.008304496
-0.1675208,0.8319,0.585669,0.002901041,0.00398638,-0.007027494
-0.1674042,0.8332243,0.5842349,0.005793663,-0.002060822,-0.00314315
-0.1690094,0.8331627,0.5741958,0.005062364,-0.006261882,-0.0007562336
-0.1715808,0.8325856,0.5689612,0.001072904,-0.0006077532,0.0003047805
-0.169814,0.8317864,0.5697721,0.002262987,5.656816e-05,0.001484387
-0.165034,0.8326169,0.5725788,0.0009011988,-0.001721058,0.001737728
-0.1611189,0.8340365,0.5712859,-0.0004510743,-0.003154193,0.001971572
-0.1590723,0.8333177,0.5717131,0.001181279,-0.001683196,0.001247352
-0.1611328,0.8340543,0.5739233,-0.002370841,0.0004823157,0.0004110575
-0.1639301,0.8349218,0.5729253,-0.004393152,0.00213153,-0.0005695702
-0.1621736,0.8328245,0.5757624,-0.002827084,0.002887181,-0.003100997
-0.1621754,0.8312777,0.5758132,-0.002149237,0.0004182618,-0.002251849
-0.1641182,0.8320407,0.572737,-0.002038888,0.0005349817,-0.001855563
-0.1636686,0.8332029,0.5715257,-0.005591366,0.0004837857,-0.007336993
-0.1640895,0.8335634,0.5661256,-0.006491007,0.0005487927,-0.01131205
-0.1639177,0.8346405,0.5652587,-0.001545622,0.002628096,-0.009801449
-0.163612,0.8367957,0.5665587,0.0005061747,0.0008451445,-0.004882148
-0.1642593,0.8373173,0.5640388,-0.001565859,-0.0003891651,-0.0003546366
-0.1637938,0.8340765,0.5667128,-0.004100276,0.002820655,-2.531682e-05
-0.164845,0.8304719,0.5674015,-0.004894922,0.006306039,-0.003329101
-0.1656959,0.831715,0.5657944,-0.00539397,0.006592329,-0.00472711
-0.1647682,0.8328761,0.5680547,-0.006460776,0.005192866,0.001259376
-0.1635315,0.8312581,0.5699519,-0.004815281,-0.001620481,0.006188619
-0.1619184,0.8320396,0.5731888,-0.002803287,-0.01376853,0.001066756
-0.1632102,0.8330163,0.5728818,-0.003061997,-0.01352524,-0.00323171
-0.1673978,0.8350344,0.5700115,-0.002121776,-0.003014471,0.0004297726
-0.1703421,0.8383853,0.5722204,-0.0004416531,0.002629648,0.001165593
-0.1680607,0.8350126,0.5752446,-0.00131938,0.005056803,-0.004312505
-0.1614929,0.8306134,0.5780384,-0.0009315638,0.01319386,-0.007132837
-0.1583531,0.8320373,0.5751537,0.003678348,0.02965106,-0.006053218
-0.1611814,0.8323922,0.5687115,0.002601585,0.02739894,-0.005162004
-0.1683242,0.8318396,0.5708226,-0.01498836,-0.005331971,-0.004697485
-0.17377,0.8346716,0.5720958,-0.03143589,-0.02857467,-0.0005000284
-0.1693642,0.8388665,0.5705893,-0.01736106,-0.01606596,0.003666466
-0.1642598,0.8403437,0.5731079,0.001002848,0.009231744,-0.002870215
-0.1680297,0.8345736,0.5725285,-0.007241697,0.01471578,-0.007073126
-0.1703429,0.8268999,0.5735262,-0.007038452,0.004876793,-0.001268746
-0.1686512,0.8275199,0.5799135,0.002829009,-0.004446448,-0.0007152028
-0.1696136,0.8322936,0.5825996,-0.002663643,-0.0076782,0.0009727666
-0.1685933,0.8333535,0.5788221,-0.002016756,-0.00352709,0.002355015
-0.1657874,0.8300509,0.5742105,0.0002763198,-0.007263454,-0.004126267
-0.1641574,0.826729,0.57522,-0.002952641,-0.009394504,-0.003804541
-0.1617045,0.8305048,0.5750642,0.000761055,0.001018345,-0.004608397
-0.1630652,0.835671,0.5721033,-6.685587e-06,0.007770204,-0.007735758
-0.1655481,0.8340439,0.5739156,0.0006245785,0.00871558,-0.003491466
-0.1663786,0.8308407,0.5742544,0.005524845,-0.0005969198,-0.003274796
-0.1706239,0.8284452,0.5750154,0.006405212,-0.007714173,-0.001021082
-0.1718615,0.8287733,0.5769085,0.007415054,-0.0002621772,0.0001853373
-0.1691587,0.8319756,0.573381,0.004189505,0.001766223,-0.005159196
-0.1693042,0.8318871,0.5750976,0.0007565667,-0.004132067,-0.002744698
-0.1692413,0.8306044,0.5758116,-0.004107115,-0.009575709,0.0007108065
-0.1671741,0.8289387,0.5698679,-0.008671946,-0.007941388,0.003547214
-0.1644424,0.8276181,0.5728728,-0.003640407,-0.00212145,0.004356918
-0.1630525,0.8301157,0.5744183,-0.001472257,-0.001145677,-9.501024e-05
-0.1641203,0.8313025,0.5717496,0.001267638,-0.002499332,0.0006378077
-0.164121,0.8318282,0.5742045,0.005961616,-0.006422684,-0.001699611
-0.1637261,0.8326603,0.5715644,0.004529566,-0.004589377,-0.002991723
-0.1649911,0.8313571,0.5713253,0.00599498,-0.000222003,0.0006212391
-0.1653604,0.8320372,0.5730951,0.004859139,-0.001014428,-0.002494977
-0.1643653,0.8322814,0.5673482,0.002559187,0.002054107,-0.001839682
-0.1637466,0.8307439,0.5669129,0.003150412,0.002815356,-0.0007473418
-0.1646685,0.8287369,0.5713303,-0.003908752,0.002452362,-0.004025447
-0.166,0.8257269,0.5757247,-0.009766353,0.00567811,-0.003313011
-0.1661141,0.828501,0.5763967,-0.008208493,0.005031102,-0.004104653
-0.1665225,0.8324787,0.573291,-0.004655857,-0.001312033,-0.003555686
-0.1661469,0.8302031,0.5752789,-0.0005884199,-0.008015313,-0.001923039
-0.1646579,0.8299154,0.5726634,0.0006806566,0.00254221,-0.002192333
-0.16508,0.8306158,0.5701818,0.0002830749,0.01477272,-0.000822485
-0.1647478,0.8265755,0.5779272,0.0004871087,0.00303511,-0.00344593
-0.1632638,0.8247624,0.581845,0.0005809819,-0.008831499,-0.005598084
-0.1642902,0.8293442,0.5783598,-0.0002636732,-0.01091683,-0.001743937
-0.1659449,0.8330958,0.5748605,-0.0011463,-0.01127588,0.002185264
-0.1669296,0.8286849,0.5781588,-0.001057471,-0.004923721,0.003132173
-0.167022,0.8240944,0.5804528,-0.001373979,0.001409302,0.001832179
-0.1659057,0.8267951,0.574811,-0.001177817,0.009469804,0.001230401
-0.1649836,0.8272081,0.5717215,0.0001416367,0.0275071,-0.0001337271
-0.1642525,0.8259269,0.5714027,0.0043582,0.03632264,-0.001236621
-0.1674798,0.8297872,0.5766343,0.0108225,0.01036269,0.001009481
-0.1738487,0.8321298,0.5825852,0.01057482,-0.02220035,0.00337449
-0.1737254,0.8312288,0.5758317,0.0002787986,-0.01382497,0.004028602
-0.1684219,0.8302508,0.5696025,-0.009327221,0.007339463,0.0003579742
-0.1658773,0.8302297,0.5697912,-0.00571074,0.008984365,-0.003892427
-0.1681979,0.8310474,0.5679912,0.001162431,0.00502775,-0.002218619
-0.1715425,0.8304878,0.5681288,-0.0001783172,-0.005813803,-0.001151189
-0.1702655,0.831331,0.5704027,0.0008032464,-0.008388631,-0.001728812
-0.1692762,0.8325728,0.569532,0.001408531,-0.002182747,0.002971154
-0.1699901,0.83168,0.5691121,-0.001639893,-0.008315118,0.007556492
-0.1654407,0.8315874,0.5718668,-0.0006606671,-0.006864624,0.005726542
-0.1615913,0.8306385,0.572579,-0.001408609,-0.0006233576,0.002693132
-0.1636455,0.8302474,0.5728663,-0.001374456,0.002323438,0.0003786108
-0.1663471,0.8324261,0.5764398,0.0017628,0.007241263,-0.003574314
-0.1671194,0.8321098,0.5807498,0.003595983,-0.00037742,-0.004565027
-0.166603,0.8295807,0.5806169,0.006158041,-0.008539757,0.0002913019
-0.1665389,0.8285914,0.5749017,0.005612966,-0.01122455,0.004730318
-0.1666067,0.8282924,0.5727674,0.006031578,-0.007384126,0.00311698
-0.165546,0.8275913,0.5732508,0.007317798,0.003396876,0.001179583
-0.1641176,0.8280021,0.5739666,0.003284087,-0.0005293376,0.003533031
-0.1638644,0.8297452,0.5787839,0.001161978,-0.003147203,0.003381811
-0.1657882,0.8310119,0.5785267,-0.0003953667,-0.001227004,0.00202816
-0.1669499,0.8309431,0.5763351,-0.001916574,-0.01128474,0.00298083
-0.164944,0.83108,0.5776301,-0.0009248605,-0.01825139,0.001514681
-0.1630321,0.8323759,0.5749681,-0.0009946493,-0.02333369,-0.001273134
-0.1638484,0.832163,0.5734049,-0.0001944552,-0.02315211,-0.004054597
-0.1641851,0.8314889,0.5712299,-0.001108952,-0.01048839,-0.003545454
-0.1626057,0.8322602,0.5673235,-0.002152303,0.004361478,0.000743447
-0.1624828,0.8319106,0.5730205,-0.0006412761,0.0145636,-0.00142827
-0.1638345,0.8321132,0.5789909,0.001201224,0.005894637,-0.008468705
-0.1658708,0.8338125,0.5743124,0.008225437,-0.01016642,-0.0107725
-0.1670723,0.834538,0.568176,0.01389501,-0.01488909,-0.006072787
-0.1647904,0.834762,0.5669986,0.0109422,-0.01667713,-0.0009299063
-0.1634074,0.8342386,0.5713995,0.006578536,-0.01361556,0.0004392105
-0.1657784,0.8323825,0.5773084,0.004605075,-0.01110077,0.003116996
-0.1674677,0.8311571,0.575474,0.005456845,-0.01393287,0.002386827
-0.1675595,0.8324636,0.5717548,0.006432118,-0.01631581,0.001218639
-0.1707402,0.8341399,0.5718947,0.003987057,-0.0280393,0.00829061
-0.1743995,0.8347376,0.5685046,0.001562257,-0.04438108,0.01245584
-0.1694613,0.8352083,0.5687887,0.0008350874,-0.05112128,0.01099032
-0.163179,0.8344093,0.5728617,-0.003607625,-0.04314347,0.007437176
-0.164705,0.8340328,0.5724252,-0.008931348,-0.03256383,0.004383923
-0.1630284,0.8325152,0.5760499,-0.005397907,-0.03473569,0.009148993
-0.1567488,0.8292769,0.5792033,-0.001044215,-0.02947987,0.01167886
-0.1561187,0.8302454,0.5774092,-0.002372921,-0.01574701,0.003329119
-0.1579807,0.830434,0.5777692,0.002993059,-0.01343549,-0.003376785
-0.1595105,0.8285743,0.5775659,0.009938083,-0.02402897,0.00149475
-0.1618755,0.8311141,0.5749896,0.004051864,-0.04654797,0.006863937
-0.1614983,0.8324511,0.5663459,-0.005063706,-0.05319182,0.004956341
-0.1604528,0.8299695,0.5582884,-0.008626313,-0.03740176,0.0063298
-0.1614351,0.8282835,0.5631855,-0.01077766,-0.03046887,0.006153481
-0.1610357,0.8283793,0.569581,-0.01029333,-0.03390676,0.002493977
-0.159899,0.8293629,0.5725814,-0.004634631,-0.03755859,0.007535184
-0.1591934,0.8316893,0.5793949,0.001767461,-0.03680684,0.01088819
-0.1568409,0.8344953,0.5799332,-0.0002821709,-0.03531302,0.007618299
-0.1548526,0.8328391,0.5752639,-0.005442635,-0.03699124,0.007301649
-0.1547851,0.8285592,0.5781838,-0.002123878,-0.0407303,0.008206087
-0.1531104,0.8255654,0.5770493,0.0017554,-0.04707538,0.008493277
-0.1492046,0.824064,0.5726695,0.005289003,-0.03939918,0.007924933
-0.1474283,0.8262063,0.5761112,0.01016774,-0.02670571,0.006732179
-0.1478261,0.827319,0.5751749,0.009325451,-0.02867744,0.005687827
-0.1490827,0.8266513,0.5740273,0.00726371,-0.03139315,0.004569084
-0.1533618,0.8283428,0.5757964,0.004351766,-0.03286333,0.004456958
-0.1554967,0.8284736,0.5729184,0.006717243,-0.03284558,0.004190339
-0.1535857,0.8299608,0.574249,0.01235818,-0.03081035,0.004512296
-0.1537445,0.8332244,0.5758806,0.00405329,-0.0346586,0.005241916
-0.1527276,0.832032,0.5747503,-0.004391301,-0.03366426,0.005555108
-0.149951,0.831301,0.5758714,-0.005005814,-0.02579687,0.006471925
-0.1487283,0.8324422,0.5767254,-0.00416201,-0.02318244,0.005812325
-0.147101,0.831825,0.5799618,-1.140211e-05,-0.02679084,0.004552204
-0.1484256,0.8317895,0.5828068,0.0006142392,-0.02753846,0.003683165
-0.1512263,0.8314512,0.5805234,0.002513291,-0.02508476,0.003243167
-0.1499793,0.8282391,0.5780098,0.003799876,-0.02364312,0.003764547
-0.1493818,0.825298,0.580134,7.369391e-05,-0.01552065,0.002147334
-0.1503858,0.8262274,0.5816205,0.002867703,-0.008501209,0.0003604149
-0.1489394,0.828016,0.5785347,0.007809333,-0.009145307,-0.001456502
-0.1481331,0.8276902,0.5745113,0.01195313,0.001885346,-0.004909602
-0.1488612,0.8279161,0.5692094,0.01145036,0.0245379,-0.005006778
-0.1487202,0.828862,0.5700718,0.003913728,0.03578532,-0.002899205
-0.1500082,0.8292081,0.5753349,0.0005760483,0.03077665,-0.001688772
-0.1530422,0.8294058,0.5740557,-0.002807313,0.02252294,-0.001035819
-0.1549728,0.8295248,0.5741129,-0.002860575,0.01405937,-4.052892e-05
-0.1540374,0.8317919,0.5748765,0.0008253616,0.01312271,0.002454613
-0.151784,0.8343796,0.5739472,-0.00184518,0.02778136,0.002846777
-0.1506667,0.8328827,0.5764609,0.001795962,0.03626364,0.002330912
-0.1485567,0.8301356,0.5778141,0.008092033,0.03077974,0.001888825
-0.1464812,0.8287209,0.5805989,0.007665913,0.02937899,-0.004770426
-0.147417,0.8289641,0.5820745,0.007278308,0.03843122,-0.01248758
-0.1493549,0.8305385,0.5768629,0.004967234,0.04406436,-0.01177627
-0.1513297,0.8312325,0.5760118,0.004593588,0.03074552,-0.005339724
-0.154555,0.8331275,0.5784169,0.003973781,0.01884909,-0.001506165
-0.1580566,0.8353083,0.5751233,-0.001850338,0.0252836,-0.003137939
-0.1576402,0.8331315,0.5719583,-0.006924666,0.02990413,-0.003893222
-0.1558783,0.8303056,0.5709161,-0.01088549,0.02797315,-0.0003129452
-0.1572297,0.8295628,0.5699721,-0.01036588,0.02884305,0.002868978
-0.1563139,0.8281152,0.5727201,-0.005542285,0.02800229,0.002432257
-0.1548466,0.8279668,0.5753094,0.000943722,0.02485822,6.614813e-05
-0.1570438,0.8294546,0.5784726,0.005754691,0.02103197,-0.001523013
-0.1581397,0.8300256,0.5832481,0.003885145,0.009124904,-0.002175677
-0.1582602,0.8315791,0.5807496,0.004066643,0.0001910202,-0.002213345
-0.1571234,0.8315383,0.5769827,0.004217576,0.00932472,-0.001326436
-0.1536582,0.8286884,0.5742693,0.0007545569,0.02157013,-0.0008984552
-0.1522517,0.8280659,0.5696303,0.001580484,0.02655864,-0.002309785
-0.1539038,0.828304,0.5715032,0.003258654,0.02592438,-0.00341925
-0.1565866,0.8301055,0.5761831,0.006125086,0.01988191,-0.003391777
-0.1572959,0.8333555,0.5794165,0.006638043,0.017104,-0.005034562
-0.1558686,0.8329327,0.5803088,-0.0004219018,0.01923352,-0.004779015
-0.1552845,0.8327628,0.577271,-0.006097726,0.02198338,-0.001021443
-0.1554725,0.8327348,0.5754401,-0.007023857,0.02399323,0.001405531
-0.1555655,0.8295074,0.5734881,-0.002667021,0.02298567,0.003598167
-0.1546035,0.8288423,0.5736231,0.001630895,0.0220312,0.002821228
-0.1543059,0.8315836,0.574923,0.0006099456,0.02239404,-0.001400017
-0.1569538,0.834291,0.5732038,-0.0002682321,0.01939154,-0.00266996
-0.1591864,0.8353989,0.5753419,-0.001303917,0.01283466,-0.003588765
-0.158419,0.8342057,0.5773063,-0.001173707,0.008992825,-0.003697536
-0.156864,0.8325508,0.5773221,-3.627661e-05,0.01292755,-0.002573034
-0.1569276,0.8307747,0.5777234,-0.0008649525,0.02100686,-0.004302536
-0.1573791,0.8299228,0.5733357,-0.000287694,0.02537137,-0.005056988
-0.1585345,0.8308543,0.5692881,0.0001466836,0.02240774,-0.004522301
-0.1606768,0.8308446,0.5663736,0.001039022,0.01806571,-0.003763389
-0.1605246,0.8315004,0.5680163,0.002734386,0.02014189,-0.001208223
-0.1600215,0.8342671,0.5757949,0.001768423,0.02393793,-0.0006076695
-0.1597839,0.8349265,0.5792621,0.0005580283,0.02783944,-0.001485998
-0.1583526,0.8328584,0.5836606,-0.001479069,0.03215104,-0.000598285
-0.1588457,0.8312619,0.5811467,-0.005558586,0.02420012,-0.001232942
-0.161018,0.8323431,0.5695748,-0.008440812,0.01295546,-0.002247926
-0.1630143,0.8350963,0.570093,-0.007219017,0.01543115,-0.0008999729
-0.1619781,0.8366058,0.572072,-0.003927153,0.017191,-0.001838675
-0.158576,0.8362533,0.5711931,-0.001307069,0.01321965,-0.002110529
-0.1563361,0.8339418,0.5760435,0.00251537,0.01658968,-0.0007798975
-0.1514675,0.8299981,0.5768831,0.002733406,0.03087554,-0.003414875
-0.1504806,0.8269725,0.5758513,0.001276637,0.0501028,-0.007070552
-0.162882,0.8288766,0.5737401,0.00242818,0.04945675,-0.01096087
-0.1755465,0.832216,0.5710356,-0.007176053,0.02093287,-0.01064071
-0.1749435,0.8302997,0.5715938,-0.01771789,0.001054819,-0.004025877
-0.1690734,0.8297837,0.5666537,-0.01028664,0.009357734,-0.0001695178
-0.169018,0.8315317,0.5574716,-0.004265518,0.02267215,-0.0004462052
