accx,accy,accz,gyrox,gyroy,gyroz
0.1811413,0.7878133,0.581194,0.06420134,-0.01300132,0.1884581
0.1803886,0.78823,0.5840168,0.0676443,-0.0179266,0.1876118
0.1845716,0.7888803,0.5806201,0.064244,-0.02365798,0.1880355
0.1871044,0.7884942,0.5742789,0.06812375,-0.0167914,0.1873041
0.1864613,0.7865438,0.5701844,0.07105376,-0.01238475,0.1832105
0.186145,0.7878105,0.570179,0.07425397,-0.01274851,0.1785136
0.1899235,0.7879078,0.5720006,0.07883606,-0.01056601,0.1750731
0.1930647,0.7879235,0.5769331,0.0769951,-0.009960407,0.1722006
0.1901308,0.7896034,0.5754691,0.07568378,-0.01191757,0.1710604
0.1840766,0.7883853,0.5736857,0.07259642,-0.01646697,0.1685789
0.1787438,0.7869169,0.5782781,0.06687461,-0.01798608,0.165183
0.1804751,0.7865416,0.5768502,0.06588527,-0.01477643,0.161421
0.1866441,0.7899806,0.5729889,0.06396957,-0.009837719,0.1569417
0.1881043,0.7968576,0.5690532,0.06009822,-0.004306119,0.1571749
0.1875201,0.7985047,0.5686374,0.06011368,-0.006144263,0.1575902
0.1864577,0.7965345,0.5745978,0.05788429,-0.009812221,0.153938
0.185567,0.7961915,0.575487,0.05349792,-0.008483166,0.1525662
0.1859632,0.7949749,0.5749763,0.05482003,-0.01509226,0.1520561
0.1832877,0.7909108,0.5751798,0.05659588,-0.02369228,0.1490895
0.1815546,0.7868142,0.573915,0.0574709,-0.02026278,0.1467379
0.1845881,0.7869043,0.5729752,0.05894857,-0.0167905,0.1453033
0.1872259,0.7895137,0.5696355,0.05737216,-0.01531731,0.1422597
0.1861786,0.7908085,0.5705974,0.0578172,-0.007232028,0.1383461
0.184416,0.7919494,0.5726649,0.05907686,-0.003994475,0.1356073
0.1856936,0.7914407,0.5703077,0.05777062,-0.005910992,0.1329774
0.1882394,0.7873332,0.5692349,0.05737377,-0.002433949,0.1286072
0.1909168,0.784322,0.5675774,0.05651054,-0.002143751,0.1240918
0.1900958,0.7842649,0.5685369,0.05726021,-0.004283106,0.1214349
0.1861476,0.7862471,0.5704174,0.0591569,-0.001857467,0.1194438
0.1862147,0.7911444,0.5679628,0.05820472,-0.002652545,0.1193808
0.1860613,0.7954339,0.5684897,0.05652248,-0.005429974,0.1194532
0.1856696,0.7927887,0.5718814,0.05443396,-0.007743828,0.1159381
0.1872312,0.7878314,0.573933,0.05201549,-0.01172797,0.1133962
0.1874654,0.789523,0.5715887,0.05018291,-0.01267068,0.1113987
0.1909742,0.7898757,0.5679724,0.0478891,-0.01217016,0.108941
0.1934969,0.7875851,0.5715632,0.04657526,-0.01201184,0.1087189
0.192846,0.7904579,0.5745219,0.05035193,-0.01116642,0.1070794
0.1931137,0.7899848,0.573154,0.05447527,-0.009763499,0.104774
0.1904921,0.7884006,0.5730692,0.05172863,-0.00678315,0.1029642
0.1878819,0.7894387,0.5701012,0.04945358,-0.006811662,0.1020923
0.185964,0.7865715,0.5670995,0.05063035,-0.007911734,0.1030961
0.1845911,0.7861633,0.5698601,0.04989704,-0.00707764,0.1008127
0.1854505,0.7866547,0.5729005,0.04889449,-0.009703278,0.09737954
0.1863978,0.785388,0.5736249,0.04846132,-0.01105871,0.09433767
0.190015,0.7865583,0.5780548,0.0473739,-0.005738887,0.08903341
0.1909218,0.7866116,0.5823931,0.04576482,-0.0006708916,0.08777561
0.1872313,0.7887051,0.5736915,0.04505729,-0.001891473,0.09128973
0.1842326,0.7925297,0.5637072,0.04460777,-0.003036358,0.09263111
0.180511,0.7926859,0.5683254,0.04367739,0.001031164,0.09010424
0.1802723,0.792049,0.5721741,0.04402457,0.001978765,0.08800384
0.1828297,0.7916275,0.5705076,0.04280331,-0.001127338,0.09033413
0.1839791,0.7914465,0.5729121,0.04232412,-0.002139114,0.09183643
0.1859775,0.7918321,0.5715874,0.0431312,0.0002026106,0.08831642
0.1889061,0.7913084,0.5685703,0.03904268,0.003709822,0.08507385
0.1914498,0.7897842,0.5700025,0.03618053,0.003040372,0.08327059
0.190219,0.7884267,0.5690626,0.03564481,0.003037692,0.08080064
0.1885659,0.7886658,0.5688503,0.03300383,0.005416788,0.07852417
0.18936,0.7890693,0.5708247,0.03327577,0.004096674,0.07574467
0.1883425,0.787866,0.5714765,0.03502553,0.004391221,0.07290994
0.187979,0.7871017,0.5714196,0.03647246,0.005706562,0.07147202
0.1875998,0.7877908,0.5705506,0.03992714,0.004637255,0.07019754
0.1869051,0.7886359,0.5736831,0.04303321,0.00371781,0.06831385
0.18752,0.7899458,0.5754878,0.04221572,0.001833249,0.06730612
0.1846476,0.7911016,0.5700089,0.03756355,0.001725019,0.06829487
0.1822847,0.7919169,0.5664985,0.03575952,0.0008315118,0.06944356
0.1838059,0.793324,0.5671994,0.03595165,-0.002435094,0.0679503
0.1855268,0.7920095,0.5691339,0.03361247,-0.0006213792,0.06440757
0.1874289,0.7881771,0.5710671,0.03269777,0.002943735,0.06021646
0.1879252,0.7869959,0.5737714,0.03121972,0.004455897,0.05544607
0.1873017,0.7883892,0.5761257,0.03044782,0.004874632,0.0543557
0.1874743,0.7893995,0.5747635,0.03485068,0.002931108,0.05594586
0.1875796,0.788719,0.5750721,0.03736635,0.002659183,0.05258821
0.1874844,0.7878636,0.5772027,0.03662707,0.003526257,0.04764858
0.1874397,0.788402,0.5779735,0.03514583,0.002571023,0.0459252
0.1875798,0.7898731,0.5778524,0.03143226,0.002457822,0.04826872
0.1869295,0.7935433,0.5758588,0.02673771,0.0006942811,0.05322025
0.1847823,0.7963858,0.5760281,0.0245788,-0.004030333,0.05391507
0.1833223,0.7925071,0.5765682,0.02857541,-0.005870031,0.05253631
0.1864823,0.786928,0.574466,0.03316788,0.0004682776,0.04775607
0.1901352,0.7858691,0.5733031,0.03397425,0.007691874,0.03942522
0.1863268,0.7848397,0.5719192,0.03331855,0.002755019,0.04052555
0.1828897,0.7842837,0.5711033,0.03083201,-0.002368277,0.04374324
0.1852495,0.7880893,0.5757409,0.02924959,0.001496783,0.04184627
0.185302,0.7899656,0.5825271,0.02700256,0.0007384141,0.04272526
0.1851678,0.7894709,0.5809749,0.0245727,-0.0005138416,0.04128251
0.1876786,0.7904351,0.5748146,0.02551535,0.001502259,0.03833436
0.1878182,0.7890977,0.5747115,0.02419217,0.0002754067,0.03778926
0.1877572,0.7866263,0.5746399,0.0225345,0.001392909,0.03582582
0.1903184,0.7860143,0.5718291,0.02230796,0.00267909,0.03623532
0.192275,0.7877314,0.5714586,0.01991031,0.001961903,0.03728239
0.1910688,0.7896831,0.5704087,0.01899926,0.003644539,0.03594788
0.1894267,0.7879147,0.5700488,0.02113705,0.005823492,0.03505156
0.1900764,0.7868124,0.5745609,0.02479182,0.007888782,0.03336385
0.1886776,0.7881917,0.5762215,0.02663688,0.007524024,0.03292914
0.1855944,0.7894416,0.5723477,0.02661126,0.006093652,0.03241922
0.1858872,0.7916165,0.5719201,0.02715452,0.005717177,0.02915252
0.1869846,0.7922465,0.5747942,0.02447282,0.003651181,0.02678972
0.1885609,0.7909542,0.5767655,0.02136198,0.00446545,0.02394246
0.1910099,0.7898918,0.5766496,0.02339874,0.006472309,0.02214983
0.1897136,0.7881611,0.5732056,0.02456242,0.004424288,0.02416634
0.1881076,0.7867169,0.5719042,0.0202776,-0.0002819445,0.02538865
0.1900625,0.7862243,0.5730728,0.01723557,-0.005292495,0.02514732
0.190812,0.7869899,0.5735939,0.0191069,-0.000700895,0.02380393
0.1894438,0.7897924,0.5756323,0.02068763,0.006657192,0.01968022
0.1878185,0.7910426,0.5752675,0.02058262,0.003629451,0.01641375
0.1862884,0.7897928,0.5733235,0.01997222,0.005464514,0.01803479
0.1873128,0.7884423,0.5740189,0.01810123,0.01277749,0.01924527
0.1885165,0.7843387,0.574373,0.01667038,0.01197854,0.01522167
0.1880124,0.781358,0.5751595,0.0169969,0.008257116,0.01289448
0.1898361,0.7870995,0.5752362,0.01684585,0.003483425,0.0159844
0.1900367,0.7931665,0.5735745,0.01385987,0.001347148,0.01816385
0.1871269,0.7919484,0.5734398,0.01155886,0.004199645,0.01591483
0.1874528,0.7914384,0.5726826,0.01402081,0.002695125,0.01292356
0.1886946,0.7922617,0.5723863,0.01637722,-6.768783e-05,0.01196783
0.1889127,0.7890187,0.5752131,0.01548639,0.000372969,0.0115965
0.188989,0.7871617,0.5791237,0.01749173,0.001939187,0.01215851
0.1877064,0.7868138,0.5837655,0.02091016,0.005351724,0.01279389
0.1873145,0.785404,0.5861577,0.01752478,0.00522093,0.01211187
0.1873515,0.7867251,0.5807176,0.01325155,0.001885288,0.01192107
0.1863846,0.7880699,0.5716622,0.01409395,0.0006442443,0.0103913
0.1850684,0.7890216,0.5699569,0.0137693,-0.0005848565,0.007273831
0.1845542,0.7895343,0.5694539,0.01186909,0.002117607,0.005255305
0.186687,0.7881981,0.5624127,0.00981662,0.007210351,0.004928029
0.1881883,0.7891301,0.5627721,0.007927525,0.004900907,0.008586726
0.1881533,0.7891508,0.5725807,0.01060815,0.002173954,0.01015934
0.1908898,0.7883622,0.5787106,0.01480649,0.003396753,0.00347291
0.1938947,0.7893741,0.5773368,0.01683626,0.002566687,-0.001552937
0.1917398,0.7882993,0.5753571,0.0161006,0.003038967,-0.001689338
0.1887961,0.7870317,0.5806614,0.01173528,0.00325244,-0.002097167
0.1896385,0.7865656,0.5827673,0.01055867,0.000730915,-0.001615279
0.1864303,0.7891247,0.5766651,0.01257684,0.0001663627,-0.001211456
0.1813707,0.7932535,0.5736188,0.01141158,0.0001152353,-0.001658666
0.1844867,0.7907321,0.5737276,0.01061712,7.226278e-05,-0.001836706
0.1878606,0.7879289,0.5740702,0.0116366,-0.0002887877,-0.001816998
0.187444,0.7884586,0.5735471,0.0116299,-0.001432036,-0.003051341
0.188827,0.7868944,0.5743327,0.01118057,-0.000750513,-0.007439795
0.1900066,0.7863586,0.5770452,0.01135463,0.0009265171,-0.009436074
0.1899281,0.786346,0.5774456,0.01191925,0.003120165,-0.004066928
0.1877894,0.7854429,0.5798479,0.0112077,0.002187049,1.542409e-05
0.1849681,0.7853461,0.5813002,0.008655831,-0.0002375367,-0.008449291
0.1859868,0.7835966,0.5791767,0.006880101,0.001546636,-0.01745673
0.1867625,0.7832055,0.5789007,0.01025452,0.001222075,-0.01194005
0.1854357,0.7864312,0.5781308,0.0148696,-0.0009773533,-0.008146028
0.1853154,0.7882425,0.5772778,0.01361875,-0.002063722,-0.01129316
0.1846585,0.7878436,0.5757983,0.01117166,-0.005606365,-0.009036936
0.184675,0.7881805,0.5736317,0.01017818,-0.007736116,-0.008334724
0.1870991,0.7899951,0.574121,0.009193584,-0.006517766,-0.009503883
0.1887997,0.7899708,0.5745601,0.009186011,-0.004566989,-0.009001038
0.1892318,0.7881938,0.574494,0.007555625,-0.003804736,-0.01194098
0.189033,0.7888815,0.5748589,0.006917229,-0.003158921,-0.0142303
0.1895467,0.7892587,0.574975,0.007012654,-0.001999025,-0.01839652
0.1908211,0.7883311,0.5730105,0.004043041,-0.002928319,-0.02455374
0.189907,0.7883785,0.57063,0.003539893,-0.001549288,-0.02228127
0.1882077,0.7879398,0.5718501,0.005821833,-0.0004444622,-0.01967974
0.1872581,0.7880265,0.5734508,0.008160069,-0.003393422,-0.02345661
0.1869404,0.7875435,0.5733911,0.00898706,-0.003252669,-0.02293052
0.1872036,0.7860428,0.5709664,0.008087475,-0.003945007,-0.0179987
0.186639,0.7865345,0.5692065,0.009471879,-0.005937838,-0.01405698
0.1874339,0.7880364,0.5739325,0.009169794,-0.003843876,-0.01195553
0.1881675,0.7902052,0.5780243,0.008966472,-0.0043512,-0.01366123
0.1872878,0.7908295,0.5756637,0.01164689,-0.006272015,-0.01761031
0.1894016,0.7888547,0.5734397,0.01053909,-0.004828632,-0.02203185
0.191117,0.7886935,0.5736838,0.00920336,-0.003467865,-0.02164587
0.189689,0.7894068,0.5714614,0.008557617,-0.001154221,-0.0163632
0.1884131,0.7905093,0.5683232,0.004365104,-8.89834e-05,-0.01567423
0.1874236,0.7920248,0.5667232,0.0002575171,-0.003541105,-0.01764392
0.1890117,0.7890915,0.5655302,0.000984623,-0.003439447,-0.02403237
0.1912761,0.7834578,0.568482,0.003630572,-0.001734651,-0.03255861
0.1902358,0.7810431,0.5737729,0.002900641,-0.004044325,-0.02949463
0.1898477,0.7837031,0.578674,0.004999538,-0.002961277,-0.02520464
0.1899433,0.7869141,0.5798826,0.007321192,-0.002115113,-0.02597712
0.18642,0.7866727,0.5749536,0.00450409,-0.004415609,-0.0242749
0.1826142,0.7884094,0.5734201,0.004807293,-0.005976993,-0.02347199
0.1837206,0.7913227,0.5716161,0.005156673,-0.01020655,-0.02003296
0.1887543,0.7892928,0.5722729,0.003807315,-0.01057531,-0.01518924
0.1932297,0.7869303,0.5804601,0.003896907,-0.008143618,-0.01588393
0.1939644,0.7866909,0.5777135,0.002677615,-0.009467891,-0.01984412
0.1925255,0.7862067,0.5740555,0.002856928,-0.006037904,-0.02629343
0.192949,0.787715,0.576518,0.002689324,-0.001055262,-0.02939137
0.193131,0.7899209,0.5737839,0.0009520644,-0.0006647754,-0.02811994
0.1905383,0.789643,0.576127,0.0006974278,-0.002178083,-0.02937833
0.1876957,0.7893922,0.5761146,0.001303099,-0.004591502,-0.03111985
0.1849301,0.7899771,0.5715501,0.003406971,-0.004328887,-0.03143424
0.1833874,0.7901533,0.5716981,0.004530042,-0.004460194,-0.02789926
0.1843661,0.79037,0.570041,0.003600235,-0.008271324,-0.02166748
0.1858179,0.7893385,0.571643,0.00246427,-0.01199287,-0.01910584
0.1867552,0.7883988,0.5749781,-0.0004927166,-0.01357699,-0.02005288
0.1870933,0.7889008,0.57678,-0.00313065,-0.01229635,-0.02501942
0.1882572,0.7878471,0.5784749,-0.001090886,-0.01003255,-0.02852825
0.188689,0.7863822,0.5768564,0.002120249,-0.007694938,-0.0272466
0.1869263,0.7865961,0.577465,0.0009402698,-0.008005788,-0.02839511
0.1872954,0.7870379,0.5746317,7.922316e-05,-0.00969506,-0.03050548
0.1880017,0.7870091,0.5703589,0.002155976,-0.005585374,-0.03105152
0.186755,0.7873153,0.5736048,0.001733051,-0.003177062,-0.0309738
0.1860066,0.7881131,0.5740911,0.0007453708,-0.006903091,-0.03097544
0.1851879,0.78787,0.5722629,0.001168436,-0.008227371,-0.03113814
0.1859495,0.7871662,0.5721616,0.0006753735,-0.006050824,-0.0291997
0.1868309,0.7860579,0.5723391,0.0007295317,-0.004145574,-0.02425236
0.1855988,0.7853895,0.5743612,0.001321533,-0.006384868,-0.01779366
0.1864778,0.7866908,0.5753124,0.001439682,-0.01014157,-0.01870429
0.1886141,0.7855855,0.5757516,0.001467197,-0.01196211,-0.02354253
0.1907918,0.782943,0.5774678,0.001400467,-0.01142597,-0.02360626
0.1925035,0.7826088,0.5782852,0.001254945,-0.003140539,-0.02600487
0.1905747,0.785736,0.5717934,6.002542e-06,0.005300368,-0.02694095
0.1895908,0.7906784,0.5639359,-0.001706367,0.003994777,-0.02540545
0.1900116,0.7885454,0.5697609,-0.001827685,0.0005378589,-0.02718602
0.1865631,0.7856331,0.5753973,-0.001379643,-0.001502294,-0.02722899
0.1835608,0.7887657,0.5716331,-0.001606619,-0.0031161,-0.02764845
0.1844653,0.7883904,0.5743303,-0.002018118,-0.00209357,-0.02501249
0.1853733,0.78846,0.5783337,-0.002365524,-0.002729602,-0.01861809
0.1853355,0.7898432,0.5758955,-0.001955294,-0.004970394,-0.01945499
0.1889726,0.7881132,0.5759538,-0.001058086,-0.003191995,-0.02237971
0.1934659,0.7887527,0.5771856,-0.0006974228,-0.001075507,-0.02044953
0.1918795,0.7874099,0.5769121,-0.0001649563,0.001384179,-0.01807226
0.190479,0.7846432,0.5779081,0.0002188683,0.005113151,-0.01928086
0.1911628,0.7849802,0.5769945,-0.001378485,0.004351826,-0.02116484
0.1880834,0.7842031,0.574785,-0.002713205,0.003209375,-0.02217493
0.1865362,0.7840358,0.574876,0.0003477356,0.004334184,-0.0242146
0.187919,0.7846345,0.5749337,0.003488633,0.006330523,-0.02324848
0.1869982,0.7864046,0.5740257,0.001527384,0.008553225,-0.0215379
0.1846181,0.7895709,0.5728755,-0.0001167502,0.005567312,-0.02028615
0.1826889,0.7890093,0.5713001,0.0001618544,0.001663336,-0.01898636
0.1829369,0.7889969,0.5710069,-0.00117039,0.000430318,-0.02084136
0.1846615,0.7916531,0.5711605,-0.001134477,-0.0005947404,-0.01985906
0.1866504,0.7918045,0.568593,-0.0009066505,0.001351861,-0.0197099
0.1899817,0.7897581,0.5666982,-0.002721754,0.002448313,-0.02269881
0.190591,0.7883138,0.5689741,-0.003062161,0.001360664,-0.02265465
0.189404,0.7899607,0.5702602,-0.002792366,0.003579344,-0.02269562
0.190531,0.7920374,0.5705496,-0.0005621574,0.006517785,-0.02133636
0.1882188,0.7925206,0.5716587,0.003422647,0.008996586,-0.02036452
0.184564,0.7932501,0.5703352,0.002248503,0.01088342,-0.01924365
0.1848119,0.7922086,0.5711848,-0.001814701,0.00923042,-0.01567243
0.1854591,0.7911259,0.5743497,-0.003840231,0.008307761,-0.01647296
0.1861581,0.7918261,0.5760271,-0.002748509,0.006684416,-0.01564329
0.1845466,0.7919078,0.5766149,-0.0008214467,0.001278533,-0.0129576
0.1824246,0.7922866,0.5724087,-0.003547883,-0.0009518428,-0.01401159
0.1853706,0.7917677,0.5699322,-0.00507553,-0.001190927,-0.01393519
0.1897178,0.7879218,0.5741969,-0.001456685,-0.001320787,-0.0161853
0.1925916,0.7852433,0.5777594,-0.0002968917,0.002858096,-0.02017268
0.1910119,0.7886498,0.5779715,-0.0031126,0.007491243,-0.02066925
0.187156,0.791375,0.5747152,-0.005416084,0.006601224,-0.02010541
0.1875914,0.7873108,0.5726545,-0.002801717,0.005073226,-0.02023641
0.1885324,0.7847369,0.5737446,0.0009256552,0.01008753,-0.02209496
0.1889116,0.7864455,0.5737621,0.0002033775,0.01326154,-0.02299084
0.1893159,0.7864038,0.5733927,-0.001344057,0.01109644,-0.01967807
0.1884286,0.7859333,0.5726153,-0.003243992,0.01045954,-0.01527293
0.1892415,0.7875085,0.5720428,-0.003917408,0.008045136,-0.01396425
0.1899462,0.789263,0.5721597,-0.0007612875,0.004789281,-0.01413058
0.1900181,0.7891802,0.5722391,0.0003220038,0.005047347,-0.01253521
0.1898275,0.7879568,0.5720074,-0.00307423,0.006359942,-0.0122235
0.1884193,0.7886219,0.5702199,-0.006352334,0.005021857,-0.01477236
0.1897342,0.7895955,0.5697519,-0.004802777,0.003369359,-0.01800936
0.1909962,0.7885286,0.5728335,-0.001530467,0.006372735,-0.02076123
0.1895701,0.7888971,0.5761424,-0.0004755784,0.00791776,-0.02184095
0.1885201,0.7902336,0.5745796,0.0009632091,0.007297113,-0.02062133
0.1870854,0.7899863,0.5722243,0.000517472,0.00637676,-0.01823522
0.1872973,0.7892448,0.5740361,-0.000218434,0.00342848,-0.01855137
0.1889485,0.7871509,0.5727872,0.001049843,0.003994555,-0.01862483
0.1888711,0.7870312,0.569844,-0.0006399065,0.003030753,-0.0159277
0.1889412,0.7897525,0.5684102,-0.002211726,0.0009417451,-0.01652245
0.1889354,0.7888214,0.5656421,-0.002658145,0.002651797,-0.01674977
0.1889091,0.7864733,0.5663757,-0.003631696,0.002334565,-0.01540378
0.1899619,0.7861493,0.5674831,-0.003334452,0.005907658,-0.01707399
0.1904469,0.7869156,0.5660355,-0.004413335,0.0109042,-0.01784415
0.1903714,0.7889162,0.5668444,-0.005090524,0.01049809,-0.01872945
0.1899964,0.7892638,0.567575,-0.005442815,0.01129837,-0.01950019
0.1891749,0.7885895,0.5698977,-0.006674747,0.01092786,-0.01842914
0.1878627,0.7886663,0.5735985,-0.005911575,0.008664206,-0.01784296
0.1869762,0.7871023,0.5725276,-0.005684278,0.008749011,-0.01583098
0.1876612,0.7858469,0.572061,-0.002186363,0.008685417,-0.01485745
0.1876541,0.7881362,0.5763472,0.00246754,0.005948407,-0.0150063
0.1872359,0.7912062,0.5790564,-0.001689491,0.002316284,-0.01388456
0.1877015,0.7906453,0.5787391,-0.005171786,-0.0006885294,-0.01442303
0.1870824,0.7887838,0.5788094,-0.003382356,-0.003193198,-0.01593864
0.1856432,0.7896033,0.5784341,-0.00392277,0.002038575,-0.01745355
0.1846728,0.7899868,0.5766764,-0.004280084,0.01217599,-0.01717697
0.1861594,0.7891947,0.576588,-0.004080518,0.01307511,-0.01641609
0.1885406,0.7897296,0.5772918,-0.004730013,0.009733789,-0.01743696
0.187506,0.7895034,0.5753169,-0.003575134,0.008539761,-0.0155564
0.1864065,0.7882935,0.5745902,-0.003123411,0.005513997,-0.0133954
0.1858797,0.7868675,0.5772071,-0.005044689,0.005620591,-0.01316902
0.1855329,0.784732,0.5783319,-0.006162606,0.007734721,-0.01137416
0.1905509,0.784796,0.5772106,-0.005371931,0.005090917,-0.01123236
0.1935387,0.788019,0.5740567,-0.003837097,0.003671261,-0.01357926
0.1897201,0.791138,0.5683755,-0.002713501,0.005456664,-0.01385667
0.1887956,0.7908111,0.5661464,-0.002555694,0.007236859,-0.01256472
0.1891466,0.7887383,0.5728698,-0.002904668,0.009210529,-0.01357202
0.1874226,0.7887823,0.582267,-0.003080067,0.008371679,-0.01382105
0.1875594,0.7867527,0.5851367,-0.002409447,0.00681075,-0.01259076
0.1874468,0.7836946,0.5833282,-0.001273702,0.006583804,-0.01433096
0.1873739,0.7873696,0.5786645,-0.0003819143,0.004552143,-0.0153924
0.1877903,0.7909396,0.572948,-0.0005283866,0.003643874,-0.01410443
0.1872035,0.7901892,0.574241,-0.002246931,0.005127851,-0.01055272
0.1880026,0.7915091,0.57661,-0.003127486,0.00514259,-0.007097394
0.1893508,0.7904624,0.5738984,-0.002780612,0.002771258,-0.009921466
0.1906017,0.7866741,0.5737959,-0.00340585,0.0006136887,-0.01219039
0.1907529,0.787293,0.5730339,-0.00469852,0.00132207,-0.01296543
0.1896776,0.7880219,0.5701693,-0.005752821,0.003061778,-0.01643194
0.1903454,0.7870723,0.5719253,-0.005247118,0.004046935,-0.01663255
0.189565,0.7876757,0.5754233,-0.001686644,0.00559054,-0.01627145
0.1880276,0.7877376,0.5782253,0.002354447,0.006155514,-0.01465526
0.1880904,0.7882064,0.5760936,0.001706676,0.005145808,-0.01186333
0.1861885,0.7893557,0.5716007,0.0001067453,0.004502629,-0.01434678
0.1848472,0.7888791,0.5747654,0.00229566,0.002733065,-0.01231996
0.1858123,0.7886923,0.5762908,0.001872372,0.0002672256,-0.008453061
0.1871258,0.7890637,0.5746033,0.0004111499,-0.0007564246,-0.01099307
0.1880281,0.7888231,0.5790647,0.0005726958,-0.001154747,-0.01065658
0.1871804,0.7888641,0.5810405,-0.002403398,-0.001232477,-0.01263405
0.1864251,0.788948,0.5769449,-0.003163203,-0.002607564,-0.01641354
0.1868301,0.7888424,0.5737875,-0.003264795,-0.004729594,-0.01154592
0.1893808,0.7889042,0.5754996,-0.006259652,-0.003795904,-0.009503665
0.193013,0.7888997,0.5775969,-0.004957735,-0.0007306053,-0.01692944
0.1915359,0.7883337,0.5748542,-0.00290964,0.001010088,-0.02301264
0.1879762,0.7862226,0.574493,-0.002800855,-0.0001554393,-0.01982684
0.1871531,0.7842604,0.5754285,-0.002688875,-0.00155802,-0.01600262
0.1857488,0.7863555,0.5732526,-0.005162373,-0.001167413,-0.01862797
0.1831696,0.7895783,0.5718182,-0.00656852,-0.003050517,-0.01804722
0.1803184,0.7890574,0.5709065,-0.005195122,-0.007303056,-0.0158512
0.1806515,0.7884569,0.5741568,-0.004195578,-0.00963105,-0.01515603
0.1861293,0.7890645,0.5776112,-0.004267063,-0.00869111,-0.01173462
0.1904376,0.7878611,0.573399,-0.003864332,-0.004776761,-0.01252332
0.1910547,0.7871513,0.5698721,-0.00161567,-0.002927383,-0.01808244
0.1899787,0.7875848,0.5711676,-0.0009555251,-0.004842875,-0.02025818
0.1897616,0.7875152,0.5731301,-0.003336384,-0.004674003,-0.01794832
0.1899475,0.7873302,0.574832,-0.005616656,-0.003050856,-0.01680211
0.1882626,0.7865649,0.5754642,-0.005551328,0.0001226109,-0.01803314
0.1885583,0.7858674,0.5748772,-0.003656325,0.003085211,-0.01824181
0.1878553,0.7860246,0.5747953,-0.00262061,0.0003133539,-0.01884965
0.1830951,0.7864296,0.5747486,-0.002229394,-0.00126095,-0.0180794
0.1819148,0.7873415,0.5719931,-0.001899934,-0.003175857,-0.01664295
0.1864314,0.7894612,0.5690635,-0.001621753,-0.006440923,-0.01563376
0.1915793,0.7910527,0.5697681,-0.001907356,-0.003798602,-0.01296532
0.1911739,0.7900473,0.5733106,-0.005414272,-0.005566731,-0.01519
0.1899167,0.7890325,0.5750567,-0.009253439,-0.008342163,-0.01820389
0.1928804,0.7884337,0.5698441,-0.00976919,-0.005477945,-0.01697156
0.1926868,0.7859525,0.5667027,-0.006432325,-0.0054081,-0.01823024
0.1925523,0.784231,0.5780332,-0.001960335,-0.003842259,-0.01824848
0.1939557,0.7857183,0.5893528,-0.003241924,-0.003574533,-0.01616188
0.191714,0.7885878,0.5829323,-0.004983769,-0.004423117,-0.01593316
0.1890132,0.7894401,0.5731926,-0.002811002,0.0004345919,-0.0155325
0.1841234,0.7886715,0.5715276,-0.004110704,0.001685787,-0.01558864
0.1820642,0.7888887,0.5690997,-0.004796586,-0.003799996,-0.01540073
0.1869585,0.7889571,0.566626,-0.002363367,-0.009497012,-0.01376593
0.1883825,0.7888111,0.5648088,-0.0005431618,-0.008331236,-0.01120961
0.1875716,0.7893252,0.5648321,0.002025019,-0.006781475,-0.009792667
0.1893052,0.7906008,0.569209,0.0003278753,-0.01090945,-0.01183253
0.1907563,0.7922635,0.5697491,-0.003318853,-0.008590143,-0.01218677
0.1904709,0.7906249,0.5691328,-0.003901528,-0.00648684,-0.009908312
0.188834,0.7849527,0.5689457,-0.005979632,-0.00964543,-0.01066819
0.1897158,0.7810343,0.5671251,-0.004964309,-0.007383431,-0.0128006
0.1934773,0.7851225,0.5692342,-0.002453666,-0.002592921,-0.01562458
0.1960576,0.7916617,0.5716858,-0.005785557,0.003365909,-0.0190628
0.1918401,0.7905469,0.5740698,-0.00741577,0.004960079,-0.01908676
0.1843273,0.7883719,0.5737691,-0.005190225,0.001040728,-0.01843767
0.1846396,0.7897743,0.5705786,-0.003054488,0.0002556149,-0.01853325
0.1853272,0.7903047,0.573498,-0.0006456545,-0.00437987,-0.01673356
0.1818633,0.7921827,0.5762565,-0.0002212303,-0.008765834,-0.01277681
0.1826605,0.7919165,0.577939,-0.0006226819,-0.00681916,-0.007701685
0.185966,0.7889535,0.579042,-0.0001356547,-0.007407393,-0.007427677
0.1912945,0.7889094,0.5758215,-0.001076172,-0.00608005,-0.009794597
0.1942465,0.7886919,0.5745407,-0.001855248,-0.003068856,-0.01010441
0.1923155,0.7893953,0.5717069,-0.001822447,-0.003494102,-0.01472003
0.1934231,0.7919226,0.5704611,-0.003524338,-0.003387309,-0.01756417
0.1942505,0.7928625,0.5722527,-0.004273004,-0.004533563,-0.01484369
0.1939824,0.7910223,0.5690839,-0.001897029,-0.005268898,-0.01712338
0.1936473,0.7874254,0.5710287,-0.000917435,-0.003376791,-0.01680572
0.1888985,0.7886141,0.5750566,-0.001193109,-0.002759314,-0.0100695
0.1844664,0.7900284,0.5744158,0.0002477001,-0.004085198,-0.006728163
0.1824373,0.7880764,0.5765579,-0.0002583875,-0.005855848,-0.004949825
0.1829534,0.7897542,0.5783225,-0.001432649,-0.005385603,-0.005512573
0.1842144,0.789262,0.5811023,-0.001670864,-0.005119146,-0.006962235
0.1834624,0.7873072,0.5812166,-0.004669475,-0.007387431,-0.007852782
0.1870794,0.7895197,0.5753562,-0.005923102,-0.008025871,-0.01211487
0.1911454,0.7901038,0.5745941,-0.005284865,-0.005530674,-0.01265344
0.1895222,0.7901226,0.5750216,-0.00534645,0.0002125349,-0.01051369
0.1880945,0.7902495,0.5743903,-0.003156136,0.0055787,-0.007983031
0.1880209,0.7879023,0.5738431,-0.002174911,0.007700312,-0.0037382
0.1873188,0.7852251,0.5713546,-0.0007296678,0.0109926,-0.004549127
0.1863106,0.7841989,0.5741246,0.0006086782,0.01325396,-0.007341071
0.1859937,0.7857334,0.575794,-0.002464562,0.009858108,-0.006726625
0.1863163,0.7866547,0.5719267,-0.002381205,0.004933031,-0.0008849439
0.1869139,0.7859035,0.5689879,0.001035057,0.002528212,0.003992975
0.1879213,0.7864202,0.5689205,0.003354906,0.0017928,0.003942924
0.1875066,0.7883752,0.5737829,0.003097432,0.001029014,0.005884907
0.1872612,0.7911417,0.5762694,7.160852e-05,0.0002051095,0.004541661
0.1877602,0.7922607,0.5765574,-0.002678936,-0.001246215,0.002965085
0.1873353,0.790597,0.5791025,-0.006931465,-0.004571083,0.003946678
0.1875385,0.7897667,0.5774836,-0.006169975,-0.003649352,-0.0007918338
0.1877437,0.7904637,0.5764343,-0.001528684,0.008062748,-0.004269303
0.1882717,0.7901762,0.5751269,-0.003551382,0.01812942,-0.004640625
0.1892882,0.7894028,0.5704916,-0.003762558,0.01333658,-0.005659031
0.1885493,0.7898052,0.5719031,-0.002984676,0.007407435,-0.006582862
0.1865677,0.7913057,0.5735743,-0.003489645,0.01108931,-0.004142094
0.1839103,0.7922157,0.5721805,0.001118665,0.01068525,0.002194416
0.1829028,0.7909966,0.5741498,0.0008415218,0.004689715,0.004821748
0.1854651,0.7887784,0.5740138,-0.001288803,0.002668499,0.005717519
0.1879783,0.786796,0.5728849,0.001059063,0.003487401,0.005492584
0.1887644,0.7861088,0.573781,-9.062744e-06,0.009255265,0.00466379
0.18987,0.78646,0.5713438,0.0001482291,0.01323647,0.005690508
0.1907178,0.7861891,0.5686478,0.001011109,0.01021109,0.002626373
0.1902065,0.7878102,0.5696075,-0.002587536,0.01251026,0.0009912568
0.1897581,0.7896235,0.5725423,-0.00480532,0.0152965,0.00330407
0.1881425,0.7876561,0.5751859,-0.004409617,0.0128117,0.004486585
0.1841842,0.7860771,0.576967,-0.001351427,0.01145843,0.005178768
0.1822805,0.7860504,0.579413,0.002670152,0.009341956,0.005395341
0.1835125,0.7858249,0.5801689,0.003469884,0.007597349,0.006635626
0.1838455,0.7853954,0.5812911,0.005256289,0.004768763,0.006141076
0.1842397,0.7846898,0.5830634,0.006867838,0.001141251,0.005173851
0.187072,0.7865773,0.576474,0.001919317,0.002755275,0.005653379
0.1893303,0.789252,0.5695645,-0.002741977,0.004166363,0.003712878
0.1898714,0.7882358,0.5739446,-0.002201517,0.005032736,0.003170804
0.1904844,0.7841904,0.5779743,-0.002333012,0.008243132,0.003150596
0.1902162,0.7804667,0.5759922,-0.002358656,0.006759116,0.000487125
0.1889939,0.7805696,0.5770043,-0.0005335252,0.004313007,-0.002679423
0.1878534,0.7823222,0.5787078,6.322069e-05,0.006529052,-0.003602985
0.187117,0.7853208,0.5768023,-0.0003131104,0.00685904,1.091039e-05
0.1875204,0.7905597,0.5748759,-0.001839381,0.005092696,0.003465826
0.1877021,0.7897703,0.572221,-0.002811078,0.002100851,0.005626079
0.1872948,0.7860659,0.5712544,-0.001629476,-0.001681158,0.006844303
0.1877623,0.787225,0.5735347,-0.002433196,-0.0004631225,0.005765511
0.18844,0.786033,0.5747357,-0.003126152,0.0007896254,0.004944868
0.1890449,0.7852238,0.5768666,-0.0004911244,0.0005836347,0.002583314
0.1891079,0.7871704,0.577237,0.0009812804,0.003086551,0.001503347
0.1886238,0.786253,0.5757066,0.0005786774,0.003480554,0.003099226
0.188981,0.7895626,0.5773809,3.121906e-05,0.003875397,0.002920404
0.1889884,0.7933739,0.5742357,-0.001027324,0.005637919,0.004950076
0.1890579,0.7906581,0.5698107,-0.002997094,0.005155746,0.007038395
0.190831,0.7877411,0.5738464,-0.004874245,0.004038553,0.003116946
0.1916252,0.7851822,0.5762145,-0.004256074,0.002727094,-0.002070462
0.1887888,0.7848329,0.5756556,-0.004062639,0.003045866,-0.002738074
0.184594,0.7865527,0.5768557,-0.00486418,0.003822074,0.001789886
0.1839477,0.787617,0.5726044,-0.002829234,0.003536033,0.005217423
0.1859923,0.7896828,0.5704199,-0.0008218951,0.005524234,0.001639164
0.1881763,0.7887849,0.5742542,-0.001144909,0.006882079,-0.00127726
0.1911841,0.7867515,0.5720133,-0.002325908,0.005290043,0.003454202
0.1909868,0.7875461,0.5733064,-0.002146194,0.003967321,0.006882992
0.1895825,0.7869425,0.5786951,-0.0009268309,0.00401527,0.00517805
0.1925595,0.7841929,0.5756673,-0.001310373,0.00255911,0.005030357
0.1934552,0.7826582,0.5748121,-0.0009899671,0.0005684311,0.004917734
0.1908929,0.7857067,0.5739799,-0.001706261,0.004972335,0.003369727
0.1898617,0.790133,0.5690265,-0.004477003,0.01071489,0.003185665
0.1900359,0.7915622,0.5681524,-0.004259667,0.008602133,0.002668043
0.1906579,0.79209,0.5677729,-0.003741035,0.004569713,0.0009068398
0.1898197,0.7912013,0.5685374,-0.00361451,0.004561119,-0.001156051
0.1873646,0.7896096,0.5701942,-0.002148996,0.00477853,-0.001191407
0.1828684,0.7887642,0.571835,-0.00219194,0.002806379,0.001896783
0.1795794,0.7880106,0.5734102,-0.002627203,0.001919571,0.002988361
0.1849651,0.7866779,0.572421,-0.002842382,0.002590657,0.002757491
0.1898647,0.7810848,0.5739714,-0.00270938,0.002197195,0.004497585
0.1873354,0.7771979,0.574307,-0.002167794,0.00245205,0.002980515
0.1878141,0.7804447,0.5736756,-0.002661584,0.004844737,0.001004461
0.1908195,0.7841411,0.575734,-0.00297585,0.007083018,0.001728175
0.1903837,0.7868935,0.5739925,-0.003810319,0.006797952,-0.0001134254
0.1896451,0.7869316,0.5740247,-0.004571221,0.006520633,-0.00160565
0.188727,0.78525,0.579371,-0.003492849,0.00799547,-0.002047981
0.1868514,0.7872107,0.5826897,-0.002393742,0.005736161,-0.00161052
0.1872478,0.7873775,0.5790847,-0.001286115,0.00113859,-0.000795785
0.1882214,0.7860382,0.5745627,0.0006472737,-0.001034521,-0.003401253
0.1880524,0.7870578,0.5808334,0.001877904,-0.002652462,-0.003522873
0.1891577,0.7861151,0.590582,-0.0009050112,-0.003342502,-0.003900277
0.1892354,0.7855425,0.593163,-0.004445532,-0.005221166,-0.005583095
0.1885763,0.7866173,0.5868329,-0.001547021,-0.008155716,-0.003557289
0.1900609,0.7859551,0.5781818,0.00129474,-0.007270217,-0.003340165
0.1905773,0.7859581,0.5799199,-0.001172259,-0.006792552,-0.002267866
0.1901537,0.7863846,0.5781526,-0.002631929,-0.007190735,-0.003131114
0.1903369,0.7858945,0.5673874,-0.003734668,-0.005399827,-0.006803574
0.1900321,0.7863619,0.567162,-0.004951969,-0.006002594,-0.005624702
0.1894458,0.7870688,0.5708084,-0.003862388,-0.007700368,-0.005071939
0.1893168,0.7872812,0.5734763,-0.003589433,-0.008674591,-0.002420753
0.1923022,0.7859481,0.5785268,-0.003631655,-0.01026046,-0.0001925447
0.1956624,0.7840797,0.5773933,-0.003384608,-0.008934503,-0.008873345
0.1930678,0.7854964,0.5770004,-0.003139604,-0.007373692,-0.0164
0.1883855,0.7869053,0.5788249,-0.001676036,-0.008389472,-0.01138621
0.1868422,0.7858145,0.5771652,-0.001319541,-0.007302717,-0.005718431
0.1872773,0.786343,0.5778012,-0.0009531111,-0.004138292,-0.009023947
0.1878857,0.7881757,0.5776017,-0.0002900574,-0.002313505,-0.009198785
0.1874233,0.7892148,0.5746561,-0.0007726313,-0.005304459,-0.006035827
0.1872679,0.7891783,0.5730999,0.0006578552,-0.01024069,-0.005409904
0.1885175,0.7879896,0.5735527,0.001678318,-0.009343109,-0.000932227
0.1909149,0.7863006,0.5759405,-0.0001145698,-0.007914438,-0.001712174
0.1940868,0.7840927,0.5767927,-0.00181851,-0.008979669,-0.004877798
0.1936942,0.7842906,0.5763206,-0.002888186,-0.005567545,-0.001524655
0.1916366,0.786621,0.5760579,-0.002511771,-0.002187362,-0.001684349
0.1918116,0.7869444,0.5744869,-0.0009179988,-0.002668772,-0.002040103
0.1899102,0.7874466,0.5732058,-0.0004281342,-0.002715829,-0.004422435
0.18911,0.7870502,0.5729877,-0.0003513712,-0.002919333,-0.01010772
0.1894931,0.7852663,0.5721589,0.0006212654,-0.003795101,-0.007183826
0.186471,0.7866677,0.5702578,0.001989311,-0.004665533,-0.00451601
0.187108,0.7881907,0.5705376,0.002430325,-0.006644752,-0.00606644
0.188853,0.788793,0.5724734,0.001969996,-0.008412756,-0.00436493
0.1888392,0.7885798,0.5715681,0.00213326,-0.008138914,-0.002744312
0.1928602,0.7866627,0.5695222,0.001620702,-0.009021587,-0.002270581
0.1938951,0.7873443,0.5674861,-0.0001749813,-0.01176205,-0.004122048
0.1912776,0.7869353,0.5671807,-0.001621412,-0.01067925,-0.005957226
0.1907504,0.7841881,0.5679113,-0.002773506,-0.007628064,-0.004663267
0.1899531,0.783786,0.565289,-0.002098033,-0.006733648,-0.005683465
0.1900133,0.783869,0.5662236,8.433074e-05,-0.006212237,-0.006261516
0.1896921,0.7866679,0.5717979,0.001010972,-0.006264005,-0.005725325
0.1883181,0.7900053,0.5757836,0.0004520081,-0.004536179,-0.008270012
0.1891167,0.7872554,0.5782666,-0.001006854,-0.001146205,-0.007517886
0.1899969,0.7855121,0.5765894,-0.0008919896,-0.002352721,-0.004636005
0.1901515,0.789994,0.5738907,-1.353672e-05,-0.004643256,-0.004132852
0.1896029,0.7931441,0.5731198,-0.0004213614,-0.004521654,-0.003013846
0.1882246,0.7912442,0.5714546,0.001318991,-0.007317964,-0.001263365
0.1879426,0.789278,0.5706945,0.004821002,-0.007894354,0.002174551
0.1875281,0.7888478,0.5700027,0.006451388,-0.00347718,0.00495034
0.1873239,0.788562,0.5693619,0.003774367,-0.003287072,0.004330604
0.1892022,0.7887517,0.5714473,-0.0008026444,-0.002047235,0.002145774
0.1918291,0.7871822,0.5758663,-0.0003755649,0.00301762,-0.001327382
0.193079,0.7852924,0.5771673,0.001000704,0.002679395,-0.002800438
0.1896435,0.7865131,0.5755045,-0.0004071532,0.002654694,-0.003533535
0.1846849,0.7882152,0.577939,0.0006359331,0.006813029,-0.004504408
0.184317,0.789145,0.57673,0.00176238,0.008233267,-0.004022274
0.1826253,0.7897477,0.5738712,0.001802226,0.005010438,-0.004247028
0.1799213,0.7911956,0.5769896,0.002171002,0.001391548,9.738761e-05
0.1850212,0.7934405,0.5752854,0.0004103274,0.002043884,0.004802965
0.1896468,0.7908644,0.5746087,-0.0003727345,0.001688031,0.002811384
0.1873024,0.7871798,0.5773509,0.0001385844,-0.001609817,0.002578245
0.1876306,0.7878192,0.5751298,-0.001101467,-0.001141056,0.003339538
0.1926411,0.783348,0.5721389,-0.00161885,0.003708377,0.001399678
0.1954603,0.7777475,0.5680138,-0.0005456426,0.008965364,0.0002747267
0.1934919,0.7850155,0.5684918,-0.0003375494,0.007480039,0.001215168
0.1903023,0.7923666,0.5701455,-0.001204872,0.003091803,0.003239282
0.1901043,0.7882012,0.5669645,-0.00102492,0.004116521,0.003140892
0.1913628,0.785715,0.570721,-9.486264e-05,0.004303905,0.001818202
0.1916666,0.7869117,0.5756556,0.001599647,0.005082212,0.002394254
0.1907536,0.7856207,0.5765755,0.004424442,0.006811655,0.00588441
0.1889042,0.7870276,0.5762156,0.005847216,0.003499416,0.008378925
0.1885468,0.7884975,0.5747143,0.00580103,0.003007117,0.005509485
0.1891377,0.7878115,0.5797264,0.005017149,0.003587106,0.003065843
0.1889585,0.7893759,0.583819,0.003858463,0.001802965,0.004089375
0.1897845,0.7887586,0.5816963,0.001674444,0.003436592,0.003579266
0.191332,0.7860293,0.5815144,-0.001800001,0.003164586,0.0007133191
0.1940336,0.7833609,0.581703,-0.002744918,0.002129006,6.14586e-05
0.1977101,0.7806903,0.5793101,-0.001589997,0.003835137,0.003483249
0.1974262,0.782526,0.5760449,-0.0003086652,0.004194645,0.006287595
0.1935084,0.7854517,0.5739952,0.0008873047,0.005627134,0.004696212
0.1902266,0.7871527,0.5722029,0.0006843187,0.006301301,0.001818312
0.1879154,0.7878842,0.5735659,0.0008729628,0.004833575,0.003073714
0.1869861,0.7843568,0.5788337,0.002224253,0.005268494,0.008564296
0.1879562,0.782513,0.5789262,0.003247588,0.004598459,0.01352649
0.1894221,0.7844426,0.5786351,0.003152875,0.001915564,0.01162813
0.1910207,0.785111,0.5822551,0.003128905,-4.940927e-05,0.006771341
0.1923674,0.7854671,0.5809911,0.003923181,-0.0004834021,0.007973884
0.1928145,0.7882302,0.5792124,0.002349693,0.0008135293,0.007275808
0.1914768,0.7924188,0.5803514,-0.0002477607,0.00243931,0.00372291
0.1885537,0.7920729,0.5787802,-4.186955e-05,0.004353977,0.004262372
0.1885079,0.7885688,0.5776768,0.001361761,0.003276221,0.001612256
0.1904108,0.7864743,0.5787113,0.001625001,0.0008172574,-0.002991564
0.1902368,0.7827979,0.5800828,0.001732814,0.004952152,-0.003848028
0.1903286,0.7808828,0.5822458,0.003259248,0.008164742,0.001563005
0.190181,0.7829947,0.5793719,0.003904123,0.005777833,0.009497072
0.1891584,0.785619,0.5732389,0.00324695,0.005097717,0.008219574
0.1886925,0.7884073,0.573929,0.002505151,0.004438684,0.005416689
0.1877387,0.7880442,0.5785231,0.0004270197,0.003018499,0.005178411
0.1874158,0.7866157,0.5812846,-0.001093971,0.001746371,0.001582039
0.1881656,0.7877653,0.5795042,-0.00107806,9.898617e-05,0.003299467
0.1910264,0.7867323,0.576067,0.0005698082,0.001229396,0.006805308
0.1939706,0.7848748,0.5780795,0.002247926,0.00347572,0.004459155
0.1914964,0.7833647,0.578177,2.712975e-05,0.004506814,0.002301341
0.1889892,0.7793827,0.5749836,-0.001773636,0.003828818,0.001951608
0.1909029,0.7788237,0.5754577,-0.001380763,0.002264573,0.003838042
0.1924572,0.7836997,0.5766833,-0.001596354,0.002762411,0.00576836
0.1931371,0.7875901,0.5792411,-0.0002136421,0.002961613,0.002668594
0.1931097,0.788171,0.5796581,0.001232271,0.002075406,0.001093456
0.1909518,0.7864805,0.5763493,0.0007872686,0.00142114,0.007276687
0.1896943,0.7837633,0.5753674,0.0001895427,-0.0008568663,0.01218668
0.190353,0.7812052,0.5742403,-0.0002946678,-0.00313131,0.008468757
0.190399,0.7812587,0.5729275,-0.001326541,-0.005112832,0.004468169
0.1901895,0.7833496,0.5712823,-0.001756861,-0.005052874,0.004480222
0.1902948,0.7843672,0.5705183,-0.0007534325,0.0002717696,0.002265041
0.1897456,0.7860027,0.5757279,-0.0003776076,0.002106134,0.001911108
0.1876183,0.7843956,0.5811023,-0.001216592,-0.00193461,0.004230186
0.1854273,0.7803904,0.5820763,-0.00397235,-0.002775779,0.001670392
0.1867211,0.7837923,0.5776594,-0.004485599,-0.002019604,-1.885522e-05
0.1887526,0.7863005,0.5728238,-0.0007349254,-0.002455984,0.0003993949
0.1890442,0.7840147,0.5740401,-0.001358025,-0.002331877,0.001181422
0.1905582,0.7857538,0.5705904,-0.002420549,-0.003775766,0.004525003
0.1908823,0.7863294,0.5653633,-0.0007049009,-0.007574692,0.001119896
0.1892674,0.7839959,0.5728401,-0.0008832656,-0.01038675,-0.004389337
0.1886979,0.7833013,0.5805649,0.00226967,-0.007545991,-0.001710986
0.1872014,0.7848108,0.5778164,0.003637719,-0.003611311,0.00250086
0.1872089,0.7871324,0.5777719,0.0005499493,-0.004971277,0.003368151
0.1900379,0.7861231,0.585069,-0.0002272523,-0.005013327,-0.0001162775
0.1905352,0.7849928,0.5882764,-0.001580171,-0.003763148,-0.002273958
0.190252,0.7840136,0.5833522,-0.002134245,-0.005481846,-0.002591794
0.1900125,0.7813877,0.5783967,-0.001982828,-0.004448492,-0.004904643
0.1880677,0.7847753,0.5798959,-0.002831528,-0.002859183,-0.001098514
0.186326,0.7904985,0.5805671,-0.002560603,-0.004673685,0.002885744
0.1858659,0.7897486,0.5782815,-0.003146764,-0.007264111,-0.000876725
0.1886402,0.7846773,0.5827815,-0.002495872,-0.01023362,-0.004387021
0.1923767,0.7803047,0.5848566,-0.001025142,-0.009666271,-0.006245307
0.1936209,0.7816925,0.579477,-0.0005705274,-0.005531837,-0.007836132
0.1933265,0.785012,0.5767982,0.0005664147,-0.003976583,-0.009540995
0.1925433,0.7847552,0.5737586,0.0007944418,-0.004657672,-0.0116685
0.1929088,0.7859983,0.5724465,-0.0001757149,-0.006438689,-0.01105789
0.191487,0.7884474,0.5733394,-0.001468027,-0.008864232,-0.008113584
0.1889231,0.7885494,0.5731266,-7.699153e-05,-0.008216465,-0.006595856
0.1886773,0.7865748,0.5768984,0.002649293,-0.005771342,-0.005932642
0.1875778,0.7836999,0.5770575,0.002174022,-0.00501977,-0.001833667
0.1887319,0.7853118,0.5741755,0.001823468,-0.005466587,0.002136031
0.1914746,0.7873538,0.5746172,0.001483685,-0.008052209,0.0005472443
0.1901848,0.7859834,0.574114,2.578449e-05,-0.009983029,-0.0003734588
0.1897831,0.7887702,0.5787539,-0.0005593338,-0.007928486,0.001667829
0.190767,0.7909917,0.5840681,-0.001136693,-0.00746161,-0.0003552362
0.1899,0.7872335,0.5801425,-0.0008126984,-0.008148825,-0.00221637
0.1891259,0.7841206,0.5749156,-0.0006472715,-0.006038686,-0.001005356
0.1879275,0.7847013,0.5733283,-0.001079572,-0.00397464,-0.003842439
0.1869485,0.7871995,0.575895,-0.0003068598,-0.002215909,-0.005471789
0.1876575,0.7887359,0.5787077,0.0004606599,-0.001088458,-0.003345928
0.1878401,0.789213,0.5748045,0.00049809,-0.002006343,-0.002904087
0.1881389,0.7891139,0.5702077,-0.0006485462,-0.005520431,-0.002565044
0.1893333,0.7896322,0.5711477,-0.0007915112,-0.009460284,-0.003228478
0.1891509,0.7917716,0.5739905,0.0005190688,-0.007599699,-0.00463805
0.189477,0.7912154,0.576672,0.00064771,-0.004684401,-0.006211142
0.1911528,0.7878576,0.5779995,0.001337391,-0.006673599,-0.007210799
0.1920985,0.7853807,0.5769699,0.001143275,-0.007804277,-0.005121636
0.1929614,0.7864337,0.5752423,0.0002870564,-0.00652012,-0.003600004
0.1917222,0.7883337,0.5731122,0.001132877,-0.002385802,-0.004772628
0.1887053,0.7854116,0.5738454,-6.012418e-05,0.001924388,-0.00782022
0.1875237,0.7837126,0.5771112,-0.001748272,-0.00312588,-0.006354492
0.1859125,0.7854001,0.578243,-0.001021759,-0.009413145,-0.00297658
0.1854336,0.7857006,0.5784027,0.001567469,-0.00691127,-0.007497877
0.1877857,0.7873568,0.5741773,0.002831814,-0.006285837,-0.007304763
0.1876536,0.7889388,0.5692938,0.0005583956,-0.008867598,-0.001590059
0.1867928,0.788883,0.5704402,-0.000198223,-0.008325373,-0.0001425063
0.186126,0.7890459,0.5706857,-0.002375482,-0.008946083,0.003106238
0.1856616,0.7887229,0.5724244,-0.003892755,-0.007209968,0.002940347
0.1935023,0.7887619,0.5742148,-0.0001837123,-0.0008162579,-0.001437149
0.2015769,0.7880787,0.5743071,-0.001123837,0.001741686,-0.004128546
0.1968478,0.7867115,0.5791794,-0.001448385,0.001653794,-0.00380088
0.1905431,0.785759,0.5768215,0.0005847615,0.004258477,-0.000245993
0.1899763,0.7844792,0.5725479,-0.001515447,0.007970699,-0.001969648
0.1857897,0.7858287,0.5768311,-0.0005580409,0.007295735,-0.0009193072
0.1813777,0.7896945,0.577476,-0.0008773585,0.002242633,0.004961709
0.1834792,0.7919008,0.578347,-0.001752688,0.001325902,0.004754895
0.1842427,0.7917807,0.5785852,0.0007790866,0.003144571,0.00612694
0.1842415,0.7902224,0.5752633,0.0008567016,0.002674706,0.006564355
0.1888646,0.7880053,0.5760298,0.003870234,0.003040654,0.005479102
0.191188,0.7861074,0.5747616,0.006576776,0.00367952,0.006795125
0.188471,0.7857052,0.5746806,0.003622971,0.004156132,0.003420259
0.1869924,0.786345,0.5779519,0.000130926,0.005479037,0.00214346
0.1902835,0.7861382,0.5785117,-0.002201008,0.006417543,0.002252103
0.192797,0.7854064,0.5796264,-0.001609072,0.006738725,-0.001532997
0.1905737,0.7835957,0.5775901,-0.0007345468,0.005792225,-0.0009420944
0.189241,0.7815914,0.5737144,-0.0001708522,0.005236979,0.001260778
0.188816,0.7842663,0.5731526,0.001410275,0.005362804,0.000961091
0.1873274,0.7876562,0.5727296,0.002079722,0.003602311,0.003828465
0.1889324,0.7865538,0.5708832,0.00253658,0.002268013,0.007906608
0.1911602,0.7881035,0.5682896,0.001339062,0.00314498,0.008134851
0.1893871,0.7915766,0.5706083,-0.001135667,0.002580615,0.006019496
0.1880626,0.7894699,0.5739347,-0.003622595,0.0006446818,0.002331644
0.1894542,0.7876398,0.5735422,-0.003759054,0.001764694,9.988416e-05
0.1902101,0.7883754,0.5758809,-0.001886581,0.005121418,0.0005243148
0.1920376,0.7863626,0.5768744,-0.003181754,0.007130116,0.00041763
0.1940045,0.785394,0.5763108,-0.002209477,0.00657063,0.001878213
0.1923697,0.7867384,0.5774127,0.001286241,0.005555738,0.002960306
0.1895135,0.7869281,0.576954,0.002802626,0.006367519,0.003072501
0.1857707,0.7874346,0.5773819,0.004974348,0.006035637,0.005215978
0.1833779,0.7869363,0.5777546,0.004061876,0.005383478,0.007575305
0.1853853,0.7852883,0.5780615,0.003172225,0.006287703,0.01030801
0.1873018,0.7852689,0.5792159,0.005525899,0.005532793,0.009837897
0.1892603,0.7852754,0.5807784,0.005726321,0.004259648,0.005639681
0.1913551,0.7869834,0.5828448,0.005993016,0.002324556,0.002219738
0.1900948,0.7900701,0.58091,0.004119533,-0.0006057709,0.001219174
0.1898307,0.7887751,0.5790499,-0.003655538,-0.001998142,0.00505105
0.1911919,0.7863038,0.5775596,-0.009420592,-0.00177633,0.006508706
0.1917496,0.7861359,0.5734543,-0.003643635,0.003930174,0.0004244673
0.1932266,0.7858278,0.5737115,0.005419863,0.01083079,-0.004925543
0.1913732,0.7862249,0.5739539,0.00398833,0.008568935,-0.004193843
0.1872291,0.7861226,0.5710676,0.004195179,0.004526267,-0.0003903601
0.1867933,0.7850565,0.5705914,0.007727729,0.004078437,0.001041149
0.1859569,0.7857825,0.5709574,0.003079989,-0.001105854,0.001601358
0.1842303,0.7873019,0.5717826,0.002245591,-0.005554796,0.002227393
0.1856715,0.7888213,0.5725835,0.004074455,0.0001312866,0.003039329
0.1876143,0.7892143,0.5723293,0.002389989,0.005212414,0.006730547
0.1877144,0.7886311,0.5732332,0.003760895,0.002865304,0.007122244
0.1876975,0.7886717,0.5748402,0.003445928,0.003351799,0.004121542
0.1896883,0.7870878,0.5764236,0.00241536,0.006264769,0.003223009
0.1926539,0.7854678,0.5802628,0.0002155263,0.003564083,0.003844152
0.193548,0.7862411,0.5837902,-0.004728147,0.001815715,0.005250013
0.19187,0.7876127,0.5787715,-0.003428356,0.005006121,0.003707798
0.1898794,0.7894544,0.5727359,-0.0005886687,0.00673654,0.001569561
0.1882215,0.7908457,0.5787226,-0.0009700505,0.005973537,0.001764541
0.1860589,0.7902511,0.5841064,0.0002693589,0.003197154,0.001437299
0.1856306,0.7888198,0.5810678,0.001921768,0.001166333,0.002412507
0.1866568,0.7879166,0.5803918,0.001017347,0.001799995,0.004429905
0.1869038,0.7872266,0.5793579,-0.0009704768,-0.0003305615,0.007161509
0.1883881,0.7873262,0.5770652,-0.001202088,-0.003324453,0.008192766
0.1913524,0.787851,0.5777518,-0.001662976,-0.002305354,0.006244553
0.1934359,0.7870964,0.5754169,-0.003509644,0.001066345,0.006145073
0.1918694,0.7865796,0.573443,-0.005004349,0.003282385,0.003763654
0.1893052,0.7860638,0.5739703,-0.003769924,0.004057986,0.0006563274
0.192086,0.7857275,0.5716225,-0.00068261,0.007328845,0.001981133
0.1943584,0.7859713,0.5719713,-0.0002429063,0.009057566,0.001370239
0.1919714,0.783302,0.5761429,0.001581027,0.008754133,0.0009195595
0.1902737,0.7809645,0.5813104,0.004074277,0.01182514,0.00289257
0.1884559,0.7822903,0.5860698,0.0009229865,0.01048091,0.003255378
0.1880161,0.7840779,0.5817096,-0.002910156,0.005323672,0.003248439
0.1888335,0.7852625,0.5747766,-0.003697929,0.00496799,0.00234503
0.1872487,0.7857611,0.5745489,-0.002532937,0.003853419,0.002962153
0.1889471,0.7863159,0.5722913,-0.001028119,0.00103044,0.004752578
0.1919036,0.7872177,0.5725517,-0.0009666496,0.002590873,0.003328316
0.1917198,0.7876011,0.5775669,-0.002204986,0.002795823,0.001957046
0.1933301,0.7874523,0.5773937,-0.003110644,-0.0007035746,-0.0001865096
0.1936986,0.7864783,0.578879,-0.002782942,-0.00178816,-0.0007133952
0.1919747,0.7862022,0.5797753,-0.004588393,-0.004393444,0.001314963
0.1912235,0.7882419,0.5761382,-0.005842751,-0.005168185,-0.0008235718
0.1880806,0.7911344,0.5785895,-0.004453897,-0.001665563,-0.000962892
0.1867383,0.7915022,0.5812312,-0.004397237,-0.002861431,-0.0003758282
0.1898188,0.7894013,0.5820373,-0.00273673,-0.002421969,-0.002615454
0.190529,0.7877037,0.5848234,-0.001364721,-0.003496551,-0.002309536
0.1883667,0.7847376,0.5844551,-0.001307642,-0.008045795,-0.003912141
0.1868619,0.7823848,0.583666,0.0009216073,-0.00521434,-0.004212072
0.1873307,0.7853827,0.5783995,3.074982e-06,-0.004852149,-0.003444995
0.1879823,0.788159,0.5706295,-0.001522591,-0.005818779,-0.006107228
0.1873677,0.7868533,0.5728402,-0.0003726858,-0.003725534,-0.00512501
0.1885444,0.7847327,0.5794242,-0.001620774,-0.003664516,-0.003496657
0.1906784,0.7826691,0.5828318,-0.002678385,-1.660788e-05,-0.002455255
0.1921397,0.7828586,0.5800409,-0.002170108,0.001063125,-0.001718287
0.1929642,0.7844231,0.5756526,-0.003018873,-0.0008562672,-0.004759618
0.1895992,0.7845968,0.5780745,-0.004298672,-0.0001228794,-0.004541076
0.185982,0.7856056,0.5783193,-0.003971924,-0.001713519,-0.002472082
0.1877625,0.7847364,0.574586,-0.002026123,-0.002939554,-0.003051863
0.190033,0.7820149,0.573217,-0.0003646937,-0.003344975,-0.003921768
0.1902972,0.7819816,0.5726006,0.002077513,-0.004703094,-0.006103269
0.1901623,0.7823344,0.5773351,0.003959825,-0.006359009,-0.006622939
0.1883835,0.7848746,0.5825437,0.0002088156,-0.009997509,-0.004252308
0.186815,0.789096,0.5788264,-0.003869105,-0.01289897,-0.003102008
0.1875327,0.7893402,0.5766806,-0.001626189,-0.01031612,-0.004225352
0.1882865,0.7881471,0.5812742,0.0007600043,-0.006069355,-0.007424334
0.1899641,0.7861994,0.5838981,-0.0001282509,-0.008763612,-0.009593864
0.1927373,0.7835564,0.5835694,-0.001823569,-0.01063282,-0.006489311
0.1929165,0.7827103,0.5837246,-0.00491667,-0.006867528,-0.001144781
0.1922731,0.781863,0.5832572,-0.005970226,-0.006217056,-0.000235525
0.1915653,0.7819024,0.581185,-0.00516165,-0.003960972,-0.003245909
0.1883696,0.7840163,0.5789685,-0.005016164,-0.0006467536,-0.006088801
0.1863707,0.7852961,0.5755914,-0.001728161,-0.002070869,-0.007899173
0.1865911,0.7849071,0.5721548,-0.0003993921,-0.001932409,-0.00715435
0.1874543,0.7853709,0.5744385,-0.00240244,-4.038565e-05,-0.004071741
0.1898455,0.786574,0.5799646,-0.00109822,0.000959199,-0.002331247
0.1901681,0.7863522,0.5819423,0.0003783784,-0.0002786132,-0.004407886
0.1897178,0.7867338,0.5782159,0.001936494,-0.005375226,-0.007362189
0.1909667,0.787971,0.5729902,0.003053958,-0.009903264,-0.006432544
0.1896599,0.7877519,0.5753955,0.001416237,-0.01015991,-0.005936448
0.188221,0.7882812,0.5783499,0.0008576841,-0.009745778,-0.006635283
0.1875077,0.7902618,0.5753965,-0.001097963,-0.01212963,-0.002694578
0.1875048,0.7904635,0.577254,-0.004420442,-0.01272985,-0.001094639
0.1922298,0.7891582,0.5788893,-0.004221626,-0.01105318,-0.007581313
0.1967492,0.7886641,0.576881,-0.002691119,-0.008205012,-0.01329425
0.1967934,0.7886582,0.5780414,-0.003252873,-0.002829608,-0.01060722
0.1908842,0.7881193,0.5767261,-0.003526262,-0.001317726,-0.006735844
0.1836817,0.7871963,0.5748645,-0.001566535,-0.002958227,-0.009351819
0.1838752,0.7873108,0.5751192,-0.0008935917,-0.006870146,-0.0105043
0.1845632,0.7878329,0.5746671,-0.0002477904,-0.01400701,-0.008591339
0.1849448,0.7871351,0.5763981,0.0006042961,-0.01327555,-0.006190668
0.1888902,0.7865656,0.5802541,0.0005748159,-0.00966367,-0.0008090143
0.1884728,0.7862074,0.5840871,0.00224601,-0.01003548,0.001786398
0.1890376,0.786691,0.5807463,0.001497582,-0.006106715,0.003198567
0.1933127,0.7873857,0.5759777,8.073813e-05,-0.005141672,0.004223179
0.1916726,0.783937,0.5826459,-0.001514255,-0.007779071,-0.0003030659
0.1897498,0.7808584,0.5862649,-0.005606044,-0.005143148,-0.002711665
0.1908707,0.7836582,0.5791569,-0.003508447,-0.004275011,-0.002758402
0.1895498,0.7857549,0.5742897,9.774719e-05,-0.004020468,-0.00725203
0.1884226,0.7835895,0.5744589,0.0003211724,-0.002661323,-0.01132604
0.1870036,0.7833629,0.5760669,0.002158078,-0.004680789,-0.006658923
0.1850324,0.7876416,0.5775989,0.002154672,-0.005076462,0.0007011273
0.1852308,0.7914087,0.5798658,0.00185123,-0.005978405,-0.0004887734
0.1860956,0.7909952,0.5807877,0.001320711,-0.006871922,0.0003434811
0.1881419,0.7895781,0.5797519,-0.0006255679,-0.00504021,0.005059865
0.1880636,0.7909464,0.5793957,-0.0005476513,-0.005382858,0.002497324
0.1867212,0.7906684,0.5754125,-0.002492687,-0.0004072483,0.00191386
0.1891697,0.7871103,0.5715432,-0.004433576,0.01009424,0.004185152
0.1900876,0.7853632,0.5721785,-0.002909733,0.01365409,0.004731278
0.1905073,0.7834654,0.570701,-0.001160525,0.009054342,0.008360582
0.1925936,0.7826891,0.5699329,0.001272054,0.005360094,0.009195731
0.1928824,0.7854724,0.5713626,0.001983619,0.009733494,0.007933682
0.192069,0.7874289,0.5728358,0.0007509133,0.01189359,0.008505503
0.1884574,0.7895864,0.5776211,0.0008006627,0.007030486,0.005827844
0.1863691,0.7891411,0.5789307,0.0004101031,0.005167077,0.003644834
0.1880838,0.7860871,0.5749911,0.0001465634,0.005441242,0.006093049
0.1885924,0.7858376,0.5748784,0.000914763,0.005251068,0.008724345
0.190107,0.7841308,0.577105,0.001353132,0.003255102,0.00797503
0.191494,0.7828854,0.5783017,0.001549198,0.0004454212,0.004892487
0.1899267,0.7844292,0.5795564,0.000711568,0.0013408,0.003229329
0.1856855,0.7847149,0.5816518,-6.09827e-05,0.001444378,0.005634633
0.1830851,0.7840653,0.5833343,0.0001859466,0.001487404,0.007322704
0.1902654,0.7831255,0.5779583,-0.0002975462,0.006470464,-9.997233e-05
0.1972449,0.7850544,0.5706559,0.0009945988,0.01285399,-0.006888515
0.19263,0.7871216,0.5720555,0.003845881,0.01469792,-0.0006898496
0.1882996,0.7858262,0.5749734,0.004423779,0.01063885,0.004900232
0.1891661,0.786151,0.5749394,0.004017002,0.008133157,0.003335041
0.1866301,0.7872304,0.5749645,0.001827565,0.008902059,0.005919226
0.1839313,0.7877846,0.573004,0.0003921124,0.006825608,0.009180813
0.1841045,0.7884211,0.5716037,0.002254771,0.002628948,0.0087696
0.1859259,0.7879954,0.5728132,0.001400046,-0.0008847637,0.009544378
0.1922879,0.787127,0.5748608,0.001190324,-0.001350142,0.00840121
0.1948035,0.7850619,0.5762532,0.002924485,0.002362961,0.006868283
0.1920943,0.7825637,0.5748182,0.001288672,0.007242152,0.007563358
0.1932104,0.7818258,0.572918,0.0004361722,0.009639538,0.00432448
0.1931741,0.784545,0.5711531,-0.00056987,0.007226339,0.001249285
0.1917177,0.7874058,0.5700873,-0.001119298,0.005129961,0.00254685
0.1912608,0.7860368,0.5770859,0.001850206,0.008441511,0.002857547
0.1886228,0.785557,0.5852511,0.002889855,0.00955183,0.002024829
0.1869625,0.7871825,0.5815001,0.004202776,0.004283354,0.004031545
0.1871736,0.7885673,0.5751883,0.006024775,0.0006935641,0.008388815
0.1878756,0.7908422,0.5732141,0.004733042,0.003087465,0.008384033
0.1878999,0.7899262,0.5713868,0.003256247,0.004812126,0.00563739
0.1888809,0.7872473,0.5740525,0.0009477341,0.0004541625,0.006203171
0.1912788,0.7865175,0.5764091,-0.0005534126,-0.002443234,0.006315507
0.1904456,0.7844208,0.5742285,0.0001365868,0.0006864045,0.005608883
0.19083,0.7847618,0.575256,-0.0004725565,0.004559967,0.003425908
0.1933785,0.7873734,0.5762648,-0.001362495,0.008577248,-0.001079275
0.1925935,0.785852,0.5761319,-0.0006930185,0.009687749,-8.373778e-05
0.1903005,0.7859452,0.5771207,0.0009241954,0.004927245,0.004678841
0.1881327,0.7886338,0.5768575,0.001945994,0.001703547,0.006069414
0.1884743,0.7889442,0.5781061,0.002743752,0.00344847,0.004608529
0.1901768,0.7889903,0.5781709,0.004258488,0.005389201,0.002734898
0.1911379,0.7876834,0.5771351,0.00474961,0.004557284,0.003947059
0.1934641,0.7861193,0.5784232,0.003640681,0.002833383,0.006083948
0.1919457,0.7861558,0.5785594,0.0013575,0.002048329,0.005030839
0.188903,0.7858456,0.5794186,-0.0005247816,0.001377524,0.00338926
0.1916569,0.7863334,0.5805136,-0.000423888,0.0002014586,0.001602744
0.1937406,0.7859518,0.5795895,-0.0007823363,-0.0002541826,-0.0003272458
0.1944957,0.7849623,0.5773611,-0.002705461,0.002006473,-0.0002879898
0.1965402,0.7849703,0.5735746,-0.002306591,0.004021786,0.001589798
0.1950209,0.7852552,0.5735162,0.0001948946,0.00241359,0.002855811
0.193628,0.78665,0.5750535,-0.000155142,0.0009914353,0.000616529
0.1939342,0.7862546,0.5754504,-0.00173656,0.00185299,-0.00156863
0.1899916,0.7854315,0.578789,-0.0003826766,0.001570971,-0.001952278
0.1859462,0.7856831,0.5783426,0.001530008,-0.0004103459,-0.003455072
0.1871535,0.7844233,0.5756054,0.0005943008,-0.002322289,-0.00286177
0.3094608,0.7912324,0.5213875,0.2451001,0.04670488,0.3055649
0.321645,0.7956504,0.5277951,0.2402055,0.08833003,0.3135344
0.3219052,0.7935892,0.5239432,0.2355276,0.09773735,0.3073488
0.3080994,0.7901415,0.5187384,0.2231849,0.07860725,0.2987888
0.296697,0.7874747,0.5151675,0.2119529,0.05657321,0.3086731
0.3003257,0.7850973,0.5082819,0.1980604,0.04832102,0.3188236
0.3035334,0.7839731,0.5170623,0.1896541,0.05095957,0.3234778
0.2994011,0.7783865,0.5292871,0.1914452,0.03221337,0.3235876
0.3091744,0.7703496,0.5319967,0.1928902,0.01619083,0.3131138
0.3189508,0.7689867,0.5274105,0.2078102,0.03918258,0.3044698
0.3135331,0.7707758,0.5215854,0.2167999,0.06310036,0.2938018
0.3071348,0.7733712,0.5390677,0.2129559,0.05304851,0.2886041
0.3036575,0.7721585,0.5543377,0.2145481,0.03193112,0.2975878
0.308171,0.7692575,0.5381216,0.2148509,0.02593003,0.2983982
0.3167561,0.7700369,0.5266478,0.2173276,0.03304336,0.2955419
0.316937,0.7687502,0.5328005,0.2125558,0.0441856,0.2929063
0.3158848,0.7690301,0.5338153,0.2053588,0.03870892,0.2850716
0.3173826,0.7673562,0.5310847,0.2132408,0.03129891,0.2799668
0.3164232,0.7647619,0.5339505,0.2175527,0.04885518,0.2748928
0.3164257,0.7720028,0.5332462,0.2150441,0.05623346,0.2751501
0.3166007,0.7768894,0.5293717,0.213558,0.0515934,0.2758917
0.3132371,0.7732013,0.5283907,0.2137354,0.05168596,0.2702026
0.3100229,0.7698397,0.523685,0.2152403,0.04586882,0.2677051
0.3090084,0.7709087,0.5242834,0.2126211,0.04370094,0.2644739
0.3099975,0.7726465,0.5296386,0.2112324,0.0381016,0.2624333
0.3110313,0.7726026,0.5287728,0.2105992,0.03016724,0.2597586
0.3119573,0.7741884,0.529527,0.2084793,0.02580791,0.2518953
0.3168247,0.7724365,0.5304131,0.2079842,0.02519502,0.250347
0.3209686,0.7694833,0.5338064,0.2059977,0.03522767,0.2540047
0.319325,0.7699502,0.5398221,0.2045395,0.03430023,0.2560628
0.3159206,0.7707068,0.5359723,0.2035222,0.02866606,0.2489426
0.3147304,0.7731398,0.5303393,0.20159,0.0264939,0.2385977
0.3160356,0.7725341,0.5268263,0.2009816,0.02070821,0.2400825
0.3189144,0.7716588,0.5236605,0.2003703,0.02806948,0.2385154
0.3212204,0.7751877,0.5269338,0.1994172,0.03371638,0.2329409
0.3174859,0.7769881,0.5290703,0.1968167,0.03423451,0.2357287
0.3123997,0.7778431,0.5261606,0.1920042,0.03971213,0.2353225
0.3135785,0.7751797,0.5223198,0.1882243,0.03568608,0.2333099
0.3137073,0.7711853,0.5195701,0.1891717,0.02775264,0.2335523
0.3123731,0.7722526,0.5260448,0.1905745,0.01836905,0.2307759
0.3165011,0.7726889,0.5358433,0.1837811,0.01201564,0.2282927
0.32127,0.7728371,0.532961,0.1769228,0.02168126,0.2249691
0.321114,0.7740684,0.5252269,0.1772637,0.03321963,0.2233253
0.3183793,0.7736104,0.5231057,0.1769244,0.03467469,0.2238888
0.3165074,0.7734617,0.5236367,0.1759931,0.03474462,0.2210742
0.3154887,0.7733382,0.5265816,0.1770245,0.03593501,0.217996
0.315071,0.772376,0.5279652,0.1787798,0.03482658,0.2135402
0.3149527,0.7729187,0.5288722,0.1807119,0.03680485,0.2091777
0.3133426,0.7757916,0.5305244,0.1778401,0.03569988,0.2094414
0.3108696,0.7766876,0.5281804,0.1739292,0.02426274,0.2086681
0.3099014,0.7757349,0.5289067,0.174123,0.01364382,0.2069983
0.3108339,0.7766292,0.528857,0.1717349,0.01025777,0.2065526
0.3134403,0.7754323,0.5242267,0.1693672,0.01302123,0.2033885
0.319122,0.7731709,0.5234514,0.169472,0.01480052,0.1939372
0.3243279,0.7730156,0.5225506,0.1657732,0.01666018,0.1802399
0.323621,0.7728833,0.5237626,0.1622612,0.02253409,0.1750392
0.3222766,0.7746829,0.5277437,0.1597349,0.02404493,0.1769382
0.3224411,0.7754048,0.5321329,0.1566645,0.03090723,0.1730771
0.3184494,0.7727306,0.5383026,0.1566237,0.04467537,0.1695494
0.3134383,0.7717705,0.5343997,0.156904,0.04325294,0.1690994
0.3093798,0.7725329,0.5276206,0.158882,0.02376676,0.1679185
0.3070112,0.7747025,0.526627,0.161308,0.00784908,0.1716287
0.310761,0.7782377,0.5220969,0.1600678,0.01467372,0.1769374
0.3135613,0.7800057,0.5215699,0.1595818,0.02073778,0.1785367
0.3141266,0.7794789,0.525326,0.1584646,0.005105177,0.1786475
0.3181545,0.7795208,0.5267796,0.1550837,-0.0002126663,0.1792759
0.3196385,0.7801014,0.5281267,0.1490584,0.01674051,0.1788405
0.3187258,0.7753663,0.5250801,0.141279,0.03136267,0.1733145
0.3167431,0.7703874,0.5227869,0.1405362,0.03120733,0.1689326
0.3121624,0.7747365,0.5265786,0.1429273,0.02477224,0.1692234
0.3105446,0.7811058,0.5290449,0.1409212,0.02574814,0.1712522
0.3095316,0.7823835,0.5287021,0.1372994,0.02505523,0.175952
0.3080815,0.7803644,0.5292738,0.1325343,0.01692297,0.1764922
0.3113299,0.7774522,0.5312328,0.1303327,0.01414017,0.1733343
0.3158199,0.7755273,0.531445,0.1315595,0.01954688,0.1717131
0.3176857,0.7733213,0.5293681,0.1305434,0.02706589,0.1679881
0.3180216,0.7735425,0.5259683,0.1283638,0.0232737,0.16542
0.3174004,0.7762375,0.5225441,0.125595,0.01419225,0.1654078
0.3161798,0.7747506,0.5239851,0.122897,0.01322283,0.1654436
0.3167036,0.7731818,0.5262473,0.1237189,0.01380939,0.1653527
0.3180038,0.7734767,0.5245981,0.1242308,0.0234776,0.1607773
0.3168973,0.7724722,0.5252146,0.1223961,0.03163002,0.1533794
0.3128859,0.7747707,0.5282215,0.1230184,0.02063811,0.1505999
0.3082334,0.7757908,0.5292668,0.126298,0.01278349,0.1509209
0.3103137,0.7727741,0.5264943,0.1269099,0.01647666,0.1500236
0.3156132,0.7709825,0.5191625,0.1237593,0.01982002,0.1511526
0.3153557,0.7693542,0.5149456,0.120501,0.02112163,0.1540641
0.3146614,0.7730561,0.5187772,0.1165454,0.02660225,0.1523028
0.3129007,0.7799002,0.5233718,0.1125288,0.03091736,0.1447898
0.310338,0.7806568,0.5255949,0.1108657,0.02216568,0.1378461
0.3138974,0.7802182,0.5268822,0.1081037,0.01519737,0.138327
0.3165805,0.7799158,0.5250411,0.1053126,0.02003881,0.1426031
0.3150956,0.7781166,0.5238641,0.104278,0.02332217,0.1433299
0.3154676,0.7765273,0.5263613,0.1009462,0.02025737,0.1421153
0.3182127,0.7748946,0.527897,0.0982348,0.0194078,0.1404064
0.3203042,0.7771948,0.5302199,0.09866494,0.02270746,0.1351942
0.3193658,0.7806756,0.5316981,0.09966416,0.0253553,0.1300288
0.3174015,0.7786554,0.5287797,0.101296,0.02981959,0.1323793
0.3144984,0.7757059,0.5290496,0.1009559,0.02887642,0.1349714
0.3112714,0.7746746,0.5306385,0.1012034,0.02116541,0.1278606
0.312519,0.7736145,0.5296765,0.1055397,0.01690088,0.1226358
0.3151398,0.7738729,0.5283982,0.1072231,0.01452451,0.1258577
0.3151433,0.7745204,0.5252962,0.1071371,0.01292709,0.1263829
0.314528,0.775035,0.5258996,0.1067151,0.0008581732,0.1238149
0.3137895,0.7759647,0.5275094,0.1031175,-0.01464139,0.1232292
0.3144772,0.7772783,0.5255371,0.1021144,-0.009790521,0.1226635
0.3160049,0.7793254,0.5262416,0.1024224,-0.005535762,0.1208173
0.3153408,0.7756702,0.5249476,0.1036792,-0.01081079,0.1184829
0.3160285,0.7687908,0.5224782,0.108717,-0.005441803,0.11599
0.3182558,0.769714,0.5237298,0.1083525,-4.691987e-05,0.1115533
0.3178029,0.7748379,0.5225356,0.1050535,-0.001651565,0.1069089
0.3162021,0.7794018,0.5193633,0.1047458,-0.0005154964,0.1036604
0.3151486,0.7812881,0.5168306,0.1006654,0.0005450064,0.0997401
0.3167443,0.780658,0.5172218,0.09418572,0.002887543,0.09867528
0.3191563,0.7843207,0.5211889,0.08708952,0.006527787,0.1007357
0.3179521,0.7869483,0.5216058,0.07577402,0.002171831,0.1012063
0.3177672,0.7833349,0.518798,0.06420427,-0.001720793,0.09831622
0.3201613,0.7807513,0.5178652,0.05742238,0.003649896,0.08936482
0.3230457,0.781491,0.5181615,0.05367194,0.008612305,0.0797332
0.3261632,0.7808302,0.5195379,0.05358959,0.00979312,0.07833281
0.3245236,0.7778016,0.5202047,0.05746051,0.01021151,0.08142193
0.3195906,0.7769379,0.5190239,0.05729276,0.0111454,0.08335114
0.3172749,0.7754381,0.5212066,0.05810815,0.01656075,0.08298978
0.3168351,0.7720334,0.5266081,0.06655417,0.02256873,0.08090755
0.3147388,0.7721804,0.531537,0.07574756,0.01964898,0.08111772
0.3095824,0.7722814,0.5342819,0.08803338,0.01732366,0.08398178
0.3084624,0.7716091,0.535213,0.1051948,0.02824837,0.08686837
0.3132116,0.7708535,0.5448,0.1292577,0.0411823,0.08734312
0.3191571,0.7687064,0.5592429,0.1550653,0.05586252,0.08017107
0.3286655,0.7702572,0.5610784,0.1735941,0.08634385,0.06387109
0.3326648,0.7716769,0.5584687,0.2032294,0.1275119,0.03525902
0.3265237,0.772352,0.5625173,0.2305314,0.177085,-0.004701709
0.3193584,0.7832307,0.5664986,0.2266726,0.2211155,-0.03403548
0.3076548,0.8044025,0.5716223,0.2154759,0.2250929,-0.06053535
0.2962472,0.8248748,0.5785483,0.2083869,0.2119966,-0.1288272
0.2901271,0.8364169,0.5782479,0.1966428,0.2287446,-0.2325134
0.2861948,0.843596,0.573032,0.1773695,0.279763,-0.3457889
0.2897685,0.8529578,0.5652659,0.1275082,0.3609949,-0.475775
0.2903689,0.8662087,0.5579764,0.04794528,0.439414,-0.5838452
0.2887831,0.8896525,0.5681434,-0.03021725,0.5108938,-0.6196287
0.2898473,0.9126508,0.5874409,-0.1152609,0.6038004,-0.6155885
0.2678827,0.91188,0.5999867,-0.2120524,0.6367203,-0.6128641
0.227884,0.9054628,0.6080922,-0.3051204,0.5789299,-0.6188398
0.2017673,0.9150006,0.5966276,-0.4379295,0.5297353,-0.656101
0.2003535,0.9223137,0.5866082,-0.6149439,0.4957108,-0.6895735
0.2113012,0.9459734,0.620905,-0.7861753,0.4373609,-0.6255089
0.2117498,0.986462,0.6446764,-1.000504,0.3637841,-0.4842567
0.1989983,0.9836074,0.5952802,-1.344949,0.2687821,-0.3269004
0.18454,0.9491085,0.5322292,-1.813126,0.1812919,-0.1143228
0.1773146,0.8711349,0.5094384,-2.193772,0.1384879,0.1004592
0.1620033,0.6868647,0.4675987,-2.260283,0.1041113,0.1577966
0.1218768,0.4824765,0.390423,-2.129077,0.1620188,0.05996365
0.08364683,0.356182,0.3761371,-1.829142,0.4014488,-0.08775103
0.04138201,0.2995589,0.4520547,-1.151404,0.5575201,-0.206432
-0.03002027,0.3168436,0.521479,-0.3904759,0.422525,-0.1935038
-0.07904779,0.3846927,0.5326796,0.03158777,0.1897224,-0.1426008
-0.05956092,0.4745968,0.5637851,0.2170852,0.0265511,-0.207951
-0.008661247,0.5670441,0.6480988,0.2977278,-0.0642096,-0.2135136
0.03305133,0.6055136,0.6937587,0.3262303,-0.0440145,-0.1208486
0.07957591,0.65391,0.7341125,0.2859051,-0.002770258,-0.08898502
0.1248492,0.7581887,0.824918,0.0643501,-0.06112458,-0.06638726
0.1250669,0.7958155,0.8454625,-0.1952647,-0.05438391,-0.03727544
0.1078831,0.7798892,0.8370483,-0.3805802,0.02942707,0.01979078
0.1126516,0.7534507,0.9144847,-0.4723821,0.07476537,0.07171901
0.08024781,0.6540158,0.9512482,-0.4738868,0.1036775,0.01322424
0.03016693,0.5922874,0.8910957,-0.5039049,0.007606665,-0.05758669
0.04698814,0.6152731,0.8273535,-0.4956793,-0.06294998,-0.1060884
0.05723021,0.583614,0.806481,-0.4611814,0.06629683,-0.07282345
0.02065352,0.5053425,0.8362459,-0.3993566,0.2047315,0.002113589
-0.02339734,0.4557777,0.8563304,-0.2378341,0.238488,-0.06712427
-0.08615691,0.4747901,0.8425546,-0.2040325,0.07519419,-0.09239643
-0.08318963,0.5149358,0.8397604,-0.2388823,-0.1234046,-0.005545519
-0.003881118,0.4823557,0.8262097,-0.1512134,-0.09221424,0.05855006
0.03107184,0.4695975,0.8067351,-0.02826065,0.04442733,0.09957986
0.0193094,0.4852543,0.8338996,0.1206168,0.1643021,0.03475548
0.00398224,0.4635145,0.8789605,0.2477225,0.1796825,-0.02507103
0.007915585,0.5019656,0.8892029,0.2929554,0.04068536,0.04223257
0.01546733,0.5434568,0.8792083,0.2879615,-0.07849446,0.1069602
0.01669439,0.5230909,0.8651418,0.2933473,-0.075878,0.1505249
0.03803122,0.5264473,0.8400014,0.3276364,-0.06778838,0.1812374
0.03498823,0.5314927,0.8235611,0.339311,-0.1111025,0.1705764
0.02850468,0.5268565,0.8126991,0.3711433,-0.1051319,0.1505139
0.0547325,0.5424717,0.7938408,0.4023225,-0.06349476,0.1299324
0.05953711,0.5588459,0.7832219,0.3970649,-0.0257209,0.1258956
0.04757639,0.5634844,0.7850862,0.410925,0.00180088,0.1465229
0.02492404,0.5715198,0.7975907,0.4170629,-0.05663498,0.1646106
0.009880367,0.5915691,0.8032676,0.4269281,-0.1347261,0.1779637
0.02449302,0.59568,0.7974045,0.4496004,-0.1522263,0.1768704
0.03543507,0.5951024,0.7961825,0.4523624,-0.1253363,0.155494
0.04746154,0.6018431,0.7917276,0.4565978,-0.08411511,0.1425234
0.04553359,0.6152165,0.7918695,0.4526684,-0.09852786,0.1398819
0.0343559,0.6532721,0.7925307,0.4340125,-0.1329018,0.1517024
0.04679729,0.67228,0.7759982,0.4082936,-0.1385303,0.1725727
0.05422056,0.6650674,0.7588863,0.3813366,-0.1161296,0.1673472
0.05915401,0.6686406,0.7528293,0.3732489,-0.07991909,0.147108
0.06286731,0.6779624,0.7570691,0.3637234,-0.1249012,0.1184908
0.05988109,0.6958972,0.7542176,0.3208046,-0.1691872,0.09935324
0.0725324,0.7088451,0.7413407,0.2595354,-0.1102455,0.1165879
0.07595841,0.7069784,0.7371094,0.2133348,-0.07746482,0.1226165
0.05973512,0.7037946,0.7344522,0.1869875,-0.09636991,0.1076499
0.04579864,0.6973633,0.7389955,0.1725918,-0.1155405,0.09922493
0.04422265,0.6907578,0.7462516,0.159182,-0.138968,0.09022977
0.05722799,0.6893399,0.7390703,0.1477266,-0.1401428,0.0814289
0.06442989,0.6937481,0.7348883,0.1269028,-0.1325041,0.06769039
0.06247141,0.6976292,0.733877,0.07260488,-0.1324523,0.05866252
0.06117302,0.6950222,0.7314644,0.04904075,-0.1337653,0.06499194
0.05585825,0.6849801,0.7365988,0.07879989,-0.160798,0.06418018
0.05158695,0.6668469,0.7398825,0.08678806,-0.2170511,0.05552021
0.05574981,0.6560376,0.7355305,0.07834554,-0.2417034,0.04164211
0.07075425,0.6540987,0.7315071,0.08663435,-0.1976337,0.02520098
0.08071651,0.6486096,0.7360798,0.1134894,-0.1665989,0.04019415
0.06946677,0.6450917,0.7464281,0.1532483,-0.2082396,0.06721958
0.05908559,0.6446415,0.7574939,0.1807779,-0.258042,0.06419923
0.06648646,0.641642,0.7621862,0.202372,-0.2658802,0.06186944
0.0776307,0.6390715,0.7530696,0.2323291,-0.2442655,0.06839112
0.08741307,0.6469195,0.7471347,0.2423286,-0.2094484,0.06288333
0.09913275,0.66461,0.7505939,0.2272781,-0.1760816,0.05901012
0.100652,0.6785033,0.7493552,0.2297445,-0.1401272,0.06001492
0.09650342,0.687308,0.7438946,0.2562496,-0.09614593,0.07946458
0.09839284,0.688886,0.7374439,0.2825575,-0.06174512,0.1121957
0.09513773,0.6816428,0.7330772,0.2956076,-0.04290908,0.1108867
0.09304259,0.6793333,0.7299077,0.2965486,-0.04218466,0.08202445
0.09552772,0.6828899,0.7229021,0.3160842,-0.04194912,0.05653278
0.09380812,0.6886876,0.7122599,0.3715623,-0.034076,0.04396319
0.09430119,0.6990431,0.698903,0.4506637,-0.04180057,0.0457657
0.0928339,0.7087063,0.6877063,0.489811,-0.04446655,0.03401566
0.09064217,0.7140933,0.6718371,0.4555244,-0.04569916,0.01696095
0.09206468,0.7132121,0.657092,0.4568804,-0.04981871,0.03702809
0.09137372,0.7117422,0.6619787,0.5313,-0.02165903,0.06946906
0.09030543,0.7171372,0.6567306,0.5884191,0.01283081,0.07522134
0.0869438,0.7300918,0.6332137,0.5734897,0.01924085,0.04870077
0.08329835,0.7612597,0.6259598,0.4614052,-0.02499946,0.006029579
0.08346426,0.795099,0.6221983,0.2688482,-0.07392923,-0.001401993
0.08598626,0.7932482,0.6151783,0.07551126,-0.05377292,0.02521462
0.08742336,0.7729773,0.6218925,-0.03357417,-0.04165265,0.04031721
0.08123134,0.7666562,0.6311769,-0.1373516,-0.06604746,0.0496723
0.07746654,0.7577806,0.6389409,-0.2953844,-0.07193771,0.07135506
0.0882618,0.7366676,0.6461829,-0.3326153,-0.07712027,0.09967389
0.09857537,0.7137936,0.6561005,-0.2885337,-0.04551422,0.1021475
0.09322168,0.6970121,0.6747656,-0.2814883,0.004091671,0.0822273
0.08791905,0.6958538,0.6827772,-0.2227768,-0.03116027,0.07873934
0.09068741,0.6968389,0.6876605,-0.1794967,-0.09817212,0.0639096
0.08696876,0.6912473,0.7150068,-0.1478148,-0.1338312,0.03592561
0.08719657,0.6943369,0.7341996,-0.05660798,-0.1440503,0.03142091
0.09669858,0.7041149,0.7243308,-0.03368815,-0.09476169,0.03064242
0.09976124,0.7133064,0.7202878,-0.06075608,-0.03194647,0.02641171
0.09706394,0.7127306,0.7273051,-0.0563261,-0.002848865,0.02743103
0.08605117,0.692067,0.7263936,-0.03733295,0.007838426,0.03608077
0.07207447,0.6684709,0.7278029,0.008734894,-0.01666113,0.05632996
0.07094937,0.6606875,0.7231193,0.06269413,-0.04423736,0.06969193
0.07783623,0.6635547,0.7046058,0.08639996,-0.05554629,0.06233379
0.082853,0.671306,0.6994039,0.08484882,-0.06002229,0.05153728
0.08243616,0.6837002,0.7044198,0.1018651,-0.05236463,0.06095528
0.08240312,0.6866416,0.7062917,0.1354175,-0.06871963,0.07625762
0.08629569,0.6811301,0.710497,0.1685565,-0.0891136,0.0851275
0.09190662,0.6883902,0.7088948,0.1947645,-0.09213124,0.0872006
0.1009785,0.7030956,0.69876,0.1625789,-0.09237528,0.07427376
0.1044553,0.7156257,0.6883138,0.130463,-0.0815421,0.07415455
0.1008694,0.7175625,0.6811061,0.1462319,-0.08361924,0.08369963
0.09749427,0.7044004,0.6769356,0.1516493,-0.08498118,0.0824535
0.09240548,0.70198,0.6804532,0.1612262,-0.08408197,0.07972611
0.08987277,0.7132695,0.6898099,0.1540249,-0.1108492,0.0719795
0.08944731,0.7243705,0.6908556,0.1246963,-0.127721,0.08550004
0.09063891,0.7293342,0.6893003,0.1267301,-0.1157094,0.1084795
0.1009266,0.7208994,0.6876086,0.135118,-0.08900056,0.104132
0.1088299,0.7162128,0.6814728,0.1453502,-0.07661774,0.09729115
0.1048197,0.7172539,0.6771075,0.1508417,-0.0903587,0.0872337
0.1029113,0.7162644,0.6689459,0.142744,-0.09670366,0.07529428
0.1077401,0.7213876,0.6672313,0.1517651,-0.09093463,0.07244381
0.1090153,0.7250199,0.6733494,0.1546153,-0.08317008,0.06833913
0.1061481,0.7291383,0.6720516,0.1448115,-0.08555083,0.07002066
0.105847,0.7333103,0.6724368,0.1394846,-0.0941257,0.06872076
0.1103604,0.7291501,0.6684925,0.1383221,-0.08970562,0.06391366
0.1159021,0.727047,0.662169,0.1480798,-0.07778394,0.06282239
0.1162389,0.7323305,0.6628697,0.1518102,-0.06666322,0.06121033
0.1143535,0.7436042,0.654036,0.1454162,-0.07251712,0.06715357
0.1155721,0.7521708,0.6456081,0.1380956,-0.0807869,0.07264091
0.1142989,0.7516978,0.6465607,0.1301349,-0.07495173,0.07643266
0.1085243,0.7498761,0.6473169,0.1225578,-0.08467571,0.08632064
0.1049465,0.7472105,0.6501379,0.1166178,-0.1116249,0.09286151
0.1107333,0.7401075,0.6519332,0.1239202,-0.1324595,0.09210318
0.1246705,0.7338514,0.653234,0.1294877,-0.1185903,0.08604652
0.1346875,0.7346513,0.6533478,0.1251091,-0.08413478,0.07908408
0.1374728,0.736854,0.6523219,0.1263212,-0.07341545,0.07498019
0.1348025,0.7395279,0.6561594,0.1257757,-0.06719392,0.07643322
0.1276451,0.7455289,0.6567991,0.1253801,-0.06445249,0.07841563
0.1216861,0.7495542,0.6523164,0.1227217,-0.07802522,0.07529135
0.1198458,0.7532269,0.6474763,0.112252,-0.08383165,0.07421108
0.1295971,0.7506248,0.6429279,0.1072634,-0.0849955,0.06937877
0.1408002,0.7449997,0.6397795,0.1092846,-0.07254354,0.06062621
0.1348006,0.7531491,0.6391579,0.1173066,-0.051436,0.05858654
0.1293729,0.767067,0.6426972,0.1175807,-0.05088332,0.05551681
0.1328933,0.7807534,0.6409493,0.08975305,-0.0516728,0.04989678
0.1364703,0.7887881,0.6352685,0.04777587,-0.04404385,0.0461832
0.1438931,0.7811029,0.6326163,0.02488686,-0.02860362,0.04080833
0.1446702,0.7721436,0.625726,0.01921739,-0.008871468,0.03376244
0.1392345,0.7657261,0.62306,0.005115789,-0.01347821,0.02893024
0.1410562,0.7589053,0.6264344,-0.006385526,-0.03124292,0.02527437
0.1432123,0.7600051,0.626597,-0.01518832,-0.03593709,0.01851141
0.1446108,0.7590807,0.6280956,-0.03223702,-0.02734099,0.01662043
0.1446145,0.75602,0.6304222,-0.04100159,-0.01711162,0.01836014
0.1388741,0.7571904,0.6380412,-0.04915211,-0.02004685,0.01387798
0.1364775,0.7514077,0.6489651,-0.05309673,-0.02404197,0.009175062
0.1376249,0.7464668,0.6473622,-0.04519683,-0.02313735,0.001026379
0.1385599,0.7438799,0.6438212,-0.04031412,-0.02659136,-0.006105647
0.1393917,0.7328559,0.6497158,-0.02472574,-0.01669703,-0.00241361
0.1374414,0.7296658,0.6513026,-0.00226023,-0.00361792,-0.00130165
0.1333154,0.7381801,0.6488234,0.007079352,-0.01719507,0.001368155
0.1272701,0.7476712,0.6496018,0.005656277,-0.03543394,0.009213625
0.1276551,0.7539725,0.6468931,0.0003983265,-0.03747004,0.008455672
0.1365699,0.7443184,0.6406487,-0.0005649496,-0.0245649,0.0002645797
0.1414474,0.7302115,0.634272,-0.0007505128,-0.006931578,-0.00907874
0.1397856,0.7352877,0.6343405,0.0004124041,-0.007049382,-0.006419238
0.1332486,0.750331,0.6444217,-0.0009066779,-0.007364626,0.008330498
0.128555,0.7620784,0.6489113,-0.01465247,0.00178452,0.01511105
0.1318239,0.7626235,0.6440274,-0.0338818,0.0002136958,0.006211143
0.1374549,0.7491111,0.6370066,-0.05681258,-0.0005748269,-0.009399948
0.1418134,0.7380578,0.6279639,-0.06722844,-0.004061158,-0.01808797
0.140993,0.7348032,0.6230351,-0.04885679,-0.00813413,-0.03153159
0.1386313,0.7416968,0.6322079,-0.02424119,0.007518769,-0.04469966
0.1368527,0.7654654,0.6523425,-0.02407705,0.01992968,-0.03277937
0.1254688,0.7815622,0.6646533,-0.06091341,0.0195748,-0.02782253
0.1181546,0.7685322,0.6632687,-0.09457742,0.01031349,-0.04764263
0.1341962,0.7457215,0.6448938,-0.07730039,0.0001777952,-0.07163687
0.1442406,0.7509062,0.6215483,-0.05945223,0.01932018,-0.07972714
0.1147928,0.7961172,0.628365,-0.09537849,0.03806758,-0.03196424
0.09076388,0.8331761,0.6401651,-0.1505262,0.05588045,0.02708983
0.120302,0.7993753,0.6479381,-0.1874749,0.1626826,0.01002653
0.136424,0.7243523,0.696013,-0.1650539,0.2775155,-0.04321646
0.07570027,0.6868082,0.746277,-0.09968942,0.1622923,-0.06249419
0.008027276,0.6759703,0.7538084,-0.06157838,-0.1554154,-0.02964724
0.01054462,0.6575304,0.7320795,0.006677871,-0.3680143,0.03408101
0.05876024,0.6207201,0.7076441,0.1318556,-0.3311767,0.05352946
0.09646882,0.5841235,0.7082079,0.267932,-0.2701158,0.03252188
0.1081582,0.6136083,0.6893551,0.396823,-0.3740235,0.02190407
0.1179685,0.6641071,0.6325061,0.4325463,-0.4260088,-0.01828233
0.1344375,0.6988786,0.6061549,0.4230092,-0.3627654,-0.05693773
0.1362597,0.7581618,0.6148029,0.4450682,-0.3582437,-0.01600942
0.137685,0.7745599,0.6194628,0.4128755,-0.3197132,0.02196656
0.1494744,0.7594148,0.6116257,0.3707754,-0.2860136,-0.01962194
0.1572197,0.7806636,0.602473,0.365082,-0.2913829,-0.08037647
0.2074758,0.8032232,0.5794541,0.322335,-0.1597009,-0.1641455
0.2801273,0.8135239,0.5455273,0.2791372,0.05151935,-0.282341
0.2607875,0.7970335,0.5667579,0.3055909,0.199005,-0.3069784
0.1775185,0.7889968,0.5943661,0.3305422,0.07044418,-0.2625394
0.1427527,0.8522181,0.5550623,0.2559958,-0.1235238,-0.2761899
0.1908139,0.908737,0.5098877,0.1294599,0.0618833,-0.2950738
0.2492012,0.8825379,0.4821509,0.02775695,0.2417877,-0.3294058
0.2186435,0.8286596,0.4913141,0.009523827,0.2233782,-0.3932592
0.1652654,0.7964636,0.5282001,0.05246358,0.223249,-0.3712627
0.1399719,0.7778287,0.5256204,0.02663128,0.1573037,-0.3044604
0.09765674,0.7955011,0.5333913,-0.03218248,0.1951435,-0.2544598
0.08530254,0.83722,0.5723062,-0.07605155,0.2647976,-0.1731302
0.05920876,0.8667806,0.5912675,-0.1258874,0.2029466,-0.0755807
0.02430819,0.8878576,0.5788577,-0.1371922,0.257587,0.004272018
0.08894083,0.8629513,0.548835,-0.1373653,0.3452258,0.02078343
0.1217309,0.8112814,0.5586218,-0.1213166,0.3765871,-0.04609066
0.05533898,0.7725618,0.5802489,-0.1149035,0.3331431,-0.08607184
-0.01152933,0.7544179,0.583117,-0.1335642,0.1702226,-0.0009658958
-0.03216642,0.7812582,0.6030168,-0.08650102,0.141858,0.1308974
0.02790765,0.7850099,0.6003661,-0.0370852,0.224462,0.1555753
0.06951409,0.7748471,0.6086266,0.009379693,0.2436768,0.07024983
0.02703071,0.7759443,0.6363061,0.07762958,0.1378639,-0.02513097
0.007940357,0.7494926,0.6154526,0.0990634,-0.055856,-0.06224896
0.05320565,0.7921801,0.6031318,0.1128285,-0.05948776,-0.01874274
0.08319033,0.8509698,0.6116946,0.1073895,0.09736457,0.01396136
0.04344765,0.8387661,0.6222485,0.1101819,0.1714146,-0.008410886
0.007816263,0.849987,0.6461147,0.1430962,0.06655944,-0.0328085
0.01550836,0.8598343,0.637207,0.1272572,-0.0607131,-0.09880823
0.0305825,0.8462395,0.6059883,0.07156857,0.05888547,-0.1996452
0.04732267,0.844875,0.5842769,-0.09057862,0.1854849,-0.2716645
0.03937235,0.8459162,0.5801796,-0.3062926,0.1905836,-0.3618475
0.01143049,0.8618231,0.591744,-0.35526,0.2497389,-0.4950136
-0.01655913,0.8860704,0.5970056,-0.2995806,0.2362905,-0.5777859
-0.03468006,0.9189206,0.6151638,-0.3022692,0.237428,-0.5665847
-0.02374089,0.9514804,0.6443491,-0.34877,0.3398066,-0.5561833
-0.02443751,0.9616599,0.6688043,-0.4485704,0.3723617,-0.5724081
-0.04739965,0.9643333,0.6945094,-0.5999659,0.3576286,-0.561031
-0.05615842,0.9662242,0.7063942,-0.6402616,0.3032834,-0.5433165
-0.05211501,0.9585068,0.7279899,-0.6586117,0.2112365,-0.5015545
-0.03699789,0.9485862,0.7667675,-0.8312793,0.1370839,-0.441339
-0.01371398,0.9717498,0.7816329,-1.02758,0.100447,-0.4388691
0.01126094,1.012555,0.7634456,-1.416263,0.135098,-0.4421846
0.02149396,1.017936,0.7115973,-2.168331,0.2538162,-0.417984
-0.01032836,0.9783739,0.653897,-2.945864,0.3920395,-0.3809526
-0.06072327,0.8569187,0.6146682,-3.434377,0.2911099,-0.2235085
-0.08163323,0.6256631,0.5570043,-3.536968,0.04308687,-0.003259047
-0.05912387,0.38362,0.4721184,-3.478738,-0.046072,0.09008331
-0.03712004,0.2440506,0.4143254,-3.288745,-0.1015021,0.1405561
-0.0509535,0.09066795,0.3838265,-2.656478,0.02712606,0.2128211
-0.05392627,-0.14823,0.3253131,-1.810412,0.4528892,0.1513326
-0.0787336,-0.1795554,0.3261548,-0.9673065,0.8354088,5.518799e-05
-0.237133,-0.05782408,0.4473223,-0.06311399,0.9701211,-0.1245573
-0.4333811,-0.1067842,0.5943447,0.6335703,0.5462039,-0.2723409
-0.4419689,-0.05443909,0.7547131,0.8854364,-0.2280837,-0.3755781
-0.3049483,0.2228613,0.9303523,0.7897195,-0.5515048,-0.3882241
-0.2266779,0.4261911,1.116864,0.6616737,-0.2679547,-0.4301776
-0.1789096,0.4868648,1.197616,0.584503,0.1382806,-0.4747971
-0.08391556,0.5074479,1.168137,0.3685036,0.2265514,-0.388973
-0.01984911,0.6760654,1.281363,0.003345835,0.1425636,-0.1316289
-0.09988142,0.7406137,1.236711,-0.3098806,-0.01103882,0.1977905
-0.2664731,0.5340848,0.9565491,-0.2665662,-0.3245084,0.4006077
-0.2658183,0.4193655,0.864108,-0.07388778,-0.4337613,0.3728289
-0.1730369,0.2801435,0.7498462,-0.0689046,-0.3005137,0.1969796
-0.1376927,0.2129334,0.7033251,-0.0006409458,-0.01537601,0.02299051
-0.05779907,0.3124891,0.8159163,0.08705468,0.3891469,-0.04993636
-0.0778313,0.2422307,0.7795352,0.1564297,0.4612204,-0.01291416
-0.1718424,0.2679976,0.883748,0.3733231,0.2139766,0.01407751
-0.1942844,0.3260932,1.021552,0.4411,-0.04282411,0.002931299
-0.2227639,0.301086,0.9969644,0.3528883,-0.1977868,0.05413915
-0.1575478,0.4165216,1.021132,0.2159577,0.002185627,0.1644026
-0.1326777,0.363787,0.9786616,0.1033238,0.3913486,0.275739
-0.313075,0.1809174,0.9579129,0.369473,0.3621646,0.1912755
-0.4665558,0.1039833,0.9555241,0.6549227,-0.08229538,-0.02418159
-0.4396302,0.2808428,0.920314,0.5142353,-0.4272287,-0.01620281
-0.2756868,0.5864345,0.9447328,0.3931682,-0.3721788,0.08062911
-0.1653329,0.5141099,0.8909562,0.4760324,-0.1169308,0.1284446
-0.1539449,0.485814,0.8912289,0.4255772,-0.1103962,0.1559638
-0.1550028,0.6699154,0.9204823,0.2720968,-0.172934,0.1029665
-0.1398579,0.6210633,0.8701882,0.1206316,-0.1199949,0.09634325
-0.08652034,0.6191943,0.8774309,-0.03955477,-0.06996359,0.04604204
-0.1130094,0.6206592,0.8356504,-0.09739019,0.09200911,-0.03435027
-0.1616028,0.5211451,0.8008938,-0.1970849,0.07822761,0.01183183
-0.1663703,0.5126645,0.8104284,-0.2666481,0.03509793,-0.001363417
-0.2163197,0.4443826,0.7926209,-0.1742744,0.162635,-0.0360588
-0.2404403,0.4221018,0.8335285,-0.1914816,0.002620894,-0.03041376
-0.2640627,0.445194,0.8469457,-0.1838467,-0.0945775,-0.0361523
-0.2517607,0.4079409,0.8602603,-0.1284315,0.02626246,-0.0007265607
-0.2044059,0.4282207,0.9104725,-0.1632798,0.01223508,-0.01117616
-0.2375461,0.4162574,0.9218194,-0.1336065,-0.08098947,-0.01252944
-0.2186151,0.4132773,0.938729,-0.1583759,-0.1903977,0.02875641
-0.1762874,0.4244836,0.9229455,-0.1838001,-0.1082835,0.03060329
-0.1738002,0.3915398,0.9033332,-0.1522697,0.02115809,0.0411902
-0.155685,0.4101794,0.9047717,-0.2013655,0.003007295,0.03101214
-0.183897,0.4095473,0.8899608,-0.2284405,0.01250401,0.02340985
-0.1967179,0.411796,0.911854,-0.2481891,-0.02021201,0.0419019
-0.1842624,0.4277632,0.9301259,-0.2415183,-0.03936212,0.03953894
-0.1856343,0.4145846,0.9327888,-0.2270438,-0.01337341,0.04526039
-0.1664864,0.4398477,0.921091,-0.3152582,-0.018747,0.02273145
-0.1693495,0.4430776,0.8938279,-0.390366,-0.009593197,0.004165351
-0.1836157,0.4305559,0.9285993,-0.4112778,-0.08634415,0.05593755
-0.1985015,0.4107022,0.953709,-0.3966922,-0.2134027,0.08747735
-0.20454,0.3718454,0.9256476,-0.4056007,-0.2783196,0.03446644
-0.1772649,0.3876113,0.9202606,-0.450743,-0.2891538,-0.01433231
-0.1581916,0.3941828,0.9336089,-0.4579932,-0.2813634,0.03680754
-0.1455612,0.3802102,0.941918,-0.5406038,-0.2902843,0.07894484
-0.1407935,0.3833594,0.93732,-0.6750196,-0.2713958,0.05352575
-0.1479638,0.3616998,0.9371508,-0.7421701,-0.2702336,0.07101563
-0.1514271,0.3093866,0.9447317,-0.753663,-0.3304379,0.08306706
-0.1563307,0.2306831,0.945003,-0.7265584,-0.3630309,0.03085492
-0.1497389,0.1759024,0.9554152,-0.7248891,-0.2858016,-0.03122767
-0.1476069,0.1494597,0.9696103,-0.6839083,-0.1274372,-0.07021377
-0.1554856,0.09801584,0.975162,-0.5685224,-0.04644156,-0.06773498
-0.1547812,0.07272242,0.9495356,-0.4968976,-0.02535116,-0.08553965
-0.1414644,0.09325497,0.896663,-0.4751343,0.04238092,-0.1417726
-0.1112649,0.09625797,0.888465,-0.4987857,0.137896,-0.1651561
-0.09537732,0.09056138,0.9199232,-0.5195898,0.2782439,-0.1693974
-0.1071773,0.09166164,0.9455131,-0.4890164,0.3648399,-0.1682912
-0.1406417,0.06433433,0.9912649,-0.4766775,0.2953851,-0.1613553
-0.1770675,0.03447204,1.033581,-0.4711092,0.2072281,-0.164644
-0.1654582,0.0283704,0.9893977,-0.4607425,0.1688462,-0.1431869
-0.1336088,0.01093471,0.9266236,-0.46381,0.1472974,-0.09397996
-0.1141468,-0.01257426,0.9582778,-0.44942,0.2553446,-0.02534228
-0.09668806,-0.02367979,0.9773721,-0.4225187,0.4405429,0.04612675
-0.1431883,-0.04424971,0.9427411,-0.3591374,0.4286924,0.05954778
-0.2441375,-0.07301872,0.9566519,-0.2371961,0.2734303,0.05223183
-0.288964,-0.07880726,0.9651096,-0.1008849,0.1219365,0.07911196
-0.2695584,-0.05728878,0.9730523,0.03362533,-0.01685275,0.1053751
-0.2416778,-0.02473648,1.018548,0.1352201,-0.04321779,0.1163993
-0.227691,0.001218833,1.018975,0.1380418,-0.03874187,0.1140736
-0.223522,0.0106959,1.011061,0.1033844,-0.07974459,0.1079918
-0.2207899,0.02495563,1.014427,0.1031981,-0.1206543,0.1128751
-0.2152117,0.04175422,0.9868441,0.07254812,-0.2073282,0.1152473
-0.1863166,0.03510628,0.9571679,0.05205776,-0.2208986,0.1225203
-0.1467475,0.02215247,0.9352913,0.07441987,-0.1373518,0.135509
-0.132207,0.01118224,0.9324791,0.04684938,-0.06481737,0.1302792
-0.1466122,0.0004106683,0.9360841,0.01691301,0.01211716,0.1125593
-0.1782674,0.002306755,0.9466311,-0.002609508,0.01288277,0.08853844
-0.2105727,-0.001524932,0.9736019,-0.03970863,-0.01719938,0.06339763
-0.2285839,-0.008134189,0.9757298,-0.03094745,0.01317373,0.05427734
-0.2225226,-0.01101414,0.9798847,-0.01636589,0.01356561,0.04947713
-0.227219,-0.0287993,0.995673,-0.002835225,0.007528079,0.04122594
-0.2510448,-0.03470918,0.9912785,0.02521035,-0.01606309,0.04526924
-0.2482144,-0.03072453,0.985946,0.02351036,-0.09166778,0.05291921
-0.2343943,-0.04015305,0.9801217,0.03248653,-0.1176311,0.0501283
-0.2164549,-0.04445581,0.9714896,0.05576883,-0.1060792,0.04873161
-0.1988692,-0.04951703,0.9663619,0.07423149,-0.09716026,0.05265299
-0.1984563,-0.05358745,0.9636193,0.1005145,-0.07469829,0.05622456
-0.1882492,-0.05217395,0.9633318,0.1107261,-0.06064637,0.06384001
-0.1868714,-0.05540837,0.961565,0.1191382,-0.04745456,0.06715125
-0.1957682,-0.05111768,0.9623243,0.1328896,-0.03819783,0.06181507
-0.1962531,-0.04935256,0.9600923,0.1235561,-0.04904443,0.05564449
-0.197195,-0.05698568,0.9573833,0.1146994,-0.05455375,0.04365004
-0.1889746,-0.0621104,0.9614295,0.1334755,-0.04155558,0.03734011
-0.1921616,-0.06342889,0.9651967,0.151642,-0.0266907,0.04368056
-0.1998025,-0.05808754,0.9716194,0.1560282,-0.01937948,0.04618448
-0.2001751,-0.05535432,0.9790876,0.1652357,-0.01359245,0.04907705
-0.2117738,-0.05661992,0.9803767,0.1703786,-0.01972514,0.05190435
-0.2149606,-0.05511258,0.9795791,0.1679081,-0.04224041,0.04461204
-0.2137939,-0.05522207,0.9811273,0.1692836,-0.06209339,0.0386509
-0.2111408,-0.05386739,0.9792845,0.1698946,-0.07065421,0.04464282
-0.2047031,-0.05280956,0.9736989,0.1682852,-0.06616546,0.05974243
-0.2023866,-0.05669047,0.9692993,0.1648648,-0.05117403,0.07153111
-0.1877037,-0.06137363,0.9608063,0.1625646,-0.0274648,0.06931773
-0.1798578,-0.06176698,0.955136,0.163778,-0.006671904,0.06232333
-0.1880663,-0.05848034,0.9582111,0.1641296,-0.00646956,0.06147858
-0.1959653,-0.05799572,0.963869,0.1663781,-0.0184432,0.05732153
-0.200484,-0.05845658,0.9703899,0.1696151,-0.03434875,0.0487089
-0.1944871,-0.05818471,0.9710189,0.1696719,-0.0407406,0.04588183
-0.1920573,-0.0586075,0.9717094,0.1687561,-0.03515101,0.04576022
-0.1971266,-0.0592912,0.9785361,0.1674993,-0.04578197,0.05027569
-0.1995156,-0.06490906,0.980394,0.1688744,-0.06316076,0.05778978
-0.1976572,-0.07165517,0.9773206,0.1748341,-0.0671657,0.06203771
-0.1920112,-0.07484394,0.9738045,0.1822534,-0.06224088,0.06784298
-0.1913851,-0.08041813,0.9693338,0.1908687,-0.05664219,0.0736942
-0.1914953,-0.08549972,0.9649554,0.1988196,-0.06086128,0.08281707
-0.1913576,-0.08269777,0.961627,0.2064339,-0.06059511,0.09092746
-0.1911156,-0.08106719,0.9583884,0.2164847,-0.04889101,0.08843951
-0.1872778,-0.08746507,0.9586217,0.2284258,-0.03330552,0.08821579
-0.1885818,-0.08890109,0.9647539,0.2386484,-0.02041993,0.08917507
-0.1935124,-0.08127123,0.967882,0.2377562,-0.03107234,0.08373811
-0.2008146,-0.07460923,0.9691079,0.2376069,-0.04514002,0.07993815
-0.2028342,-0.07538102,0.971383,0.2485754,-0.04072852,0.08006258
-0.1953628,-0.07905301,0.9679951,0.2555758,-0.0369906,0.08621072
-0.1937423,-0.07694995,0.9644841,0.2676039,-0.0341737,0.0927452
-0.1962765,-0.07447896,0.9656373,0.2793978,-0.03716714,0.08993332
-0.1977297,-0.06993532,0.9688034,0.2750607,-0.04440872,0.08624121
-0.1967962,-0.06204302,0.9725291,0.2721679,-0.03745799,0.08513393
-0.194725,-0.06077273,0.9727686,0.2659968,-0.03179548,0.08048626
-0.1973892,-0.05812737,0.9697076,0.2616303,-0.03305271,0.07792065
-0.1981228,-0.05660064,0.9667716,0.2677126,-0.03147412,0.07817558
-0.1994178,-0.06007304,0.9630627,0.2654251,-0.03396231,0.07541687
-0.2027159,-0.05753161,0.9605527,0.2680698,-0.03739777,0.0731175
-0.2007505,-0.05656297,0.966827,0.2715656,-0.0404074,0.07310045
-0.1977624,-0.05595805,0.9748945,0.2611189,-0.0435972,0.07537461
-0.1940927,-0.05326698,0.9731997,0.2537814,-0.03695369,0.07607229
-0.1917492,-0.05835559,0.9681144,0.2502978,-0.02481929,0.0717114
-0.1941126,-0.0621547,0.964302,0.2510424,-0.02218497,0.07018546
-0.1969242,-0.06123244,0.9644004,0.252638,-0.03158076,0.06885618
-0.198605,-0.06189981,0.9684557,0.2530539,-0.03831324,0.06638111
-0.1956395,-0.06269575,0.968408,0.2615369,-0.03362499,0.06953213
-0.190647,-0.06281464,0.9690865,0.2677455,-0.03017131,0.07276596
-0.1907496,-0.06142715,0.9734705,0.2711696,-0.03173172,0.07683779
-0.1918502,-0.05792748,0.9763885,0.270795,-0.02520869,0.07965226
-0.1932148,-0.05074205,0.9767639,0.2603432,-0.01384319,0.07742659
-0.1968374,-0.04633302,0.972066,0.2541264,-0.01276573,0.07920008
-0.1971874,-0.05018791,0.9686799,0.2560965,-0.02092296,0.07932738
-0.1953189,-0.05191055,0.9706547,0.2597775,-0.02551757,0.07426053
-0.1948909,-0.05067131,0.9721914,0.2591104,-0.01793825,0.07188775
-0.1973937,-0.05071162,0.9734997,0.2560773,-0.009780109,0.07152786
-0.2017784,-0.04855797,0.9738296,0.2576368,-0.0137499,0.07292587
-0.2002877,-0.04699753,0.9729143,0.2567088,-0.01423679,0.07376064
-0.1996001,-0.04553625,0.9716454,0.2531684,-0.007202832,0.07159996
-0.2055957,-0.03997287,0.9711179,0.2461652,-0.006873894,0.06527578
-0.207915,-0.03311617,0.9747561,0.2314068,-0.01236185,0.05547329
-0.207153,-0.03025766,0.9772717,0.221693,-0.01754878,0.0514055
-0.2066022,-0.03274395,0.9774849,0.221532,-0.01403553,0.04980847
-0.2067891,-0.03528598,0.9794192,0.2271042,-0.01301574,0.04277211
-0.2075138,-0.0362077,0.9818898,0.2371929,-0.03536191,0.03920342
-0.205492,-0.03619206,0.9847474,0.238175,-0.05270089,0.04270676
-0.2026743,-0.03297206,0.9804965,0.2161697,-0.03603161,0.04587079
-0.1988904,-0.03103482,0.9731991,0.185914,-0.01999011,0.04821368
-0.1989265,-0.03264554,0.9757141,0.1792472,-0.03100547,0.05014982
-0.2015836,-0.03599124,0.9744614,0.1890956,-0.03597065,0.04854637
-0.1991804,-0.04310818,0.9681626,0.190104,-0.02794263,0.04770127
-0.1997645,-0.04805583,0.9708488,0.1919935,-0.03005194,0.04771252
-0.2008895,-0.04524576,0.9711221,0.1959032,-0.02462303,0.04232314
-0.1990644,-0.0411769,0.9679159,0.1933602,-0.01708494,0.03743887
-0.2007086,-0.04008667,0.9701452,0.192245,-0.02784702,0.03879225
-0.2009138,-0.04132734,0.9715127,0.1870779,-0.03559353,0.04321929
-0.2010422,-0.04526645,0.9749748,0.1810192,-0.03543686,0.04902193
-0.2011906,-0.04904369,0.9790465,0.1834898,-0.02868965,0.05240154
-0.1992317,-0.05048873,0.9742977,0.1886596,-0.02111874,0.04901912
-0.2010715,-0.05103016,0.9705038,0.1971583,-0.0315266,0.04542426
-0.2018495,-0.04862046,0.9743499,0.2011869,-0.04334537,0.04837349
-0.1984648,-0.042279,0.9755104,0.1953122,-0.04099583,0.05251266
-0.1918921,-0.03451057,0.9709192,0.1882756,-0.02904888,0.05637826
-0.1864785,-0.03187446,0.9683797,0.1826838,-0.0164735,0.05919461
-0.1951166,-0.03926839,0.9703113,0.1834038,-0.01887791,0.0563824
-0.2061071,-0.04592425,0.9714444,0.1866379,-0.03050116,0.05298866
-0.2031841,-0.04664313,0.968837,0.1871682,-0.03666815,0.05240061
-0.1993981,-0.04780941,0.9644369,0.1924912,-0.03506231,0.05461947
-0.1960875,-0.04872784,0.9619381,0.1960756,-0.02328048,0.05800714
-0.1887974,-0.04862805,0.9650134,0.1884535,-0.003604138,0.06014791
-0.1953435,-0.04666073,0.9708666,0.1773449,0.01062075,0.0611973
-0.2082099,-0.0446503,0.9735544,0.175981,0.003893805,0.05741401
-0.2114732,-0.0436323,0.9753485,0.1931024,-0.02568395,0.05344658
-0.2170045,-0.03859732,0.9754014,0.2085809,-0.05228332,0.05210301
-0.2124454,-0.03426631,0.9713513,0.1904605,-0.04355891,0.05436452
-0.192812,-0.03489242,0.9705943,0.1683302,-0.01081897,0.06138844
-0.1894931,-0.03760599,0.9728199,0.1782,0.001807611,0.06046623
-0.2033389,-0.03874494,0.9737965,0.188012,-0.02141747,0.06089662
-0.212378,-0.03360712,0.9730448,0.1850827,-0.04939776,0.0679533
-0.2012048,-0.03024497,0.969675,0.1731751,-0.04238312,0.06670197
-0.1814632,-0.03934959,0.967114,0.1530462,-0.0106942,0.06607475
-0.1814377,-0.04925835,0.9663916,0.1649728,0.01408739,0.06723348
-0.1914969,-0.04645502,0.9732697,0.1876812,0.02243954,0.06586385
-0.2011248,-0.04372368,0.983134,0.1902984,-0.001154874,0.06591657
-0.2080314,-0.04642243,0.97879,0.205995,-0.03352241,0.06547703
-0.2040912,-0.04015671,0.9721179,0.2063857,-0.03694225,0.06904717
-0.2025545,-0.03131354,0.9718211,0.1831081,-0.02476363,0.07023235
-0.201674,-0.02930088,0.9699828,0.1762215,-0.01140716,0.06303093
-0.1996035,-0.02916421,0.9728068,0.1699123,-0.01416614,0.05597193
-0.2016922,-0.02847168,0.9749604,0.162798,-0.01974182,0.05355505
-0.1973637,-0.02521929,0.9728979,0.1578814,-0.008865956,0.05132897
-0.1973078,-0.02442369,0.9751776,0.1536835,-0.01152852,0.04504162
-0.2046086,-0.02740059,0.977381,0.1590984,-0.01721232,0.04247567
-0.2082093,-0.03073368,0.9789079,0.1542837,-0.02137767,0.03890445
-0.2088184,-0.03441218,0.9795672,0.1502315,-0.02997583,0.03180157
-0.206283,-0.03074734,0.976637,0.1491095,-0.02384747,0.03173244
-0.2060382,-0.02564577,0.9752943,0.1366829,-0.02548919,0.03055251
-0.2021291,-0.02880535,0.9752301,0.1341948,-0.02768945,0.02820944
-0.196295,-0.032755,0.9748251,0.130408,-0.01556344,0.02540916
-0.2012577,-0.03553337,0.9724628,0.1252753,-0.01133613,0.02025351
-0.2054545,-0.03784565,0.9674198,0.1296542,-0.01530434,0.02507707
-0.2055028,-0.03988852,0.9645679,0.12491,-0.02175885,0.02911381
-0.205096,-0.0439878,0.9654014,0.1247688,-0.01861272,0.02501482
-0.2036688,-0.04934847,0.9682815,0.1323531,-0.01488959,0.02477364
-0.2061929,-0.05331323,0.9694866,0.1368908,-0.01917255,0.02762107
-0.2075302,-0.05039352,0.9703565,0.1410961,-0.01579898,0.02989747
-0.2058799,-0.04430498,0.9699322,0.1394577,-0.01946044,0.02939447
-0.2052072,-0.03982795,0.9647501,0.1420648,-0.02738726,0.02814164
-0.2054512,-0.03707666,0.9650478,0.1462206,-0.02626809,0.02938123
-0.2050102,-0.03979897,0.970414,0.1451386,-0.02390294,0.03242941
-0.2008091,-0.04140641,0.9765812,0.1483638,-0.019703,0.03607214
-0.1972928,-0.03995148,0.983443,0.1499995,-0.02271265,0.03527201
-0.1978996,-0.03719086,0.9800096,0.1525448,-0.03205797,0.03473362
-0.1975799,-0.03025296,0.9742432,0.1528513,-0.03517942,0.03845633
-0.1955583,-0.03073873,0.9738082,0.1429515,-0.02403245,0.03777829
-0.1994058,-0.03393813,0.9722126,0.1378389,-0.006072829,0.03601565
-0.208922,-0.03065895,0.9720762,0.1401816,-0.009219603,0.03813349
-0.212515,-0.0317087,0.9691938,0.1434166,-0.02117129,0.03754782
-0.207853,-0.03054404,0.9684865,0.1416105,-0.02207694,0.03454232
-0.2017528,-0.02582445,0.9746573,0.1315364,-0.02033232,0.02798891
-0.2001106,-0.02656201,0.9759353,0.1184876,-0.01514741,0.01960727
-0.2005194,-0.02724489,0.9757254,0.1054359,-0.01620423,0.02333375
-0.1969508,-0.02819026,0.9744621,0.1014594,-0.01815554,0.03391509
-0.1949494,-0.02919433,0.9706301,0.1026755,-0.009438066,0.03809245
-0.1973893,-0.02974244,0.9728001,0.1023299,-0.00709088,0.03485211
-0.2006053,-0.03086173,0.9765446,0.1071124,-0.010754,0.02729356
-0.2030888,-0.02763529,0.9809278,0.1071934,-0.01780917,0.02756155
-0.2024987,-0.02564702,0.9850248,0.09941397,-0.02336499,0.03070294
-0.1999039,-0.02834674,0.9807691,0.09231174,-0.01306137,0.02853579
-0.1978201,-0.02991625,0.9754628,0.08806475,-0.005214759,0.03018578
-0.1988485,-0.02926762,0.9745969,0.09027363,-0.0124008,0.02911669
-0.201953,-0.02885194,0.9746764,0.09222473,-0.01983791,0.02706749
-0.2031742,-0.03058367,0.9753951,0.08958644,-0.01975037,0.02779492
-0.2031044,-0.03228548,0.975325,0.08865729,-0.01711327,0.02395942
-0.2024354,-0.03468201,0.9764801,0.08987728,-0.0161782,0.02503859
-0.202206,-0.03686137,0.9776365,0.09196457,-0.01607044,0.02889948
-0.200452,-0.03428949,0.9724134,0.09334537,-0.01890878,0.03160975
-0.1975738,-0.03214407,0.9675339,0.09136906,-0.01975243,0.03198244
-0.1995643,-0.03300324,0.9703045,0.08958079,-0.01594705,0.0236249
-0.2018625,-0.03388643,0.9730627,0.09187614,-0.01346446,0.02075056
-0.201548,-0.03580306,0.9715744,0.0956754,-0.01310057,0.02241749
-0.2027282,-0.03685353,0.9702702,0.09947739,-0.01467021,0.02172866
-0.2017063,-0.03546526,0.9698389,0.1003406,-0.01432983,0.02307456
-0.1974857,-0.03412295,0.9715533,0.09702836,-0.01326999,0.01962711
-0.196088,-0.03316381,0.9749624,0.09602977,-0.01152362,0.01626018
-0.1977292,-0.03215902,0.9738736,0.09526462,-0.006901604,0.01668313
-0.1976288,-0.03016784,0.9727886,0.09125361,-0.009886791,0.02061364
-0.1975835,-0.02722768,0.9754987,0.08867568,-0.01861159,0.02670913
-0.199288,-0.03021609,0.9759551,0.0884579,-0.02446343,0.02381162
-0.1986441,-0.03668834,0.9755439,0.09005043,-0.02369061,0.02100171
-0.1983616,-0.03572254,0.9720311,0.09049929,-0.01541663,0.0208371
-0.200126,-0.03111865,0.9657118,0.08669022,-0.008613507,0.01495364
-0.2011102,-0.02857994,0.9662798,0.08165521,-0.004691054,0.01455436
-0.2030003,-0.03011241,0.9698533,0.0780812,-0.00790046,0.01750369
-0.2049284,-0.03349593,0.9722519,0.07713638,-0.0148761,0.01410172
-0.2055043,-0.03063066,0.9748157,0.07746563,-0.01174121,0.01299137
-0.2035653,-0.02853964,0.9751449,0.07489832,-0.01095391,0.01707128
-0.1985626,-0.02987219,0.9773423,0.07078489,-0.01367252,0.01767072
-0.1952593,-0.02859209,0.9798565,0.0684418,-0.01092749,0.01697347
-0.1947726,-0.02931707,0.9747156,0.0650233,-0.009933448,0.02040762
-0.1964011,-0.02947157,0.9673316,0.06424649,-0.005217218,0.02271634
-0.1993406,-0.02879225,0.9655085,0.06997676,-0.001486967,0.02079228
-0.20117,-0.0307525,0.9676762,0.07246901,-0.006059782,0.01746055
-0.2018623,-0.03146067,0.9717157,0.07271287,-0.008732484,0.01841008
-0.2003272,-0.03226694,0.9755769,0.07605835,-0.009238076,0.02328674
-0.1997175,-0.03142708,0.9759449,0.07653968,-0.007125708,0.02562449
-0.2022196,-0.02770829,0.9752158,0.07518361,-0.004291975,0.02600515
-0.2031845,-0.02502611,0.9767182,0.0756135,-0.005598224,0.02498949
-0.2028823,-0.02535506,0.9768904,0.07659226,-0.00557569,0.02382202
-0.2022607,-0.02908565,0.9757401,0.07658966,-0.005094251,0.02334854
-0.2009165,-0.02989204,0.9766825,0.07856576,-0.00693359,0.02085027
-0.1995539,-0.02877087,0.9769083,0.08307689,-0.008312668,0.01890846
-0.1986095,-0.03038966,0.9777513,0.08265845,-0.007951195,0.01793402
-0.1988679,-0.02965204,0.9801161,0.08002847,-0.007358016,0.01726163
-0.198408,-0.02521105,0.9791995,0.07880836,-0.008521263,0.01642561
-0.1984781,-0.02061272,0.9779462,0.07581131,-0.009854313,0.01428096
-0.1991924,-0.02175281,0.9757171,0.07248576,-0.01048101,0.01476015
-0.199094,-0.02553281,0.9705078,0.06803875,-0.009638152,0.01526636
-0.2004576,-0.02435562,0.9696527,0.06532624,-0.007326665,0.01236648
-0.2002226,-0.0232286,0.9712677,0.06700805,-0.006470008,0.01114743
-0.199999,-0.02191526,0.9714837,0.06672581,-0.006800579,0.01307741
-0.2031489,-0.02046076,0.9733723,0.0635486,-0.007131489,0.01442402
-0.2042502,-0.02168686,0.9735323,0.06009966,-0.006487711,0.0122263
-0.2015444,-0.0212617,0.9721237,0.05724667,-0.005345775,0.009947104
-0.1977489,-0.02236906,0.9736151,0.05693554,-0.006219741,0.0111155
-0.1971348,-0.02294386,0.9747316,0.05650274,-0.007104127,0.01183856
-0.1990501,-0.02094167,0.9748515,0.05283396,-0.007673497,0.01181979
-0.2028569,-0.02098004,0.9741558,0.04785818,-0.009511304,0.01232378
-0.2079937,-0.01894193,0.9714641,0.04392008,-0.00931187,0.0117735
-0.2025991,-0.01909353,0.9721067,0.04383151,-0.008349263,0.01225115
-0.1951786,-0.02228121,0.9743808,0.04592037,-0.009420204,0.01377244
-0.2000451,-0.02208951,0.9738883,0.04661103,-0.01033049,0.01546691
-0.2012518,-0.02249861,0.974223,0.04822498,-0.01261821,0.01701593
-0.1967869,-0.02239854,0.9753572,0.04983673,-0.01530742,0.01477919
-0.1976028,-0.02273897,0.9750286,0.05440035,-0.01540932,0.01039094
-0.1990055,-0.0233568,0.9734331,0.06009011,-0.01540377,0.009071232
-0.2003719,-0.01794399,0.9716392,0.05057428,-0.01278618,0.01200545
-0.2005728,-0.01389009,0.9709045,0.03849461,-0.007786645,0.0121917
-0.1992062,-0.01674073,0.9733782,0.04169534,-0.005557825,0.004223975
-0.2005949,-0.01950218,0.977611,0.04201009,-0.004898305,-0.001998766
-0.2010112,-0.01755316,0.9781358,0.03687204,-0.007014317,-0.002862509
-0.2011967,-0.01550019,0.9772756,0.03681684,-0.01000286,-0.003673521
-0.2014633,-0.01558817,0.976197,0.03505958,-0.009298314,-0.004860467
-0.1982048,-0.01522175,0.973789,0.03203918,-0.008104236,-0.007104049
-0.1965064,-0.01815925,0.9736005,0.02988022,-0.007617605,-0.004959648
-0.1966432,-0.02010134,0.9729677,0.02808418,-0.007837459,-6.472563e-05
-0.1947248,-0.0164095,0.9713272,0.02888053,-0.007792891,0.001973957
-0.1922968,-0.01439885,0.9720594,0.02804573,-0.00577901,0.006081208
-0.1924665,-0.01509161,0.975485,0.02506931,-0.004478741,0.008507374
-0.1939329,-0.01577615,0.9780643,0.01833397,-0.004590422,0.00902791
-0.1926917,-0.01512114,0.9761487,0.009503135,-0.003589943,0.01024151
-0.1931169,-0.01496488,0.9776076,0.01095062,0.002531848,0.008182257
-0.1956663,-0.01562829,0.9809368,0.01526541,0.008278195,0.008423453
-0.1970543,-0.01398099,0.9794676,0.01351093,0.003912279,0.008908399
-0.1997192,-0.01350715,0.9806064,0.01356707,-0.0008905384,0.006907193
-0.2004088,-0.01315293,0.9796498,0.008928952,0.002064061,0.007220874
-0.1997886,-0.01217713,0.9717131,0.0009202546,0.003735399,0.004828376
-0.200214,-0.01411382,0.9664402,0.001507176,0.004542309,0.002276156
-0.1997371,-0.01681783,0.9690038,0.001666969,0.007415129,0.002971166
-0.1998365,-0.0191083,0.9742377,0.0009977908,0.003198684,0.0008154925
-0.1982124,-0.01917761,0.9743182,0.004089334,-0.001972487,-0.002733855
-0.1971814,-0.01919789,0.9764954,0.001760872,0.002336585,-0.005842372
-0.2009044,-0.02116614,0.9806475,-0.0007875286,0.004273029,-0.009475127
-0.2036392,-0.02165301,0.9783341,0.0004983098,0.000191713,-0.01002326
-0.2008148,-0.02249954,0.9781398,-0.001331606,-0.001703352,-0.006595139
-0.1959163,-0.02286741,0.9778504,-0.001973556,-0.001629885,-0.006897064
-0.1952386,-0.02348744,0.974836,0.001272478,0.000784843,-0.009383793
-0.1961449,-0.0257553,0.9738736,0.004798693,0.003332528,-0.005578325
-0.1958342,-0.02423896,0.9701608,0.008620514,0.002727057,-0.000929213
-0.1974307,-0.02219436,0.9691556,0.0149328,0.003323394,0.003714407
-0.2000545,-0.02134446,0.9724653,0.02067574,0.004279698,0.005777877
-0.202121,-0.01864479,0.9745721,0.01785073,-0.00116292,0.001281967
-0.2007807,-0.01837645,0.9759815,0.01249136,-0.007758504,0.002295523
-0.1989432,-0.01759665,0.9760939,0.01029865,-0.004206642,0.003096828
-0.2004774,-0.01457506,0.976923,0.006687851,0.005742237,0.0001828945
-0.2002851,-0.01752526,0.9772267,0.009417248,0.008444681,0.001239242
-0.2004906,-0.02128375,0.9803212,0.01417663,-0.002866102,-0.0018487
-0.2013587,-0.01855563,0.9849173,0.0104036,-0.01415279,-0.003483418
-0.1976765,-0.01615989,0.9799531,0.008561766,-0.007596227,-0.001393809
-0.1947502,-0.01521613,0.9737703,0.004858743,-0.0002553147,-0.000233446
-0.1972366,-0.01453474,0.9731244,-0.002013969,-0.003195969,0.003347157
-0.2017528,-0.01642691,0.973933,0.0025298,0.00173052,0.0006614768
-0.2032622,-0.01776593,0.976047,0.007557424,0.005806115,-0.00306699
-0.2008751,-0.01906966,0.9747704,0.005528592,0.003813952,-0.001569109
-0.1980876,-0.019586,0.9713481,0.007413742,0.007579199,-0.002310148
-0.1969463,-0.01898154,0.9720418,0.009157391,0.0027323,-0.001919525
-0.1956371,-0.02185128,0.9756858,0.007198629,-0.004950706,-0.001746096
-0.1935953,-0.02287481,0.9771333,0.008228226,-0.0003672625,-0.003832688
-0.1946689,-0.02139596,0.9758294,0.01137444,0.001864767,-0.005294506
-0.1968589,-0.02043095,0.974596,0.01298389,0.002264529,-0.005412878
-0.197212,-0.01689614,0.9730835,0.01267761,0.003523777,-0.003567747
-0.1976291,-0.01590558,0.9733567,0.01142757,-0.001118727,-0.003793115
-0.1966185,-0.0174607,0.9739694,0.01018425,-0.002653548,-0.004247698
-0.1952805,-0.01829434,0.9723204,0.008054117,0.00111562,-0.002236714
-0.1946833,-0.01968845,0.9716976,0.007358235,0.005951246,-0.000686538
-0.1957767,-0.01766997,0.9702907,0.008032957,0.01158231,0.0003799136
-0.199267,-0.01460846,0.9677823,0.008462014,0.01004488,0.0002535822
-0.1988141,-0.01402351,0.9668087,0.01137432,0.002816629,-0.001036202
-0.1966692,-0.01295439,0.9670606,0.01199177,0.001283793,-0.003669766
-0.1960856,-0.01205827,0.969731,0.007858882,0.003739342,-0.005585858
-0.195514,-0.01286772,0.974154,0.002285238,0.00482343,-0.004104102
-0.1985687,-0.01488157,0.9780476,-0.004155473,0.00227801,-0.003318066
-0.1998887,-0.01739322,0.9798724,-0.005017145,-0.001567521,-0.002441857
-0.1986025,-0.01886047,0.9779963,-0.0004217077,0.000257057,-0.001608878
-0.2005544,-0.01762191,0.9715993,0.001692935,0.002393732,-0.003979409
-0.2003426,-0.01567661,0.9666649,0.0007463122,0.002590229,-0.0058272
-0.1989859,-0.01429438,0.9713848,0.00037967,0.004872185,-0.007926655
-0.1985224,-0.01301388,0.9778347,0.001881089,0.003863167,-0.008743092
-0.1956513,-0.01321747,0.976686,0.0009938154,0.00148952,-0.007231043
-0.1953619,-0.01250278,0.9755443,-0.001422551,0.0005745326,-0.007879069
-0.1973224,-0.01263045,0.9770468,-0.002303287,0.0002489507,-0.005307874
-0.1972542,-0.01682975,0.9747862,-0.004439474,0.001943783,-0.002609256
-0.1972523,-0.01965685,0.96899,-0.005796827,0.002276311,-0.003686771
-0.1975971,-0.01905366,0.9647819,-0.004777222,0.003804491,-0.002195375
-0.1988984,-0.01710968,0.9710264,-0.0009831496,0.00464489,-0.002811767
-0.1998023,-0.01598412,0.9822782,0.003848708,-0.004007014,-0.003565201
-0.1956423,-0.01539364,0.9816942,0.002561878,-0.01112572,-0.002823786
-0.1912884,-0.0145859,0.9782094,-0.0002285286,-0.002775243,-0.00530833
-0.1935108,-0.01573035,0.9782596,-2.585875e-05,0.007093569,-0.004410427
-0.1981793,-0.01541464,0.9743342,-0.001028361,0.003113905,-0.004810966
-0.202083,-0.01436063,0.9751495,-0.001226979,-0.001581139,-0.01066399
-0.2057745,-0.01390771,0.9765322,-0.002878667,-0.0009864916,-0.01440602
-0.2053613,-0.01075366,0.9724298,-0.007684435,-0.00177619,-0.01489599
-0.201464,-0.01071455,0.9730419,-0.01057492,0.0006366353,-0.01414512
-0.1992163,-0.0132306,0.9733087,-0.01265776,0.001384561,-0.01598679
-0.1991678,-0.01499706,0.9712822,-0.01355352,0.001155254,-0.01489175
-0.1988755,-0.01791158,0.9734441,-0.01328383,0.005038424,-0.01040083
-0.1965467,-0.01760751,0.9747704,-0.01556559,0.003629873,-0.0105064
-0.1964072,-0.0166609,0.9723606,-0.0186721,0.002233923,-0.008457564
-0.1971643,-0.01712069,0.9698341,-0.0200018,0.002758058,-0.007158094
-0.1939054,-0.01634048,0.9686053,-0.01657159,0.0009929795,-0.008885082
-0.193067,-0.01769932,0.9688189,-0.01208625,0.004284712,-0.005324708
-0.1934719,-0.01858509,0.9711843,-0.01430377,0.008389698,-0.003437172
-0.1929145,-0.01791499,0.9738229,-0.01664852,0.009825444,-0.004605649
-0.1969363,-0.0192554,0.9763555,-0.01555608,0.0101223,-0.004107007
-0.2015612,-0.02061003,0.9742369,-0.01473696,0.008643437,-0.002910431
-0.2034933,-0.02041626,0.9680152,-0.01043975,0.004229016,-0.002027663
-0.2013023,-0.01728641,0.9699056,-0.007104933,-0.002504247,-0.005993118
-0.1985049,-0.01413221,0.971717,-0.009425607,0.0001719457,-0.01054795
-0.2004976,-0.01597184,0.9720614,-0.01048375,0.004671139,-0.008971763
-0.200153,-0.01732314,0.9779391,-0.00981376,0.0009671855,-0.005652499
-0.1980981,-0.01451435,0.9725528,-0.009443625,0.001765508,-0.005509326
-0.1971071,-0.01312493,0.9660875,-0.009202576,0.002001398,-0.006994033
-0.1958154,-0.01408348,0.9711323,-0.01053455,-0.001003349,-0.007124804
-0.2002455,-0.01385461,0.9727225,-0.01201495,0.0009699582,-0.007557509
-0.2043447,-0.01280695,0.9746058,-0.01426788,0.001631296,-0.008168314
-0.2006254,-0.01232362,0.9771784,-0.01640081,0.00284841,-0.007725801
-0.1967085,-0.01292874,0.9758496,-0.01736566,0.006763835,-0.006599337
-0.1962999,-0.01551861,0.9764075,-0.01885144,0.007935651,-0.005377303
-0.1971836,-0.01832418,0.9756562,-0.01373508,0.005952472,-0.005844462
-0.1999371,-0.01822503,0.974554,-0.002607653,-0.001374891,-0.005313152
-0.2018734,-0.01551381,0.9761151,0.0009991162,-0.007604042,-0.006054196
-0.1974873,-0.01277423,0.9767029,-0.004930588,-0.002837269,-0.008557444
-0.1922946,-0.01109657,0.9754844,-0.01216092,0.004099573,-0.004693516
-0.1926831,-0.01077723,0.9718081,-0.0147636,0.003808644,6.025723e-05
-0.1938246,-0.0118626,0.9686775,-0.01448198,0.005265338,7.303797e-05
-0.1952103,-0.01378284,0.9723451,-0.01307461,0.01030735,-0.002238772
-0.1997575,-0.01560458,0.9782314,-0.009161401,0.007175648,-0.005170743
-0.2046672,-0.01398244,0.976041,-0.007297615,-0.002192845,-0.003544244
-0.2061708,-0.01085534,0.9694135,-0.008757028,-0.007307926,-0.002446284
-0.2037503,-0.01118664,0.9682155,-0.01086952,-0.002840269,-0.005989917
-0.2018348,-0.01210451,0.970409,-0.01259775,0.004638401,-0.008172788
-0.2028413,-0.01484451,0.9713677,-0.0120825,0.00687502,-0.009199198
-0.2031987,-0.01826869,0.9723496,-0.0103195,0.01046947,-0.008367242
-0.201681,-0.01500599,0.9723651,-0.005774574,0.008422839,-0.005175934
-0.1992947,-0.01114864,0.9700183,-0.000714696,-0.0006457496,-0.001528058
-0.1959532,-0.009373483,0.9688948,-0.003163263,0.001269163,0.002596499
-0.1945506,-0.007676673,0.96974,-0.007979344,0.003681701,0.004245995
-0.1940449,-0.01127279,0.9710928,-0.008973484,0.003102318,0.002862011
-0.1930063,-0.01382914,0.9746595,-0.01061751,0.008339515,0.001255852
-0.1982712,-0.01207929,0.9777586,-0.01106906,0.006437436,0.0005287076
-0.2055908,-0.01239644,0.9773006,-0.007720405,0.001586591,-0.00316249
-0.2057069,-0.01269835,0.9766824,-0.005860549,0.0006755345,-0.00816933
-0.2017779,-0.01273225,0.9774663,-0.006261244,0.0002476584,-0.007418825
-0.1990316,-0.01488582,0.9778564,-0.006837032,0.002345536,-0.007890678
-0.201535,-0.01790864,0.9769388,-0.007742402,0.0004160018,-0.007446642
-0.2039052,-0.01787177,0.9733433,-0.007935301,-0.001012351,-0.0001670539
-0.2004846,-0.01411894,0.96989,-0.006099878,0.002875781,0.0007616178
-0.1995317,-0.01312885,0.9730602,-0.004567656,0.003422655,-0.0007563677
-0.2021246,-0.01199729,0.9767139,-0.0048022,0.001300461,-0.0007795012
-0.2033003,-0.008282167,0.9737794,-0.003816861,-0.002275362,-0.005606139
-0.2022479,-0.009451228,0.9724858,-0.008193579,-0.00323351,-0.006600568
-0.1987671,-0.01075406,0.9734096,-0.01642073,0.001508173,-0.006896533
-0.1963834,-0.009261933,0.9715729,-0.01417886,0.006280006,-0.008309017
-0.1975785,-0.01133588,0.9714123,-0.008631628,0.00709634,-0.006949958
-0.2013425,-0.01072129,0.9730349,-0.007122281,-0.00163613,-0.007950108
-0.2021591,-0.004372791,0.9749493,-0.009503457,-0.009985821,-0.007370538
-0.194827,-0.001558632,0.9771884,-0.01633124,-0.003624919,-0.007015417
-0.1886926,-0.004892768,0.9768118,-0.01837339,0.005932968,-0.007658439
-0.1960813,-0.008811764,0.9770853,-0.02129915,0.008778782,-0.00627597
-0.2058475,-0.009479884,0.979993,-0.02494424,0.007464422,-0.006185668
-0.2040616,-0.009722184,0.9804913,-0.01826774,0.0019377,-0.003840109
-0.2039428,-0.0100831,0.977994,-0.01379151,-0.004796624,-0.003242426
-0.2082813,-0.009311824,0.9729282,-0.01621169,-0.008268031,-0.006070435
-0.2056208,-0.009905188,0.9674936,-0.01766024,-0.005941674,-0.007740935
-0.2018371,-0.01109067,0.9687939,-0.01742229,0.002555611,-0.01024334
-0.1975789,-0.0156589,0.9724909,-0.01502881,0.009132298,-0.01041641
-0.1953532,-0.02150609,0.9731303,-0.01205403,0.007842938,-0.009465393
-0.1985561,-0.01857454,0.9765232,-0.009364522,0.005613642,-0.008153732
-0.1974188,-0.01345275,0.9777043,-0.006109535,0.005543673,-0.005174719
-0.1979128,-0.01297144,0.97511,-0.0004386606,0.00106547,-0.005115963
-0.1995985,-0.01215172,0.976869,0.002315046,-0.003975991,-0.005520358
-0.1952483,-0.01141879,0.9758611,0.0009228035,-0.0009680552,-0.005409286
-0.1955001,-0.008514443,0.9711056,0.004979041,0.002910092,-0.004533499
-0.1986033,-0.004336062,0.9693916,0.004916138,0.002731037,0.001342599
-0.1995729,-0.007964192,0.97138,0.0004105878,0.002928357,0.007120273
-0.2009763,-0.01267911,0.9766264,0.004043251,0.002316237,0.006377464
-0.2015496,-0.01086459,0.9773138,0.005957868,0.002949165,0.003143887
-0.2028221,-0.01064788,0.9759781,0.00656224,0.006260769,0.0007848237
-0.2015226,-0.01100014,0.9737277,0.007342625,0.00824151,-0.002821758
-0.1987492,-0.007142438,0.9669699,0.003378882,0.007678998,-0.0008853839
-0.2001418,-0.00454962,0.9687233,0.003507618,0.005664607,0.004591031
-0.2003218,-0.005283003,0.9709477,0.004252155,0.005678412,0.001867462
-0.1985646,-0.006136744,0.9651765,0.003999435,0.004650287,0.001654729
-0.1993106,-0.005358748,0.9652352,0.006314867,0.001071497,0.005013577
-0.20231,-0.005291731,0.96732,0.006370105,0.0008117304,0.002349225
-0.2061321,-0.005995779,0.9682388,0.005491875,0.001149643,0.002826455
-0.2060266,-0.005076111,0.9689696,0.003871263,6.544815e-05,0.003785806
-0.2028813,-0.004670997,0.9680534,0.003546686,2.043572e-05,0.002093421
-0.202536,-0.004136745,0.9701293,0.003575642,0.002357944,0.002454911
-0.2026592,-0.003546349,0.9706737,0.0007447751,0.00671284,0.0008495069
-0.2017803,-0.003736959,0.9730663,-0.001440354,0.01099276,0.002915381
0.2865578,0.8145145,0.4818583,0.112864,-0.0466376,0.2322815
0.2912394,0.8127137,0.4859693,0.1081373,-0.04195535,0.2301508
0.2928041,0.8132195,0.4855651,0.1092314,-0.0373733,0.229885
0.2921413,0.8152201,0.4851406,0.1075975,-0.03478422,0.2271162
0.2922846,0.8156985,0.4858171,0.1052298,-0.03481338,0.2219284
0.2933788,0.8146885,0.4865996,0.1057746,-0.03412868,0.2165866
0.2956187,0.8133213,0.4889337,0.1043521,-0.03148058,0.2138153
0.2991381,0.811164,0.4911692,0.1058573,-0.03263681,0.2105663
0.2984636,0.8105124,0.4889013,0.1047826,-0.03772391,0.2063054
0.2973282,0.8120277,0.4827635,0.1017343,-0.03900851,0.2017748
0.3011386,0.8137691,0.4774104,0.1019227,-0.03404166,0.1980088
0.301807,0.8159026,0.4791537,0.09961833,-0.02609703,0.1987991
0.2990262,0.8158151,0.4828102,0.09965837,-0.02435832,0.1998787
0.2970896,0.814179,0.4811178,0.1016456,-0.02677404,0.1958357
0.2956542,0.8132566,0.4806833,0.1011439,-0.02545741,0.1849691
0.2951787,0.8094868,0.4795579,0.1007998,-0.02676292,0.1740005
0.2945779,0.8068492,0.4780139,0.09864729,-0.02796096,0.1740625
0.2945753,0.8089784,0.4825292,0.09898839,-0.02554988,0.1774442
0.2951382,0.8091817,0.4852489,0.1016419,-0.02488082,0.1756218
0.2982813,0.8076625,0.486241,0.1011534,-0.02413726,0.1706542
0.3045126,0.8069064,0.4861592,0.1003763,-0.02132821,0.1649783
0.3060792,0.8065781,0.4806281,0.09886746,-0.009367429,0.1650059
0.3019123,0.8087821,0.4785031,0.0974964,0.003976463,0.1656698
0.2959,0.8113418,0.4808503,0.09757535,-0.001481277,0.1621372
0.2930995,0.813197,0.4823356,0.09920097,-0.007632773,0.1640082
0.2965595,0.8137824,0.480611,0.1015071,0.004697985,0.1670408
0.2982743,0.8124956,0.4780303,0.101918,0.02041133,0.1642072
0.2964687,0.8126437,0.4813515,0.1049865,0.02706474,0.1639625
0.2953583,0.8128058,0.4829909,0.1041342,0.009126559,0.1649916
0.2949699,0.814033,0.4813141,0.09628928,-0.02720494,0.1592964
0.2991517,0.8157285,0.4818731,0.09289313,-0.03489608,0.1516107
0.3058226,0.8124536,0.4797082,0.08988087,-0.01422293,0.146279
0.306578,0.8096002,0.4771415,0.08560583,-0.004298652,0.1421874
0.3036745,0.8094232,0.4781376,0.08231423,-0.009113907,0.1380424
0.3028846,0.8081209,0.4826669,0.07929075,-0.01502522,0.1313108
0.3015502,0.8089919,0.4866585,0.0819264,-0.0140182,0.125102
0.2989665,0.8142054,0.4857152,0.08394298,-0.01339727,0.1217519
0.2984974,0.819744,0.4843068,0.08123206,-0.01515601,0.1202343
0.2993837,0.8208862,0.4825635,0.07708392,-0.01646061,0.122545
0.3000736,0.8194151,0.481056,0.0721949,-0.02328473,0.1235974
0.2983723,0.8177771,0.48022,0.07035092,-0.02458223,0.1205318
0.2962321,0.816394,0.4782852,0.06959842,-0.02486024,0.1187595
0.2978981,0.8167319,0.4806115,0.06828221,-0.02911786,0.1180007
0.3002467,0.8158068,0.4835083,0.06733018,-0.02325022,0.1163107
0.3018084,0.8143025,0.4832885,0.06578706,-0.02014694,0.1141078
0.301942,0.8138062,0.486024,0.06486434,-0.02309656,0.1125684
0.300727,0.8115689,0.4866303,0.0641773,-0.02161618,0.1102532
0.3010733,0.8098049,0.4796404,0.0636042,-0.01667963,0.1063898
0.2989597,0.8071524,0.4749187,0.06301639,-0.0111918,0.102029
0.2964857,0.804992,0.4768293,0.06223044,-0.01452386,0.09316078
0.2999438,0.8105145,0.4785088,0.06197566,-0.01674055,0.0861834
0.3021854,0.8163056,0.4792568,0.06231767,-0.007458035,0.08841767
0.298587,0.8156551,0.47865,0.06384919,-0.002448908,0.09164342
0.2959201,0.8149632,0.4760797,0.06567645,-0.009224717,0.09204307
0.2971301,0.816526,0.4729729,0.0661568,-0.01558215,0.08784924
0.2969019,0.8179264,0.4670338,0.06378381,-0.01240254,0.08203571
0.2950248,0.8179113,0.4652859,0.06025578,-0.01168177,0.08539314
0.295889,0.8162552,0.4694844,0.05941927,-0.01715799,0.09192852
0.2962314,0.8146634,0.4699537,0.05884849,-0.01844807,0.09257765
0.296104,0.8147341,0.469668,0.05596458,-0.02106344,0.08993426
0.2998242,0.8132378,0.4722844,0.05461807,-0.0243198,0.08515768
0.3035662,0.8081033,0.4746699,0.05514557,-0.02192658,0.07989875
0.3041883,0.8061376,0.4756312,0.05426425,-0.02053713,0.07425454
0.3037574,0.8098574,0.4759164,0.05332654,-0.0203265,0.07006303
0.3032489,0.8122918,0.4791383,0.05338186,-0.01612092,0.07025538
0.3017118,0.8116196,0.4859361,0.05609727,-0.01198303,0.07054055
0.3003937,0.813431,0.4908931,0.05950797,-0.01668124,0.07228129
0.2997413,0.8172402,0.4879528,0.05547217,-0.02453685,0.07418067
0.2972409,0.8161473,0.4826383,0.05023437,-0.02531334,0.07333364
0.2966219,0.8133266,0.4816433,0.05085338,-0.02538068,0.07429127
0.2989153,0.8139515,0.4797788,0.0490459,-0.02567584,0.07320024
0.2999517,0.8140035,0.4784287,0.04545414,-0.02333664,0.07456071
0.3021657,0.8136865,0.4763382,0.04682631,-0.02164179,0.07750328
0.304625,0.8139308,0.4723665,0.04825237,-0.01606865,0.06876423
