accx,accy,accz,gyrox,gyroy,gyroz
0.1057022,0.7942689,0.6014987,0.02351602,-0.04724685,0.2883573
0.09476016,0.8046239,0.5940026,0.01768421,-0.06100936,0.3097219
0.1065574,0.8042298,0.581004,0.01866357,-0.03089465,0.3355273
0.1177729,0.801051,0.5744196,-0.003266846,0.001593171,0.3404034
0.1148036,0.7968263,0.5738546,-0.02890272,0.0002300942,0.3179097
0.1140739,0.7852295,0.5755691,-0.05131154,-0.005374281,0.2816381
0.1202492,0.7848018,0.5830064,-0.06119383,-0.001136881,0.2551553
0.1131563,0.7946508,0.5939708,-0.04923335,-0.0008617281,0.2486499
0.1083002,0.7957694,0.5984154,-0.04950686,-0.003219579,0.2590547
0.1121891,0.7897267,0.5957986,-0.05466954,-1.930622e-06,0.2585966
0.1089305,0.7838474,0.5966872,-0.05219661,-0.002902829,0.2564061
0.1078838,0.7848691,0.6004531,-0.03588649,-0.0122932,0.2650566
0.1093064,0.7850686,0.6003278,-0.01338715,-0.02012279,0.2604226
0.1087267,0.7753195,0.601352,-0.01762603,-0.02125413,0.2528624
0.10389,0.7713234,0.6034737,-0.01870899,-0.01767319,0.2425358
0.0973212,0.775987,0.6031553,-0.005420962,-0.02258889,0.238004
0.1009434,0.7827601,0.604096,-0.005609839,-0.02363009,0.249952
0.1077285,0.7937944,0.6008157,-0.004482383,-0.01966255,0.2483478
0.114282,0.7963721,0.5930381,-0.004161592,-0.01891957,0.241095
0.1185597,0.7879665,0.5928219,-0.01627826,-0.004328463,0.2342246
0.1126872,0.7787412,0.6040011,-0.0257128,0.006274713,0.2271616
0.1099288,0.76865,0.614516,-0.02010948,-0.006688132,0.223533
0.1162413,0.762067,0.607013,0.003476806,-0.01852154,0.2106037
0.1158433,0.7612325,0.5984051,0.02355573,-0.01318849,0.213519
0.09835105,0.7647161,0.60687,0.01744954,-0.008022666,0.234895
0.08080257,0.7724458,0.6087795,0.007469361,-0.01017882,0.2547814
0.08637474,0.7802401,0.6031063,0.008562254,-0.00304852,0.2623372
0.095821,0.788576,0.6036155,0.0009770885,-0.001316341,0.2578622
0.09369242,0.7928545,0.6024942,-0.009250295,-0.00595287,0.2680846
0.1008713,0.7885948,0.6033955,-0.01169369,0.001336257,0.2633192
0.1078929,0.7868636,0.6069695,-0.01184182,6.810694e-05,0.2448278
0.1037138,0.785627,0.6124436,-0.001430043,-0.008307642,0.2488157
0.1056041,0.7788839,0.6210059,0.01378209,-0.01597844,0.2401068
0.1076053,0.7743808,0.6167544,0.02300465,-0.02557185,0.2296449
0.1097716,0.7655035,0.6031228,0.02450432,-0.0260364,0.2242289
0.1163317,0.757038,0.596942,0.02451479,-0.02205739,0.2063374
0.1142328,0.7639653,0.6007663,0.03545739,-0.0117986,0.206238
0.1119389,0.7732524,0.6066337,0.0321238,-0.00457979,0.2053589
0.1119318,0.7820487,0.601542,0.01248398,-0.006092256,0.1976734
0.1052089,0.7899224,0.5970497,0.00627471,-0.004075333,0.1986036
0.09778005,0.7848517,0.6012561,0.006671244,-0.01266601,0.1920806
0.09316937,0.7823991,0.6010834,0.01087093,-0.01936671,0.1918583
0.09510171,0.7851942,0.6034942,0.009186611,-0.01530603,0.1922426
0.09936781,0.7796646,0.607035,0.004721832,-0.02090385,0.1903982
0.09758586,0.7780133,0.60696,0.01337854,-0.02069167,0.2002158
0.09981608,0.7814498,0.6119207,0.01811168,-0.01149405,0.2016213
0.1050711,0.783118,0.6106248,0.02288824,-0.006728515,0.1982655
0.1020506,0.7854046,0.608059,0.01365632,-0.004025232,0.1975023
0.09909628,0.7831155,0.6140147,-0.008484741,-0.005262161,0.1929446
0.0990673,0.7797781,0.6133466,-0.005077912,-0.007259514,0.186824
0.0993169,0.7779001,0.6080763,-0.003128992,-0.008912465,0.1777978
0.1044368,0.7741423,0.6044383,-0.007195391,-0.009349843,0.1769585
0.1065247,0.7759672,0.6052337,-0.0009204716,-0.007702925,0.1801222
0.1033318,0.7788338,0.6120499,-0.002883785,-0.008769321,0.1815163
0.1024151,0.772964,0.614946,0.0006191035,-0.004661428,0.1865733
0.1034784,0.7660246,0.6160255,0.008923139,0.001476971,0.1778358
0.1041724,0.7644652,0.6165119,0.009138559,-0.0005376112,0.1647044
0.09890208,0.7660584,0.6165014,0.01042796,-0.001167038,0.1673413
0.08905754,0.7672955,0.6203316,0.01546333,-0.00308021,0.1755325
0.08450662,0.7645431,0.6217109,0.02704526,-0.01714063,0.1867601
0.08951909,0.7590831,0.6235284,0.04254292,-0.03130215,0.1926894
0.09661948,0.7548189,0.6260243,0.05827702,-0.03126783,0.1882325
0.09757585,0.7545521,0.6247645,0.06756148,-0.02662263,0.1871272
0.1003356,0.7579856,0.6248038,0.07590888,-0.02608918,0.1861471
0.1032208,0.7632553,0.6235892,0.0964847,-0.02226307,0.184854
0.1012715,0.7730804,0.6195262,0.1060155,-0.02499609,0.186355
0.1058162,0.7812294,0.613359,0.1104523,-0.03279797,0.179138
0.110392,0.7826304,0.6090375,0.1261473,-0.02489485,0.1671455
0.1071543,0.7853759,0.6100678,0.1213108,-0.01667969,0.1580543
0.1033793,0.786976,0.6055798,0.1096716,-0.01667999,0.1526817
0.1011269,0.7876079,0.5988068,0.1026644,-0.01456061,0.1522969
0.1050982,0.7906045,0.601247,0.07955462,-0.0144864,0.1492353
0.1125066,0.7930494,0.6054345,0.06410026,-0.01175636,0.1433663
0.1144916,0.7998316,0.6073781,0.0481822,-0.01109511,0.1339397
0.1164264,0.8027135,0.6094275,0.02750936,-0.01279665,0.1223297
0.1204126,0.7957589,0.6021536,0.0266542,-0.004625083,0.1220035
0.1181034,0.7910969,0.5887656,0.009345114,0.004367248,0.1232232
0.1123578,0.7908612,0.5888733,-0.02182806,0.01639733,0.1188861
0.1096002,0.7911164,0.6000123,-0.02966976,0.03017036,0.1190904
0.1050469,0.7880538,0.607654,-0.0297283,0.02845287,0.1171263
0.1024056,0.7818236,0.6061792,-0.02498521,0.02406351,0.1134041
0.1045013,0.7745532,0.6030708,-0.01146489,0.0281647,0.1139036
0.1014291,0.7686811,0.6087309,0.002666134,0.02697515,0.114136
0.09765293,0.7690528,0.6124993,0.01342147,0.02058349,0.1176315
0.09866793,0.7682624,0.6137587,0.01517034,0.01865101,0.1215813
0.09929948,0.7637086,0.6163568,0.0182294,0.01971376,0.119656
0.1012003,0.7626508,0.6115916,0.02789207,0.01993127,0.1189951
0.104332,0.7668427,0.6128871,0.03488535,0.01150037,0.1190228
0.1066437,0.773482,0.6183107,0.04198337,-0.000252199,0.1142115
0.1088766,0.7749055,0.6134368,0.04984935,0.001054978,0.1081159
0.1080693,0.7772715,0.6059334,0.04608445,0.002694658,0.1030669
0.1032445,0.7837072,0.5966091,0.03367402,-0.0005671239,0.1023922
0.100066,0.7824292,0.5958722,0.02899373,0.003823939,0.104526
0.1016246,0.7805505,0.6030093,0.02797255,0.007135475,0.1009205
0.1037593,0.7814298,0.6030088,0.02445152,0.007152941,0.09658773
0.1043805,0.7773272,0.6094178,0.02393636,0.009910226,0.09452664
0.1043397,0.7755913,0.6129817,0.02334969,0.01189036,0.09199702
0.1036044,0.7784907,0.6072289,0.02175859,0.01133743,0.09733171
0.102428,0.7798738,0.6124184,0.02211476,0.01034283,0.1024827
0.101112,0.7790141,0.6134506,0.02350891,0.01146485,0.09499135
0.1019413,0.7778871,0.6082084,0.02474952,0.01244692,0.0885871
0.1026582,0.777981,0.6090895,0.02376084,0.01255809,0.09058855
0.09819726,0.7785447,0.6092501,0.01955517,0.0106976,0.09199441
0.09539534,0.7794433,0.6117493,0.01565845,0.006394184,0.09234186
0.1022893,0.7780091,0.6099464,0.02067654,0.006410863,0.09403133
0.1100976,0.7715915,0.6063402,0.02963583,0.008562269,0.0929964
0.1090765,0.7662985,0.6095807,0.03526786,0.01022876,0.08988042
0.1059958,0.7692049,0.6109005,0.04330252,0.01364108,0.08735125
0.1036594,0.7765032,0.6184212,0.04498572,0.01186414,0.08678461
0.09917388,0.779685,0.6259389,0.04513849,0.004691735,0.08931303
0.1034445,0.7812911,0.6171954,0.05256887,0.003961391,0.08570858
0.1138315,0.7847436,0.6082525,0.03732118,0.01948816,0.07131982
0.1137975,0.7858802,0.6093974,0.006268784,0.03497459,0.0551307
0.1071295,0.7848433,0.6105261,-0.007150904,0.02103657,0.04756441
0.1024311,0.7820319,0.6081459,-0.01262066,0.004745737,0.04956816
0.1032167,0.7791912,0.6058457,-0.01344029,0.01521189,0.0483105
0.1049736,0.7761127,0.6036535,-0.008526384,0.01689136,0.04480717
0.0985027,0.766412,0.607301,-0.002919887,0.007103866,0.05213763
0.09367718,0.7547535,0.6169119,0.01080011,0.001725391,0.06834243
0.09501205,0.7461038,0.623043,0.02572801,-0.01431764,0.08149534
0.09706867,0.742057,0.6265176,0.05559038,-0.01879178,0.0846063
0.1021254,0.7521585,0.6239952,0.1000874,-0.004165446,0.08988716
0.1075638,0.7707191,0.6193318,0.1055278,0.01080942,0.09685839
0.1116777,0.7823517,0.6203235,0.08563021,0.02871525,0.08722667
0.1079232,0.7863272,0.6172424,0.08138111,0.02796349,0.07808074
0.1001062,0.786434,0.6088696,0.07116599,0.01799356,0.07785385
0.1040607,0.7867533,0.600057,0.05761065,0.02281157,0.06487005
0.1076965,0.7907377,0.598319,0.04000894,0.01757888,0.05046103
0.1058637,0.7943313,0.6006253,0.002521393,0.01406083,0.04551796
0.1066985,0.7930538,0.596135,-0.02015976,0.021622,0.04020301
0.1041359,0.7881811,0.6003141,-0.02662084,0.0195235,0.03726269
0.1033932,0.7802174,0.6092392,-0.0308664,0.01622133,0.03542768
0.1050062,0.7672761,0.6127283,-0.01757531,0.01068359,0.03597986
0.1036009,0.7585106,0.6241922,-0.00459978,0.007498527,0.04043642
0.1041606,0.7598191,0.6304007,0.009385065,0.008460883,0.04033801
0.1030966,0.7608862,0.6277086,0.03229955,0.002022976,0.04205629
0.100156,0.7642981,0.62656,0.04713989,0.002793801,0.05075146
0.09885621,0.7730122,0.6162777,0.05471791,0.002856587,0.05669117
0.09877881,0.7764459,0.6053849,0.04594151,-0.002653141,0.05376039
0.1024515,0.776458,0.6076874,0.03451178,-0.0002293197,0.04650939
0.1051708,0.7772373,0.6121742,0.03533796,0.001188986,0.04132895
0.1032176,0.7786731,0.6096438,0.02814185,0.006570432,0.0365234
0.1011042,0.7787873,0.6098729,0.02335209,0.0118254,0.03593242
0.1013951,0.7751005,0.6134206,0.02326397,0.008219271,0.0404327
0.1025749,0.7740544,0.6115925,0.02005554,0.007795828,0.0406082
0.1028129,0.77363,0.6159046,0.02435748,0.007759546,0.03929678
0.103135,0.7713668,0.619806,0.02588737,0.007614894,0.03824947
0.1033999,0.7722666,0.6123301,0.02179832,0.008311616,0.03509726
0.1034153,0.772495,0.6108502,0.01997218,0.007553246,0.03043213
0.1027099,0.7719677,0.6165769,0.02058428,0.009624193,0.02452836
0.1013195,0.772559,0.6219917,0.02287575,0.009070011,0.02838645
0.1018717,0.7737257,0.6229848,0.02526044,0.003645332,0.03904467
0.1031128,0.7775436,0.6195585,0.03329731,-0.001278528,0.04293524
0.1047095,0.7797673,0.6171347,0.03897735,0.0009003933,0.0402311
0.1052758,0.7759992,0.6130485,0.03474937,0.005430994,0.03156447
0.1032965,0.7699465,0.6130092,0.0324616,0.002396077,0.02544242
0.1026684,0.7687129,0.6138392,0.03187265,0.001708032,0.0260525
0.1025632,0.7725109,0.6120825,0.03012986,0.004053751,0.02479751
0.1029529,0.7772944,0.6144066,0.03034658,0.00511503,0.01935137
0.1040178,0.7806082,0.6135347,0.02941949,0.009293489,0.01548551
0.1039811,0.7793544,0.6129594,0.0277282,0.007703012,0.02069675
0.1045475,0.7783023,0.611203,0.02441822,0.003152793,0.02325376
0.1040152,0.7789198,0.6062855,0.01844427,0.004305364,0.01748979
0.1035806,0.7745841,0.6095993,0.01525476,0.006373053,0.01540011
0.1028419,0.7709354,0.6107242,0.0142866,0.008050643,0.01476106
0.1005966,0.7738615,0.6093776,0.0146896,0.007993132,0.01668364
0.1022477,0.7759651,0.6136733,0.01974534,0.00814908,0.01747929
0.103589,0.7729686,0.6179974,0.02546242,0.00911114,0.01321185
0.1023482,0.7713487,0.6207452,0.02800247,0.009679687,0.01328971
0.1028583,0.773505,0.618473,0.02664036,0.011589,0.01124961
0.1026823,0.7740218,0.6168124,0.02364411,0.007760995,0.00921723
0.1017702,0.7739274,0.6179304,0.0239724,0.00345983,0.01107467
0.1013911,0.7763559,0.6153943,0.02380352,0.005511471,0.008437399
0.1020981,0.7778615,0.6121933,0.02272874,0.004242554,0.009043432
0.1033231,0.774369,0.6076307,0.02332189,0.002666706,0.01256072
0.1027342,0.7694243,0.6072145,0.02191833,0.00432848,0.01329722
0.1027263,0.7695219,0.6140422,0.02237954,0.004221937,0.01232466
0.1039078,0.7707997,0.6182136,0.02468798,0.003993573,0.01034738
0.1046831,0.7722782,0.6212354,0.02510051,0.004490821,0.01401709
0.1060485,0.7760448,0.6216995,0.02810671,0.004402429,0.01665725
0.1069998,0.7738412,0.61575,0.03119556,0.00369615,0.0133735
0.1054013,0.7703672,0.6133314,0.02991409,0.003655325,0.009342834
0.1036378,0.7728633,0.6137931,0.0291404,0.003775984,0.003562692
0.1058341,0.7725989,0.6117175,0.0298272,0.003698725,0.001639335
0.1082412,0.7716528,0.6114687,0.02602026,0.004187097,0.001560105
0.1076077,0.7740647,0.6134867,0.02148162,0.004095756,0.001542633
0.1082615,0.7754638,0.6162439,0.02057156,0.005502087,0.005522725
0.108167,0.776359,0.6156988,0.01837165,0.00797798,0.003104314
0.1043,0.7740424,0.613231,0.01702676,0.007475519,-0.0004410018
0.1016185,0.7711309,0.6140004,0.01658575,0.00281043,0.002123985
0.1016497,0.7741093,0.6116705,0.01556246,-0.001902833,0.001521306
0.1016462,0.7757825,0.6087199,0.01776921,-0.0002369126,0.002865423
0.1016347,0.7728513,0.6093291,0.02006994,0.001793601,0.00418441
0.1040502,0.7718508,0.6075189,0.02267335,0.0005772364,-0.00330883
0.1066434,0.7740905,0.6042247,0.02421054,0.004787876,-0.00800817
0.1055976,0.7754497,0.6038415,0.02105701,0.009354533,-0.002463939
0.1050262,0.7731999,0.6092509,0.01980253,0.007470189,0.002733006
0.1063469,0.771471,0.6125317,0.02112326,0.007130955,-0.0009927155
0.1072129,0.7732362,0.608889,0.0228116,0.008346986,-0.004826391
0.1087637,0.7745657,0.6077521,0.02502779,0.0046472,-0.005105817
0.1087506,0.7751811,0.609289,0.02335852,0.001376339,-0.009347493
0.1077547,0.7768376,0.6104068,0.01805043,0.003797274,-0.01017048
0.1086029,0.77715,0.6106709,0.01286468,0.006547299,-0.007051457
0.107906,0.7776331,0.611266,0.01094315,0.006217363,-0.007789666
0.1053479,0.7799298,0.6135268,0.01246489,0.004082498,-0.005604321
0.1039842,0.7795345,0.6135988,0.01329477,0.001451163,-0.002441898
0.1055173,0.7778882,0.6123343,0.01428699,0.001416228,-0.00567487
0.1078722,0.7767827,0.6105461,0.01516122,0.00223392,-0.008796857
0.1057703,0.7732907,0.6105478,0.01359393,0.001041057,-0.00659014
0.1027823,0.7728534,0.6120418,0.01558382,0.0009562824,-0.002832083
0.102957,0.7754366,0.611247,0.01991497,0.001356929,-0.001238284
0.1034449,0.7745525,0.6146429,0.02033596,0.002862947,-0.005988107
0.1045386,0.7731167,0.618451,0.02039921,0.006073353,-0.01335864
0.1042801,0.7723102,0.6169844,0.01976937,0.00543176,-0.01150818
0.1027088,0.7738048,0.616168,0.01845282,0.005637329,-0.01032075
0.1029171,0.7780068,0.6149636,0.01778143,0.009175104,-0.01477555
0.1027875,0.7782685,0.6137246,0.01366376,0.00826319,-0.0107885
0.1036331,0.7775379,0.6126473,0.01176485,0.005681708,-0.007958883
0.104711,0.778937,0.6092898,0.01299457,0.0047824,-0.01060707
0.1039243,0.7792867,0.6082273,0.0117123,0.004617169,-0.0108445
0.1047308,0.7791462,0.6118679,0.01283024,0.005646669,-0.01353916
0.10693,0.777762,0.6153455,0.01416706,0.004946205,-0.01374709
0.1090102,0.7753261,0.6135669,0.01311969,0.005103331,-0.01224461
0.1088167,0.772773,0.6103072,0.01334797,0.008764486,-0.0138953
0.1072098,0.7715938,0.6104465,0.01104383,0.01165313,-0.01170444
0.1069346,0.773555,0.6139802,0.007538941,0.01223301,-0.009604424
0.1051396,0.7749478,0.6191815,0.007429811,0.01120896,-0.01103332
0.105086,0.7747099,0.6184884,0.0090923,0.009716807,-0.01218005
0.1071225,0.7733621,0.6136614,0.009610067,0.008910006,-0.01392509
0.1058923,0.7719994,0.6119662,0.005282657,0.01111608,-0.01616601
0.1052711,0.7753416,0.610435,0.001450001,0.01402298,-0.01871301
0.1048031,0.7803337,0.6111741,0.006422065,0.009478637,-0.02076048
0.1009227,0.7809948,0.6139003,0.01224992,0.002786187,-0.01956678
0.09727692,0.777833,0.6148063,0.01003487,0.002011462,-0.01521413
0.097213,0.7734586,0.6168546,0.003999939,0.002740903,-0.01075554
0.09924072,0.771176,0.6169399,-0.0007128418,0.00279351,-0.006754868
0.1010933,0.771746,0.615847,-0.000760805,0.00462524,-0.005403246
0.1062864,0.7710003,0.6153692,0.002253328,0.01299282,-0.015035
0.1096584,0.7694463,0.6135502,0.002857629,0.02086845,-0.0260272
0.1038158,0.7736321,0.6163967,0.006025288,0.01163331,-0.01885557
0.09844592,0.7779506,0.6182807,0.01217085,4.554869e-05,-0.006157871
0.09932219,0.7737273,0.6115252,0.01467888,0.005494563,-0.005193274
0.1049423,0.7713013,0.6064414,0.02127889,0.01015823,-0.009183132
0.1105535,0.7772001,0.609714,0.02912861,0.007144918,-0.01473416
0.1078465,0.7800463,0.6130055,0.02233962,0.007893927,-0.01743196
0.1023585,0.7741032,0.6103605,0.01269962,0.006328046,-0.01585007
0.09980763,0.7674704,0.609781,0.01487628,0.002378269,-0.01866435
0.09829142,0.7674126,0.6113568,0.01457413,0.002105048,-0.01737732
0.09875678,0.7703576,0.6109111,0.009951767,0.001028798,-0.009645762
0.09963386,0.7730696,0.6133457,0.009249223,-0.002199205,-0.007470052
0.1030896,0.7744583,0.6145019,0.001860676,-0.005602587,-0.007114809
0.1090366,0.7672643,0.6119605,-0.004107064,-0.005206984,-0.006105649
0.1092899,0.7582062,0.6060951,0.0009072132,-0.002485862,-0.01186946
0.1070275,0.7618399,0.6001336,0.006171509,-0.002496065,-0.01825975
0.1069086,0.7710087,0.6076835,0.01718138,-0.008085689,-0.01214739
0.1055264,0.7776736,0.6166518,0.0270345,-0.01657739,-0.006441294
0.1067471,0.7814142,0.6121515,0.02595954,-0.01348574,-0.01202983
0.1090901,0.7777143,0.6115177,0.03014134,-0.009001275,-0.01360904
0.1053429,0.7727244,0.6176917,0.03534187,-0.0140866,-0.01375714
0.1019047,0.7714183,0.6180794,0.03382806,-0.01271733,-0.01818639
0.1027852,0.7739701,0.6153229,0.03409515,-0.01174186,-0.01822278
0.1037129,0.7807472,0.6127682,0.03125534,-0.01040938,-0.01656194
0.1061988,0.7811292,0.6115039,0.02263321,-0.0001819546,-0.0157256
0.1094555,0.7806418,0.6115332,0.01449364,0.001424205,-0.01580335
0.1087949,0.7839837,0.6098918,0.01027687,-0.004959636,-0.01839068
0.1069328,0.7808948,0.608597,0.01004782,-0.008469094,-0.01980511
0.1060632,0.7814895,0.6066069,0.005436249,-0.005791406,-0.01808049
0.1035429,0.7833571,0.6060525,-0.004293585,-0.001574272,-0.01500913
0.1045932,0.7787201,0.6090061,-0.009929619,-0.001875613,-0.0123891
0.1114752,0.7737623,0.6082291,-0.009426583,0.006311897,-0.01227149
0.114641,0.7656694,0.6079381,-0.006204454,0.01473497,-0.01386449
0.1102375,0.7681084,0.6101307,-0.006241443,0.006896893,-0.01344552
0.103782,0.7781996,0.6129896,-0.005237658,-0.0003313978,-0.01261547
0.103029,0.7777218,0.6188329,-0.001717588,0.0009524836,-0.01028151
0.1052157,0.7780385,0.6183289,-0.00437172,0.002679726,-0.004836842
0.1039045,0.7768444,0.6155136,-0.005760308,0.008186095,-0.002721477
0.1048868,0.7705275,0.6140232,-0.007003565,0.01707292,-0.00310381
0.1061923,0.7667557,0.6085686,-0.01297401,0.01789601,-0.005392698
0.1041775,0.7646614,0.6130826,-0.01620075,0.01425346,-0.008528974
0.1046011,0.7682092,0.6201282,-0.01596304,0.01495362,-0.003544659
0.1071502,0.7712553,0.6151542,-0.002340114,0.01357671,0.001851647
0.1109405,0.7720352,0.6120997,0.01309753,0.01350723,-0.000779435
0.1116219,0.7740484,0.6113783,0.009163012,0.01551855,-0.001280458
0.1077098,0.7743686,0.6103959,0.008634056,0.01162083,0.001199731
0.1063065,0.7775647,0.6150522,0.01613207,0.009707457,0.001033007
0.107002,0.778409,0.6177365,0.01209572,0.00716583,0.001934637
0.1081162,0.7775575,0.6172916,0.007745698,-0.001274583,0.0004540368
0.1095004,0.7801428,0.6164871,0.008806267,-0.002732507,-0.009998147
0.1126058,0.7791761,0.6138083,0.002953504,0.005773717,-0.02220193
0.1168072,0.7738446,0.6120586,-0.006309651,0.01374605,-0.02615041
0.1155244,0.767378,0.6100692,-0.0113666,0.01248522,-0.0240157
0.113156,0.7706054,0.608992,-0.01038568,0.00978125,-0.02583035
0.1133797,0.7778242,0.608812,-0.007600192,0.01224918,-0.02681782
0.1117473,0.7760601,0.6083288,-0.01032781,0.01010205,-0.01773415
0.1102583,0.7768671,0.6105668,-0.01076693,0.007638047,-0.008536294
0.1088001,0.7765418,0.6098015,-0.01103343,0.008391826,-0.007565377
0.1076718,0.7709477,0.6079361,-0.01600096,0.006960138,-0.01577594
0.1097528,0.7675871,0.609639,-0.01436575,0.01016686,-0.02401458
0.1110946,0.764419,0.611933,-0.01215497,0.01485841,-0.01952001
0.1112128,0.7674763,0.6180744,-0.009478241,0.01428333,-0.01397623
0.1124577,0.7705707,0.6215071,-0.002151883,0.01311911,-0.01290367
0.1134443,0.7635097,0.6211214,0.001724724,0.01124935,-0.01135904
0.1142712,0.7562757,0.625828,0.01191801,0.008577484,-0.01460153
0.1132742,0.7551558,0.628106,0.02320834,0.006999099,-0.01791729
0.1099402,0.7614003,0.6228343,0.02145811,0.0008489878,-0.02011581
0.107581,0.7708897,0.6153953,0.02349734,-0.008228036,-0.02082213
0.1079694,0.7760303,0.6143798,0.03221426,-0.006739107,-0.01439874
0.1101142,0.7797194,0.6199207,0.03050469,-0.004784479,-0.01050354
0.1107337,0.7859164,0.6201135,0.0267346,-0.01687525,-0.0127122
0.1114357,0.7897616,0.612832,0.02676253,-0.02237574,-0.01608245
0.113038,0.7880626,0.6056474,0.01688133,-0.01171133,-0.01905762
0.1123269,0.7853078,0.6072713,0.003272249,-0.002894128,-0.01932133
0.1118244,0.7808624,0.6109811,-0.00961113,-0.006273076,-0.02058898
0.1125646,0.7772008,0.6103697,-0.01983994,-0.01320273,-0.02239387
0.1136682,0.7787494,0.6194939,-0.01294879,-0.01088801,-0.02266454
0.1142387,0.7749729,0.6260799,-0.004202026,-0.004443161,-0.02304172
0.1130702,0.7681536,0.6156763,-0.002777447,0.0006555574,-0.01940251
0.1113815,0.7691705,0.6088573,0.00242931,-0.0007364391,-0.01484785
0.1089074,0.7710285,0.610576,0.00183782,-0.007755406,-0.01421076
0.1093839,0.7700298,0.6116789,-0.0005686231,-0.006405297,-0.01519806
0.1115515,0.7673976,0.6145163,0.004626622,-0.008362019,-0.01879429
0.1107864,0.7646215,0.619509,0.01149049,-0.01567565,-0.02163573
0.1115938,0.7675523,0.6211797,0.02502234,-0.0168428,-0.02298814
0.1130953,0.770596,0.6204429,0.03892912,-0.02083646,-0.02593346
0.1138335,0.7666194,0.6204044,0.04166335,-0.02269165,-0.02577953
0.1132757,0.7640759,0.6161445,0.04717164,-0.02262983,-0.02547201
0.1097945,0.7676605,0.6123261,0.05477952,-0.02611178,-0.02603669
0.110132,0.7702132,0.6147681,0.05252196,-0.03146892,-0.02409335
0.1146865,0.7717203,0.6181181,0.05745217,-0.03887521,-0.02534026
0.1186885,0.7754729,0.6184396,0.06783685,-0.03411603,-0.02751434
0.1188954,0.777547,0.6127751,0.06289135,-0.02694428,-0.02944336
0.1159124,0.7773998,0.6050896,0.05497462,-0.02702467,-0.03350552
0.1156232,0.7785461,0.6001817,0.04787637,-0.02047566,-0.03503565
0.1144666,0.7802159,0.6014667,0.03305936,-0.01713716,-0.03136771
0.1129405,0.7813792,0.6083329,0.02414261,-0.015326,-0.02390084
0.1150348,0.7850174,0.6079475,0.01832783,-0.007155933,-0.02204229
0.1168089,0.7884484,0.6013586,0.001386577,-0.003148635,-0.02517003
0.1203865,0.7872748,0.5972864,-0.01986127,0.001460021,-0.02797985
0.1221529,0.7860731,0.5981815,-0.03618081,0.01072805,-0.03283082
0.1191164,0.7846457,0.6040782,-0.04257459,0.01997064,-0.02929046
0.1164811,0.7797749,0.6065884,-0.03554488,0.02280774,-0.01818023
0.1125152,0.7745072,0.6071563,-0.0210545,0.01510404,-0.01173339
0.1110905,0.7713937,0.6077804,-0.004987236,0.008084047,-0.01275749
0.1119731,0.7716723,0.6068596,0.009479648,0.005524535,-0.01992578
0.1104104,0.7710105,0.6082947,0.01193403,0.0002948871,-0.02426636
0.1121635,0.7684265,0.6041151,0.005436225,-0.004745812,-0.02748842
0.1131469,0.770098,0.6003518,0.00213157,-0.001880453,-0.02968717
0.1109157,0.7735825,0.6080743,-0.0003376302,0.004206634,-0.02524064
0.1113672,0.7759385,0.6131538,0.002318407,0.00200204,-0.02170137
0.1119166,0.7784921,0.608825,0.01106039,-0.001454415,-0.01712775
0.1128646,0.7829265,0.6026679,0.01603778,-0.002393143,-0.01443803
0.1137981,0.7881556,0.5996227,0.01518683,-0.004830973,-0.01226254
0.1135828,0.7872472,0.5961844,0.001665172,0.004399459,-0.002343903
0.1143559,0.7866296,0.5944943,-0.02285702,0.02320667,-0.006077879
0.1136908,0.7893504,0.6029556,-0.04413111,0.03566797,-0.01883559
0.1136887,0.78378,0.6107145,-0.05202717,0.03651917,-0.02108176
0.1136173,0.7779367,0.6102651,-0.04668363,0.03131994,-0.02290249
0.1095361,0.7758495,0.6135809,-0.03981587,0.02867936,-0.02172241
0.1056597,0.7704796,0.6222641,-0.02746117,0.0177094,-0.01809362
0.1055453,0.7694384,0.6222819,-0.008350005,0.004653013,-0.01087639
0.110372,0.7697572,0.6166988,0.006367205,0.004449282,0.0003097511
0.114012,0.7690367,0.6172112,0.023213,0.001055009,-0.003040848
0.1110043,0.7720032,0.6141522,0.0324375,-0.002990359,-0.006145497
0.1073859,0.7726073,0.6088123,0.02807804,-0.002075207,-0.00186645
0.1055645,0.773456,0.6084428,0.03197254,-0.009338798,-0.00493525
0.105108,0.7758736,0.6084115,0.03424208,-0.01868176,-0.005474707
0.1075966,0.7765749,0.6097718,0.02796652,-0.01891813,-0.007615758
0.1144987,0.777433,0.6054848,0.02532625,-0.01060788,-0.01615441
0.1215053,0.7802779,0.6010969,0.01356312,-0.0001088712,-0.02113056
0.1179449,0.7904434,0.6069202,-0.007697223,0.009923926,-0.02100709
0.1125213,0.7976885,0.6098567,-0.03003398,0.013958,-0.01933447
0.1168537,0.793369,0.6081691,-0.04333599,0.009604478,-0.02548072
0.1176528,0.789223,0.6079019,-0.03912396,0.01084139,-0.03132476
0.112794,0.7817475,0.6087177,-0.04072311,0.01770969,-0.02909916
0.1104367,0.7688753,0.6094935,-0.04412852,0.02127353,-0.0283371
0.1071748,0.7679013,0.6094748,-0.03587455,0.01825634,-0.02560952
0.1080156,0.7716849,0.6104196,-0.03045562,0.01252324,-0.02109189
0.1114919,0.7630599,0.6103429,-0.01962939,0.01436838,-0.01814059
0.1106917,0.7584082,0.6124375,-0.002025007,0.01259444,-0.0122069
0.1112634,0.7637137,0.6180039,0.01438077,0.005797755,-0.005625518
0.1105539,0.7657107,0.6217908,0.02857558,0.005119558,-0.00411281
0.1095504,0.7722123,0.6193334,0.02922904,-0.0009559705,-0.008244823
0.1112764,0.7806212,0.6086714,0.02394219,-0.007206895,-0.01141144
0.110218,0.7812572,0.601753,0.02130473,-0.003336727,-0.01593937
0.1109531,0.7805515,0.6020739,0.01277515,0.002464751,-0.02037758
0.1118874,0.7804002,0.6011505,0.0002753613,0.008805769,-0.01662248
0.1104005,0.7814409,0.5997165,-0.007471436,0.009887626,-0.01503458
0.1117677,0.7818503,0.5997888,-0.0130252,0.009011526,-0.01520704
0.1130075,0.7814227,0.6019537,-0.02270719,0.01745176,-0.01332918
0.1132063,0.7825319,0.6031772,-0.02640727,0.02091042,-0.01517048
0.1099902,0.7808601,0.6068172,-0.02134647,0.0131683,-0.01420205
0.1049341,0.7770703,0.6131929,-0.01988924,0.008093995,-0.01370592
0.106672,0.7729838,0.6100066,-0.02006754,0.008672613,-0.01452603
0.1081557,0.7713758,0.6060461,-0.01689243,0.009247471,-0.01010568
0.1062148,0.7721425,0.609257,-0.01230152,0.003895811,-0.006781469
0.1079969,0.7702055,0.60868,-0.008331348,-0.0008838491,-0.005187539
0.1090147,0.770444,0.6087449,-0.002329354,0.0006540194,-0.004326958
0.1075247,0.7714992,0.6152368,0.009112996,-0.002245853,-0.00229649
0.1067033,0.7692685,0.6192546,0.01582887,-0.006073038,0.004565429
0.1059671,0.770421,0.6151782,0.01752228,-0.002694343,0.008867976
0.1096249,0.7760514,0.6084324,0.02426803,0.003058968,0.00442811
0.1141248,0.7844806,0.6064417,0.02434895,0.01036596,-0.001571969
0.1109023,0.7889057,0.6044379,0.0121211,0.01544872,-0.000164288
0.108627,0.7850908,0.5998667,0.001774137,0.01668951,-0.00505105
0.1129944,0.781807,0.6007893,-0.003507692,0.01650226,-0.02088711
0.1148265,0.7786809,0.6026043,-0.01000962,0.01233934,-0.02765085
0.1118325,0.7775732,0.6011936,-0.01869706,0.0093696,-0.02865913
0.1075536,0.7807047,0.6044151,-0.02553033,0.01009521,-0.02851851
0.1046781,0.7788591,0.6089887,-0.03056134,0.01009433,-0.02068473
0.1069361,0.7778104,0.6108206,-0.03047411,0.01038062,-0.01524165
0.1088726,0.7769705,0.6138617,-0.02252206,0.009289665,-0.01721055
0.1036125,0.7688773,0.6175825,-0.0164814,0.0031033,-0.01848619
0.09965266,0.7636994,0.6205715,-0.004768558,-0.007244851,-0.01142962
0.1029507,0.7621782,0.6204221,0.01327541,-0.01360325,-0.002806906
0.106609,0.7644084,0.613983,0.01911028,-0.01122112,-0.0009044872
0.108175,0.7714404,0.6045045,0.02385781,-0.007640768,7.047158e-05
0.1088462,0.7740885,0.6009604,0.02960548,-0.005457324,-0.0007630602
0.1088546,0.7766203,0.6058357,0.02884363,-0.0055434,-0.002735254
0.1117437,0.7807467,0.6082559,0.03212659,-0.008256592,-0.004573646
0.1154449,0.7818757,0.6040409,0.02694846,-0.007577602,-0.0100557
0.1150201,0.7845362,0.6006544,0.01061792,-0.006255191,-0.01416872
0.113831,0.7871032,0.6005834,-0.002577807,-0.002785988,-0.01743073
0.1102188,0.7854246,0.6052579,-0.0151762,0.004262085,-0.01801893
0.1004937,0.7836791,0.6113555,-0.01792781,0.004446868,-0.01500169
0.09681786,0.7845608,0.6095115,-0.01210088,0.002742569,-0.01644793
0.1038044,0.7816532,0.6038085,-0.0128736,0.004417112,-0.01503096
0.107531,0.775532,0.6014324,-0.01151544,0.003057274,-0.01040229
0.1047091,0.7741047,0.6022374,-0.008757936,0.001979754,-0.009951422
0.10282,0.7752178,0.6070288,-0.008544199,0.00179706,-0.004667358
0.1043362,0.7762043,0.6103292,-0.003768389,0.001434171,0.003893134
0.1088018,0.776554,0.6113385,-0.006805483,0.005815818,0.003300632
0.1123068,0.7760815,0.6166544,-0.01313523,0.008293462,-0.004741657
0.1118233,0.7756846,0.6189199,-0.009072652,0.003674618,-0.007480051
0.1113552,0.7754274,0.6126343,-0.006255976,0.001663316,-0.007879893
0.1105922,0.7794316,0.606629,-0.004712376,0.00407274,-0.0124379
0.1060953,0.7838061,0.6066513,-0.005609812,0.004317875,-0.003555819
0.1029884,0.7828416,0.6101403,-0.01213174,0.002489474,0.008093059
0.1042672,0.7813662,0.6119168,-0.01493627,0.0007615592,0.0006597027
0.1064963,0.7792012,0.6106395,-0.01978646,0.0009144924,-0.006669746
0.1068367,0.7749654,0.6080765,-0.02272479,0.004539022,-0.009079301
0.1039987,0.7745816,0.6071848,-0.01704232,0.009954954,-0.005045362
0.1010233,0.7783512,0.6112056,-0.01576414,0.01013037,0.01298824
0.1019265,0.7791806,0.6152767,-0.01578481,0.002353728,0.02107486
0.1073654,0.7746902,0.6121513,-0.008512921,-0.004932567,0.01262607
0.1122625,0.767883,0.6076027,0.002244193,-0.006121624,0.002605421
0.110795,0.7652195,0.608296,0.009364149,0.001586506,-0.0007940715
0.1058711,0.7696523,0.6098823,0.01347122,0.005850972,0.006530976
0.1039396,0.7740193,0.6141686,0.02538921,-0.01585607,0.01405352
0.1085166,0.7756361,0.6189108,0.03189974,-0.03598948,0.01161929
0.1142249,0.7759803,0.6113065,0.01885534,-0.01770904,-0.001148526
0.1138719,0.7782131,0.6019698,0.005612698,0.007151239,-0.01238174
0.1131026,0.7865687,0.6036345,-0.002796447,0.00894937,-0.009821364
0.1141002,0.7900582,0.6041154,-0.0224271,0.007468923,-0.008929561
0.1108605,0.7817452,0.6042151,-0.04568836,0.01195138,-0.01762146
0.1074659,0.7738819,0.6137254,-0.04800398,0.01620423,-0.0178924
0.1073897,0.7740608,0.6240908,-0.03566541,0.01677042,-0.01189417
0.1070033,0.7760054,0.6280759,-0.02593213,0.01012159,-0.01049345
0.1076531,0.7746627,0.6254164,-0.0108377,0.005580008,-0.007428592
0.1088561,0.7736408,0.6193731,-0.0002876743,0.006370363,-0.005314816
0.1077354,0.7700118,0.6171511,0.004940698,0.005529272,-0.004235761
0.1053213,0.7629759,0.6164787,0.0192186,0.002060555,0.0008331136
0.1022377,0.7609364,0.6170773,0.02318849,-0.005913032,0.003479905
0.100351,0.7629626,0.6191831,0.02962319,-0.01359035,0.008210699
0.1012046,0.7748191,0.6175937,0.0428893,-0.01729066,0.01865424
0.1079218,0.7941309,0.6162023,0.03236338,-0.01356207,0.02604645
0.1216602,0.7948347,0.6106697,0.01883963,-0.0004227968,0.01635701
0.1273848,0.7863058,0.6027829,0.001102562,0.01111175,-0.00197019
0.1171605,0.7895751,0.6067796,-0.02691358,0.01850286,0.000708258
0.1089287,0.7883625,0.6100318,-0.0364411,0.01779525,0.002271629
0.1100212,0.7812311,0.6037277,-0.0451751,0.01513686,-0.007776911
0.1082944,0.7788655,0.6017279,-0.05315369,0.01896157,-0.002304039
0.1051948,0.7796697,0.6049741,-0.04832119,0.006679665,0.0004040825
0.10666,0.7833077,0.6063049,-0.05055933,-0.007277233,0.005128287
0.1089287,0.7804637,0.6054801,-0.05127144,0.001669354,0.01692406
0.1114008,0.7773946,0.605625,-0.05502234,0.004788597,0.004172575
0.1094267,0.7823125,0.6082993,-0.07731465,-0.006013584,-0.0100339
0.1051513,0.7820432,0.6124206,-0.09689905,-0.01521551,-0.01057862
0.1095129,0.778364,0.6157769,-0.09803856,-0.01671153,-0.01656998
0.1139593,0.7676183,0.6187014,-0.0870639,0.001816871,-0.019929
0.1124626,0.7497646,0.6259039,-0.07327977,0.03123969,-0.01699748
0.1082374,0.7449649,0.6338772,-0.04880542,0.03744624,-0.01025037
0.1018466,0.7472229,0.634267,-0.01480771,0.01559105,0.0006597582
0.1032879,0.7457848,0.6305958,0.01075315,0.0001991293,0.006468027
0.106011,0.7473139,0.6238431,0.03923995,0.005098965,0.004623589
0.1019053,0.7540009,0.6152421,0.06155289,0.007584855,0.006840011
0.1033326,0.7624631,0.6177452,0.05677051,0.0006757306,0.01334929
0.1070525,0.7708827,0.6231727,0.05758986,-0.004274918,0.009758667
0.1085846,0.7800141,0.6198515,0.06769653,-0.01432438,0.008234704
0.109376,0.7872493,0.6195095,0.0657697,-0.03771811,0.02325091
0.1089189,0.7912359,0.615947,0.06301644,-0.05383364,0.03999276
0.1165554,0.7889565,0.6028458,0.04345402,-0.03703455,0.04214169
0.1235616,0.781735,0.5965551,-0.0003513913,-2.298028e-05,0.02166322
0.1190791,0.7798045,0.5985022,-0.03346578,0.01623323,0.003033486
0.1163216,0.7782332,0.6028707,-0.04913087,0.008210908,0.008203575
0.1189708,0.7715624,0.6107909,-0.05393185,0.004954398,0.003026353
0.1199207,0.7659218,0.6200052,-0.04286107,0.008088047,-0.01668673
0.1191228,0.7623367,0.6220833,-0.02919453,0.005818892,-0.01678461
0.1185495,0.7600631,0.6172975,-0.02372826,0.00438785,-0.0141735
0.1166028,0.7567045,0.6185413,-0.01642901,0.01299017,-0.0222209
0.1113812,0.7547905,0.6192116,-0.007394902,0.01924004,-0.0210963
0.1053786,0.7575624,0.6172075,-0.0002526523,0.01214312,-0.01871717
0.103,0.7615321,0.6229029,0.01470792,0.003444248,-0.01550451
0.1025876,0.7668425,0.6228509,0.02753426,-0.001387168,-0.00329459
0.09894526,0.7667163,0.6179206,0.03014143,-0.003145233,0.002370849
0.09875277,0.7632015,0.6190303,0.03896195,-0.001662483,0.004681438
0.1056351,0.7678548,0.6188407,0.04493651,-0.001433914,0.006137752
0.1098026,0.7743131,0.6168811,0.04271854,-0.007153707,0.005570125
0.1080613,0.7816488,0.6159914,0.05134703,-0.01908051,0.01792472
0.1060865,0.7851079,0.6165883,0.05714455,-0.02666709,0.03150399
0.109857,0.7817961,0.6146344,0.04331507,-0.02784117,0.03323606
0.1139636,0.7890551,0.6089702,0.02921906,-0.03550838,0.03213919
0.1166484,0.7948132,0.6039151,0.02390524,-0.04693092,0.03119459
0.124335,0.7903581,0.599233,-0.0001130066,-0.04206881,0.02116231
0.1300056,0.7902126,0.5992207,-0.04467482,-0.02766993,-0.006127082
0.1338418,0.7850702,0.5993912,-0.07717139,-0.02235525,-0.03232269
0.1343713,0.7775924,0.5975217,-0.1056693,-0.01304128,-0.04058685
0.1261254,0.7783965,0.6011077,-0.1290401,0.004084245,-0.04214248
0.1229882,0.7736376,0.6072023,-0.1225714,0.01674972,-0.0446601
0.1218419,0.7568443,0.6193296,-0.09745106,0.01889982,-0.04300171
0.1141652,0.7391722,0.6303465,-0.04495289,0.0123795,-0.03607559
0.1089191,0.7332077,0.627864,0.01357583,0.01297885,-0.02703456
0.1050396,0.7397758,0.6261095,0.03091842,0.01782795,-0.0181279
0.1008473,0.7484146,0.626626,0.04504048,0.02383912,-0.012504
0.09907611,0.7518935,0.6230394,0.06243137,0.02910186,0.0001057017
0.09854682,0.7543609,0.6228534,0.06364541,0.01474359,0.01938752
0.09712433,0.7574075,0.622249,0.08648223,-0.0031528,0.02450513
0.09793329,0.7602196,0.6206601,0.107535,-0.006523327,0.02878266
0.1036437,0.7696948,0.6196203,0.1022911,-0.009303991,0.04150377
0.1064695,0.7793428,0.6151292,0.1065655,-0.02022408,0.04166558
0.1093143,0.7841279,0.6154382,0.1080343,-0.02865069,0.03765428
0.1170763,0.7899729,0.6139439,0.08669999,-0.02063417,0.03646049
0.1239251,0.7902235,0.6014035,0.05967964,-0.01245374,0.02254614
0.1270255,0.7865564,0.5921186,0.03770608,-0.01188479,0.00591948
0.1255894,0.7848677,0.5903951,0.01334773,-0.002904863,-0.002552186
0.1268912,0.7810306,0.5935275,-0.01686378,0.009944045,-0.01420481
0.128463,0.7806831,0.6001383,-0.03096136,0.01881934,-0.02262664
0.122824,0.7834449,0.6076729,-0.03386942,0.02050971,-0.02066762
0.1183681,0.7814413,0.6139765,-0.04133922,0.0176124,-0.02057879
0.1161735,0.7812006,0.6113396,-0.03883206,0.01882938,-0.02074023
0.1144941,0.7811771,0.6089536,-0.04085716,0.02099113,-0.01844234
0.1111704,0.7746795,0.6121537,-0.0517713,0.02226413,-0.01921811
0.1059845,0.7705192,0.6135372,-0.05142888,0.021737,-0.01861352
0.1058844,0.7703821,0.6192419,-0.04448535,0.01803374,-0.01399306
0.1034228,0.769786,0.6201992,-0.02206653,0.01242642,-0.005649707
0.1003045,0.7659454,0.615528,0.008947869,0.003682815,0.002493666
0.1066518,0.7615562,0.6196228,0.02170065,-0.001224257,0.001206987
0.11208,0.768719,0.6208496,0.02303159,-0.001855991,-0.001350531
0.1115798,0.7773539,0.6188646,0.02598774,-0.004218792,0.004881065
0.1127057,0.7751866,0.6185422,0.02686968,-0.006648033,0.009266507
0.1182136,0.7740407,0.6140435,0.01901311,-0.008450167,0.008085794
0.122186,0.7758506,0.6118029,0.01485718,0.0005676203,0.003394784
0.1176894,0.7757819,0.6090517,0.01196499,0.01247605,-0.004232641
0.1112157,0.7762314,0.607471,-0.0006417044,0.006271997,-0.00410976
0.1103992,0.7758992,0.6081555,-0.001626511,0.00314047,-0.001668444
0.1114907,0.7752844,0.6058173,-0.0004923574,0.01150413,-0.002872705
0.1120676,0.7793781,0.6122613,-0.008732537,0.01130517,0.003667743
0.1127385,0.7828704,0.6159255,-0.009697369,0.0069327,0.008737105
0.1120131,0.7776029,0.6122743,-0.01093182,0.003716445,0.002010724
0.1093311,0.7723768,0.6173275,-0.01139228,0.004394665,-0.003587844
0.1061747,0.773156,0.6166513,-0.009905221,0.006818805,-0.0007968705
0.1064493,0.7710239,0.612502,-0.01212267,0.002270449,0.0019742
0.1099931,0.7655991,0.6127063,-0.01117907,0.001869456,0.001899507
0.1122496,0.762873,0.6112015,-0.01089635,0.008903685,0.004137288
0.1142138,0.7638706,0.6154972,-0.009930191,0.01282663,0.002509094
0.1148101,0.7722286,0.6166624,-0.004144657,0.008629789,-0.0008092943
0.1130408,0.7814918,0.6164958,0.003849636,0.002272587,0.00147779
0.1139876,0.779391,0.620628,0.008697801,0.005174435,0.0003307472
0.114246,0.7772194,0.616648,0.005596039,0.005549878,-0.001574133
0.1117719,0.780709,0.6135261,0.002618585,-0.0001731299,1.490628e-05
0.1099614,0.7784141,0.6114128,-0.00199775,0.0006252158,0.0008301096
0.107789,0.7753137,0.6072485,-0.009094054,0.0008288075,0.002779863
0.1096437,0.773284,0.6075654,-0.007256818,0.0008360228,0.001106939
0.1124655,0.7697938,0.6071472,-0.005100994,0.002476478,-0.00411134
0.1097477,0.7711807,0.6125051,-0.008072628,0.0003897246,-0.006640969
0.1092832,0.7723706,0.6190617,-0.006028004,0.0005358743,-0.00603477
0.1111276,0.7726442,0.617469,-0.004037706,0.001758013,-0.00262465
0.1110999,0.7747948,0.6157016,-0.005729418,0.002400708,0.0005608519
0.1113153,0.7741596,0.6110471,-0.004004574,0.002909802,0.002290802
0.1109335,0.774988,0.6071639,-0.002435976,0.001961041,-0.0002002677
0.1107468,0.7751664,0.609818,-0.00237948,0.002395908,-0.003564156
0.1095115,0.7713738,0.6146609,-0.0003620361,0.0001766927,0.0007524593
0.1075339,0.7695216,0.6198714,0.0008633667,-0.002734005,0.003086681
0.1086694,0.7692763,0.6188789,0.001661964,-0.001713125,-0.001300675
0.1104799,0.7717157,0.6164954,0.0005325407,-0.00122898,-0.00307838
0.1115476,0.7754568,0.618925,-0.002311473,-0.0009389542,-0.001674761
0.1126575,0.7773449,0.6176451,-0.002490724,0.001435528,-4.497701e-05
0.1138506,0.7773263,0.6141398,-0.003715398,0.003065023,-0.0004107103
0.1142497,0.7731612,0.6110907,-0.005252594,-0.001893626,-0.002842523
0.111921,0.7715255,0.608433,-0.003686406,-0.006735052,-0.005787607
0.1108488,0.7730395,0.6108134,-0.001824248,-0.001357672,-0.006367885
0.1116698,0.7715679,0.6117186,0.002174828,0.002803047,-0.001856878
0.1107286,0.7712687,0.6085999,0.005336746,0.0002965421,0.001127239
0.1103146,0.7711687,0.6080396,0.0004252567,0.0002240129,4.799126e-05
0.1079631,0.7720229,0.6091561,-0.008776867,-0.0002185716,0.0003088336
0.1043686,0.7774713,0.6126903,-0.01712501,-0.006569892,0.002217069
0.1078503,0.7805083,0.6158947,-0.02057717,-0.01079058,0.004320681
0.1133699,0.7787281,0.6138528,-0.01868719,-0.002782908,0.007348746
0.1143068,0.775576,0.6130004,-0.01808764,0.008234356,0.009999078
0.1131774,0.7722759,0.6145385,-0.01417063,0.007641491,0.007388143
0.1125634,0.7692422,0.6136724,-0.003398717,0.001875473,0.002420907
0.1160714,0.7662387,0.6126407,0.003507671,0.0002388847,-0.0005595251
0.1190402,0.7655104,0.6129521,0.003587411,2.538216e-05,-0.00439612
0.1149977,0.7698804,0.6140451,0.001960052,-0.001784743,-0.005540952
0.110656,0.7758127,0.6159049,0.0005134044,-0.004429072,-0.002246608
0.110383,0.7759361,0.6158269,-0.0003106731,-0.001527502,0.0006826658
0.1096375,0.7739521,0.615668,0.000795521,0.004622298,0.00082205
0.1077087,0.7754642,0.6182299,0.001362042,0.002560363,0.0007888466
0.10839,0.7749777,0.6185052,0.0009467424,-0.001788676,0.003148221
0.1106732,0.7736147,0.6173873,0.003587194,-0.001560819,0.001777716
0.1113504,0.7738323,0.6174897,0.001896473,-0.004231992,-0.0009229486
0.1112698,0.7741235,0.6162843,-0.00878397,-0.01544063,-0.0004779451
0.1118603,0.7782756,0.6170082,-0.01920614,-0.03236458,-0.001245429
0.1155014,0.7820384,0.6197654,-0.01917455,-0.0378525,-0.0002079544
0.1196447,0.7802194,0.621312,-0.0119743,-0.02686144,-0.0006037898
0.1180335,0.7771843,0.6211092,-0.0109188,-0.01925449,-0.005348111
0.1152778,0.7762454,0.6190154,-0.006573568,-0.01645134,-0.005929082
0.1157157,0.7780395,0.6178882,0.009139338,-0.009324271,0.000808698
0.1168568,0.7797684,0.6182764,0.02610472,-0.0120869,0.002213948
0.1175452,0.7761205,0.6241524,0.04836429,-0.04811121,-0.02999386
0.1131345,0.7653746,0.6407498,0.08707299,-0.1351557,-0.08107201
0.1093374,0.7597598,0.6470596,0.1224059,-0.2002727,-0.08982227
0.1192885,0.7757825,0.6113659,0.1037019,-0.1169935,-0.04978416
0.1281045,0.7944523,0.5688018,0.06493785,-0.003381939,-0.009314548
0.1171184,0.786803,0.5818716,0.05200238,-0.02529886,0.007607165
0.1021327,0.7721862,0.6084469,0.01305194,-0.04087485,0.01048768
0.09863997,0.7665723,0.6091622,0.0004912099,-0.01014128,0.0160921
0.1014986,0.7575145,0.6196347,0.04303184,-0.03186644,0.03302644
0.108477,0.7522281,0.6191081,0.04350846,-0.02618815,0.04624336
0.1148945,0.7500633,0.6091619,0.04404112,-0.008896034,0.04070232
0.1131411,0.7560563,0.6157351,0.06425064,-0.02275399,0.0371522
0.1111814,0.7788114,0.6086785,0.0614108,-0.0240596,0.0451625
0.1147033,0.7842998,0.6041945,0.06687864,-0.04192419,0.04539777
0.117063,0.7747128,0.6011296,0.05915016,-0.03274951,0.043069
0.1191526,0.774912,0.5892776,0.05336388,-0.008230673,0.04219906
0.1239612,0.7763003,0.6009773,0.06330173,-0.0250094,0.03088857
0.1301326,0.7793549,0.6073678,0.05456944,-0.02147676,0.01851871
0.1367473,0.7797835,0.601914,0.04639504,-0.01584804,0.0118124
0.1395924,0.7817828,0.5971924,0.02457995,-0.01193313,0.00428617
0.1415674,0.7920786,0.5803627,-0.001831636,0.01739415,-0.005709289
0.1450686,0.7971078,0.5787061,-0.02150088,0.02408727,-0.01348512
0.1402462,0.7955243,0.5886341,-0.04443974,0.01988424,-0.01883137
0.1297185,0.7911404,0.5932936,-0.03862293,0.01763669,-0.02598689
0.1236941,0.7936014,0.5964143,-0.03870991,0.01162795,-0.02218675
0.1215787,0.7953059,0.5935101,-0.04982042,0.01375013,-0.01301624
0.1209077,0.7848053,0.5946486,-0.04239119,0.01356305,-0.01405686
0.1186692,0.7788339,0.5971597,-0.03761009,0.01288788,-0.01019479
0.1152176,0.7755879,0.598338,-0.02408347,0.008927362,-0.003367588
0.1139288,0.7722207,0.6024257,-0.01417604,0.002158414,0.002439814
0.115166,0.7727464,0.6029854,-0.005535081,0.001595578,0.01334452
0.121015,0.7791145,0.6037687,0.01776364,0.001749131,0.01954086
0.1258746,0.7906165,0.606198,0.02047731,-0.0007037784,0.02611279
0.1186091,0.7869742,0.608791,0.02197902,-0.01002118,0.03351948
0.1122037,0.7825006,0.6066558,0.03530236,-0.01733108,0.03861323
0.1251561,0.7850632,0.5991669,0.03523906,-0.01073362,0.04156446
0.1384333,0.7720833,0.5964452,0.02495461,0.001652193,0.02255026
0.135125,0.765507,0.5939488,0.005091053,0.007476734,-0.004336418
0.1328406,0.7773906,0.5941213,-0.01064633,0.009898328,-0.008446342
0.1348904,0.7893776,0.6016786,-0.0185258,0.01469322,-0.005082756
0.1318975,0.7936989,0.6015451,-0.01946135,0.009026023,-0.008587103
0.1306,0.7897345,0.5961284,-0.007466329,-0.001334857,-0.01032276
0.1298086,0.7851351,0.59811,-0.003750376,-0.002788275,-0.01107958
0.1257498,0.7807034,0.6023091,0.001250287,-0.006216285,-0.009135614
0.1248374,0.7798264,0.6033156,0.00751651,-0.01049317,-0.00287929
0.1225345,0.7802615,0.5980485,-0.001246974,-0.006859416,-0.004586344
0.1168006,0.7747956,0.5905751,-0.001437361,0.0003935067,-0.007129691
0.1177259,0.7773358,0.5958246,-0.00415815,0.004941463,-0.003834498
0.1221471,0.7816541,0.6019922,-0.01254701,0.00748903,-0.005899851
0.1233221,0.7782686,0.5963263,-0.009763311,0.01064737,-0.005660318
0.1240617,0.7815991,0.5967145,-0.006982815,0.0101821,-0.001242585
0.1236434,0.7868671,0.6003522,0.0033429,0.007516343,0.003180491
0.1231835,0.7870169,0.5989253,0.008553391,0.007951895,0.009143511
0.1237173,0.7836141,0.5980332,0.005643979,0.009340835,0.005312022
0.1216118,0.7784539,0.5938078,0.007770845,0.009584687,0.0005167014
0.1207127,0.7802571,0.5907419,-0.0008525164,0.009407731,0.004093174
0.123976,0.7812357,0.5892255,-0.003024858,0.00846477,0.002182271
0.1276833,0.7758298,0.5910553,-0.002115965,0.006541538,-0.001977738
0.1289924,0.7756718,0.6033851,-0.008703334,0.002300303,-0.002731099
0.1290803,0.7822786,0.6096504,-0.00366784,-0.002516767,-0.003803278
0.1310474,0.7893386,0.6046764,-0.007510567,0.001395513,-0.003800848
0.1307832,0.7887877,0.6004175,-0.01589869,0.009109439,-0.004131027
0.1274157,0.7853654,0.5979677,-0.01790961,0.009535641,-0.004268171
0.1246358,0.7873904,0.5951864,-0.02480232,0.01005351,-0.003531073
0.12087,0.7849387,0.5940726,-0.02128258,0.01228433,-0.003893342
0.119974,0.7814527,0.5993432,-0.01917008,0.01096276,-0.004190736
0.1223836,0.782042,0.6032102,-0.02415998,0.008380107,-0.004892468
0.1250504,0.7782829,0.6005325,-0.02284806,0.005106499,-0.006047111
0.1288854,0.7752796,0.5983794,-0.02296508,0.006133096,-0.00739766
0.1274915,0.7753455,0.596674,-0.01817596,0.01367848,-0.008408526
0.1239031,0.7781951,0.5963169,-0.01243714,0.01619376,-0.009129556
0.1249798,0.7820501,0.5951434,-0.01510761,0.008924782,-0.01153835
0.1237994,0.7786403,0.5927562,-0.01605758,0.005578035,-0.01139321
0.1225866,0.7773221,0.5972623,-0.01468716,0.01582802,-0.01075432
0.1238576,0.7828936,0.6019442,-0.01512151,0.02417478,-0.01263559
0.1211731,0.7858354,0.5986142,-0.01722737,0.01682153,-0.008899121
0.1196642,0.7842225,0.5951731,-0.01679501,0.01021868,-0.0027144
0.1211754,0.7823302,0.5976963,-0.01374265,0.01394188,0.003497687
0.1190545,0.7845564,0.6028145,-0.0117967,0.01112109,0.01327403
0.1179903,0.784578,0.6056295,-0.008899325,0.001140881,0.01591902
0.1227324,0.779595,0.6042182,-0.007188612,-0.002108184,0.007774492
0.1264038,0.7767795,0.6032696,-0.007381855,0.002185713,0.0001194456
0.1243741,0.7772016,0.6047593,-0.007435248,0.006224428,-0.001126702
0.1226087,0.7777145,0.6031274,-0.006924489,0.0006237567,-0.001539077
0.1249217,0.7725988,0.6026064,-0.003724425,-0.005147572,-0.006101689
0.1256024,0.7662681,0.6060114,0.0001798336,-0.002280498,-0.007665743
0.1246853,0.7682188,0.6065711,0.002948326,-0.005145425,-0.001583393
0.1261131,0.7775918,0.6028341,0.005102841,-0.009685825,0.002692239
0.1263466,0.7865623,0.5982029,0.006432575,-0.007324654,-0.002675672
0.1237846,0.7832628,0.599983,0.005380658,-0.004797013,-0.009851818
0.1195401,0.7772566,0.6041752,-0.001629599,0.000554232,-0.009365469
0.1168421,0.7804177,0.6039074,-0.00879491,0.007128581,-0.003607865
0.1197507,0.7811287,0.6060493,-0.004079979,0.01041105,0.001807979
0.1238773,0.7815468,0.6113069,0.003662029,0.008737916,0.002249331
0.1251121,0.7830598,0.6163688,-0.001207271,0.003643947,0.001595352
0.1227429,0.7799778,0.6142196,-0.008709202,0.005511692,0.005451061
0.1193955,0.7804977,0.6080915,-0.01079151,0.006939531,0.004526124
0.1217908,0.7805045,0.6109592,-0.01090584,0.001982858,-0.001630486
0.1270748,0.7771564,0.6088692,-0.008614071,0.004049748,-0.002563122
0.1300431,0.7762148,0.6026457,-0.009856051,0.01336631,-0.00253139
0.1293194,0.7764818,0.6072139,-0.0112612,0.02111924,-0.00530253
0.124606,0.7804555,0.6107085,-0.009302228,0.01516213,-0.005360862
0.1223138,0.782284,0.6127449,-0.008359099,0.001694674,-0.005061816
0.1218451,0.7772495,0.6128479,-0.004158086,0.002640647,-0.008238408
0.1192176,0.7737166,0.6053432,-0.003729673,0.005706998,-0.007845661
0.1181517,0.7757126,0.6012081,-0.00910367,0.004357504,-0.001943837
0.1179779,0.7795862,0.6010885,-0.01119586,0.006661498,0.001969521
0.1184744,0.7785769,0.6032258,-0.01115956,0.003833588,0.002191671
0.1213069,0.7752242,0.6049963,-0.01051438,0.005316176,0.001726144
0.1248072,0.7732707,0.6017995,-0.01351273,0.01745645,0.003139573
0.1268667,0.7745884,0.6015686,-0.01632755,0.02594466,0.003860491
0.1262632,0.7817455,0.6050851,-0.01456774,0.01929573,0.002204503
0.1259165,0.7833642,0.6076299,-0.01459857,0.009691448,-0.002128195
0.1248876,0.7760055,0.6052576,-0.01420068,0.02101291,-0.01093491
0.1222158,0.7716926,0.6003255,-0.01412198,0.02856732,-0.01204992
0.1202026,0.7801422,0.6031935,-0.0150752,0.01791708,-0.003419941
0.1161739,0.7901696,0.6096904,-0.01437169,0.01379134,0.0003694097
0.1160418,0.7811064,0.6112871,-0.01475212,0.009739073,-0.0009865695
0.1226749,0.7697956,0.6051275,-0.01244455,0.005852392,-0.003812258
0.1226759,0.769595,0.5984087,-0.005842804,0.00959777,-0.005258719
0.1156004,0.7704265,0.6014235,7.175863e-05,0.01002344,-0.004657661
0.1134285,0.7744208,0.6028225,0.0003171827,0.007494882,-0.004951275
0.1181801,0.7743652,0.6020358,-0.001354753,0.005110523,-0.004793146
0.1224183,0.7732944,0.6117084,0.002225851,0.005536414,-0.004780736
0.1194004,0.7801425,0.6199316,0.003376556,0.004901317,-0.002851765
0.1165472,0.7827638,0.6161681,0.004054005,0.002048852,-1.851523e-05
0.1205509,0.7804976,0.6095493,0.008259665,0.005417498,0.001013038
0.1216056,0.7779707,0.6075883,0.005674859,0.00706347,0.002679678
0.1190993,0.7780203,0.6082519,0.004465539,0.002433369,0.0025833
0.1184144,0.7797799,0.6094528,0.009365038,-0.0006413735,0.00352343
0.1160127,0.7794149,0.6091562,0.01288122,0.0003362987,0.008222111
0.1127905,0.7822512,0.6040168,0.01561933,0.001209365,0.01151966
0.1106273,0.7823848,0.5998153,0.01029747,-0.001964077,0.01268547
0.1129635,0.7799135,0.6018533,0.003307218,-0.004339679,0.01219581
0.1195683,0.7797111,0.6061997,0.005161283,-0.003892677,0.007697144
0.1229079,0.7754978,0.6067454,0.002980115,-0.001505175,-0.0005480802
0.1240759,0.7732821,0.6034726,-0.00366866,0.0006825091,-0.00534137
0.123028,0.7738283,0.6034261,-0.006078155,-0.0001505431,-0.006358496
0.1213671,0.7745586,0.6053119,-0.00304877,0.001795002,-0.009735168
0.1235852,0.777573,0.605734,0.003934165,0.006515496,-0.01307216
0.1236436,0.7783638,0.6068952,0.005483876,0.008824726,-0.01683143
0.1211364,0.779662,0.6051651,0.003506701,0.002323771,-0.01942492
0.1187595,0.7810647,0.6003716,0.004826403,-0.007344589,-0.01615159
0.1171036,0.7803421,0.5989234,0.005166386,-0.001226449,-0.01427264
0.1179957,0.7796916,0.601075,0.007062529,0.001786431,-0.01819738
0.1163342,0.7787016,0.605705,0.01085079,-0.0160335,-0.02234453
0.1135842,0.7799994,0.6097133,0.01139014,-0.02653293,-0.02026479
0.1160703,0.7828816,0.6057969,0.01106559,-0.01888907,-0.01085804
0.1230438,0.7848242,0.6028588,0.007994914,-0.01025857,-0.00631842
0.1295176,0.7808051,0.6066223,0.001717456,-0.01100434,-0.02459142
0.1276178,0.7716544,0.6050249,0.0008637071,-0.01300753,-0.05241498
0.1205984,0.7717686,0.6052662,0.005753892,-0.01096096,-0.0532005
0.1163753,0.783762,0.6090319,0.009127812,-0.01109868,-0.03478656
0.113207,0.7928537,0.6061356,0.01010344,-0.00722832,-0.02146474
0.1100933,0.7844932,0.6080462,0.009581333,-0.005211986,-0.01025337
0.1083642,0.7735968,0.611863,0.004234552,-0.01009334,-0.009156637
0.1120886,0.778193,0.6083307,0.0004377194,-0.01054126,-0.0146485
0.1173546,0.7779503,0.6020466,0.01255849,-0.01161994,-0.01234097
0.1130257,0.7734778,0.5965841,0.0312533,-0.01216191,-0.01016359
0.107904,0.77743,0.6023934,0.03696052,-0.01276689,-0.004098399
0.1100012,0.7768339,0.6098525,0.03811394,-0.02252501,0.006290438
0.1159915,0.7815787,0.6051973,0.04000251,-0.0333473,0.005759845
0.1261955,0.7898785,0.5950078,0.03491515,-0.03422296,-0.001252302
0.1273336,0.7864035,0.5856721,0.03130026,-0.0159215,-0.00660704
0.1166466,0.7893529,0.5951224,0.02807847,0.0005203402,-0.01062803
0.1117075,0.7955189,0.6086697,0.0211378,-0.01272492,-0.009844513
0.1144726,0.7907719,0.5966033,0.01564721,-0.0236226,-0.009956922
0.1193495,0.7879296,0.5871833,0.005964517,-0.008070253,-0.02101053
0.1215288,0.7892482,0.590481,-0.004117724,0.006811852,-0.02848845
0.1188675,0.7889377,0.5896458,-0.01310578,0.0109445,-0.0187715
0.1164115,0.7883189,0.5938489,-0.02185499,0.01069077,-0.009473951
0.1161603,0.7870818,0.5997204,-0.0199949,0.006163233,-0.01231855
0.1171349,0.7843217,0.6032416,-0.01829793,0.005530331,-0.0143006
0.1166123,0.7822981,0.6038831,-0.01933693,0.005228265,-0.01309547
0.116498,0.7820821,0.59936,-0.009403881,0.001701596,-0.01986589
0.1178849,0.782853,0.6026597,-0.001877958,0.003746843,-0.02512198
0.1167012,0.7856284,0.6053609,-0.01007515,0.00691296,-0.02132828
0.1144369,0.7863304,0.6011314,-0.01746942,0.008080075,-0.0210319
0.1114629,0.78309,0.597168,-0.01028675,0.001453821,-0.02493241
0.1102728,0.7811699,0.5901294,-0.005322131,-0.006784715,-0.02610249
0.1112686,0.7825859,0.5962524,-0.009335607,0.005902776,-0.01633208
0.1091716,0.7869375,0.6090875,-0.009417381,0.01777293,0.003491474
0.1076986,0.7898733,0.6052847,-0.01063378,0.01050576,0.01354298
0.108697,0.7882995,0.5971617,-0.01212208,0.005525084,0.009993155
0.110274,0.7869787,0.5902732,-0.009037959,0.001491273,0.008698318
0.1116762,0.7893465,0.5895044,-0.01018246,-0.006120917,0.0101893
0.1123656,0.7898928,0.593874,-0.01008678,-0.004404061,0.0002586129
0.1171798,0.7828432,0.5888616,-0.003928413,0.0005507661,-0.01097071
0.1219636,0.7767191,0.5886969,-6.708131e-05,0.0005818785,-0.01029701
0.1170945,0.779463,0.5956256,-0.002770095,0.001683815,-0.01164348
0.1110741,0.7844228,0.5980277,-0.01093015,0.001735951,-0.01235467
0.114558,0.7869054,0.5988087,-0.01744864,0.003165952,-0.008406798
0.1179867,0.7876863,0.5958772,-0.02165713,0.007903262,-0.01164808
0.116576,0.7847508,0.5944897,-0.03232059,0.009055692,-0.01143868
0.1144387,0.781023,0.5952629,-0.04848083,0.01587489,0.003205313
0.1100556,0.7829039,0.5973759,-0.06402986,0.03003882,0.02341275
0.1126843,0.7877898,0.6056098,-0.07472945,0.04407101,0.0400815
0.1175433,0.7910808,0.6078887,-0.07101443,0.04987886,0.04862642
0.1116678,0.7853212,0.603023,-0.06000606,0.03527256,0.04099286
0.1100011,0.765096,0.6010417,-0.05280088,0.02331816,0.01922818
0.1138461,0.7522323,0.6053621,-0.03365415,0.02412662,0.00979746
0.1141673,0.7691745,0.6110642,-0.01863669,0.003665374,0.02114832
0.1167556,0.7930658,0.6088231,-0.02692915,-0.02140503,0.02847655
0.1232118,0.7923993,0.6081265,-0.02694013,-0.005577524,0.0205329
0.1287395,0.7845873,0.6105333,-0.02205157,0.01827846,0.0132296
0.1194629,0.7879926,0.6101986,-0.02051264,0.00453177,0.01251313
0.1033352,0.7936084,0.6136276,-0.01075916,-0.0321902,0.005508841
0.1027935,0.8081683,0.6113184,-0.01933931,-0.07579295,0.0007246333
0.108868,0.8170998,0.5962767,-0.0466835,-0.08025098,0.002150783
0.1160382,0.800102,0.583633,-0.07167612,-0.02377799,-0.004178771
0.1220674,0.7830117,0.5927315,-0.08102935,0.004471908,-0.005170322
0.1125251,0.7761436,0.6149917,-0.06993246,-0.0275576,9.478183e-05
0.1035987,0.7661121,0.6214232,-0.06106962,-0.06735614,0.004788797
0.1140128,0.7541739,0.6195629,-0.03320097,-0.08077735,0.01334674
0.124434,0.7482842,0.6264632,0.01625749,-0.06292428,0.006123344
0.1231742,0.7476468,0.6337603,0.03374087,-0.05392231,-0.006182452
0.1232239,0.7442376,0.6300965,0.04176416,-0.05805969,-0.00323297
0.124241,0.7435474,0.6198566,0.06088147,-0.04510417,-0.003737509
0.1220215,0.7515796,0.6163456,0.06118298,-0.02555923,-0.00556917
0.1222154,0.7600641,0.6104768,0.06552939,-0.02526133,-0.003989105
0.1228401,0.7597461,0.608867,0.08371861,-0.05219998,-0.008561442
0.1253649,0.7600359,0.6178284,0.09212724,-0.07295059,-0.01275848
0.1311499,0.778273,0.6112465,0.1034727,-0.06710677,-0.01276666
0.1328546,0.7985752,0.6005913,0.1103235,-0.04802414,-0.007111642
0.1297343,0.800615,0.5931438,0.08728544,-0.01895735,0.004352429
0.1232572,0.7967383,0.5844962,0.05320194,0.01290499,0.01301272
0.1172879,0.7989447,0.5870969,0.02397795,0.03647412,0.01759945
0.117985,0.8008425,0.5850701,0.00174427,0.04573198,0.02411258
0.1240103,0.8035989,0.587208,-0.00361572,0.02998962,0.02748916
0.1299374,0.8087507,0.599447,-0.006225386,-0.001940426,0.01741766
0.1313227,0.7970226,0.6053457,-0.01739589,-0.01154524,0.002345768
0.1286496,0.776746,0.6121382,-0.02436404,-0.01390171,-0.005353701
0.1280117,0.7699835,0.6029827,-0.02522038,-0.01785107,-0.003865218
0.1342024,0.7636065,0.5905606,-0.02227302,0.005158051,-0.003018921
0.1387665,0.7565958,0.6025396,4.702424e-06,0.001577434,-0.01838795
0.1311061,0.7585969,0.608923,0.03939639,-0.01047867,-0.02778475
0.120118,0.7681114,0.6060455,0.05212011,0.006437227,-0.006959118
0.1180029,0.7825878,0.6072962,0.03681468,-0.002013427,0.01651117
0.1219221,0.7850533,0.6009042,0.03376027,0.00740114,0.01934466
0.1240336,0.7736448,0.5941331,0.03027183,0.03428416,0.01556634
0.1230598,0.7703143,0.6021923,0.01779157,0.04075438,0.01950373
0.1203281,0.7842629,0.609848,0.01712835,0.05463698,0.02368787
0.1156337,0.8052129,0.5979135,0.02154149,0.04404098,0.03043695
0.112345,0.8123266,0.5843084,0.02531628,0.02932976,0.04884963
0.1134998,0.8023299,0.5818733,0.02119455,0.03587566,0.06751698
0.1192086,0.7912523,0.5818249,0.003531791,0.04611052,0.07678213
0.1259293,0.7802017,0.5866033,-0.009381179,0.06345027,0.07001136
0.1271661,0.7700866,0.5951629,-0.007542168,0.04390054,0.05830143
0.12911,0.7711596,0.6008215,0.004130181,0.01291732,0.05091707
0.1382717,0.7739375,0.6007803,0.01227376,0.01645069,0.04018734
0.1421678,0.7716025,0.6036884,0.02421073,0.01759264,0.04359983
0.1393039,0.7739714,0.6148352,0.05611748,0.006732254,0.04587395
0.1423159,0.7747906,0.6117717,0.07626543,-0.02354784,0.02397774
0.1505751,0.7665969,0.5892035,0.06485713,-0.04657533,0.002323428
0.1565164,0.7581599,0.5693276,0.0534525,-0.0008003274,-0.0126533
0.1482533,0.7614037,0.5663615,0.04939869,0.05143447,-0.02267897
0.1305294,0.7877317,0.5717344,0.01923209,0.03750601,-0.03339073
0.1261834,0.8248468,0.565354,-0.03877499,0.03383739,-0.03528558
0.1273311,0.8373822,0.5638583,-0.07968345,0.06172965,-0.01202968
0.1206204,0.8226322,0.5818403,-0.07637625,0.05413754,0.01206279
0.1145764,0.8075812,0.5986578,-0.04321842,0.03704422,0.03508071
0.1129754,0.7887633,0.6068253,-0.0002156303,0.01175687,0.04060015
0.1156897,0.767189,0.6044511,0.04030062,-0.02479436,0.02609059
0.1221911,0.7688646,0.5983037,0.04425334,-0.01814025,0.03379016
0.1373383,0.7717211,0.5948578,0.01819414,0.0003195134,0.0278537
0.149521,0.7568807,0.5917109,0.0139394,0.02507035,0.005256233
0.139005,0.7540866,0.5955407,0.01446923,0.06206913,-0.001359198
0.1288365,0.7734893,0.5971227,0.003439238,0.07993605,-0.01008882
0.131188,0.7967464,0.5965449,-0.01281506,0.1219505,0.0005029341
0.1289734,0.7955807,0.5966918,-0.04535705,0.1500143,0.009967479
0.1227405,0.7867295,0.5929563,-0.06099575,0.1095051,-0.0076709
0.1123375,0.7981473,0.5976896,-0.05369232,0.07599093,-0.009887352
0.1061097,0.7981412,0.6009035,-0.04566671,0.07538168,0.007597236
0.1108012,0.7902561,0.6010666,-0.03956934,0.07429284,0.02460498
0.111633,0.7906211,0.6038839,-0.05175723,0.0619241,0.01975087
0.1137456,0.7857576,0.5933753,-0.06636778,0.04786038,0.01151832
0.1205664,0.7863836,0.5851346,-0.06269854,0.05618592,0.02166503
0.1183796,0.7841715,0.5969412,-0.05719185,0.06735784,0.01762316
0.1391997,0.8786817,0.4460797,0.06670675,0.01566885,0.2302102
0.1476747,0.8771536,0.4446311,0.0598931,0.01291151,0.189486
0.1421503,0.8776573,0.4425139,0.05254432,-0.0006437682,0.1801848
0.1381488,0.8771931,0.443222,0.04543452,-0.006706733,0.1728283
0.1461051,0.8747189,0.4484877,0.03991425,0.003780722,0.1803559
0.1478852,0.8761764,0.4512346,0.04683362,0.01101444,0.1712916
0.1412292,0.8775814,0.4522026,0.05651253,0.0139736,0.1643131
0.1383181,0.8776036,0.4527503,0.06014127,0.009180973,0.1797459
0.1444262,0.8760467,0.4524939,0.05747556,0.002523958,0.1699025
0.1536423,0.873116,0.4497844,0.05226619,-0.008591787,0.1615483
0.1528593,0.873644,0.4454741,0.04522821,-0.01717275,0.1415564
0.1462376,0.8747586,0.4446311,0.04285006,-0.0004961682,0.1266789
0.1434726,0.8757664,0.4455128,0.05928593,0.02003685,0.1569777
0.1436695,0.8788562,0.4468344,0.07816301,0.02111086,0.1716432
0.1454494,0.8813071,0.447839,0.06899666,0.01742074,0.1601807
0.1433618,0.8809764,0.4492527,0.04527492,0.01872721,0.1463936
0.1387757,0.8787047,0.4587979,0.03581144,0.01733609,0.1393244
0.1344289,0.8778477,0.46742,0.04594754,0.01339263,0.1414855
0.1327289,0.8760145,0.4584119,0.06041357,0.01378159,0.1391242
0.1412783,0.8737458,0.447761,0.05304289,0.01609503,0.1390239
0.1463106,0.8737385,0.4531001,0.04782737,0.0165573,0.1363766
0.1396125,0.869968,0.4549795,0.06925805,0.01360073,0.1356921
0.1355282,0.8673398,0.4495231,0.08249447,0.01016978,0.137515
0.1373678,0.8726714,0.4530604,0.08541256,0.009724333,0.1336257
0.138065,0.8765291,0.4573088,0.08978844,0.005794681,0.1357946
0.1338944,0.8733236,0.4601323,0.09780547,-0.00651311,0.1338399
0.1314903,0.8712341,0.460306,0.1152524,-0.01826833,0.1346756
0.1321339,0.8755632,0.4516084,0.1177523,-0.01474146,0.1430062
0.1326562,0.8785227,0.4485675,0.1132895,-0.005340412,0.1454736
0.1385842,0.8776464,0.4498375,0.1138057,-0.006686819,0.144509
0.146242,0.8777864,0.4481138,0.1012889,-0.008595014,0.1343382
0.1486397,0.8779399,0.4466749,0.08866171,-0.007690464,0.130619
0.1452175,0.879191,0.4425669,0.08243764,-0.006257914,0.1323015
0.1429533,0.8823933,0.4387062,0.07233347,0.003054295,0.1227236
0.1456584,0.8849887,0.4387196,0.05995976,0.01016311,0.1168364
0.14617,0.8852744,0.4465296,0.0533103,0.008078157,0.1100338
0.1456886,0.8836748,0.4503412,0.0484736,0.008937988,0.1029604
0.1396941,0.8821712,0.4430144,0.04120746,0.01306266,0.1070132
0.1295262,0.879958,0.4441042,0.04223057,0.00998898,0.1171689
0.1316018,0.8798711,0.4456767,0.04177614,0.005832112,0.1260792
0.1373384,0.8814763,0.4431371,0.04175675,0.00760964,0.1248324
0.1362869,0.8810305,0.4466469,0.0481736,0.01113671,0.1243683
0.1317005,0.8848143,0.4466149,0.04820097,0.01615179,0.1333923
0.1277476,0.88781,0.446671,0.05547206,0.01054938,0.1484654
0.1375468,0.8789369,0.4453319,0.06270316,0.0007395803,0.1586687
0.1492897,0.8690698,0.4413584,0.05663805,0.006867048,0.1371711
0.1426402,0.8707166,0.4447575,0.05485522,0.007243455,0.1062081
0.1375629,0.8778343,0.4472958,0.05429634,-0.001468048,0.1059816
0.1428956,0.8811525,0.448801,0.05081633,-0.002804595,0.1105564
0.1448782,0.8805424,0.4502228,0.04824676,-0.002478185,0.1017496
0.1494949,0.8775256,0.4471968,0.04210345,0.002466633,0.09741892
0.1510188,0.8755261,0.4448598,0.03427522,0.0107982,0.09431016
0.1420952,0.8774809,0.4429564,0.03018704,0.02025547,0.09749461
0.1395223,0.877762,0.4465735,0.02987909,0.0223502,0.1049356
0.1448168,0.8748879,0.4570447,0.03298956,0.009121544,0.09458273
0.1481589,0.8738879,0.4611952,0.04267471,0.003368179,0.07906564
0.1432626,0.8788034,0.4553998,0.05156418,0.007387166,0.07137418
0.1336403,0.8851784,0.4503192,0.05317242,0.00818569,0.07991919
0.1335077,0.8824362,0.451645,0.04955047,0.007709305,0.1002551
0.1399159,0.8749179,0.4477251,0.03971868,0.007013142,0.09754976
0.1446597,0.8710843,0.4403623,0.03233603,0.007340982,0.08505127
0.1430759,0.8721265,0.4444694,0.03624246,0.00112427,0.07958862
0.1385618,0.8751633,0.4482077,0.04201062,-0.005191795,0.07297416
0.1418218,0.8737757,0.4455143,0.03956384,-0.0003763557,0.07614945
0.1452029,0.8745016,0.4501885,0.03922553,0.002116545,0.07504569
0.1470905,0.8780477,0.4549419,0.04372725,-0.001795485,0.06887273
0.1469418,0.8761538,0.4525077,0.04178801,-0.005565706,0.0688777
0.1409838,0.8767795,0.4521454,0.04500469,-0.007218659,0.06231053
0.1408475,0.8788601,0.4524547,0.05242749,-0.007635757,0.06099083
0.1391061,0.8772396,0.4481577,0.05039788,-0.009438967,0.06283201
0.1355057,0.8781869,0.4450243,0.05114772,-0.01218298,0.05727823
0.1399303,0.8797873,0.4490944,0.05332673,-0.01580261,0.05321607
0.1409402,0.8800734,0.4530579,0.04694639,-0.02053932,0.04001472
0.1415598,0.8774783,0.4494672,0.04025876,-0.02307984,0.0285944
0.1412283,0.8749176,0.4468087,0.03979506,-0.0125828,0.04075276
0.1334404,0.8828707,0.4480095,0.04052704,0.002001081,0.06654949
0.1307212,0.8891495,0.4489771,0.0364395,0.00405601,0.08613098
0.1387417,0.8785681,0.4546211,0.0309363,0.01039255,0.07862055
0.1470098,0.8683164,0.4583773,0.02439041,0.01950251,0.06600828
0.1386045,0.8720719,0.4511175,0.02037605,0.01817083,0.07437294
0.1273875,0.8745034,0.4471695,0.02069252,0.01926543,0.07419482
0.1318245,0.8726266,0.4543888,0.018481,0.01344616,0.06879717
0.1324065,0.8771302,0.4594638,0.02668339,-0.005024564,0.07180461
0.1308175,0.8793458,0.4577765,0.04415245,-0.01730337,0.06437576
0.1394485,0.8781987,0.4574012,0.0510325,-0.01893825,0.06249795
0.1499742,0.8790527,0.458175,0.05425633,-0.01453657,0.06382111
0.1573257,0.8753175,0.4547847,0.05834221,-0.0122183,0.05454322
0.1538939,0.8712032,0.451212,0.05868835,-0.009627515,0.05200989
0.1469772,0.8691373,0.4498431,0.05866688,-0.005686487,0.04666617
0.144429,0.8696988,0.4500938,0.05664942,-0.006913522,0.0391643
0.1393136,0.8754053,0.452068,0.05096831,-0.004817445,0.03576832
0.1375093,0.8779191,0.4494885,0.04349144,-0.007078631,0.02940154
0.1361676,0.8811871,0.4463588,0.03825399,-0.01429322,0.03146748
0.1329117,0.8870811,0.4479712,0.03555167,-0.01263084,0.03306707
0.1344614,0.8874788,0.4488748,0.03451562,-0.01145497,0.03238671
0.1339025,0.8850805,0.4509555,0.03689861,-0.009163597,0.03796089
0.1354971,0.8810998,0.4523452,0.03573444,-0.006363599,0.0433629
0.1410547,0.8775539,0.4496771,0.03296736,-0.005705217,0.05077894
0.1404502,0.8745236,0.4467193,0.03272173,-0.0003782745,0.04912145
0.1389356,0.8735952,0.4460235,0.02657078,0.0003141553,0.04473026
0.1396458,0.87793,0.448224,0.02134708,0.001162846,0.04985734
0.142153,0.879301,0.4473146,0.0229783,0.005018808,0.04599246
0.1456924,0.8812384,0.4468204,0.02321158,0.005093752,0.03792864
0.1436416,0.8822404,0.4509432,0.02119791,0.005281681,0.03319471
0.1409907,0.8762573,0.4509626,0.01845073,0.00381272,0.02918026
0.1419143,0.8759208,0.4479628,0.0168478,0.005161299,0.03149623
0.1411521,0.8778496,0.4447946,0.019162,0.006894317,0.03147502
0.1387969,0.8772977,0.4447518,0.02224349,0.005163573,0.03177842
0.1369028,0.8775668,0.4458863,0.02183998,0.003363416,0.03535535
0.1370435,0.8756952,0.4411823,0.02399566,-0.001069256,0.03088037
0.1381316,0.8776684,0.4420355,0.03092035,0.002741885,0.0255349
0.1371048,0.8804244,0.447465,0.03127336,0.007550302,0.02322238
0.1363634,0.8800825,0.4487998,0.0290906,0.0001853844,0.02388976
0.1368049,0.879177,0.4518316,0.03028566,-0.002687168,0.02866585
0.1383654,0.8752881,0.4538196,0.02818993,0.0008138688,0.02648794
0.1413554,0.8732921,0.4536774,0.02655867,0.002322453,0.02504688
0.1406892,0.8724513,0.4517141,0.02608746,0.001962695,0.03004914
0.1394913,0.8731053,0.4478503,0.02386709,0.0006070935,0.02963636
0.1418419,0.8764774,0.4482208,0.02229391,-0.001100794,0.02734818
0.1418694,0.875431,0.4491893,0.02027222,-0.003470167,0.0260125
0.1410239,0.8769284,0.4484708,0.01931638,0.001469169,0.02403638
0.1402033,0.8806707,0.4493467,0.01886184,0.007991298,0.02228767
0.1378863,0.8777308,0.4496847,0.01751328,0.004955379,0.01868208
0.1379164,0.8751292,0.4501149,0.01776706,0.003697902,0.01506638
0.1376976,0.8749563,0.4544512,0.0180935,0.005545075,0.01294347
0.1368064,0.8747096,0.4582431,0.01957179,0.002341512,0.01322655
0.1369846,0.8759959,0.4544555,0.02255434,-0.001567177,0.01130599
0.1357751,0.8785099,0.4509025,0.02194198,-0.002556693,0.008390796
0.1360018,0.8811516,0.4528948,0.02012488,0.001940754,0.01228059
0.1374691,0.879226,0.4513205,0.02035586,0.007312335,0.01570062
0.1374807,0.8753553,0.4478536,0.01990314,0.00273591,0.0176545
0.1376254,0.8763493,0.4485338,0.0205945,-0.00418547,0.01926728
0.1378205,0.8762133,0.4491,0.02193427,-0.004762192,0.01701335
0.139531,0.8722451,0.4495952,0.01920439,-0.003660807,0.01696121
0.1427926,0.8705945,0.4518344,0.01581007,0.0009310831,0.01621027
0.1433197,0.8734549,0.4516379,0.01452233,0.005056147,0.01303024
0.1410931,0.8781865,0.4493891,0.01407216,0.001878446,0.01097523
0.1394236,0.8785554,0.4495648,0.01503601,-0.0001992502,0.009606348
0.1395041,0.8771439,0.4513044,0.01439388,0.001493058,0.01024526
0.1395349,0.879096,0.4533658,0.01257017,0.002244083,0.00914467
0.138728,0.878921,0.4566205,0.01298669,0.003693681,0.007424379
0.1387313,0.8762725,0.4572457,0.01245132,0.00524475,0.005951123
0.1383175,0.8743897,0.4548657,0.00992558,0.002269444,0.00347365
0.1356484,0.8746386,0.4512477,0.006954997,-0.00222142,0.006267794
0.1336359,0.8768561,0.4454385,0.005386642,-0.0006335102,0.009504716
0.1348152,0.8772237,0.4456755,0.007498304,0.006437715,0.009041461
0.1352977,0.8779053,0.4484472,0.009044778,0.01152992,0.009417217
0.1348399,0.8780702,0.4452234,0.009047493,0.006130705,0.008643738
0.1385058,0.8760738,0.4489008,0.01341157,-0.001584272,0.006752704
0.1412281,0.8750635,0.4537492,0.02084529,0.0005233842,0.003633211
0.1384842,0.8719789,0.4496138,0.02323377,-0.001746483,-2.819246e-05
0.1361507,0.8702927,0.4494223,0.02020961,-0.007945193,0.0009737129
0.1357535,0.8741094,0.4495572,0.01966541,-0.004647449,0.001441034
0.1346516,0.8779315,0.4441774,0.02004644,-0.003665795,-0.001506717
0.1341156,0.8792185,0.4410449,0.01698951,-0.003925221,0.0002029011
0.1355204,0.8779904,0.4444417,0.01515746,-0.0007692119,0.005978214
0.1362376,0.876612,0.4502835,0.01497156,-0.003475381,0.01036485
0.1361535,0.876355,0.450388,0.0146808,-0.005246919,0.009298652
0.1363008,0.8771088,0.4507629,0.0147653,-0.003779201,0.004629201
0.1350575,0.8783976,0.4510738,0.01433185,-0.0005175625,0.003931345
0.1330963,0.8776521,0.447059,0.0137511,0.005407631,0.003677199
0.1317192,0.8775483,0.4473662,0.01090457,0.003715462,0.002811685
0.1359358,0.878118,0.4467353,0.007590798,0.001183191,0.003097744
0.1431336,0.8775086,0.4461798,0.008987867,0.004104431,-5.159915e-05
0.1430603,0.8778926,0.4487633,0.01039728,0.002111492,-0.003150414
0.1392322,0.877818,0.4463617,0.009463306,-0.001233343,-0.004735635
0.1361027,0.8776347,0.4461069,0.0120203,-0.002746431,-0.003776745
0.1351028,0.8781296,0.4437401,0.01557139,-0.002942876,-0.0004511518
0.1357009,0.8783549,0.4381616,0.01460547,6.291413e-06,-0.000554199
0.1355857,0.8784298,0.4431093,0.01325663,0.0005748216,-0.0008912099
0.1383735,0.8767395,0.4490743,0.01293611,-2.423834e-05,-0.001894387
0.1381718,0.8757192,0.4505492,0.009964601,-0.001604378,-0.002721301
0.1365736,0.8770536,0.4497722,0.007179718,-0.003542843,-0.0005014977
0.1407744,0.8784145,0.4453506,0.004958612,-0.000628081,-0.001731021
0.1433101,0.880387,0.4456471,0.001649412,0.0002077247,-0.005336139
0.144997,0.8812298,0.449415,0.001839883,0.0008801556,-0.008443313
0.1449484,0.8799977,0.4496726,0.00299379,0.00287015,-0.008114751
0.1421053,0.8790849,0.4488864,0.0008588962,-0.0002459175,-0.00570917
0.1413318,0.8764897,0.4511006,0.0004186197,-0.000200282,-0.008701911
0.1378431,0.8745161,0.4510314,0.0009008838,0.0006968633,-0.009912732
0.1364034,0.8785836,0.4434409,5.522924e-05,-0.0008308319,-0.008746616
0.1379569,0.8822175,0.4391355,0.001695491,0.0004523257,-0.009656606
0.1353525,0.8804808,0.4443127,0.003737736,0.0001272702,-0.006406828
0.1341663,0.8798765,0.4495841,0.004084289,0.0008527978,-0.003722271
0.1347555,0.8809414,0.4483833,0.005010101,0.001801119,-0.005283726
0.1347935,0.8795519,0.4501016,0.008207029,0.0008801683,-0.006053605
0.1348337,0.8786488,0.4568157,0.01267063,0.001656965,-0.004996442
0.1348017,0.8793937,0.4539622,0.012254,0.0002530294,-0.003615107
0.1373079,0.8789938,0.449507,0.0109041,0.0003884405,-0.004272855
0.1406371,0.8781632,0.449922,0.01500431,0.0039718,-0.006684265
0.1423887,0.8778087,0.4473722,0.01644712,0.005675676,-0.009915491
0.1402414,0.8786494,0.4489549,0.01386014,0.002662553,-0.0128885
0.13519,0.8805832,0.4503036,0.009082445,-0.002943474,-0.01416499
0.1314091,0.8808425,0.4478934,0.0009916819,-0.001276198,-0.01251181
0.1294048,0.8803643,0.44469,-0.002687824,0.002559991,-0.01133884
0.1310306,0.8804537,0.4390112,-0.002095244,0.002058322,-0.01318618
0.1331516,0.8796457,0.4455174,-1.20738e-05,0.002481598,-0.009271645
0.1340389,0.8787068,0.4570709,0.003896628,-0.001943748,-0.003934332
0.1361312,0.8781907,0.4567889,0.002466026,-0.007895244,-0.00466702
0.1373419,0.877676,0.4559708,0.0006041922,-0.004479334,-0.004739015
0.1402129,0.8772547,0.4562865,0.004362212,-0.0004196153,-0.006103167
0.1411533,0.8761212,0.4548137,0.004861755,-0.001406926,-0.008878802
0.1374696,0.8748435,0.4541268,0.001765993,-0.0009694255,-0.01079311
0.1373924,0.8764348,0.4526231,-0.0001266619,-0.002810121,-0.01244694
0.1385877,0.8788647,0.4532313,0.0001339471,-0.00713253,-0.01500824
0.1385396,0.8781129,0.4546579,0.002807345,-0.004616718,-0.02040777
0.1375653,0.8789938,0.4553877,0.00478961,-0.002137905,-0.01702161
0.1350562,0.8818408,0.453358,0.005736165,-0.003307787,-0.01071864
0.135916,0.881256,0.4461649,0.004982857,-0.001688578,-0.01368152
0.1358281,0.880784,0.4431573,0.003313908,-0.003372445,-0.01294292
0.133635,0.8805531,0.4467014,0.003948411,-0.006180684,-0.01147288
0.1340657,0.8775143,0.4501816,0.003536625,-0.00427722,-0.01294953
0.1332711,0.8739023,0.4519877,0.002748357,-0.003295229,-0.008968259
0.1337774,0.8712553,0.453947,0.002546945,-0.002044637,-0.006941265
0.1382779,0.8730827,0.4565951,0.0001217128,0.0006870035,-0.008177546
0.1410527,0.877176,0.4554345,-0.001187401,0.0008936317,-0.008284718
0.1389902,0.8790869,0.4526253,-0.0008140084,-0.0007519724,-0.009008099
0.1360981,0.8813639,0.451081,-0.001209794,-0.002246732,-0.009988009
0.1377824,0.8806892,0.4492304,-0.004174121,-0.001605518,-0.01155415
0.1391335,0.8778159,0.4514233,-0.007885447,0.002167735,-0.01221366
0.137643,0.8778619,0.4544079,-0.007675421,0.003445942,-0.01200976
0.1357969,0.8771855,0.4531584,-0.006136843,-0.002319257,-0.01292081
0.1323536,0.8756112,0.4510192,-0.002607033,-0.007844437,-0.01207275
0.1334468,0.8730293,0.4505846,0.002912363,-0.007048585,-0.006428567
0.1363452,0.8709851,0.4520746,0.00310871,-0.003991713,-0.001738156
0.1345627,0.8732749,0.4514337,0.001367482,-0.002327782,-0.006552677
0.1371266,0.8752886,0.4500606,0.002141254,-0.001993545,-0.01233769
0.1399308,0.8778953,0.4485063,0.0005201414,-0.0005982939,-0.01120956
0.1358165,0.8806992,0.4443871,-0.003303266,0.0009202943,-0.01201743
0.1352315,0.8801129,0.4442232,-0.004352035,-0.002954792,-0.01185307
0.1428272,0.8799647,0.4429999,-0.001007792,-0.00763995,-0.009336724
0.148813,0.8789401,0.4411945,0.003139891,-0.005184804,-0.01773197
0.1408139,0.878638,0.4490161,0.004189882,-0.002577728,-0.02630628
0.1291239,0.8799119,0.4514352,0.003730535,-0.004605531,-0.0209498
0.1297029,0.8787082,0.4474751,-0.0003083095,-0.00550972,-0.0162999
0.1319078,0.8787919,0.4493995,-0.005971615,-0.005542114,-0.0154813
0.1320634,0.8775898,0.4474219,-0.0013686,-0.005431485,-0.01072072
0.1357509,0.8746254,0.4474408,0.004547321,-0.004426773,-0.01085599
0.1361723,0.8759574,0.452281,0.000649957,-0.004047618,-0.01394382
0.1354827,0.8777566,0.4490707,-0.0003801435,-0.003226809,-0.01227146
0.1390079,0.8781877,0.4474188,0.001106254,-0.003348673,-0.01251686
0.1409313,0.8786862,0.4474286,-0.0002813573,-0.004474278,-0.01216374
0.1375889,0.8793982,0.4433093,0.0004610607,-0.004748329,-0.01056976
0.1346979,0.8804136,0.4430209,-0.001540374,-0.003361566,-0.01417011
0.1364665,0.8804877,0.4429865,-0.004593608,-0.0003293126,-0.01514717
0.1375474,0.8803799,0.4445466,-0.003358497,-0.0008685646,-0.01448064
0.1370076,0.8783965,0.4492601,-0.003057927,-0.002395215,-0.01738872
0.1369901,0.8752406,0.4525742,-0.002883918,-0.000883153,-0.0179635
0.1351563,0.8745326,0.455816,-0.001594433,-0.002107025,-0.01741534
0.1331766,0.8751745,0.4554306,-0.001081334,-0.005531789,-0.01585112
0.1318153,0.876306,0.4530117,0.0007188313,-0.007703378,-0.01262271
0.1321435,0.877238,0.447239,0.002076606,-0.007129198,-0.01154983
0.1341281,0.8766485,0.4405194,0.0006925841,-0.004765307,-0.01577152
0.1324115,0.8733855,0.4446171,0.0002264453,-0.004507887,-0.02119207
0.1310704,0.870071,0.4479067,0.003229511,-0.004188097,-0.01466384
0.1332203,0.8712305,0.4448353,0.00568363,-0.003605796,-0.006729928
0.1355566,0.8739108,0.4457533,0.003986068,-0.00240628,-0.01117418
0.1393118,0.8754904,0.4463706,0.0006055073,0.003279621,-0.0151289
0.1399025,0.8760123,0.4462685,-0.002370687,0.007630905,-0.01544097
0.1376897,0.8770525,0.4504553,-0.00569509,0.006362025,-0.01565734
0.1380123,0.8803821,0.4537048,-0.01022901,0.004749456,-0.01581782
0.1355182,0.8806242,0.4504473,-0.01547343,0.00475846,-0.01757668
0.1326325,0.8797497,0.4472308,-0.01749446,0.004410221,-0.01671075
0.1335294,0.8806292,0.4513067,-0.01484346,0.004033457,-0.01374325
0.1335172,0.8767754,0.4562371,-0.0100895,0.0035042,-0.009172972
0.1339208,0.8740663,0.4567718,-0.005161868,0.001348275,-0.005515435
0.1344776,0.8778727,0.4536925,-0.004061742,-0.0006530273,-0.009346728
0.1338635,0.8797976,0.4498416,-0.005338116,-0.001923394,-0.01246819
0.135165,0.8765361,0.4505066,-0.005831755,-0.002507342,-0.01011113
0.1369047,0.8739497,0.4498449,-0.0086483,-0.0006531198,-0.009412407
0.1373426,0.8768575,0.445936,-0.009189478,0.003210205,-0.008860027
0.1360027,0.8790231,0.4487748,-0.00964689,0.007768924,-0.00635571
0.1340723,0.8769262,0.4521971,-0.01585766,0.00731644,-0.007110757
0.1354287,0.8753405,0.4526441,-0.0160945,0.004403803,-0.01409195
0.1369792,0.8721215,0.4584661,-0.01166532,0.005787521,-0.02260806
0.1356219,0.8698488,0.4616174,-0.009989698,0.001445208,-0.02287677
0.134679,0.8732364,0.4592198,-0.006020296,-0.004916769,-0.016905
0.1330306,0.8763404,0.4603709,-0.003358512,-0.003250992,-0.01504348
0.131004,0.8768682,0.4618776,-0.001266665,-0.003337141,-0.01367967
0.1323812,0.8776478,0.460724,0.002820683,-0.002690961,-0.01009929
0.1341476,0.8796761,0.4600503,0.002141755,0.0008663823,-0.008850572
0.1348244,0.8806078,0.458257,0.0006450078,-0.002165841,-0.007421896
0.1353307,0.8769893,0.4523535,0.001232874,-0.005493225,-0.006972631
0.1354151,0.8735181,0.4466026,-0.001741678,-0.003037578,-0.009319451
0.1372952,0.8749012,0.4479474,-0.004561057,0.001058456,-0.01086823
0.1381671,0.8757595,0.4515566,-0.005585957,0.003540665,-0.0113718
0.1370374,0.8744468,0.4522882,-0.01048627,0.001590962,-0.01192974
0.1376192,0.8754048,0.4550525,-0.01390921,-0.002787451,-0.01341183
0.1376422,0.8771041,0.45695,-0.009675024,-0.005213927,-0.01576109
0.1368892,0.8775788,0.4564456,-0.005319491,-0.004691441,-0.0176747
0.1359425,0.8764318,0.458558,-0.004277783,-0.001475554,-0.01611235
0.1335214,0.8742285,0.4578407,-0.001164134,0.001019563,-0.01259457
0.1318186,0.8758725,0.454057,0.0004576379,0.0009628714,-0.01242641
0.1302618,0.8781177,0.4514351,-0.001606586,0.001563183,-0.01163528
0.1298833,0.8764736,0.4502302,-0.0009517931,0.001040433,-0.009460877
0.1317555,0.8752873,0.4523532,-0.001107854,-0.002555152,-0.008765328
0.1334592,0.8747595,0.4524189,-0.002449232,-0.004572193,-0.006689012
0.1369822,0.875174,0.4522359,-0.001227766,-0.002692459,-0.00562114
0.138857,0.8771835,0.4546922,-0.00314985,0.0001679154,-0.006519748
0.1367632,0.8780104,0.4565127,-0.005040447,0.0008845722,-0.008255034
0.13742,0.8780577,0.4605942,-0.004674921,0.0007363022,-0.01145205
0.1380468,0.8775322,0.4574277,-0.004681558,0.0005034774,-0.01390959
0.1369245,0.8775202,0.4484293,-0.004153899,-0.001323589,-0.01523912
0.1378144,0.8770395,0.4461614,-0.00784894,-0.002618937,-0.01537188
0.1375228,0.8750523,0.4465211,-0.01025129,-0.00116081,-0.01651721
0.136877,0.8754974,0.4514439,-0.006233593,0.002182559,-0.01668542
0.1355169,0.8759565,0.4537161,-0.003552854,0.004142708,-0.01325963
0.131243,0.8746787,0.4499502,-0.00395557,0.002835321,-0.01185918
0.130141,0.8748324,0.4545039,-0.005330605,-0.0005403343,-0.008820878
0.1334194,0.8751965,0.4574377,-0.004596781,-0.00349015,-0.006856934
0.1357677,0.874975,0.454886,-0.002111992,-0.002025831,-0.00992602
0.1348561,0.8749038,0.4538474,-0.0008412435,0.0006100828,-0.007456624
0.134071,0.8750837,0.4467463,-0.002487948,-0.0002004118,-0.005769726
0.1352038,0.8753719,0.44199,-0.006014475,0.0002458773,-0.006786777
0.1348559,0.8766767,0.4451106,-0.004909193,0.002841322,-0.005384581
0.1353178,0.8781045,0.4464728,-0.004601956,0.003625249,-0.007574007
0.1369547,0.876116,0.448177,-0.007070079,-5.622577e-05,-0.007546056
0.1368434,0.8736784,0.4507266,-0.004569508,-0.006260923,-0.007367261
0.1372531,0.8738272,0.4485374,-0.002872666,-0.00703737,-0.01107207
0.135537,0.8743736,0.4458673,-0.001854507,-0.005288683,-0.01279423
0.1310911,0.8752302,0.4480201,0.0002590817,-0.006010264,-0.01402612
0.1298979,0.8754919,0.4506022,-0.001166742,-0.003686521,-0.01409368
0.1315869,0.8751275,0.4524104,-0.000903691,-0.001679796,-0.0133638
0.1324587,0.875393,0.4537931,0.0031508,-0.002946644,-0.009772676
0.1318472,0.8747445,0.4527803,0.007856332,-0.002052468,-0.006215355
0.1315573,0.8749648,0.4552628,0.008127306,-0.001786999,-0.004000394
0.131308,0.876375,0.4583883,0.003234303,-0.003825842,0.001061637
0.1308638,0.8764649,0.4562914,0.0005270058,-0.004059529,-0.003822804
0.1339923,0.8774276,0.4542983,-0.0005510243,-0.0030858,-0.007626833
0.1375441,0.8781239,0.451342,-0.001529479,-0.00251496,-0.004718522
0.1362887,0.8775773,0.4480117,-0.005774092,-0.000606681,-0.01294261
0.135149,0.8779254,0.4466012,-0.01175606,0.0009596738,-0.01353434
0.1355604,0.8773275,0.4459212,-0.006910074,-0.0002880331,-0.007168504
0.1333774,0.8759729,0.4543164,-0.002194533,0.000894342,-0.009690156
0.131364,0.8749613,0.4648196,-0.005259481,0.002123034,-0.01089858
0.1303549,0.8767012,0.4594176,-0.003054903,-0.0008834256,-0.01248188
0.1286203,0.8807341,0.4527306,-0.002057469,-0.0007464595,-0.01186232
0.1302032,0.881012,0.4561244,-0.00384234,0.0001457551,-0.007398808
0.1332249,0.8800446,0.4542846,-0.00160195,0.000395691,-0.005379189
0.1335149,0.8796684,0.4532081,-0.001397682,0.00224293,-0.005026226
0.1334463,0.8777023,0.4554119,-0.001579453,-0.0004383647,-0.005255825
0.1334017,0.8765832,0.4492989,-0.001164873,-0.001378509,-0.004272585
0.1345014,0.8763812,0.44718,-0.001747143,-0.001115401,-0.007133315
0.1370164,0.8773938,0.4492648,-0.00107682,-0.005441729,-0.01051373
0.1375608,0.8791357,0.450249,-0.00120747,-0.005607055,-0.01088196
0.1358229,0.8793777,0.4560191,-0.001337685,-0.003500626,-0.01329421
0.1339291,0.8791392,0.4551632,-0.002263409,-0.001941227,-0.01329984
0.1343924,0.8785488,0.4474057,-0.005401347,-0.001360711,-0.01309034
0.1342367,0.8765475,0.4431809,-0.00739991,-0.002935429,-0.0138308
0.1316986,0.8745614,0.4455477,-0.006735654,-0.002151923,-0.01314436
0.1316698,0.8763754,0.4515408,-0.005090382,-0.003369563,-0.0132231
0.1324389,0.8790513,0.4518752,-0.005934775,-0.004041669,-0.01027813
0.1325987,0.8776201,0.4529369,-0.006234709,-0.003201097,-0.006388986
0.1339216,0.8768807,0.4559093,-0.004298101,-0.005436552,-0.005495831
0.1343027,0.876601,0.4560184,-0.003441508,-0.004455325,-0.004950005
0.1347247,0.8741501,0.4587851,-0.0007567118,-0.006146789,-0.003830637
0.1350523,0.8747254,0.4580933,0.001097,-0.0101408,-0.003762089
0.1344249,0.8762343,0.4538904,-0.001550619,-0.008927058,-0.003987014
0.1344457,0.8771693,0.4484084,-0.005050511,-0.008968897,-0.003522395
0.1330489,0.8800832,0.4419042,-0.007769624,-0.006282985,-0.003901972
0.1312136,0.8793582,0.4445726,-0.007513301,-0.001655188,-0.002412618
0.1318726,0.8762397,0.4483011,-0.007126241,-0.002679194,0.0001840189
0.1330305,0.875512,0.4468518,-0.009006955,-0.002899726,3.898536e-05
0.135267,0.8749167,0.4473257,-0.00661689,-0.001659996,-0.004403143
0.1377055,0.8766592,0.4475881,-0.0009729998,-0.002928118,-0.01125097
0.1336127,0.8786294,0.4492684,0.001815836,-0.004647512,-0.01057781
0.1280164,0.876464,0.4525105,0.003264689,-0.00593336,-0.006436994
0.1297918,0.8749803,0.4536735,0.004099788,-0.006091024,-0.008000939
0.1313855,0.8749674,0.4543801,0.001644374,-0.005311157,-0.008698558
0.1316027,0.8748582,0.454887,-0.001480489,-0.005482202,-0.006212064
0.1355783,0.8750168,0.4543878,-0.003491784,-0.003846503,-0.001904502
0.1361741,0.8745268,0.4534255,-0.002730535,-0.0009343755,0.001778393
0.1354702,0.8760052,0.4534951,0.002906462,-0.001896804,-0.002534014
0.1367297,0.8786005,0.4527729,0.00379654,-0.001989017,-0.00873255
0.1346161,0.8783432,0.4518084,-4.242506e-05,0.0007902913,-0.00679738
0.1334326,0.8780525,0.4516006,0.0002221509,0.001509591,-0.006521235
0.1336328,0.8794888,0.4505098,-0.00209709,0.001095325,-0.01049598
0.1337674,0.8782317,0.4557781,-0.006285206,0.0004393519,-0.009212522
0.1352721,0.8751356,0.4623651,-0.005169208,0.0008165352,-0.01026957
0.1337675,0.8750637,0.4578588,-0.004397778,0.001177467,-0.01259504
0.1324986,0.8771724,0.451353,-0.005089323,-0.0008215387,-0.008839948
0.1328203,0.8797472,0.4498449,-0.002431496,-0.001745012,-0.007652053
0.1315352,0.8796575,0.4520264,0.0004076716,-0.001782107,-0.007575695
0.1318376,0.8764748,0.455733,0.0007137185,-0.00324001,-0.003600063
0.1325828,0.8758777,0.4547342,0.0005557677,-0.00521341,0.0003434475
0.134045,0.8758935,0.4552216,0.0002979286,-0.00436768,-0.0003308879
0.1380458,0.8752132,0.4601826,0.002057447,0.0001483658,-0.004066826
0.1399122,0.8764345,0.4599059,0.00492282,0.002486082,-0.004095467
0.1389445,0.8774058,0.4573353,0.005186944,0.001137483,-0.003639361
0.1392158,0.8791669,0.4562933,0.003803556,-0.0007408519,-0.004202514
0.1393061,0.8806231,0.4527684,0.0004114727,-0.0003636302,-0.005666445
0.1347128,0.8803906,0.4470121,-0.003420633,0.001402101,-0.009447294
0.1299636,0.8804779,0.4431695,-0.003874774,0.0005573542,-0.008293933
0.1303404,0.8786408,0.4476617,-0.002876,0.0008612907,-0.006283824
0.1318099,0.8770973,0.4524985,-0.003689078,0.002509361,-0.005507667
0.1321059,0.8778731,0.4493581,-0.005034548,0.001980497,-0.001897292
0.132005,0.8778911,0.4502132,-0.007796438,0.002457369,-0.003306916
0.1318051,0.8777214,0.4554771,-0.01194972,0.001592074,-0.00483586
0.1327423,0.8777489,0.4570888,-0.008238027,0.000340673,-0.002885523
0.1357036,0.8786989,0.4544223,-0.001837355,0.002368303,-0.003960306
0.139417,0.8822853,0.4484877,-0.003729922,0.00369744,-0.003213077
0.139666,0.8852615,0.4475723,-0.00469194,0.005100415,-0.002831847
0.1382921,0.8816312,0.4501892,-0.003697788,0.005154566,-0.004986799
0.1399948,0.8760665,0.4517478,-0.006922627,0.003618247,-0.004683311
0.1406601,0.8775769,0.4549541,-0.008618765,0.004102431,-0.004250779
0.1390339,0.8788035,0.4530224,-0.007446392,0.0007134975,-0.002881302
0.1387302,0.8768643,0.4496678,-0.005807388,-0.002660716,-0.001974784
0.1388331,0.878131,0.4519146,-0.0004478685,0.001574408,-0.006879512
0.1384225,0.8779822,0.451588,0.006435385,0.004481329,-0.01162897
0.1362638,0.8772748,0.4498517,0.005248411,0.001266877,-0.008175661
0.1337448,0.8786286,0.4505425,0.001797405,-0.001155676,-0.003834071
0.1343824,0.8792927,0.4515569,0.003238454,0.0004187201,-0.006257393
0.1340306,0.8810879,0.4526773,0.0001660992,0.001753089,-0.006117037
0.1309097,0.880999,0.4495575,-0.002165782,0.002689564,-0.002586094
0.1299203,0.8798314,0.4456546,0.0009293065,0.003000919,-0.002540187
0.1312813,0.8810096,0.4480879,0.002589522,-0.0004451326,-0.00316004
0.13334,0.8798201,0.4497359,0.006491821,-0.002117102,-0.006107104
0.1357451,0.8766964,0.4480033,0.005804528,-0.001417556,-0.009637727
0.1369038,0.8742761,0.4485883,0.001782979,-0.001604701,-0.008166923
0.1370781,0.874311,0.4489703,0.005683823,0.0001714607,-0.003528445
0.1361773,0.8759058,0.4473522,0.006191096,0.002028258,0.0001746755
0.133939,0.8748635,0.4443261,0.004204524,0.002378553,-0.001611197
0.1345161,0.8757246,0.4405161,0.005428383,0.001903033,-0.003810285
0.1362398,0.8781957,0.4420313,0.003585445,0.001050449,-0.002574971
0.1347918,0.877647,0.4454576,0.003848611,0.001526459,-0.005088832
0.1332944,0.8781762,0.4441852,0.00403449,0.003460213,-0.008032342
0.1313639,0.8798567,0.444869,0.002014461,0.0049787,-0.00526501
0.12972,0.8815523,0.4489247,0.002299926,0.002406048,-0.002843961
0.1313411,0.881483,0.4523927,7.002728e-05,-0.001301421,-0.002599777
0.1333659,0.8779838,0.4534193,-0.001917688,-0.001582991,0.0005321979
0.1352903,0.8771453,0.4495923,-0.0008859465,-0.001031911,0.003159496
0.1352691,0.8775699,0.4480074,-0.001343509,-0.0009457757,0.0014252
0.1341258,0.8749833,0.451678,-0.001966342,-0.0003373939,-0.0004655224
0.1359884,0.8733881,0.453984,-0.0007467658,0.002388003,-0.002580329
0.1365221,0.8759219,0.4547725,0.000591941,0.004585219,-0.004231927
0.1356134,0.879582,0.4555654,-0.0001362233,0.002361821,-0.0008971725
0.1354277,0.8796477,0.4558099,-0.0009043415,0.001261028,0.001428201
0.1339832,0.8798633,0.4543087,-0.0008079463,0.00288773,-0.002520736
0.1328313,0.8797841,0.4523726,-0.001328791,0.002169892,-0.005594756
0.1317025,0.8765364,0.4514434,-0.001150567,0.002109419,-0.004393308
0.1314751,0.8775349,0.4511839,-0.001306825,0.004050693,-0.003579773
0.1322906,0.8787662,0.4541126,-0.00212007,0.003557216,-0.003638275
0.1310493,0.8768897,0.4543362,-0.002474546,0.001419358,-0.002432727
0.1309982,0.8781204,0.4488325,-0.002414574,-0.00049636,-0.002291608
0.1328021,0.8779913,0.4461275,-0.001089686,0.0002242257,-0.003842059
0.1337729,0.8772611,0.4469244,1.448955e-05,0.002733363,-0.004353164
0.135048,0.8782876,0.4481625,-0.0004990287,0.002092365,-0.003386606
0.135088,0.8774939,0.4492622,-0.0035272,0.001898452,-0.001230678
0.1339178,0.8777691,0.4515609,-0.007375733,0.002641016,-0.000811369
0.132747,0.8780108,0.4523149,-0.007266693,0.001931192,-0.002827022
0.1297338,0.8774616,0.4489159,-0.006192502,0.002527573,-0.001586365
0.1295929,0.8778575,0.4498766,-0.006737247,0.001557466,-0.0003106578
0.136704,0.8765946,0.4528588,-0.005090118,0.0003001942,-0.00397114
0.1426205,0.8753516,0.4525056,-0.001582041,0.0007667839,-0.006644955
0.1400588,0.875854,0.4535716,0.004183933,-0.001657893,-0.00714935
0.1351367,0.8774631,0.4539025,0.01036525,-0.005357888,-0.007168988
0.1334841,0.8784104,0.452572,0.008751979,-0.005824413,-0.00596271
0.1330402,0.8774774,0.448649,0.003945011,-0.002479457,-0.005343534
0.1342004,0.8777065,0.4450255,0.00331478,7.608183e-05,-0.00257221
0.1358129,0.8778632,0.4478992,-0.0003048915,0.0006873285,0.001098361
0.1361415,0.8766199,0.4509383,-0.004112082,0.001076175,0.001676487
0.1379937,0.8760864,0.4547988,-0.001989926,2.748433e-05,0.003256992
0.1380368,0.8753837,0.4576507,-0.002539523,0.003046238,0.00413025
0.1365186,0.8748345,0.4540039,-0.003899606,0.007611473,0.002106369
0.137083,0.875287,0.453932,-0.0007266725,0.007420514,0.0003458005
0.1356814,0.8771951,0.4548917,0.0001681052,0.008498007,-0.002444149
0.1347363,0.8801772,0.4538804,-0.003815873,0.007460505,-0.004678631
0.1351203,0.8804725,0.4545974,-0.007469339,0.003623275,-0.004296788
0.134188,0.8768674,0.4508172,-0.004440573,0.004414994,-0.006244387
0.1346134,0.8737117,0.4489668,0.0006190088,0.002230369,-0.01016375
0.1329129,0.8745762,0.4505799,0.001218651,-0.003453156,-0.008244272
0.1301009,0.8754619,0.449458,0.00158706,-0.003224742,-0.003041858
0.1306523,0.874944,0.4493457,0.0008872065,-0.001674279,-0.0001716807
0.13172,0.8758005,0.4484856,-0.0003918262,-0.002885637,0.002013297
0.1332622,0.873706,0.4493384,0.0005138928,-0.00290384,0.001763563
0.1346355,0.8721216,0.4518076,-0.0003985181,-0.003366994,0.002032216
0.1348115,0.8744014,0.4515741,-0.001719097,-0.004048865,0.002989482
0.1355597,0.871409,0.453309,-0.002290405,0.0004829058,-0.0006720104
0.1381224,0.8680746,0.4541864,-0.00338066,0.004971098,-0.003462666
0.1407263,0.8705785,0.4509574,-0.004159839,0.00259618,-0.004754062
0.1371998,0.8742211,0.4469555,-0.005951559,0.0002906198,-0.006095908
0.1321121,0.8789044,0.4472615,-0.006755328,0.001893505,-0.005932663
0.1325296,0.8799041,0.4519106,-0.006253919,0.001417975,-0.006198898
0.1320876,0.8773405,0.4527601,-0.005924892,-0.001190908,-0.004701208
0.1308794,0.8759778,0.4523236,-0.003110691,-0.003489592,-0.002793205
0.131003,0.8742799,0.4526182,-0.001175836,-0.005219786,-0.001512124
0.1287583,0.8749162,0.4513526,-0.003593477,-0.002074181,-0.001012536
0.1282133,0.8758737,0.4522002,-0.003983553,0.001087485,-0.002504657
0.1296316,0.8762683,0.4512717,0.001369786,-0.004236562,-0.001490747
0.1323355,0.8786046,0.4487968,0.006709245,-0.007749971,-0.001248041
0.1359312,0.8779899,0.4481698,0.005655975,-0.001630636,-0.002777495
0.132205,0.8771643,0.4459304,-0.0008659365,0.002955673,-0.001827576
0.1287741,0.8784317,0.4451931,-0.006209381,0.001226925,-0.0003067694
0.1321798,0.8785242,0.4464282,-0.007078593,0.002777657,0.003321565
0.1324253,0.879504,0.4466361,-0.006834406,0.005827606,0.005365163
0.1318687,0.880023,0.4484769,-0.005718096,-0.0005807222,0.003679456
0.1345216,0.8783014,0.4528048,-0.00109223,-0.006759598,0.003588419
0.1378108,0.8753745,0.4570914,-6.297583e-05,-0.002627599,0.0005999053
0.1392829,0.8721248,0.4572188,-0.002404374,-0.0009396968,-0.005985936
0.1351937,0.8709076,0.4560005,0.003086791,-0.005611733,-0.009299155
0.1317907,0.8713018,0.457565,0.006920934,-0.007091903,-0.008470726
0.1326728,0.8733485,0.4565287,0.002726877,-0.005699245,-0.004757503
0.1303588,0.8760367,0.4536517,0.001103887,-0.005070479,-0.001142715
0.127142,0.8754081,0.4525799,-0.0005384829,-0.004360717,-0.001214739
0.1318186,0.8751863,0.4521823,-0.001171283,-0.003747837,-0.001611686
0.137209,0.8771543,0.4532568,0.001398289,-0.004394623,0.00178815
0.1343627,0.8764459,0.4525223,0.0009931815,-0.00484886,0.003067224
0.1323879,0.875909,0.4504414,0.000190268,-0.004565004,0.0006513469
0.1323551,0.8768399,0.4500468,-0.0008338536,-0.005983493,0.001287962
0.1299967,0.8762028,0.4500295,-0.0009864813,-0.005867779,0.001475387
0.1333789,0.875946,0.4531568,0.0001542926,-0.001959719,0.0008563664
0.1381767,0.8748349,0.4560824,-0.00112655,-0.00057981,0.00287079
0.1376163,0.8728373,0.4556002,-0.001265632,-0.001611037,8.281118e-05
0.1371928,0.874054,0.4550424,-0.001653841,-0.003340914,-0.002719357
0.1357852,0.8768985,0.4527308,-0.001894906,-0.007118385,-0.000229222
0.131282,0.8791738,0.4503063,0.0006047897,-0.006217886,-0.0004528588
0.1280093,0.8796405,0.4493721,0.001273326,-0.002277754,0.0002609513
0.1297725,0.8778802,0.4484317,0.0007329384,-0.00199543,0.00154409
0.1330998,0.8774392,0.4492798,-0.0001407016,-0.002033117,0.0002557636
0.1335646,0.877998,0.4531791,-0.001464461,-0.005040876,0.001943936
0.1349869,0.8774967,0.4567065,-0.00285665,-0.00888272,0.0011752
0.1357938,0.8769052,0.4537367,-0.003732019,-0.005530479,-0.001988956
0.1360068,0.8761582,0.4494714,-0.001850357,-0.001809875,-0.001674189
0.140223,0.8765542,0.4497232,-0.00133006,-0.0006745452,-0.001289813
0.1405191,0.8784788,0.449235,-0.0009463404,0.001947548,-0.002120239
0.1359587,0.8797184,0.4478689,-7.573143e-05,0.003842051,-0.004189414
0.1339649,0.8802529,0.4473694,-0.005083908,0.002933095,-0.005579991
0.1344697,0.8805596,0.4480695,-0.008350569,0.001963695,-0.00428344
0.1362571,0.8807013,0.4509253,-0.006472503,0.005243442,-0.002495637
0.1355211,0.8801756,0.4530068,-0.006536839,0.007292497,-0.002019578
0.1320678,0.8786302,0.4554311,-0.006896615,0.004620887,-0.001371539
0.1289698,0.8774116,0.4590543,-0.005628283,0.001547358,0.0008505234
0.1281353,0.8772966,0.4586649,-0.001728762,-0.00175005,0.001462791
0.1307064,0.8772495,0.4561114,0.002376686,-0.0003761343,0.0008480048
0.1327071,0.8755277,0.4544667,0.0006232941,0.002445428,-6.054042e-05
0.1355599,0.8733537,0.4518721,-0.00383682,-0.000532662,-0.0004388171
0.1377103,0.8730145,0.4521133,-0.005381249,-0.0006724627,0.002396973
0.1363554,0.8769588,0.4528616,-0.003626597,0.002475057,0.004718232
0.1363713,0.882572,0.4502893,-0.001109225,0.003263995,0.006658425
0.1342907,0.8801414,0.4504159,0.0002632977,0.002022396,0.006124943
0.1337145,0.8762594,0.4503803,0.001268856,-0.0006290756,-0.0009923428
0.135542,0.8782368,0.4492121,0.001071435,0.0001449012,-0.005196933
0.1312747,0.8760182,0.4507542,-0.0005769302,0.001879271,-0.003051159
0.1296156,0.8741533,0.4515268,-0.0005541545,0.0006433789,-0.00101183
0.1309981,0.877403,0.4548972,0.0001423182,0.00021643,-0.0008026679
0.1300899,0.878166,0.457922,-0.000985935,0.0003120872,-0.0007642834
0.1299738,0.8777167,0.4526683,-0.0005919898,0.002148091,-0.0005910103
0.1290122,0.8766964,0.4470238,0.001361795,0.004251896,-0.001144574
0.1312086,0.8760397,0.4470803,0.001463822,0.0006485176,2.331374e-05
0.1349346,0.8764455,0.4503733,0.001033011,-0.002870834,0.003454595
0.1358355,0.8751286,0.4530529,0.0008126547,-0.0004992511,0.007842961
0.1358349,0.8741381,0.4520226,0.0008859265,0.001833231,0.00936621
0.1323397,0.8741266,0.4499004,0.001076401,0.001849366,0.003622193
0.1295638,0.8753999,0.4502276,-0.0006482645,0.002080997,-0.0009518273
0.131637,0.8763549,0.453254,-0.001939185,0.0007693943,-8.424786e-05
0.1341739,0.8760686,0.4567338,0.0001773732,-0.0001023432,-0.001562181
0.1334128,0.8771643,0.4571871,0.003269014,0.00154708,-0.003296909
0.130968,0.8782212,0.4539843,0.003780482,0.001567001,-0.0001768947
0.131107,0.8803712,0.4521051,0.001205898,0.0007731147,0.002211765
0.1314226,0.8811134,0.4546095,-0.0009177533,-0.0006696991,0.001286408
0.1310867,0.8780841,0.4559561,3.416298e-05,-0.003579525,0.003495771
0.131236,0.8773831,0.4522431,0.001881099,-0.002981421,0.007594738
0.1303944,0.8778484,0.4475375,0.003220684,0.0002424065,0.00691691
0.1310882,0.8777365,0.4458628,0.004323998,0.001872967,0.003190186
0.133944,0.8770632,0.4458592,0.003355618,0.0005976758,0.0006973753
0.136078,0.8730619,0.4466851,0.0004899473,-0.001350043,0.001087058
0.1364225,0.8703522,0.4469475,-0.0007655189,-6.488605e-05,0.001183589
0.1374891,0.8738822,0.4418956,0.00158069,0.001783838,-0.0008748256
0.138316,0.8781627,0.4404583,0.00416366,0.00378759,-0.001060935
0.1368322,0.8756647,0.4494957,0.002440438,0.006092372,-0.00264611
0.1371834,0.8736562,0.453345,0.0009400607,0.00507856,-0.005646545
0.1362041,0.8768617,0.4498985,0.002052493,0.00530749,-0.001224044
0.1330058,0.8765856,0.4492484,-0.0004118505,0.006302958,0.003402419
0.1322438,0.8764723,0.4482663,-0.003774144,0.004384768,-0.0002947555
0.1303037,0.8795991,0.4475378,-0.003512037,0.004894599,-0.002752222
0.1306187,0.880764,0.4505589,-0.003027886,0.005238704,-0.0008854275
0.133202,0.8801711,0.4529887,-0.004154466,0.004184945,-1.145845e-05
0.13161,0.8783676,0.448003,-0.004791877,0.005623474,0.0002167355
0.1310221,0.8785237,0.4423182,-0.003184523,0.004786621,0.001855525
0.1298771,0.8771874,0.4480763,-0.001890047,0.001758323,0.008324434
0.1270461,0.8734546,0.4533872,-0.0005537638,-0.0004782146,0.0139014
0.1311582,0.8748547,0.4538991,0.002392023,-0.001033856,0.007494754
0.1379988,0.8748501,0.45982,0.005069414,-0.001268864,-0.0005698574
0.139816,0.8727651,0.4609183,0.007288798,-0.00494241,-0.001291138
0.1367795,0.875142,0.4553656,0.005151613,-0.006156266,-0.004995762
0.1304623,0.8772671,0.4532281,-0.0006277623,-0.005472617,-0.006165425
0.126082,0.8780944,0.4523736,-0.004894199,-0.005528446,0.0006750882
0.126947,0.8776722,0.4536237,-0.005776592,-0.003423558,0.004188197
0.1270458,0.8755799,0.4586384,-0.0001769779,-0.01021252,0.008915927
0.1243381,0.8745109,0.4620422,0.005726188,-0.02017946,0.01483238
0.1266468,0.8739148,0.459271,0.008081977,-0.01898301,0.01302811
0.1316864,0.873929,0.4532042,0.008729258,-0.018137,0.009710163
0.133309,0.8756426,0.4517844,0.005833534,-0.02090036,0.005952045
0.1355163,0.8789078,0.4533878,0.005347198,-0.02194103,0.004163064
0.1362413,0.8809567,0.4535907,0.006616328,-0.02393045,0.005395399
0.135763,0.880096,0.4551265,0.007605287,-0.02529955,0.004880951
0.1385812,0.8783961,0.4579182,0.01343148,-0.0263459,0.00682992
0.1391014,0.8753905,0.4595834,0.0198258,-0.0289303,0.003503308
0.1376378,0.8733383,0.4552476,0.0237536,-0.03067911,-0.002655323
0.1367254,0.8749599,0.4476016,0.0273678,-0.03059592,0.0008556053
0.1363274,0.8774426,0.449541,0.03230321,-0.03022397,0.004126224
0.1381152,0.880279,0.4547911,0.03353102,-0.02872874,0.007087309
0.1376743,0.8823474,0.4523503,0.02697144,-0.02658166,0.01089297
0.1369534,0.8828543,0.4491948,0.02031137,-0.0263101,0.008886271
0.138186,0.8836272,0.448423,0.01640659,-0.02493343,0.006316557
0.1381405,0.8825248,0.4480573,0.01535745,-0.02417271,0.002944319
0.1391328,0.8784419,0.4480312,0.01418267,-0.02526682,0.00117746
0.1399289,0.8743384,0.4469769,0.008953384,-0.02351652,0.002450066
0.1419766,0.874111,0.4472126,0.004771375,-0.02301858,0.0002454769
0.1458576,0.8766148,0.4491129,0.002421173,-0.02134588,-0.00132829
0.1442828,0.8783614,0.4492853,0.002254617,-0.01578277,-0.003462121
0.1406006,0.8810626,0.4496117,0.005276319,-0.01541125,-0.00790161
0.1392078,0.8806951,0.4501452,0.01238825,-0.01787277,-0.006340763
0.1382672,0.8776456,0.4471059,0.0213619,-0.01956655,-0.002396577
0.1388537,0.8793451,0.4447152,0.02318704,-0.02110259,-0.001663579
0.138322,0.8789022,0.4463342,0.02254895,-0.02044092,-0.0004801838
0.1367738,0.8765571,0.4472437,0.01882344,-0.01964258,0.001561692
0.1376635,0.8795946,0.4459663,0.009115995,-0.01478037,0.003057697
0.1377343,0.8841055,0.4448136,0.009352947,-0.009553453,0.006550809
0.1375069,0.8880698,0.4442494,0.01242606,-0.01634115,0.01122264
0.1406157,0.8839482,0.442866,0.008727529,-0.02317425,0.009518315
0.1461025,0.8755709,0.4428718,0.01090038,-0.01664557,0.00302616
0.1500226,0.8775416,0.4464047,0.01149702,-0.01120461,4.323177e-06
0.1470431,0.8791874,0.447432,0.00821609,-0.01405143,3.898386e-05
0.1426418,0.8776746,0.4435038,0.009787203,-0.01334877,-0.0003967549
0.1420838,0.8809244,0.4381254,0.008024021,-0.008840302,-0.003002363
0.1397703,0.8809913,0.4361254,0.006051965,-0.007158334,-0.003034945
0.1402885,0.8805127,0.440175,0.005832356,-0.008150633,-0.0002023619
0.1458429,0.8837056,0.442517,0.002665643,-0.009698114,-0.001278341
0.1475436,0.8847383,0.4426485,0.002731542,-0.009578764,-0.001239407
0.1445068,0.8824098,0.4438178,0.004267284,-0.007411258,-0.0003900712
0.1400264,0.8792458,0.4414819,0.006732499,-0.004059094,-0.0008249494
0.1395051,0.8806689,0.4398952,0.009150076,-0.004818693,0.003948449
0.1420801,0.883322,0.438643,0.009372335,-0.0102487,0.008185595
0.1417231,0.8830691,0.4356525,0.01111949,-0.01250118,0.009589393
0.1426963,0.8830525,0.4373006,0.007444667,-0.009656964,0.01110885
0.1444941,0.8796617,0.4402082,0.0004206301,-0.001693749,0.008880602
0.1442244,0.8763397,0.4423693,-0.002066912,0.004465059,0.003071926
0.1438255,0.8779001,0.4439149,-0.001835223,0.002493445,-0.003347749
0.1430541,0.8780066,0.442761,0.001809562,0.001429598,-0.006410238
0.1460169,0.8765757,0.4429249,0.00398398,0.0034374,-0.005959271
0.150267,0.8767085,0.4431567,0.002080414,0.004772619,-0.006422825
0.1500437,0.8795686,0.4419158,-0.0007182728,0.007342071,-0.01020024
0.1477155,0.8845758,0.4413593,-0.006515573,0.0122909,-0.0132621
0.144773,0.887496,0.4406257,-0.01496377,0.020122,-0.01211034
0.1438195,0.8870945,0.4401785,-0.01821916,0.02527453,-0.01214411
0.1441232,0.8838521,0.4410366,-0.01387403,0.02204689,-0.01217737
0.1416311,0.8807759,0.4448245,-0.01178147,0.01794193,-0.009949472
0.138502,0.8810739,0.4483154,-0.008557813,0.01641677,-0.008993465
0.1386392,0.8800472,0.4456074,-0.0004534481,0.01115583,-0.008601995
0.141252,0.8765615,0.4414055,-0.0001228806,0.008566672,-0.008535512
0.1419009,0.8772957,0.4394711,-0.002388556,0.01094233,-0.00540697
0.1407256,0.8788603,0.4373736,-0.002250845,0.01039203,-0.0009816062
0.1398129,0.8770721,0.4393266,-0.007388214,0.01174928,-0.002078241
0.1391834,0.8786644,0.4440375,-0.01192774,0.01435409,-0.003875535
0.1384446,0.8827689,0.4443478,-0.01229969,0.01417843,-0.001967644
0.135906,0.8847337,0.4456067,-0.0107237,0.0135004,0.0008640717
0.134028,0.8820925,0.4471876,-0.005550743,0.007258031,0.001113516
0.13618,0.8773574,0.4447826,0.0005291767,8.916774e-05,-0.003098508
0.1430535,0.8807572,0.4459079,0.002488237,0.00302782,-0.007943591
0.1496461,0.8839437,0.4467381,0.000713449,0.01007618,-0.00673625
0.1479871,0.8808174,0.4457809,-0.001342922,0.01212972,-0.003653086
0.145553,0.8823827,0.4475892,-0.0036063,0.0121482,-0.004737651
0.1468601,0.8843022,0.4445787,-0.004625946,0.01312291,-0.002593513
0.141183,0.8841705,0.4412609,-0.004084893,0.01292249,-0.0006057034
0.1351532,0.8831688,0.4416688,-0.003675681,0.01057608,-0.005340613
0.1392486,0.878095,0.4398783,-0.002324176,0.008752315,-0.007699289
0.1420386,0.876827,0.4398608,-0.003202811,0.01042286,-0.006279663
0.1395348,0.8782817,0.4407887,-0.007047249,0.01093829,-0.003861783
0.1396978,0.8777823,0.4400382,-0.009079607,0.01158943,-0.000771277
0.1390793,0.8787421,0.4402573,-0.006904652,0.01334703,-0.0009109242
0.1365047,0.879397,0.4405713,-0.003680218,0.008756005,-0.004341646
0.1373974,0.8792591,0.4419901,-0.004461569,0.005980873,-0.003889693
0.1380864,0.879061,0.4463977,-0.00472764,0.008288439,-0.001039521
0.1370201,0.8792764,0.4497767,-0.003046188,0.01046836,-0.005823571
0.1378079,0.8802778,0.4464038,-0.003558292,0.01067303,-0.008767611
0.1385627,0.8806009,0.440754,-0.002319441,0.002685748,-0.007281133
0.1388782,0.88077,0.4401362,-0.00086786,-0.0003230521,-0.004436948
0.1390396,0.8800507,0.4429471,-0.002836605,0.006056543,0.004734392
0.1375383,0.8786862,0.4451152,-0.004555021,0.006321657,0.0010416
0.1363607,0.8774897,0.4427791,-0.006005394,0.005397174,-0.00483285
0.1361054,0.877473,0.4392322,-0.006907249,0.005774009,0.003910462
0.1371972,0.8792261,0.4394415,-0.005446652,0.004540345,0.004329227
0.1398494,0.8792782,0.43947,-0.003658041,0.006027158,0.00371062
0.1405787,0.8790082,0.4412331,-0.002239101,0.00679299,0.004336447
0.1389984,0.8794149,0.4452784,-0.002957733,0.006944952,-0.002390109
0.1367046,0.8794344,0.4448298,-0.005940723,0.006915452,-0.004243323
0.1361978,0.8821847,0.4436213,-0.008269744,0.005032865,-0.005241375
0.139788,0.8850702,0.4436106,-0.01099685,0.005700892,-0.003563346
0.1423912,0.8844137,0.4400178,-0.009938742,0.00671865,0.0007816025
0.1392401,0.8807068,0.4350197,-0.005825187,0.007110135,0.002095106
0.1362843,0.8772577,0.4334205,-0.006210799,0.008227853,0.003372314
0.1393757,0.8782694,0.4393851,-0.005386768,0.007133701,0.001039139
0.1415883,0.8802852,0.4467133,-0.001824737,0.007790281,0.0007186435
0.1397334,0.8808823,0.445729,-0.001308304,0.01114892,0.0009760237
0.1396114,0.8821958,0.4465146,-0.006833633,0.0125323,0.0008820755
0.1380116,0.8824148,0.4520914,-0.01381242,0.008649502,0.006235025
0.1358058,0.8814945,0.450544,-0.007956405,0.003025449,0.005895632
0.1404503,0.8814617,0.448929,0.001792082,0.004858038,-0.0001856473
0.144691,0.8795435,0.4501215,0.002655058,0.006250799,-0.005820438
0.141184,0.8766176,0.4456936,0.002249753,0.002756191,-0.006091169
0.137847,0.8776306,0.4435609,-0.0009333013,0.004932383,-0.002823561
0.1389479,0.8786519,0.4437021,-0.002861727,0.01080883,-0.004010189
0.1382681,0.8781209,0.4418821,0.0008237182,0.01575102,0.0004173719
0.1367659,0.879583,0.4436403,0.00179562,0.0145059,0.0005506845
0.1377613,0.8794621,0.443561,0.002591348,0.007902142,-0.00503157
0.1375882,0.8788244,0.4430827,0.003235176,0.002957612,0.001134567
0.1372663,0.8809489,0.4455358,0.003495268,-0.004815797,0.002258654
0.1377325,0.8834516,0.4441923,0.005745678,-0.003476031,0.00458141
0.1377024,0.8854801,0.444052,0.001840456,0.009170796,0.01492674
0.1398733,0.8841825,0.4457979,-0.006209349,0.01176279,0.01221454
0.1435446,0.8795529,0.447654,-0.01033403,0.01066166,0.005112697
0.1443057,0.8768237,0.4524147,-0.009708028,0.01095401,-0.001987616
0.1387482,0.8773006,0.4528709,-0.007675948,0.007604252,-0.004669864
0.1321776,0.8781072,0.4504292,-0.006383552,-0.001385651,0.002303677
0.1325756,0.875855,0.4482074,-0.001328288,-0.01140379,0.002524918
0.1346344,0.8751197,0.4442402,0.002615133,0.005718995,0.00114477
0.1347163,0.8806938,0.4445081,0.002417891,0.02615759,0.001894957
0.1374076,0.8836466,0.4460174,0.001038931,0.01276276,3.934355e-05
0.1411719,0.8765571,0.4471185,-0.007656398,0.004691155,-0.001374426
0.1424378,0.8711976,0.4513908,-0.01243741,0.01088711,-0.005600808
0.137642,0.8825247,0.4502191,-0.003357278,0.006819024,-0.004798742
0.1307513,0.8930665,0.4457059,0.002422074,0.006576959,0.0001765603
0.1335507,0.8833409,0.4446634,-0.002816254,0.010029,0.0005208505
0.1365129,0.8765806,0.4420759,-0.007755527,0.009533262,-0.001086734
0.1306984,0.8825531,0.4411724,-0.004939892,0.01082171,-0.003681429
0.1305329,0.8836436,0.4439032,-0.001408914,0.006945358,7.104421e-05
0.1357147,0.8834139,0.4475136,-0.0003766502,0.001845902,0.005974386
0.1383534,0.8839014,0.4517722,-0.0007563833,0.004538886,0.006232843
0.1387494,0.8804399,0.4516459,-0.005052777,0.007261141,0.008255937
0.1384805,0.8787809,0.4522644,-0.006185018,0.00927838,0.005637859
0.1429545,0.8765018,0.4555196,-0.006166912,0.01103416,-6.931151e-05
0.1442349,0.8741085,0.4531019,-0.005003488,0.009791368,0.001986089
0.140932,0.8782274,0.4511017,0.001103254,0.01019455,0.0009456923
0.1418296,0.8849557,0.4499088,-0.001758986,0.008999866,-0.002821595
0.1407144,0.888288,0.4455155,-0.006273099,0.006691396,0.001604394
0.1398783,0.8832785,0.4449222,-0.006001036,0.01105919,0.005520098
0.141637,0.8757272,0.4448051,-0.01198474,0.01492246,0.003065051
0.1408447,0.8756453,0.4428444,-0.01532068,0.01265722,-0.0008557608
0.1384519,0.87564,0.4442788,-0.01355073,0.01079094,-0.004603541
0.1349536,0.8748486,0.4457114,-0.01008677,0.008640914,-0.004608711
0.1364763,0.8774052,0.44588,-0.003813028,0.004582693,-0.00302537
0.1390108,0.8766089,0.4461054,-0.001583264,0.006306864,-0.006071325
0.1363471,0.8771386,0.4449847,-0.005758045,0.0108776,-0.007460422
0.1356837,0.8814604,0.4432544,-0.01051427,0.009927626,-0.004958196
0.1346848,0.8822924,0.4411867,-0.006387256,0.007956753,-0.00463291
0.1342829,0.8811406,0.4424749,-0.0006652157,0.004726871,-0.00643733
0.1376696,0.8800795,0.4468976,-0.0007297849,0.000546664,-0.008676805
0.1397021,0.880399,0.4480905,0.002724747,0.002232681,-0.008829728
0.1417174,0.8805269,0.4490979,0.005522053,0.003105572,-0.008510058
0.1420361,0.8774377,0.4514658,0.006179486,0.002131295,-0.009906888
0.1395153,0.8760543,0.451166,0.006983453,0.007422493,-0.008761148
0.1360099,0.8787584,0.448115,0.003258518,0.01481498,-0.007055466
0.129418,0.8835566,0.4433888,-0.002321289,0.01696156,-0.004833232
0.124964,0.8860431,0.4411606,-0.008461497,0.01063892,0.001630661
0.1260156,0.8839186,0.4424438,-0.008060959,0.004506156,0.005228729
0.1310901,0.8817149,0.445257,-0.005258655,0.0070934,0.002912149
0.1361716,0.8806575,0.4483262,-0.01251483,0.007887632,0.001765643
0.1318426,0.8827069,0.4474443,-0.01687049,0.00404038,0.003410288
0.1266146,0.886021,0.4460259,-0.01485099,0.002586904,0.006012811
0.1315249,0.8822875,0.4496041,-0.01284932,0.003320568,0.008910012
0.1362016,0.8742085,0.4552423,-0.007049143,0.008241449,0.006612166
0.1377957,0.869156,0.4579357,-0.001542032,0.01058534,0.001175825
0.1384902,0.8714639,0.4540689,0.001043679,0.002194765,0.001750135
0.1365868,0.8776338,0.449251,-0.0002049321,-0.003374291,0.003336589
0.137574,0.8783864,0.4503417,-0.002010727,0.001392053,0.002260626
0.1378006,0.8776241,0.4539454,0.001504237,0.006486927,1.277064e-05
0.1348689,0.8789786,0.4591193,0.003032563,0.007192663,-0.005927144
0.1347022,0.879106,0.4610465,0.001848372,0.004372912,-0.008269482
0.1345133,0.8794715,0.4507766,0.001357776,0.001973006,-0.005570134
0.134704,0.8790312,0.4400553,-0.001942615,0.00440972,-0.00316806
0.1349226,0.8789514,0.4414199,-0.006412325,0.006904548,0.0005279059
0.1331226,0.8796081,0.4445857,-0.00872171,0.005014825,0.001461982
0.1325377,0.8787621,0.4450216,-0.005577475,0.004416276,0.0006841428
0.1320711,0.8796809,0.4482715,-0.0008824908,0.006081053,0.002851318
0.1344298,0.8810983,0.4489664,-0.001040421,0.005757974,0.003681222
0.1367713,0.881784,0.4475879,-0.001856216,0.005865757,0.003982172
0.132326,0.88057,0.4492353,-0.002376134,0.005785604,0.004560824
0.1298002,0.8770701,0.4476976,-0.003592766,0.003532289,0.003168812
0.1341095,0.8773423,0.4459381,-0.003277226,0.002069543,0.003269632
0.1376383,0.8776284,0.4461696,-0.003715563,0.00246214,0.004144716
0.1349289,0.8765038,0.4432024,-0.006829899,0.003812013,0.00399939
0.1316836,0.878577,0.4423698,-0.009773005,0.004218933,0.005579514
0.1321488,0.8798596,0.4419178,-0.009248297,0.00584087,0.006974773
0.1325923,0.8799058,0.4402192,-0.009672255,0.008428563,0.007331132
0.1363859,0.8773315,0.4397208,-0.01242995,0.006695217,0.007150421
0.1404203,0.872531,0.4392184,-0.009922222,0.004519875,0.003425119
0.1377074,0.8730229,0.4501952,-0.004136002,0.003815221,6.17889e-05
0.1347312,0.8747322,0.4634571,0.00260701,0.0003720703,0.001586464
0.1341761,0.8741534,0.4572006,0.009443297,-0.003153388,0.003846446
0.1329178,0.8764901,0.4482308,0.007205032,-0.003022667,0.004931151
0.1313059,0.878928,0.4488929,0.002718712,-0.001939228,0.008476395
0.1306042,0.878676,0.4479939,0.003976879,-0.003198634,0.01516118
0.1298278,0.8768051,0.4470196,0.0025402,-0.00319433,0.01898138
0.1292794,0.8746582,0.4450422,0.001227452,-0.002259482,0.01647128
0.1329552,0.8781774,0.4412953,0.001620839,-0.002701755,0.01357616
0.1370385,0.8824033,0.4433158,-0.0005187156,0.001300135,0.01315131
0.1362634,0.8794558,0.4441841,-0.003738664,0.004966988,0.01146664
0.1346867,0.8795222,0.4443671,-0.01414034,0.002679185,0.008684692
0.1346762,0.8870362,0.4500948,-0.02082382,0.002896205,0.00787994
0.1348922,0.8910448,0.4526857,-0.007757947,0.004825388,0.01408113
0.1357764,0.883968,0.4528958,0.006254492,0.003805063,0.02075733
0.1373327,0.8733503,0.4527691,0.008569432,0.0009118598,0.01179986
0.1378338,0.8719747,0.4501003,0.01107135,-0.00545737,0.0004128623
0.1373938,0.8738258,0.4476822,0.01422654,-0.008869452,0.001045722
0.137451,0.8751663,0.4444536,0.0117862,-0.00441085,-0.0002326905
0.1375696,0.8810904,0.4429633,0.007779395,0.001837388,-0.0006156329
0.1374749,0.8817926,0.4431561,0.004498292,0.008456575,0.005575257
0.1374854,0.879257,0.4432814,0.00275561,0.01087199,0.006466893
0.137521,0.8812199,0.4460553,0.003262787,0.005523551,0.001710583
0.1374986,0.8805824,0.4479129,0.0008824664,0.003526283,-0.003029354
0.1372995,0.8800962,0.4474221,-0.001100674,0.008382736,-0.002620291
0.1366381,0.8807589,0.4467051,-0.004276387,0.01137295,-0.001114936
0.1359951,0.8781861,0.446334,-0.01110562,0.009904858,-0.006188462
0.1368972,0.8764709,0.4464095,-0.009900581,0.009149432,-0.006298218
0.1376464,0.8767378,0.448575,-0.007362146,0.01163263,9.36519e-05
0.135684,0.8800036,0.4538794,-0.008394933,0.01242767,0.002397645
0.1339577,0.8829617,0.4558435,-0.006800845,0.01092548,0.0003091912
0.1347118,0.8802158,0.4562009,-0.008169089,0.01052577,-0.004170294
0.1350738,0.8781992,0.4582103,-0.008753207,0.009533672,-0.004262117
0.1344545,0.8804356,0.4534186,-0.00727937,0.005660602,-0.001551342
0.134753,0.8821091,0.4475562,-0.005613526,0.00141548,-1.096692e-06
0.1348671,0.8817435,0.4498247,-0.00213975,0.003578995,0.003690244
0.1345411,0.8807037,0.4509004,-0.003905589,0.007253533,0.003219129
0.1348288,0.8785696,0.4473199,-0.0063507,0.004631675,0.001507098
0.1349065,0.8771549,0.4467124,-0.004606441,0.004185608,0.001736497
0.1355256,0.8788062,0.4475774,-0.002624631,0.005422484,-0.001072663
0.1364972,0.8797037,0.4469819,-0.0007931813,0.00431632,0.0006278853
0.1359598,0.8789592,0.4468274,-0.001143657,0.007450127,0.00449569
0.1341351,0.8789613,0.444546,-0.00180247,0.008839828,0.003841597
0.1301257,0.878353,0.4420793,-0.003296273,0.003531997,0.003432479
0.1277047,0.8774678,0.4440515,-0.005912916,-0.0005112968,0.00402408
0.134549,0.8776629,0.4488178,-0.003888578,0.001207038,0.00331517
0.1420728,0.8780012,0.4528178,-0.001132381,0.002738375,0.0003625086
0.1386225,0.8776849,0.4519654,-0.001071425,-0.00260578,-0.001219879
0.1344435,0.877697,0.4503074,-0.0003837474,-0.005837091,-0.0005086357
0.1352411,0.8779448,0.4519172,0.0009215412,-0.002749306,0.0006939562
0.1342164,0.8776402,0.4510385,0.00263784,-0.001199389,0.001855388
0.1346445,0.8778145,0.4481743,0.003181778,-0.0004937027,0.0005111083
0.1353468,0.8782028,0.4463243,0.002590762,-0.00085826,0.002590567
0.1339925,0.8794389,0.4447907,0.004814401,-0.005552292,0.005888025
0.1353044,0.881219,0.4468127,0.005978778,-0.01024452,0.00382252
0.1357061,0.8807093,0.4520526,0.00281618,-0.007362872,0.002397534
0.1359173,0.8799465,0.4540908,0.001704612,-0.003005054,-0.0004532009
0.1366045,0.8799395,0.4515095,0.0001341115,-0.006085892,-0.002418925
0.1347955,0.8790624,0.4505488,-0.004932909,-0.006060438,-0.0004624251
0.1353426,0.8797942,0.4522028,-0.004850326,-0.002334494,-0.001526401
0.1360052,0.8808546,0.4514275,-0.0002205727,-0.003004289,-0.001804229
0.1356949,0.8786854,0.4499119,0.003361406,-0.00502099,-0.001788793
0.1363058,0.8767844,0.4502672,0.004835203,-0.009185802,-0.004998764
0.1344257,0.8769768,0.4528537,0.004591057,-0.009701996,-0.006702474
0.134094,0.8763793,0.4542866,0.006739328,-0.005038288,-0.004528027
0.1353528,0.8762228,0.4511509,0.008235112,-0.00384183,-0.001220546
0.1348679,0.8775561,0.4499496,0.005799973,-0.003600113,-0.002420046
0.1363636,0.8780178,0.4488296,0.002953538,-0.003268577,-0.003190738
0.1381186,0.8775606,0.4473543,-0.0006301927,-0.003714374,-0.001757165
0.1364853,0.8766754,0.4510378,-0.002092994,-0.005560123,-0.004001674
0.1345294,0.8752287,0.4523056,0.001879399,-0.007318885,-0.004012297
0.1346501,0.8750023,0.4540166,0.005389398,-0.005305109,-0.002380132
0.1347959,0.8770429,0.4547751,0.003149287,-0.006745594,-0.002485579
0.1344624,0.8793192,0.4477137,-0.0002996863,-0.009768163,-0.002122249
0.1339266,0.8795389,0.4466372,-0.001733368,-0.009746562,-0.006100826
0.1329773,0.8783603,0.4514133,-0.003824824,-0.008498102,-0.008748196
0.1332566,0.8765205,0.4536633,-0.00211596,-0.004213596,-0.004563172
0.1337573,0.8743023,0.4528432,0.002246367,-0.00545852,-0.002377804
0.1338596,0.8745326,0.4495817,0.00286153,-0.008969421,-0.00222914
0.1343337,0.8757102,0.4510238,0.00384021,-0.008136332,-0.003422077
0.1341135,0.8750486,0.4535032,0.005293691,-0.01003287,-0.00758702
0.1347659,0.8762456,0.4529832,0.007857491,-0.008601504,-0.006813937
0.136288,0.8774977,0.4522717,0.01158483,-0.006426941,-0.002616713
0.1369731,0.87681,0.4494771,0.00903287,-0.007253566,-0.002459978
0.1378194,0.8785747,0.4436499,0.005508864,-0.004985379,-0.002706875
0.1375085,0.8785882,0.4387926,0.0042579,-0.005940672,-0.001958518
0.1358595,0.8770025,0.4442757,0.0001139393,-0.006558955,-0.004114892
0.1343171,0.8800272,0.4502921,-0.002298883,-0.004879131,-0.005148031
0.1326771,0.8808917,0.4471439,-0.002310106,-0.006564111,-0.0009840126
0.1340156,0.8772163,0.4500411,-0.00214992,-0.00759153,0.001799929
0.1383775,0.8748337,0.4546132,0.0007514976,-0.009594978,-0.0002339213
0.1406771,0.8744357,0.4507033,0.003442379,-0.01061737,-0.004397192
0.1378419,0.8757397,0.4484216,0.004271521,-0.01007009,-0.008531578
0.1327007,0.8768737,0.4486435,0.006134812,-0.01246754,-0.008944938
0.1326372,0.8779166,0.446722,0.00789219,-0.01214537,-0.00838021
0.1342125,0.8784159,0.4457219,0.008496553,-0.008947012,-0.008316755
0.1324228,0.8769752,0.4470836,0.008934976,-0.006261545,-0.002890311
0.1321658,0.8770123,0.4500471,0.00930773,-0.006802695,0.003333282
0.1335201,0.8764784,0.4536705,0.009542508,-0.01114701,0.004251501
0.1379037,0.8759038,0.4519144,0.007453725,-0.01127927,0.004788804
0.1426298,0.8779163,0.4480219,0.00516211,-0.006762347,0.005929472
0.1408034,0.8787279,0.4504681,0.005556589,-0.001397082,0.004982507
0.1378446,0.8821136,0.4507401,0.003650175,0.0001335706,0.003531478
0.1355138,0.8858226,0.4489022,0.0006087293,-0.003615225,0.001286211
0.1351553,0.8816963,0.450764,0.000127299,-0.003651375,0.0001352507
0.1372894,0.8762793,0.4498523,0.0008688784,-0.001482673,-0.0008871588
0.1356537,0.8762389,0.4494437,0.002161163,-0.001540506,-0.006132394
0.135365,0.8794209,0.4497153,0.0006527402,-0.00362708,-0.008020203
0.1351497,0.8813951,0.447099,-0.001960006,-0.007347359,-0.007243493
0.1322292,0.8803203,0.4451721,-0.00098697,-0.006121094,-0.007506912
0.1343216,0.8779987,0.4422563,0.002653682,-0.004948524,-0.002784621
0.1355854,0.8756223,0.4422132,0.004128002,-0.007091736,-0.001004659
0.1336061,0.8749209,0.444758,0.002704175,-0.006165509,-0.00147335
0.1322751,0.8776079,0.4449802,0.006128105,-0.007112303,0.0009961289
