accx,accy,accz,gyrox,gyroy,gyroz
0.0351759,0.7733991,0.6429555,0.01685587,-0.1044237,0.2204577
0.03543133,0.7723358,0.6446565,0.01382523,-0.1004924,0.2182472
0.03606778,0.7770691,0.6451408,0.009326849,-0.1026684,0.2195789
0.0341048,0.7828432,0.644687,0.003219948,-0.1053002,0.2213148
0.03429913,0.7823732,0.6465651,0.003839125,-0.108342,0.2187544
0.03594248,0.779935,0.646832,0.007348864,-0.1087145,0.2149844
0.03584201,0.7739511,0.6509261,0.00389252,-0.1076771,0.212965
0.03855875,0.7683883,0.6555738,0.005914593,-0.10773,0.2092823
0.03981796,0.7749845,0.6506745,0.006759345,-0.1007405,0.2051056
0.04004288,0.7843298,0.6417679,0.004002733,-0.09351776,0.2024297
0.04171493,0.7807028,0.6400822,0.006725102,-0.09657482,0.1977075
0.03959045,0.7768196,0.6475141,0.006507842,-0.09907806,0.1944602
0.03835358,0.780396,0.6537183,0.006281722,-0.09544804,0.1932646
0.03903617,0.7791982,0.6499916,0.007873771,-0.09154347,0.1907908
0.03876182,0.7783914,0.645061,0.007559267,-0.0885551,0.1911384
0.0387612,0.7800782,0.6451195,0.01023402,-0.0871687,0.1909312
0.03689035,0.7789087,0.6399346,0.01234927,-0.08754868,0.1888399
0.03525056,0.7810974,0.6352821,0.0139727,-0.08877234,0.1880077
0.03428276,0.7827595,0.6403687,0.01441873,-0.0896892,0.1855281
0.03308052,0.7816736,0.6433314,0.0107584,-0.09083093,0.1848174
0.03409243,0.7816403,0.6436386,0.009795057,-0.09378041,0.1852223
0.03536458,0.7800834,0.6439338,0.009105724,-0.09353104,0.1839733
0.03570404,0.7789047,0.6406244,0.008372334,-0.09148159,0.1834386
0.03608243,0.7799864,0.6403452,0.009252939,-0.09122996,0.1802324
0.03673386,0.7822198,0.6440598,0.006670874,-0.08519486,0.1758357
0.0377933,0.7832231,0.6469502,0.005858495,-0.0779533,0.1717629
0.03926447,0.7830092,0.6462691,0.007930013,-0.0781165,0.1648698
0.03940591,0.7822954,0.6448763,0.01000933,-0.08177893,0.1589712
0.03806833,0.7781707,0.6458789,0.01083592,-0.08442996,0.1562464
0.03804141,0.7741501,0.6432138,0.008600209,-0.07896157,0.1540315
0.03659917,0.7736893,0.6410698,0.00893777,-0.07133084,0.1527135
0.03522154,0.7769994,0.6454745,0.008833262,-0.07210275,0.1548754
0.03682974,0.7808148,0.6478913,0.006104398,-0.0721603,0.15588
0.03694757,0.7792144,0.6436016,0.00705795,-0.07110416,0.1522062
0.03730674,0.7784866,0.6389664,0.009745279,-0.07114036,0.1523231
0.03712449,0.7809951,0.6400035,0.01198055,-0.06652677,0.1539227
0.03529104,0.781456,0.6411298,0.01196361,-0.06195214,0.1503038
0.03643914,0.7817963,0.6397837,0.01086485,-0.05813268,0.1488551
0.03730301,0.7804156,0.6413613,0.01173094,-0.06137764,0.1488288
0.03753907,0.778384,0.6432427,0.01062051,-0.06914518,0.1457324
0.03880044,0.7801263,0.6465343,0.009195334,-0.06180998,0.1413187
0.03884499,0.7813886,0.6509019,0.01010279,-0.05554153,0.1360098
0.03886334,0.7808362,0.6489172,0.01071428,-0.0596225,0.1351031
0.03797405,0.7805391,0.6472368,0.01228405,-0.05691099,0.1354928
0.03688111,0.7797919,0.6495295,0.01318236,-0.05704272,0.1310491
0.03674942,0.7802914,0.6486125,0.009551861,-0.06066191,0.129891
0.03639517,0.7811961,0.6476577,0.00688207,-0.05869687,0.132207
0.03861993,0.7802381,0.6463942,0.01151695,-0.0564576,0.1335491
0.04047619,0.7805692,0.6399825,0.01612014,-0.05340046,0.1342494
0.03596737,0.7818656,0.6373224,0.01393846,-0.0516735,0.1312847
0.03136421,0.7815069,0.6409691,0.01267879,-0.05047528,0.1287371
0.03353094,0.7803657,0.6411512,0.0132999,-0.04950016,0.1262014
0.03620414,0.77857,0.6399058,0.009885343,-0.05311529,0.1209825
0.03584255,0.7782314,0.6437184,0.008512347,-0.0547741,0.1206754
0.03641888,0.7772033,0.6482989,0.0106217,-0.05240443,0.1207521
0.03651026,0.7739237,0.6488944,0.009912804,-0.04824841,0.1175847
0.03750612,0.7762484,0.6464393,0.009050619,-0.04305686,0.1157065
0.03972191,0.7814152,0.6432499,0.00968274,-0.04031365,0.1123411
0.03777063,0.7831003,0.6424282,0.00873567,-0.04095884,0.1107854
0.03585828,0.782745,0.6438962,0.007118468,-0.04459435,0.1104374
0.03624271,0.7795731,0.6460786,0.00710166,-0.04593748,0.1069364
0.03592182,0.7782684,0.6493555,0.01072598,-0.04140384,0.1050679
0.0358889,0.7796991,0.6488589,0.01540385,-0.03686778,0.1038524
0.03433191,0.7799106,0.6443677,0.0148261,-0.03701302,0.1020366
0.03264794,0.7835437,0.6434699,0.01371055,-0.03799839,0.1012472
0.03313655,0.7871399,0.6440571,0.01504277,-0.03676409,0.1020547
0.03269446,0.7837464,0.6432409,0.01050773,-0.03654019,0.1070788
0.03153596,0.7806143,0.6454751,0.007410786,-0.03520476,0.1102735
0.0319672,0.7840188,0.6480649,0.01341262,-0.03341424,0.107159
0.03352924,0.7869742,0.6455735,0.01568071,-0.03535987,0.1052116
0.03556876,0.7854492,0.6435666,0.009346259,-0.03723037,0.1052003
0.03848146,0.784269,0.6465207,0.002362853,-0.0369941,0.10224
0.03984486,0.7830802,0.6474168,0.0006568293,-0.03364142,0.0984016
0.03945593,0.7827494,0.643196,0.001362137,-0.02976985,0.09092886
0.03977396,0.783856,0.6393692,0.0009052999,-0.02947307,0.08150303
0.03685084,0.7821399,0.6387098,0.002557002,-0.03119028,0.08556766
0.03232705,0.7816617,0.6383471,0.002844299,-0.03124787,0.09171527
0.03285036,0.7831983,0.6369068,0.002257855,-0.02658908,0.08412534
0.03407833,0.78318,0.6379283,0.004406256,-0.02513725,0.08200627
0.03314883,0.7826805,0.6413794,0.004573278,-0.02563165,0.08652934
0.03431569,0.7814649,0.6456229,0.005705121,-0.0216472,0.08563273
0.03620143,0.7818087,0.6487772,0.007337747,-0.02156486,0.08495586
0.0362165,0.7827596,0.6471821,0.006503514,-0.0230292,0.08294504
0.03609812,0.7831308,0.6463854,0.007320992,-0.02353556,0.08118791
0.0361061,0.784734,0.6476872,0.006898079,-0.02240902,0.08070648
0.03605906,0.7840719,0.645113,0.006701777,-0.01839797,0.0778145
0.03621111,0.7829745,0.6445899,0.008062987,-0.01944596,0.07654318
0.03602235,0.781888,0.6491757,0.006151758,-0.01974157,0.07223564
0.03613598,0.7785981,0.6523547,0.005590333,-0.01958005,0.06783245
0.03634106,0.7787594,0.6496326,0.005992535,-0.02189909,0.07106711
0.03690523,0.780178,0.6437628,0.002950937,-0.02005599,0.0733928
0.03804898,0.7810069,0.6405325,7.557148e-05,-0.0225036,0.07134717
0.03844681,0.7853194,0.6362743,-0.001834254,-0.02827325,0.06799599
0.03894419,0.786753,0.6337093,-0.0005207741,-0.02883219,0.06573246
0.03916006,0.7830428,0.6387654,0.006616258,-0.02213199,0.06340713
0.03863843,0.7809846,0.6417463,0.01199699,-0.01035698,0.05970854
0.03858888,0.7818632,0.6410072,0.0114444,-0.006861453,0.05949334
0.03721303,0.7824515,0.6443387,0.01141934,-0.009301083,0.06021182
0.03540302,0.7816219,0.648835,0.01102152,-0.0106224,0.06213116
0.03600786,0.7818843,0.6485863,0.00611324,-0.01220552,0.06490344
0.0365117,0.7822584,0.6494456,0.004041737,-0.009502056,0.06106001
0.03584403,0.7816175,0.6546182,0.006808743,-0.007446399,0.05858264
0.03683208,0.7821033,0.6528723,0.008654383,-0.00689284,0.05888198
0.03984893,0.7814684,0.6484652,0.007137826,-0.00479871,0.05430946
0.042572,0.7790538,0.6490251,0.003596018,-0.006475648,0.05105094
0.04219356,0.7773789,0.647503,0.002498506,-0.008349646,0.05035525
0.04067136,0.7781885,0.6459812,0.0015591,-0.008545523,0.04861432
0.04108896,0.7802706,0.6440353,0.001432666,-0.008100142,0.04544358
0.0402809,0.7799541,0.6423872,0.004783177,-0.008420387,0.04247759
0.03927576,0.7803359,0.6440236,0.005284851,-0.01119143,0.04311149
0.03804884,0.7812672,0.6428856,0.004721885,-0.009574547,0.04413376
0.03139698,0.7798153,0.6445567,0.006206324,-0.006095294,0.04290006
0.0270604,0.7795738,0.6470577,0.007357172,-0.005641627,0.04203251
0.02995265,0.778328,0.6437221,0.007779637,-0.005372076,0.04440898
0.03283608,0.777091,0.6412041,0.007959559,-0.005359556,0.04602654
0.03557989,0.7795055,0.6378594,0.008963642,-0.00630387,0.04161351
0.03815168,0.7812143,0.6363942,0.007619623,-0.008109145,0.03832916
0.03845352,0.7821332,0.6393168,0.006723415,-0.006521295,0.03676249
0.03893262,0.7814221,0.6426245,0.00838536,-0.003551955,0.03186775
0.0390145,0.7798703,0.6473506,0.007353718,-0.002864479,0.02856728
0.03771994,0.7816955,0.6467591,0.007618732,-0.00156519,0.02628105
0.03726749,0.782274,0.6442781,0.008735092,-0.002331105,0.02574795
0.03720288,0.7807575,0.6465096,0.007598997,-0.003377269,0.02952931
0.03587817,0.7803938,0.6450615,0.007934118,-0.00497651,0.03071856
0.03510046,0.7807787,0.6438338,0.00774484,-0.008795059,0.02994148
0.03614479,0.7821849,0.6468353,0.007497591,-0.01126601,0.02967045
0.03715126,0.7820263,0.6467245,0.007782311,-0.01411855,0.02836053
0.03844576,0.7799404,0.6420855,0.005817428,-0.008019226,0.02890132
0.0404942,0.7790479,0.6352301,0.006027299,0.002941881,0.02790964
0.0382536,0.7784525,0.6330235,0.009427561,0.0006500692,0.02434211
0.03434255,0.778235,0.6359244,0.00957137,-0.001581678,0.02372824
0.03621625,0.7820792,0.6367793,0.006767243,0.001392923,0.02581809
0.03716251,0.7865033,0.6384042,0.004661044,-0.0007561213,0.0285143
0.03607973,0.7840868,0.6404262,0.002157425,0.0001087345,0.02782556
0.03821577,0.7791886,0.6410016,0.003303678,0.001786444,0.02525052
0.03789849,0.7770123,0.6438454,0.00650101,-0.0006080716,0.02561002
0.03773202,0.776594,0.6434123,0.003690921,-0.0009648996,0.02499992
0.03975925,0.7785655,0.6402014,0.002243226,-0.001710302,0.02318669
0.03872663,0.7797734,0.6404911,0.003880024,-0.0006637014,0.0206003
0.03860367,0.7797647,0.6410501,0.004771788,0.003872329,0.01666142
0.0383886,0.7802259,0.6416703,0.006968017,0.006096224,0.01683917
0.03413869,0.7799056,0.6412147,0.005817208,0.006091489,0.01817559
0.03104421,0.781507,0.6403076,0.006573527,0.0009733382,0.01717949
0.03323721,0.7827047,0.6449527,0.009330959,-0.004686202,0.01740743
0.0363684,0.7815559,0.6476344,0.007053689,-0.001458852,0.01651691
0.0354447,0.7819513,0.6410338,0.006344378,0.001775953,0.01436113
0.03566899,0.782125,0.6352771,0.005275731,0.0009346052,0.01363456
0.03704312,0.781748,0.6394452,0.005184708,0.00252276,0.01334761
0.03548564,0.7820727,0.6450834,0.009890687,0.003397344,0.01512228
0.03611008,0.7818965,0.6445727,0.01131651,0.002734932,0.01638006
0.03694997,0.7819355,0.6448734,0.009032245,0.004245579,0.01224706
0.03729333,0.781981,0.6452344,0.005515862,0.005327525,0.007630239
0.03966019,0.7819015,0.6449313,0.004831766,0.005206686,0.007297133
0.03797491,0.7819828,0.6489435,0.00591739,0.004995918,0.007757797
0.0356688,0.7817373,0.6501574,0.003141655,0.004873516,0.006721527
0.03596825,0.7807116,0.6505334,0.001086266,0.006502191,0.006768288
0.03416833,0.7784913,0.6548474,0.0001858843,0.005687268,0.007351117
0.03300067,0.7771184,0.653998,0.002094741,0.002237071,0.007058996
0.03430124,0.777788,0.6485003,0.005891357,-9.700488e-05,0.007322925
0.03610691,0.7778935,0.6442712,0.003941546,-0.004028038,0.00707959
0.03647935,0.7766554,0.641858,0.003042402,-0.002351699,0.006275035
0.03581263,0.7761399,0.6397146,0.005794717,0.004382632,0.004518638
0.03624469,0.7767694,0.6368372,0.00834797,0.005075758,0.00177462
0.03577744,0.7778662,0.6385691,0.0111065,0.007160036,0.001767841
0.03401392,0.7782697,0.641955,0.00916022,0.01010553,0.002069083
0.03206809,0.7778185,0.6401253,0.006549636,0.009364809,0.0004526006
0.0314897,0.7792818,0.6403362,0.007028708,0.0110357,0.0003868165
0.03321782,0.7809091,0.6419255,0.005328894,0.01095536,0.001762893
0.0336291,0.7802421,0.6392145,0.005890264,0.01209538,0.002475595
0.03316486,0.7806072,0.6381945,0.009385205,0.01527912,0.001530064
0.03361231,0.7806563,0.6378214,0.01047356,0.01340917,-5.932041e-07
0.03414371,0.7792529,0.6381486,0.01033225,0.0123249,-0.001743692
0.03504759,0.7793533,0.6426581,0.00819082,0.01170242,-0.003945158
0.03448077,0.7801162,0.645127,0.006165524,0.01013385,-0.00383067
0.03247381,0.781711,0.6462561,0.006864443,0.009522946,-0.003106194
0.03054256,0.7828879,0.6478757,0.006687505,0.0080824,-0.003767709
0.02911394,0.7835266,0.6466505,0.00684328,0.008824122,-0.001403794
0.0291393,0.7862447,0.644345,0.007592413,0.007709197,0.00190697
0.02935743,0.7867407,0.6420386,0.005867259,0.004204877,0.0003524238
0.02998132,0.7855547,0.6408856,0.003827226,0.003584662,-0.003726084
0.03096829,0.7863411,0.639841,0.003063499,0.002144678,-0.006409622
0.03053625,0.7858036,0.6372242,0.003321212,0.00172499,-0.007400551
0.03039079,0.7839619,0.6365302,0.004776086,0.004126744,-0.006377747
0.03071432,0.7820845,0.6375489,0.006064372,0.005547576,-0.002172899
0.03119075,0.7809782,0.6383875,0.006821955,0.006298218,0.000198739
0.03449138,0.7805044,0.6409318,0.007250619,0.007552755,-0.003588441
0.03901936,0.7786551,0.6467607,0.005027243,0.01096471,-0.006166373
0.0398267,0.7787013,0.65043,0.0004340929,0.01346676,-0.0053999
0.037939,0.7800226,0.6474406,-0.001901037,0.01185078,-0.005055216
0.0370814,0.7797164,0.6461689,-0.0002595365,0.01003705,-0.002416237
0.0354091,0.7809112,0.6476257,0.003154826,0.007951644,0.0008906658
0.0328283,0.7819048,0.6452295,0.004582841,0.003930348,-0.000427314
0.03172339,0.781663,0.6436963,0.001289885,0.001207473,-0.004872032
0.03166193,0.7823232,0.6447654,-0.002159672,0.00268927,-0.007635841
0.03316118,0.7816455,0.6456302,0.001480978,0.005488008,-0.008601119
0.03394413,0.7810245,0.647473,0.007411799,0.007461442,-0.01014428
0.03386365,0.7813609,0.6502217,0.008847051,0.01068088,-0.009350247
0.0353887,0.7809188,0.6516721,0.01004961,0.0092956,-0.002787178
0.03569884,0.7806911,0.648703,0.009891448,0.007148355,0.001020057
0.03583619,0.7804373,0.6449738,0.00692723,0.01302556,-0.003284279
0.03569526,0.7814757,0.6448846,0.006172089,0.01449529,-0.003758068
0.03420576,0.7825088,0.6431151,0.005356889,0.01136475,-0.002465004
0.03563208,0.7818396,0.640308,0.005084046,0.01150269,-0.004569798
0.03676143,0.783227,0.6412277,0.005681776,0.01077847,-0.0003718045
0.03580355,0.7855225,0.6398724,0.002505328,0.01193678,0.001334111
0.03614391,0.7865544,0.6364901,0.0006438763,0.0129605,-0.005115107
0.03619016,0.7861494,0.6378614,0.0009985963,0.01417134,-0.01065957
0.03637885,0.784403,0.6393847,-0.001001296,0.01700416,-0.01342567
0.03796512,0.7824102,0.641127,0.00118371,0.01528341,-0.01437697
0.03938527,0.7786511,0.6438135,0.006518637,0.01502288,-0.01727827
0.03807186,0.7768582,0.6394666,0.006762364,0.01643677,-0.0135292
0.03308232,0.7789882,0.6354283,0.008009327,0.0165268,-0.005180301
0.02913879,0.7796048,0.6370143,0.009682834,0.01814929,-0.007875021
0.03018123,0.7793853,0.6362434,0.007622334,0.01655619,-0.009883146
0.03243927,0.7810627,0.6353676,0.008897848,0.01378339,-0.008822639
0.03237784,0.7834554,0.6361537,0.007407585,0.01260412,-0.01238554
0.03438134,0.7840278,0.6370635,0.00267412,0.01159015,-0.01154771
0.0375428,0.7834469,0.639635,0.003122679,0.009946314,-0.006798584
0.03678907,0.7833241,0.640472,0.002798544,0.005967459,-0.003032257
0.03651781,0.7814614,0.6397618,0.00284865,0.005640158,-0.003954093
0.03717434,0.780395,0.6406061,0.003074465,0.007027035,-0.007644915
0.03650554,0.7810017,0.6403998,0.001477603,0.004944097,-0.007350599
0.0365903,0.7803703,0.6398661,0.004392281,0.005317453,-0.008671576
0.03523331,0.7814366,0.6404785,0.006407262,0.00729347,-0.01057169
0.03438716,0.7818343,0.6392655,0.005819057,0.01079091,-0.009090816
0.03640233,0.7780782,0.6386242,0.004566693,0.01415725,-0.008469338
0.03671702,0.7755093,0.6400033,0.001614241,0.00697729,-0.007958195
0.0354455,0.777143,0.6406373,0.00338186,-0.001059127,-0.01069163
0.03503289,0.7797932,0.6422002,0.005778208,0.003737182,-0.01403545
0.03388361,0.7805365,0.6453381,0.005784081,0.01242153,-0.009677158
0.03264156,0.7824303,0.6465037,0.007215978,0.01730367,-0.006108758
0.03351255,0.7852622,0.6452964,0.004237844,0.01757653,-0.008735788
0.03360909,0.784425,0.6482278,-0.0003453577,0.01481606,-0.009237937
0.03272625,0.7823449,0.6509397,-0.0003377876,0.01452652,-0.005054903
0.03292415,0.7802358,0.6463998,-5.057953e-05,0.01231724,-0.0003111777
0.03286948,0.7799631,0.6452702,-0.0006284934,0.00971578,0.001433473
0.03528674,0.7828319,0.6455952,9.14045e-05,0.01350338,-0.002899809
0.03797264,0.7823552,0.6430621,0.00263039,0.01369701,-0.01095162
0.03670855,0.781137,0.6415877,0.004821477,0.0144935,-0.01470969
0.03642473,0.7822937,0.6358343,0.003538837,0.01931345,-0.0137013
0.03696652,0.7809911,0.6378453,0.0009099932,0.01553135,-0.01347587
0.03542867,0.7798428,0.6480663,-0.0003070193,0.01488445,-0.01474599
0.03279448,0.7798908,0.6488706,-0.0008502171,0.0169461,-0.01507676
0.02955036,0.7788806,0.6442896,-0.0007998672,0.01061003,-0.01407228
0.02833277,0.7791759,0.6397653,0.0003058146,0.008968321,-0.01179793
0.02957683,0.7803307,0.6414849,0.004475694,0.01140071,-0.0081245
0.03032019,0.7808608,0.6453782,0.008437356,0.01293185,-0.006312227
0.03083962,0.7815426,0.6442221,0.0036758,0.01323003,-0.005061697
0.0325986,0.7821073,0.645886,-0.001003436,0.01102225,-0.001646203
0.03359024,0.7820605,0.6437007,0.001361533,0.01053086,7.401172e-05
0.03252315,0.7818144,0.6396776,-0.0009582991,0.005963106,0.0001386973
0.03239954,0.7819542,0.6402934,-0.003892881,0.002448975,-0.0002807604
0.03667016,0.7822109,0.6429639,-0.0007593362,0.005415512,-0.003515534
0.04235979,0.7827389,0.6497003,0.000268587,0.007953271,-0.009465691
0.04219046,0.7834697,0.6472211,-0.0005957422,0.01174813,-0.0120961
0.03900035,0.7825776,0.6404311,-0.001486559,0.01039921,-0.01156037
0.03867359,0.7813892,0.6407377,-0.00347114,0.006411341,-0.0174416
0.03865489,0.7820124,0.6392629,-0.004495815,0.007785847,-0.01967202
0.03804734,0.7823374,0.6402588,-0.004945566,0.007003867,-0.01209562
0.03733652,0.7826057,0.6391991,-0.004545929,0.006891002,-0.01169999
0.03735312,0.7831804,0.6360511,-0.001269206,0.006382602,-0.01483961
0.03879044,0.7807844,0.6401316,0.003428063,0.004166283,-0.01528959
0.03846709,0.7782216,0.6408851,0.006650488,0.007894705,-0.01790605
0.03618478,0.7802963,0.6397029,0.008217461,0.009842566,-0.01656353
0.03398751,0.7834077,0.6397421,0.006134659,0.01044055,-0.01402111
0.033874,0.7844499,0.6381938,0.001914127,0.01377844,-0.01312731
0.03373008,0.7850233,0.6395181,0.00109229,0.01200063,-0.01209343
0.03102111,0.7847763,0.6407227,-0.0003739096,0.00908571,-0.01303253
0.03207518,0.7842766,0.6423227,-0.002768116,0.0071681,-0.01213308
0.03519811,0.7840664,0.6440122,-0.0007717511,0.005124422,-0.01534522
0.03462785,0.7829951,0.6442324,0.002047806,0.006606041,-0.02086698
0.03414156,0.7829403,0.645636,0.003406579,0.007744425,-0.01860571
0.03448401,0.7828387,0.6467255,0.002126625,0.007683634,-0.01827955
0.03486488,0.7814054,0.6482167,9.750865e-05,0.007876225,-0.02011247
0.03395009,0.7818612,0.6440974,0.00197632,0.009384076,-0.01901017
0.03240048,0.7823152,0.6372717,0.002474486,0.01128061,-0.01977783
0.0328009,0.7812645,0.6393752,0.001731041,0.009718841,-0.01952853
0.03137377,0.7802795,0.6400103,0.00381065,0.01072851,-0.01878914
0.02971658,0.7783338,0.6377021,0.004428862,0.01274754,-0.01898951
0.02942255,0.7769999,0.6404419,0.003019279,0.009599735,-0.01616914
0.02978151,0.7767766,0.6407296,0.002005916,0.005706106,-0.01314929
0.03346205,0.7780251,0.6390309,0.004049425,0.001949462,-0.01356609
0.03578612,0.7818331,0.6371217,0.005818384,0.002310486,-0.01463129
0.03622719,0.7827954,0.6337857,0.0009420208,0.005583779,-0.01392749
0.03691825,0.7813684,0.6360497,-0.003085768,0.005130731,-0.01435715
0.0373549,0.7821048,0.6394366,-0.001077537,0.006246963,-0.01532086
0.03948285,0.7817144,0.6391905,0.0007415213,0.006273637,-0.01321339
0.03821168,0.7799131,0.6422252,0.0006883483,0.003654623,-0.01117652
0.03531209,0.7788502,0.6444179,0.0007613117,0.005752015,-0.01221283
0.03493368,0.7797094,0.6419258,0.0006477759,0.007334951,-0.01513338
0.0317204,0.7840691,0.6403966,0.001279917,0.007412679,-0.01672978
0.03001353,0.7868097,0.6394455,0.003528509,0.007351822,-0.01919191
0.03376548,0.7834049,0.6398114,0.003353232,0.0007299245,-0.02455351
0.03755744,0.7784678,0.6417109,0.0003916211,-0.002450636,-0.02314448
0.03837607,0.7776468,0.64199,-0.001022433,0.004058956,-0.02139612
0.03778093,0.7790892,0.6425194,4.882328e-05,0.006971831,-0.02348738
0.03810199,0.7817859,0.6412868,0.00150456,0.00918911,-0.01663021
0.03633491,0.7860705,0.6409762,0.0002324934,0.01430149,-0.01509147
0.03325569,0.7845721,0.6455984,-0.0003980737,0.01009642,-0.01839134
0.03248039,0.7816027,0.645355,0.002090454,0.003285333,-0.01280126
0.03280834,0.7839416,0.6400312,0.002491491,0.003929481,-0.01153227
0.03535184,0.782334,0.6365137,-0.0006833485,0.005963549,-0.01019172
0.03710406,0.7791029,0.6383722,-0.005637414,0.008553616,-0.01193896
0.03575715,0.7794408,0.6459867,-0.007383129,0.01288293,-0.02067928
0.03597615,0.7796851,0.6484964,-0.004786826,0.01462367,-0.0172798
0.03605114,0.7817832,0.6467901,-0.003905107,0.01079123,-0.01443407
0.0340847,0.7838239,0.6463968,-0.003254204,0.007449502,-0.01736204
0.03289443,0.7839073,0.645247,-0.001480488,0.009773408,-0.0136874
0.03312878,0.7813905,0.6459445,-0.001667038,0.01012523,-0.01159762
0.03367763,0.7769917,0.6448266,-0.002416519,0.006954593,-0.01111823
0.03321186,0.7769236,0.6423741,-0.002399396,0.004988792,-0.01172518
0.03300967,0.7799045,0.6405137,-0.001543023,0.002396447,-0.01329972
0.03288035,0.7838158,0.6377183,1.385316e-05,0.0003921178,-0.0111245
0.03271903,0.7849671,0.6383486,0.0009258501,0.002740647,-0.01043105
0.03533261,0.7837476,0.6367904,-1.325642e-05,0.007032587,-0.01096623
0.03689659,0.7869724,0.633325,-0.001238164,0.007724661,-0.01168532
0.03458726,0.7846679,0.6363297,-0.0009396512,0.007574542,-0.01389973
0.03246482,0.7767801,0.6433267,-0.0008747401,0.01072529,-0.01525405
0.03193928,0.7748151,0.6492625,-0.0009197938,0.0106935,-0.01657706
0.03356116,0.7777048,0.6471649,-0.0005198706,0.008208119,-0.01597537
0.03558514,0.782583,0.6401631,-0.0007632698,0.00995696,-0.01377174
0.03477801,0.7812041,0.6380069,-0.0007498225,0.009541421,-0.01381387
0.03406735,0.780221,0.6391729,-0.0005439317,0.005911704,-0.0140982
0.03403197,0.7864317,0.6426193,-0.000447099,0.006908279,-0.01352598
0.03209082,0.7860127,0.6475575,-0.0008979052,0.006089374,-0.01272331
0.03174903,0.7829864,0.6490696,-0.002568159,0.002411949,-0.010698
0.03408242,0.7816996,0.6457311,-0.00262391,0.003523907,-0.01088994
0.03502121,0.780955,0.6403758,1.414881e-05,0.002217311,-0.01538576
0.03392729,0.7830902,0.6366134,0.002351467,0.001177925,-0.01723026
0.03281692,0.7816722,0.6346734,0.003202648,0.006224113,-0.01510724
0.03365063,0.7824286,0.6374286,0.004049339,0.007863062,-0.01437746
0.03547069,0.7845176,0.6424478,0.00572857,0.006043803,-0.01122954
0.03580406,0.7825533,0.6403714,0.006680006,0.004142566,-0.006365765
0.03373963,0.7834121,0.6394976,0.005753014,0.004083358,-0.008475405
0.0308395,0.7826248,0.6442019,0.003785717,0.004086218,-0.01204072
0.0315893,0.7808586,0.6447783,0.001919734,0.0007821027,-0.00934528
0.03357689,0.7803936,0.6455331,0.001325097,0.001846929,-0.006394594
0.03488517,0.7775384,0.6499052,0.0002450753,0.004391951,-0.008622591
0.03862511,0.7777021,0.6534828,-0.002284955,0.004210396,-0.01220204
0.03835004,0.7802906,0.6512405,-0.002276503,0.0054063,-0.01271268
0.03612326,0.7827235,0.6462297,-0.001703875,0.005838051,-0.01346323
0.03810275,0.7839646,0.6478003,-0.00212405,0.006254674,-0.01440919
0.03670813,0.7818432,0.6444658,0.000861392,0.005673614,-0.01367405
0.0351661,0.7797293,0.6371737,0.0009299162,0.004073162,-0.01499436
0.03621157,0.778757,0.6406676,-0.003525251,0.003393757,-0.01440073
0.0332049,0.7793606,0.6429753,-0.003521178,0.001937469,-0.01308006
0.03120148,0.7813138,0.64334,-0.001248855,0.002697436,-0.01533735
0.03316705,0.7820799,0.6454095,0.0008074904,0.004691497,-0.0147936
0.03568378,0.7812766,0.6361711,0.002000248,0.005454942,-0.01255456
0.03634797,0.7800018,0.6266313,0.0009807461,0.005142402,-0.01005836
0.03411261,0.7804915,0.6301516,0.001157722,0.004014514,-0.008378273
0.03293564,0.780771,0.6334937,0.0008833699,0.004640639,-0.01101383
0.03412581,0.778596,0.6340456,0.001767039,0.00390208,-0.01505271
0.03528109,0.7754368,0.6405703,0.003715539,0.002910827,-0.01814123
0.03457518,0.7732436,0.6421741,0.002529397,0.005210661,-0.01188816
0.03342788,0.7767351,0.6373297,0.00283438,0.006344232,-0.00355995
0.03345821,0.7811923,0.6384901,0.00282477,0.006268888,-0.00852066
0.03307118,0.7790523,0.6393456,0.001045342,0.005676069,-0.01067042
0.03341699,0.7784244,0.6416746,0.0001004657,0.004890673,-0.004987251
0.03298886,0.780959,0.6467429,-0.002665518,0.005769624,-0.004178346
0.03031313,0.7802987,0.6448325,-0.004749246,0.004704268,-0.004760001
0.02953056,0.7793966,0.6471199,-0.004272437,-0.0002774854,-0.006851392
0.03321335,0.7784305,0.6511359,0.0009306103,-0.004565767,-0.01001776
0.03816209,0.7777985,0.6443447,0.006756501,-0.000445711,-0.008655752
0.0373052,0.7792335,0.6391881,0.003771317,0.007743405,-0.006965113
0.03509411,0.779456,0.6407983,-4.652349e-05,0.01021505,-0.006811709
0.03500855,0.7810466,0.6402641,-0.000566658,0.0117789,-0.006315678
0.03164011,0.7840622,0.6366351,-0.002761939,0.01108839,-0.00536014
0.03206735,0.7846864,0.6373415,-0.003427365,0.005734433,-0.002148378
0.03501696,0.7842413,0.6421366,-0.002615822,0.00470627,0.0005171286
0.03450223,0.7828263,0.6449854,-0.001149223,0.005659332,-0.001217676
0.03642869,0.7833629,0.6482331,0.0008815417,0.00627043,-0.003836233
0.03586432,0.7854528,0.6493832,0.0004373467,0.00679376,-0.003273623
0.03404786,0.7841866,0.6474167,-0.0008527106,0.002424646,-0.001084012
0.03789269,0.7821693,0.6499221,-0.001461938,-0.0006527166,-0.002236055
0.03948345,0.7813667,0.6508748,-0.00203802,0.002809531,-0.006560431
0.03701078,0.7812734,0.6443641,-0.001635597,0.006295353,-0.00952737
0.03569408,0.7788233,0.6388695,-0.0005749872,0.004901719,-0.01161362
0.03776439,0.7753012,0.6372985,0.001043694,0.005133483,-0.01082363
0.04001005,0.7788937,0.640391,0.002283859,0.01018748,-0.006032019
0.03775754,0.782345,0.6445533,0.001912192,0.01086037,-0.003288489
0.03407384,0.7800597,0.6394068,0.003135601,0.007031296,-0.003078978
0.03105631,0.7802062,0.635203,0.004223527,0.002434645,-0.004033994
0.03144971,0.7812404,0.6387175,0.002033348,-0.0006424679,-0.003698567
0.03485221,0.780986,0.639473,0.001769479,0.00135092,-0.00203929
0.03485512,0.7811613,0.6402823,0.00200721,0.003064498,-0.003278261
0.03473169,0.7796224,0.641147,-0.0009748357,0.00424257,-0.001681731
0.03594096,0.7791695,0.6404734,-0.003213297,0.005704684,0.001202015
0.03598724,0.782986,0.6422497,-0.003716609,0.005727756,0.0008836741
0.03648335,0.7859978,0.6418703,-0.002206766,0.008313303,0.001349582
0.03608154,0.7844642,0.641495,0.0004439413,0.009266379,-0.0009389867
0.03686026,0.7821481,0.644425,0.001800523,0.005904294,-0.003714773
0.03781022,0.7810787,0.6469657,0.00114539,0.003168294,-0.004568572
0.03505945,0.7806156,0.6468941,-0.003040041,0.002782653,-0.005006704
0.03274621,0.7804882,0.6437147,-0.005752675,0.0005696467,-0.00270864
0.03313715,0.7789809,0.6435276,-0.003035395,-0.006053864,-0.003300535
0.03524267,0.7784626,0.6459145,-0.0002347742,-0.006166811,-0.004755186
0.03553943,0.7801635,0.6458063,0.00012878,0.002232231,-0.003227645
0.03476889,0.7808593,0.647446,0.001066495,0.00835611,-0.002642474
0.03677732,0.7821151,0.6477385,0.002492547,0.008771344,-0.001265012
0.03586043,0.7824809,0.6437666,0.0006718585,0.006047914,-0.00173959
0.03271596,0.7804995,0.6408737,-0.0009306916,0.007593305,-0.003295778
0.03208812,0.7810221,0.6387672,-0.0002790062,0.009003343,-0.001035549
0.03336669,0.7806621,0.6399051,-0.002507451,0.005600498,0.0007533379
0.03662955,0.7781858,0.6417675,-0.004173122,0.004906891,0.000817081
0.03683041,0.778204,0.6412872,-0.002552338,0.003348437,-6.171986e-05
0.03638964,0.7778491,0.6473487,-0.00219189,0.003959878,-0.002041321
0.03939966,0.7770737,0.6520569,-0.002561691,0.008212596,-0.003139034
0.03985305,0.7764512,0.6474242,-0.001705647,0.005210213,-0.00485656
0.03931747,0.7750746,0.644328,-0.001467685,0.000682526,-0.006137159
0.0386765,0.7755086,0.6442582,-0.001460541,-0.001550376,-0.005019495
0.0365504,0.7753453,0.6449573,0.001533374,-0.00220962,-0.005339548
0.03564346,0.7752914,0.6472968,0.007099801,-0.001746705,-0.006678322
0.03405917,0.7797423,0.6492343,0.01090514,-0.005161376,-0.005271481
0.03274296,0.783456,0.6490689,0.009113798,-0.004540805,-0.001966637
0.03242296,0.7821314,0.6474067,0.004690708,-0.001903918,0.0006009578
0.03187856,0.7811797,0.6456558,0.003036243,-0.002902906,0.002348777
0.03356381,0.7823992,0.6417205,0.003502482,-0.0009992625,0.003857018
0.03721795,0.7823625,0.64133,0.003464786,-0.001306415,0.001348643
0.04004987,0.7835587,0.6459892,-0.0004010196,-0.002036403,-0.002022623
0.03917254,0.7868454,0.6443887,-0.004896186,0.001331439,-0.001978317
0.03769294,0.7882676,0.6402213,-0.00411372,0.000762152,-0.004743056
0.03714459,0.7890195,0.6385128,-0.004133904,-0.005030146,-0.005187387
0.03284636,0.7889639,0.6364796,-0.007159838,-0.01189038,-0.002839616
0.03055574,0.7857789,0.6375568,-0.008321339,-0.01214445,-0.006818639
0.032316,0.7811992,0.6384666,-0.008826253,-0.00795616,-0.008900434
0.03134291,0.7786977,0.638603,-0.009496383,-0.008452346,-0.008660174
0.03084171,0.7831818,0.6411762,-0.01046569,-0.01093394,-0.008493385
0.03291027,0.7880202,0.641452,-0.01135797,-0.0130045,-0.005380487
0.03483447,0.7833186,0.6439836,-0.0108129,-0.01156518,-0.006771709
0.0367762,0.7798068,0.6491802,-0.008306112,-0.007503982,-0.007656794
0.03746099,0.7818321,0.6475947,-0.00102891,-0.001370192,-0.006325722
0.03723605,0.7804846,0.6459718,0.005454541,0.007292851,-0.01047748
0.03773475,0.7797125,0.6472111,0.004243672,0.006024912,-0.0143908
0.0379013,0.7797887,0.6422911,0.003189919,0.00328597,-0.014545
0.039033,0.7759352,0.6366835,0.004850488,0.006932494,-0.01203347
0.04035856,0.7753958,0.6371603,0.003103283,0.005406736,-0.008817631
0.03683633,0.7823313,0.6397675,-0.0005735943,0.004518102,-0.005777353
0.03310424,0.7885367,0.6435454,-0.003616999,0.0009883837,-0.005337381
0.03489315,0.7863971,0.6474858,-0.004712431,-0.004961214,-0.008745558
0.03651613,0.782674,0.6481344,-0.004698149,-0.0002009615,-0.008019716
0.03671253,0.7837325,0.6481634,-0.00650685,0.005375068,-0.00727459
0.03797751,0.7827829,0.6492945,-0.005971348,0.007019235,-0.008722555
0.03764421,0.7798288,0.648429,-0.003045223,0.007212992,-0.008257529
0.03689972,0.7775849,0.6480482,-0.001501817,0.005509285,-0.01179092
0.03692901,0.7768422,0.648299,0.001780893,0.006879808,-0.01312238
0.0357854,0.7801616,0.6465733,0.003172979,0.007839184,-0.00946242
0.03565022,0.779844,0.6471014,0.001576031,0.006819849,-0.006387757
0.03532331,0.7778976,0.6477664,0.001932158,0.003821951,-0.004154491
0.03237557,0.780244,0.6463237,0.0005215153,-0.001785711,-0.005717136
0.03182376,0.779914,0.6453541,0.0003603411,-0.002057451,-0.006167071
0.03519184,0.7803488,0.6421615,0.003692489,0.0003942984,-0.004909607
0.03875892,0.7813876,0.6404513,0.003462922,4.884025e-06,-0.004371541
0.03916071,0.7797564,0.6414962,0.0002094303,0.0001932741,-0.0008216605
0.03579349,0.7807147,0.6408539,-0.003182774,-0.001378178,0.0005874923
0.03400864,0.7805588,0.6416303,-0.002410181,-0.003136687,-0.0008848609
0.03561671,0.7819678,0.6423968,0.002007206,-0.003348688,-0.0034345
0.03669614,0.7862333,0.6426174,0.002471663,-0.003291526,-0.008467913
0.03606451,0.7852094,0.6470382,0.001683601,0.003595575,-0.009244807
0.03580697,0.7843602,0.6518752,0.002450073,0.008036077,-0.00396372
0.03641393,0.7849963,0.6505615,0.002597423,0.002164913,-0.0004604934
0.03602331,0.7816036,0.6442812,0.001881115,-0.00175613,-0.0003017862
0.03596959,0.7795417,0.6426119,-0.001510707,-0.002065812,-0.001028053
0.03618565,0.7807544,0.6464452,-0.004802327,-0.0001792716,-0.004880797
0.03500109,0.7807712,0.6479968,-0.004234261,0.0009756979,-0.006342417
0.03453185,0.7804883,0.6502672,-0.002699301,-0.002814267,-0.004131896
0.03468359,0.7813972,0.650098,-0.001419287,-0.004580131,-0.006334886
0.03440797,0.7814896,0.642261,0.001365599,-0.002943564,-0.006736377
0.03301091,0.7808779,0.6377755,0.002251091,-0.0009345048,-0.00622547
0.03124242,0.7805372,0.6390741,0.0006557956,-0.001464377,-0.008950388
0.03204096,0.7805897,0.6418782,0.001250767,-0.002256839,-0.007232283
0.03322725,0.7815092,0.6441387,0.0005494904,0.000499408,-0.005839306
0.03348975,0.7819159,0.6429932,-0.00115339,0.001101871,-0.003590573
0.03440657,0.7801827,0.6436955,0.0008545074,0.0007215745,0.00486106
0.03505212,0.778443,0.6443993,0.002058429,0.0008686919,0.008523667
0.03569561,0.7794465,0.6404415,0.0021946,0.0007029522,0.003039915
0.03594707,0.7813515,0.6369414,0.002412578,0.001490965,-0.004427544
0.03439918,0.7825605,0.636805,0.0001758966,-0.0004645994,-0.006611678
0.03269272,0.7839796,0.6382087,-0.001780506,-0.002723041,-0.004953056
0.03293579,0.7841014,0.6373658,-0.001438225,-0.003745061,-0.00507102
0.03275829,0.7804992,0.6374479,-0.001117793,-0.003524245,-0.005790892
0.03049745,0.7761838,0.6398939,-0.001885611,-0.001767961,-0.00518642
0.03010782,0.7777487,0.6407313,0.0004013574,-0.003404155,-0.002669286
0.03022821,0.7817176,0.6423782,0.004337783,-0.004906983,-0.0002601772
0.02679837,0.782031,0.6434192,0.004153374,-0.003980861,0.001087832
0.02444092,0.7821385,0.6430648,0.003328422,-0.002874655,0.003068209
0.02737423,0.7819854,0.6429279,0.00289292,-0.001133321,0.001889261
0.03065648,0.7815639,0.6419267,0.001066735,0.0003422374,-0.003463279
0.02956652,0.7824086,0.6416603,8.823046e-05,0.002213004,-0.005969899
0.03045759,0.7816977,0.6421742,-0.001093932,0.00209556,-0.0005867046
0.03521299,0.7814898,0.6447684,-0.001871809,0.002153598,0.005174837
0.03616304,0.7803383,0.6463787,0.0006213132,0.003557203,0.001319419
0.03587535,0.7774915,0.6444482,0.003918568,0.002121099,-0.003528941
0.03653908,0.7788117,0.6437889,0.00469686,0.00297959,-0.002549774
0.03574945,0.781512,0.6395898,0.005133642,0.003644933,-0.002857661
0.03604673,0.7823989,0.6333639,0.004257857,0.002078855,-0.002447058
0.03518625,0.7818983,0.6351195,0.0005567105,0.002552864,-0.001181418
0.03344038,0.7808263,0.6391836,0.0004079371,0.001241395,-0.001774394
0.03431265,0.7816564,0.6402695,0.001047915,0.0005576549,0.002362202
0.03582739,0.7829661,0.6391799,-0.0007598273,0.0004451168,0.007029706
0.03659089,0.7835544,0.6372225,0.000442039,0.000208052,0.007774222
0.03600665,0.7825117,0.6420706,0.0007395781,0.0006425272,0.008839682
0.03588342,0.7816592,0.648589,9.440856e-05,-0.002326533,0.006375557
0.03661602,0.7839725,0.645842,0.001448682,-0.003304708,0.001731939
0.03678021,0.7842822,0.6385923,0.002434158,-0.003080068,0.0009665038
0.03727359,0.7793473,0.6332724,0.005672884,-0.0005594642,-0.0003562888
0.03487581,0.7752787,0.6363604,0.007366277,0.005867043,-0.003797746
0.03121218,0.7795539,0.6430983,0.004841611,0.004637069,-0.003574552
0.03163038,0.7854855,0.6421185,0.00191747,0.003096992,-0.001873231
0.0325955,0.7841236,0.6415901,-0.001363047,0.004461205,-0.001524367
0.03260113,0.784125,0.6410779,-0.003207976,0.00167043,-5.475654e-05
0.03375949,0.7854186,0.6388354,-0.005130475,0.002054289,0.0006788312
0.03448202,0.7818618,0.6431244,-0.005625172,0.001378006,0.00349144
0.03465839,0.7800444,0.6435265,-0.002555501,-0.001420747,0.00661468
0.03514613,0.7802655,0.6403026,-0.002915215,0.001276044,0.003665857
0.0358567,0.7801361,0.6407388,-0.005001374,0.00346761,0.001067777
0.03806894,0.7785931,0.6408587,-0.005364385,0.003843596,-0.002031817
0.03975337,0.7766353,0.6446349,-0.005402524,0.005284825,-0.00587197
0.0380143,0.7791715,0.6475049,-0.004279944,0.004809032,-0.004477646
0.0350293,0.7798785,0.6463755,-0.003952915,0.003286813,-0.00380213
0.03241954,0.7787576,0.6456694,-0.000960682,0.003325356,-0.002366489
0.03180491,0.7814705,0.6441192,0.004363318,0.002285714,0.0008071595
0.03252139,0.7823509,0.6441949,0.004081182,-0.001001984,0.0001780055
0.0315386,0.782122,0.6442961,0.002436625,-0.003032575,0.002986997
0.03183866,0.7828417,0.6453666,0.002726873,-0.002954941,0.008311013
0.03277844,0.7833859,0.6474228,0.0007058705,-0.002376237,0.00889953
0.0332348,0.783607,0.6472352,-0.0009552845,-0.002314931,0.009480233
0.03550169,0.781976,0.6463664,-0.0009093125,-0.0009355132,0.009250954
0.03557709,0.7817915,0.6415924,-0.003827156,0.001011338,0.006084347
0.03664991,0.7819248,0.6405146,-0.007770616,0.0006265215,0.004098702
0.0399259,0.7807978,0.6397358,-0.006835673,0.0009144846,0.001329676
0.03691621,0.780585,0.6330305,-0.005343631,0.001300057,-7.327343e-05
0.03293793,0.7800583,0.6377942,-0.006847817,0.002805687,0.001599759
0.03379311,0.7802404,0.6428067,-0.005638736,0.005506898,0.000286314
0.03601227,0.7805901,0.6423138,-0.003194275,0.001225407,0.0005409442
0.03779898,0.7811476,0.6483104,-0.003060163,-0.002256136,0.002679544
0.03519912,0.7809193,0.6475096,-0.002954074,0.002697934,0.001616918
0.03158833,0.7787914,0.6456805,-0.002026477,0.005753361,0.002929615
0.03272826,0.7801601,0.6451096,0.0009201602,0.003441558,0.003306397
0.03325144,0.7838332,0.6376118,0.003087866,-0.0001736027,0.002413387
0.03371583,0.7859305,0.6370613,0.002229975,-0.003860745,0.005621658
0.03837521,0.7818026,0.6406477,0.00226089,-0.007066319,0.004592862
0.04094898,0.7748011,0.6422392,0.002202808,-0.007005215,-0.0001539092
0.03784351,0.7776064,0.6421644,0.001866368,-0.003845017,-0.002055456
0.03436311,0.7800959,0.6396938,0.002626436,-0.0006363165,-0.002958125
0.03398946,0.7791849,0.6415401,0.001266566,0.002794982,-0.004501233
0.0327967,0.7847956,0.6447395,-0.0005869679,0.006819267,-0.005978587
0.03075544,0.7847435,0.6481266,-0.0008013637,0.009285738,-0.005574671
0.0328676,0.7822207,0.6484759,-0.0007119242,0.003547548,-0.004642186
0.03525176,0.7845988,0.6455514,0.0002418684,-0.003841226,0.0002847261
0.03702788,0.7806975,0.6476474,0.0009013997,-0.0007129618,0.006014608
0.03871015,0.778069,0.6456269,0.001149658,0.002192923,0.00229319
0.03682668,0.7806819,0.6421323,0.002238742,0.001350047,-0.000570886
0.03730846,0.7791184,0.6448735,0.002316978,0.002009274,0.002121684
0.03842533,0.7787703,0.6462497,0.0009337383,-0.001669552,0.0009818433
0.0376072,0.7812791,0.6478056,-0.0002248597,-0.004056926,-0.003067553
0.03869933,0.7808383,0.6474083,0.0003221817,-0.000488691,-0.007758193
0.03458605,0.7802601,0.6451561,0.001380015,0.001897417,-0.009920058
0.02976822,0.7814795,0.6446434,0.0006301143,0.0009250423,-0.007948737
0.03116302,0.781404,0.6426812,0.0009006445,-0.000660189,-0.006340666
0.03112903,0.7800202,0.6427413,0.00430661,-0.0008091054,-0.004358306
0.03085188,0.7791222,0.6419856,0.00607143,-0.001611546,-0.001259027
0.03246489,0.7774137,0.6399971,0.002936028,-0.003102353,0.0007197759
0.032174,0.77683,0.6398409,-0.0005474431,-0.005148378,0.00369224
0.03149385,0.782596,0.6365916,-0.00108697,-0.006418362,0.004988039
0.03235289,0.7884796,0.6366504,-0.0005103123,-0.003312485,0.002635578
0.03330261,0.7852302,0.63884,-4.495477e-06,-0.002008254,0.002972029
0.03490604,0.7784861,0.6368624,-0.0009130431,-0.002092168,0.002317123
0.03633531,0.775368,0.6385647,-0.001218811,-0.0005407265,-0.001229683
0.03506586,0.776378,0.6406385,0.0002003249,-0.003773469,-0.00154058
0.03549214,0.7808081,0.639589,-2.144229e-05,-0.006135828,-0.001618657
0.03723005,0.783151,0.6381481,-0.001072186,-0.003787518,-0.002475797
0.03524086,0.7826599,0.6331966,-0.002268095,-0.002564563,-0.003328326
0.03196893,0.7834785,0.6314202,-0.002369177,-0.002515781,-0.003516046
0.03101785,0.7831644,0.6369083,-0.001881621,-0.002849636,-0.002151913
0.03337507,0.7811465,0.6414047,-0.00396002,-0.003229576,-0.002003387
0.0341573,0.7792633,0.6413661,-0.004445419,-0.003774312,-0.0002051264
0.03351975,0.7793138,0.64153,-0.003504719,-0.003305902,0.001263348
0.03560493,0.7830884,0.6426281,-0.00324366,-0.001916586,0.001192959
0.03570559,0.7854572,0.6382197,-0.00185616,-0.003199525,0.002422453
0.03583778,0.7831364,0.6354451,-0.001774628,-0.008442489,3.077889e-05
0.03663356,0.7804842,0.6387349,-0.001100305,-0.01194855,-0.003156155
0.03446179,0.7799857,0.6401921,0.001241927,-0.005561357,-0.005838412
0.03371042,0.7783612,0.6500957,0.003142994,-0.0003020836,-0.008733399
0.03320672,0.7772264,0.6624496,0.005349555,-0.004079057,-0.005657884
0.03298053,0.7814919,0.6545695,0.004376452,-0.004937802,0.0005985155
0.03385319,0.7856792,0.6451325,0.00126174,-0.006336761,0.005424553
0.03333526,0.7857316,0.6490996,0.002544434,-0.01444389,0.004780203
0.03516044,0.7819217,0.6477433,0.008231721,-0.02437767,0.003261065
0.03706582,0.7775893,0.6438603,0.01252877,-0.02715769,0.006722062
0.03669312,0.7809034,0.6464078,0.007788089,-0.0107266,0.00379665
0.0371139,0.7845719,0.6445134,9.858225e-05,0.005841681,0.0004446599
0.03780559,0.7824957,0.6398446,0.002195039,5.625801e-05,0.004915359
0.03914907,0.7809711,0.6383981,0.00475353,-0.004804737,0.005998097
0.0391854,0.777649,0.6383026,0.001716332,0.003805271,0.005946502
0.03732383,0.7751667,0.6395851,0.003115237,0.01081568,0.005237101
0.03630245,0.7785285,0.6387596,0.004152774,0.01754185,-0.001463454
0.03500239,0.7830292,0.6391352,0.001501957,0.01809628,-0.008542455
0.03446394,0.7866296,0.6431582,0.0006382034,0.01226465,-0.01053082
0.03579486,0.7869687,0.6441323,-0.002725323,0.01544929,-0.007762485
0.03642363,0.7852703,0.6405053,-0.008539458,0.01275827,-0.005882324
0.03555868,0.7863202,0.6363096,-0.01071177,0.004330266,-0.004521595
0.03332798,0.785921,0.6404582,-0.006597603,0.003917287,-0.002614157
0.03118784,0.7827315,0.6450861,-0.0009431661,0.0009063793,0.0001911467
0.03200067,0.7804094,0.6387063,-0.001177154,-0.000726334,0.006377058
0.03429455,0.7790257,0.6360845,-0.00186009,-0.002138908,0.005601222
0.03518401,0.7791949,0.6401542,0.001043198,-0.003531713,0.0008847838
0.03570524,0.7796306,0.6415404,0.003778294,-0.0004741879,0.002661977
0.03627719,0.7810479,0.6407721,0.007971227,-0.005567914,0.0003900592
0.03616838,0.7843815,0.6379397,0.009836224,-0.006065458,-0.00503823
0.03605325,0.7844478,0.6372316,0.004897163,0.004303187,-0.005519807
0.0360947,0.7827844,0.6400233,0.0009826051,0.01100346,-0.005313787
0.03615744,0.7836085,0.6429636,0.002882094,0.009564422,-0.005120341
0.03609743,0.7853443,0.642831,0.003541841,0.0009267147,-0.003732694
0.03607096,0.7865831,0.6389068,-0.001180602,-0.001028488,-0.00170733
0.03600256,0.7864155,0.6374784,-0.00446819,0.001001624,0.001594676
0.03462598,0.7867092,0.6361972,-0.003779071,0.001653135,0.005373892
0.03231593,0.7879409,0.6334177,-0.003529568,0.00471389,0.006433988
0.03199305,0.7872537,0.6355567,-0.003628708,0.001585975,0.006091329
0.03392725,0.785062,0.6389349,-0.002713723,-0.0008424383,0.006502095
0.03445552,0.7820312,0.6410163,-0.0006903322,-0.002393083,0.003458199
0.03582504,0.7781703,0.6430197,0.001429907,-0.004792686,-0.0009356757
0.03861967,0.7752352,0.6437434,0.003561575,-0.00128931,-0.00411157
0.03571253,0.7759048,0.6450008,0.006113194,-0.000647534,-0.005993849
0.03338543,0.7822286,0.6446588,0.005750311,0.002609865,-0.001208632
0.03641893,0.7884895,0.6432411,0.003679239,0.005440314,0.003877616
0.03634986,0.7867864,0.6428785,0.002428873,-0.0007210044,0.002460463
0.03578579,0.7842857,0.6419879,-0.0005028793,-0.002866009,0.00177033
0.03610344,0.7861597,0.6446528,-0.002857658,-0.002546966,0.003331513
0.03400056,0.784625,0.6459006,-0.003091916,-0.001993533,0.00343611
0.03299645,0.7837732,0.6428829,-0.00468377,0.0006470929,0.002669427
0.03309733,0.785767,0.6432152,-0.006435037,0.002345523,0.001380185
0.03412135,0.7838845,0.6396124,-0.007015695,0.004339452,-0.0003941704
0.03608005,0.7821922,0.6344357,-0.007030198,0.004524311,-0.0002951694
0.03797105,0.7793476,0.6376387,-0.005389657,0.005397206,3.197305e-06
0.03767526,0.7762738,0.6427444,-0.002472531,0.005287989,-0.001356195
0.03363133,0.7791319,0.6463264,0.0007780905,0.003959211,0.0002357392
0.03097273,0.7798848,0.6423564,0.0003645415,0.006734389,0.003199427
0.03026458,0.7787308,0.6351162,-0.002929778,0.007027918,0.004490876
0.03117626,0.7804012,0.6383625,-0.001889107,0.004650912,0.005954908
0.03269832,0.7807255,0.6406429,0.001309762,0.003198752,0.005578794
0.03065994,0.7807796,0.6386073,0.003778081,0.002759607,0.004921413
0.03065248,0.7817534,0.6409324,0.003425185,0.002872499,0.005736355
0.03378391,0.7839187,0.6401049,-0.0003021619,-0.0001443231,0.005122585
0.03649646,0.7854016,0.6368497,-0.001636271,-0.001467066,0.004883934
0.0387064,0.7832639,0.6358922,-0.00380898,-0.001660993,0.006286202
0.03882822,0.7814305,0.6355709,-0.004171434,-0.002282439,0.005795319
0.03877434,0.7812557,0.6366065,-0.001485321,0.0002863878,0.001186691
0.03658248,0.7802926,0.6370042,-0.005472958,0.0007595691,-0.001140682
0.03252569,0.7781727,0.6401511,-0.007539355,0.002258871,0.004094278
0.0313933,0.7785404,0.6449409,-0.005122975,0.003277592,0.00752941
0.03172161,0.7811974,0.6425649,-0.004206678,-0.001395653,0.005835702
0.03218781,0.780463,0.63842,-0.0003352855,-0.0002589179,0.005175647
0.03094228,0.7803444,0.6375655,0.001141256,0.003916861,0.005293167
0.03034556,0.7820826,0.6386898,-0.0003183408,0.002991374,0.006906733
0.03271333,0.7817023,0.6413582,-0.0004991475,0.001733124,0.00918702
0.0337148,0.7821956,0.6401494,-0.002968048,0.0002583686,0.01047641
0.03353121,0.7816269,0.6376227,-0.005377712,0.001071536,0.01015454
0.03325893,0.7797956,0.6373221,-0.00493339,0.003052278,0.005567853
0.03436136,0.778565,0.6353023,-0.003546087,-9.86751e-05,0.002949387
0.03621471,0.7759341,0.6343041,-0.002799779,-0.001427377,0.00375801
0.03610658,0.7760724,0.6348029,-0.0002963322,0.003149204,0.002208976
0.03586888,0.7818541,0.635532,0.002843073,0.006546422,0.001954644
0.03426939,0.7879232,0.640088,0.002933515,0.006067501,0.002574128
0.03266658,0.7845542,0.6464311,0.00155509,0.00492071,0.000260923
0.03284436,0.7789593,0.6488699,-0.002198644,0.00564852,-0.0006621675
0.03080306,0.7828208,0.6467714,-0.004164416,0.005157423,0.002866513
0.02828784,0.7825188,0.6461028,-0.003115786,0.003015842,0.006195078
0.03004476,0.7785985,0.6453924,-0.004858932,0.002087412,0.005011069
0.03610024,0.7797921,0.641903,-0.004919803,0.001034595,0.003577364
0.04051578,0.7786308,0.6436013,-0.004108345,0.001348823,0.003295052
0.0394007,0.7800231,0.6457726,-0.004905125,0.002346679,0.0005652004
0.03792147,0.7837305,0.643165,-0.003610969,0.002276769,-0.001268881
0.03920768,0.7839325,0.6418186,-0.00130483,0.002809083,-0.002067434
0.03856608,0.7823096,0.6405348,0.00203165,0.001024928,-0.004026709
0.03470237,0.7804143,0.6430748,0.002730159,2.300752e-05,-0.003465343
0.03241882,0.7831266,0.6468086,0.001719907,0.002857588,-0.002857615
0.03210189,0.7842141,0.6404727,0.003242897,0.002677358,-0.003299632
0.0320876,0.7839895,0.6353771,0.0007237581,-7.236017e-05,-0.001497989
0.03172208,0.7857737,0.640467,-0.003150666,-0.001376724,0.0009273795
0.03081169,0.7820361,0.6435886,-0.002204125,-0.001977703,0.003132309
0.03116191,0.7812513,0.6420309,0.0009412442,-0.003669748,0.002446257
0.03348642,0.7826991,0.6429313,0.00343919,-0.006817685,0.001866968
0.03830808,0.7811936,0.6434159,0.0002778679,-0.005990937,0.004075493
0.04045379,0.7826942,0.6407137,-0.003991858,-0.002948768,0.001864262
0.03905032,0.782657,0.640161,-0.002983737,-0.003634345,-0.002130099
0.0405821,0.7831497,0.6421672,-0.003246876,-0.003032611,-0.00427545
0.0401976,0.7831475,0.6432356,-0.004710023,-0.001848816,-0.001587285
0.03642434,0.7808098,0.6415607,-0.003626294,-0.002114977,0.004957415
0.03304668,0.782201,0.6390235,-0.003292778,-0.0002122255,0.002332483
0.03068864,0.7810473,0.6394256,-0.00258181,0.000501525,-0.003315623
0.03211649,0.7790741,0.640074,-0.0006356599,0.0006811436,-0.004811543
0.03250568,0.7802158,0.6431909,-0.0005836811,0.001036537,-0.00470524
0.03127923,0.7807218,0.6498354,-0.0003320142,-0.0005222614,0.001005453
0.03196053,0.7818105,0.6484631,0.0006716224,-0.002247887,0.003502844
0.03016054,0.7819472,0.6430678,9.175749e-05,-0.0046549,0.002053566
0.02979406,0.7812775,0.6441804,0.001184814,-0.004259975,0.003752091
0.03641507,0.7785037,0.6446291,0.002366686,-0.003508562,0.00327449
0.04265041,0.7749867,0.6412756,-6.131411e-05,-0.007394815,-0.0004801411
0.04082055,0.7762826,0.6400834,-0.0009593757,-0.008316299,-0.006117156
0.03734729,0.7774199,0.6428152,-9.327071e-05,-0.003471982,-0.008148228
0.03756351,0.7776918,0.645654,-0.0005891757,0.002561592,-0.008071067
0.03429614,0.7801549,0.6445954,-0.001007392,0.004201554,-0.009382566
0.03081499,0.78169,0.6440541,-0.001943773,0.002579157,-0.003674176
0.0310284,0.7838462,0.6471459,-0.002647256,0.002595378,0.0004630856
0.03070937,0.786661,0.6491351,-0.002447699,-0.0009361435,-0.002450275
0.03254595,0.7861303,0.6482932,-0.002520818,-0.005206705,-0.002205966
0.03243501,0.7844211,0.6449317,-0.002031904,-0.004465996,0.0007249697
0.03111028,0.783026,0.6419496,-0.0007649713,-0.002310106,0.002858634
0.03401756,0.7811684,0.6415077,0.0006947177,0.00133245,0.0003817277
0.03551979,0.7818151,0.6404104,0.000496943,0.002984319,-0.002872407
0.03836423,0.7825232,0.6423654,-0.0005149462,0.001642778,-0.002238432
0.04101315,0.7810817,0.6457229,-0.0001280606,0.00137005,-0.005005127
0.03963512,0.7803298,0.6421814,-0.000304756,-0.0007903142,-0.009687664
0.03929506,0.7791341,0.6386174,-0.0001144351,-0.002576702,-0.01082577
0.03649581,0.7805921,0.6390608,0.001536444,4.004652e-05,-0.009094922
0.03318848,0.7844658,0.6396117,0.003095931,0.0007484829,-0.00573111
0.03215648,0.7848801,0.6400063,0.003972348,-0.002741846,-0.002857874
0.03048437,0.7839263,0.6368075,0.002849605,-0.004900911,-0.002076574
0.0316078,0.7807052,0.6332584,0.0005881933,-0.005521596,-0.002519278
0.03590458,0.7776734,0.6349819,-0.002594887,-0.003178463,-0.002218506
0.04060417,0.7805826,0.6375669,-0.004564179,0.001355101,-0.00424934
0.04048914,0.7823128,0.6398904,-0.001882838,-0.00061877,-0.006330857
0.03811805,0.7815529,0.6437264,-5.712214e-06,-0.002461462,-0.003787382
0.0393609,0.7821164,0.6449935,-0.0008293163,-0.0003594557,-0.002968364
0.03772325,0.7809385,0.6424617,-0.0003622187,-0.003338243,-0.00362535
0.03580239,0.7803064,0.6409133,0.0005042831,-0.004591773,-0.003772125
0.03616432,0.7816389,0.6415141,0.0004593163,-0.001044188,-0.005875983
0.0336577,0.7821564,0.6410792,-0.0001212047,0.001246992,-0.006311143
0.03212594,0.7820718,0.6397884,0.0007182015,0.0007937297,-0.007695511
0.03163334,0.7817437,0.6408657,0.001585758,-0.00308235,-0.0102261
0.03196506,0.7819978,0.6444139,0.0006264207,-0.004778529,-0.007925506
0.03387803,0.7826088,0.6473574,0.0001455582,-0.004152051,-0.005462916
0.03579872,0.7844115,0.6465234,-0.001825413,-0.003121037,-0.004167143
0.03843576,0.7870974,0.642154,-0.003622062,-0.0002846459,-0.001045265
0.03689292,0.7862114,0.639807,-0.00175625,-0.001212539,-0.001209122
0.0352653,0.7841487,0.6403339,-0.0007895328,-0.004279151,-0.00301641
0.03856749,0.782953,0.6402333,-0.001491976,-0.005286594,-0.001916953
0.03938867,0.7803684,0.6403357,-0.001055504,-0.005229152,-0.002028544
0.03840832,0.7798339,0.640827,0.0007927234,-0.002107282,-0.001523043
0.03712146,0.7803637,0.6428352,0.002484829,0.00149047,0.001007822
0.03544041,0.7793825,0.6449118,0.001959514,0.002183847,0.001123814
0.03593807,0.779764,0.6417509,0.000972387,0.002318059,0.002081864
0.03544934,0.7794284,0.6378177,0.001269126,0.001974783,0.004058376
0.03392828,0.7790603,0.637776,0.002003207,0.000339232,0.004381981
0.03286912,0.7826005,0.6375414,0.002528606,0.0006645585,0.004948496
0.03161961,0.7859915,0.6362126,0.002333211,0.002122272,0.005648301
0.03234883,0.7857332,0.6360197,0.001435502,0.001756244,0.00668781
0.03584716,0.7816121,0.6361227,0.0006184052,0.002632349,0.004541627
0.0385576,0.7776745,0.6360467,-0.0007999126,0.003471882,0.0009528972
0.03789775,0.7798127,0.6373037,-0.003674928,0.002587591,0.002550745
0.03779728,0.7818148,0.6413779,-0.004600503,0.002798479,0.00207309
0.03947958,0.7801498,0.6453587,-0.001414336,0.002690372,-0.002827249
0.03888895,0.7813092,0.6416262,0.001338871,0.002498786,-0.004166778
0.03734914,0.7821522,0.6363911,0.0007671193,0.002696207,3.678653e-05
0.03647024,0.77896,0.6399111,0.0004469491,0.003098259,0.004735581
0.03483358,0.777443,0.643515,0.001263706,0.00450395,0.002653391
0.0341531,0.7806905,0.6443542,0.0002967522,0.004389537,0.0006624627
0.03426402,0.7848143,0.6450989,-0.001481927,0.003869447,0.005120223
0.03369555,0.7844801,0.641769,-0.003856342,0.004094939,0.009271952
0.03412079,0.7819915,0.6399141,-0.005916077,0.004198107,0.01307325
0.03421708,0.7807259,0.6398259,-0.004471063,0.005157115,0.0140033
0.03372077,0.7786575,0.63901,-0.00267864,0.003878912,0.01243218
0.03497001,0.7785181,0.6412224,-0.002092059,0.0004482498,0.01413406
0.03738067,0.7799614,0.6423058,-0.001896698,0.0006025306,0.01186654
0.03946769,0.7788593,0.6431676,-0.00347934,0.002862928,0.008467391
0.03749848,0.779119,0.6447172,-0.003302091,0.00265587,0.009750633
0.03468276,0.7805321,0.6440262,-0.0001149238,0.003059269,0.008210182
0.03592726,0.7802555,0.6441892,0.001993885,0.004996239,0.003611919
0.03387816,0.7795472,0.6418811,-9.737953e-05,0.005626213,-0.001408876
0.03028182,0.7768484,0.64009,-0.003151531,0.005280138,-0.002410908
0.03172788,0.7746753,0.6458129,-0.001143018,0.0009445239,0.001607472
0.03348261,0.775023,0.6491451,0.0001126596,-0.003341291,0.003895857
0.035468,0.7756654,0.641794,-0.001629196,-0.002693001,0.003106207
0.03831153,0.7786207,0.634737,-0.0005291061,-0.00445571,-0.0005022696
0.03993248,0.781499,0.6410009,-0.0002438254,-0.005557121,-0.002622828
0.0406216,0.7794338,0.6497486,-0.0008581658,-0.004116529,-0.002328986
0.03833625,0.7755379,0.6504126,-0.001337108,-0.004366078,-0.002578209
0.03657206,0.7750816,0.6496385,-0.003649734,0.002017283,-0.001681338
0.03709746,0.7788318,0.6459954,-0.003359095,0.008754493,-0.002059504
0.0340324,0.7826618,0.6419695,-0.001733431,0.00417413,-0.001228798
0.03025859,0.7820497,0.641617,-0.0006783828,0.0002103452,0.0005065218
0.02993485,0.778512,0.6388279,0.0008245363,0.002850466,-0.0006839885
0.02933953,0.7771923,0.6374574,0.002163322,0.002418599,0.001207803
0.0289234,0.7779308,0.6418659,0.004494539,-0.001373651,0.007668385
0.03178247,0.7787904,0.6458403,0.002443425,-0.002358942,0.0134608
0.03588616,0.7789728,0.6425586,-0.001232196,-0.001159147,0.009959923
0.03941694,0.7764007,0.6371342,0.001594803,0.001273798,0.003096684
0.04130591,0.7741041,0.6373675,0.002343046,0.002093812,0.004951489
0.04015007,0.7746503,0.6379308,-0.0002578866,-0.003275511,0.003110082
0.03982295,0.7745697,0.6390615,-0.0006089853,-0.007050577,-0.004462713
0.04079112,0.7731569,0.6408886,-0.001948545,-0.000862634,-0.007253119
0.04002134,0.7733266,0.6382705,-0.0001976035,0.005964989,-0.008581867
0.03932973,0.7752041,0.6376536,0.007017353,0.003745946,-0.008461373
0.03553125,0.7790265,0.6429382,0.009864541,0.001740835,-0.005325537
0.02900115,0.7854691,0.6504383,0.00339632,0.003030197,-0.001346711
0.0278247,0.7871477,0.652369,-0.002296818,-0.0001388608,-0.001623784
0.02895903,0.7844287,0.6460541,-6.986588e-05,-0.001374837,-0.003729856
0.02787233,0.7839638,0.6420904,0.001893488,-0.00143006,0.001271924
0.02946916,0.7813858,0.6437159,0.001854452,-0.00373248,0.006309171
0.0339303,0.7808953,0.6455807,0.002726973,-0.002542084,0.0089829
0.03677762,0.7834646,0.6461802,0.002080539,-0.003911248,0.01081244
0.03882999,0.7821701,0.6460708,0.001786998,-0.004895664,0.008281912
0.03978401,0.7833937,0.641668,7.083182e-05,-0.001792826,0.006654844
0.03928686,0.7840173,0.635322,-0.00252763,-0.00222483,0.0004539586
0.04056853,0.7814383,0.6391482,-0.0005274043,-0.002739916,-0.007355519
0.04017603,0.7820484,0.645386,0.0008511903,-0.002390918,-0.00610523
0.03698486,0.7806433,0.644168,-0.001472034,0.0007504803,-0.006569471
0.03565977,0.778213,0.6444763,-0.001817155,0.005848768,-0.007571351
0.03526268,0.7776286,0.6445915,0.001709947,0.003813999,-0.002629353
0.0337776,0.7776522,0.6427991,0.003953914,0.001749715,0.001734158
0.0311687,0.7802946,0.6424231,-0.0005971125,0.001201613,0.004995656
0.03160638,0.7818213,0.6412202,-0.005630187,-0.003926378,0.006630077
0.03530717,0.7821567,0.6429029,-0.003742008,-0.006010561,0.005262453
0.03761399,0.781789,0.6455884,-0.001295728,-0.003430829,0.002703186
0.04059958,0.7796965,0.6455657,0.0003532151,0.0003400416,-0.0009885396
0.04092685,0.7791876,0.6438777,0.005934566,0.004142749,-0.004355514
0.03842452,0.7801099,0.6400091,0.008445261,0.003309672,-0.003304435
0.03912423,0.7828128,0.6407376,0.005996756,9.09546e-07,-0.0007525027
0.03885914,0.7841676,0.6451703,0.004068732,-0.0003948952,-0.001991784
0.03843901,0.7828977,0.6450299,-0.0002782845,-0.0003011065,-0.00388766
0.03864465,0.7830764,0.6436721,-0.004338478,-0.0007345172,-0.005052797
0.03768085,0.781099,0.6440468,-0.003053128,1.964739e-05,-0.002661906
0.0392631,0.7771455,0.6444173,-0.001421821,0.001476645,0.001635865
0.03893778,0.7764721,0.6445876,-0.001343721,0.003090636,-0.00123508
0.03647776,0.7807479,0.6442781,-0.0009093749,0.00124967,-0.002871617
0.03618181,0.7847061,0.6437824,-0.0006249964,-0.004615671,0.001332355
0.03684847,0.7807878,0.6450102,-0.0001987119,-0.007634216,0.002366229
0.038948,0.7773157,0.6479229,0.001835719,-0.00137376,0.002121111
0.03824375,0.7803833,0.648905,0.004816923,0.007343772,0.001413314
0.03310781,0.7831679,0.6482093,0.004246866,0.004068433,-0.002405966
0.02919105,0.7852039,0.6478167,0.002088826,-0.002644222,-0.005783542
0.02982185,0.7849522,0.6444008,0.003574776,-0.003184502,-0.003400584
0.03173902,0.7810466,0.6403185,0.002383202,-0.004471891,0.001143974
0.03046159,0.7790324,0.6430734,-0.001199625,-0.00402321,5.91495e-05
0.03226372,0.7787913,0.6459694,-0.0008583413,-0.004871098,-0.0002976319
0.0365048,0.7782152,0.6429665,-0.002159813,-0.006112332,0.001019085
0.03620359,0.7781333,0.6426093,-0.003060056,-0.001479291,-0.0009202096
0.03589923,0.7792259,0.6445185,-0.0006159523,-0.0004138337,-0.001422349
0.03532613,0.7813278,0.6438714,-0.000225876,0.0005244226,-0.002710165
0.0341714,0.7808607,0.6415787,0.0004859426,0.00158021,-0.003293932
0.03497506,0.7799978,0.6375655,0.003032463,-0.002962408,-0.002193736
0.03448406,0.7819806,0.636206,0.006388095,-0.001935379,-0.003159552
0.03359714,0.781972,0.6363334,0.00691411,0.0001821276,0.0004666429
0.03230574,0.7808412,0.634058,0.003444797,-0.002117617,0.002422871
0.03226093,0.7798142,0.6348491,0.00289272,-0.001372845,-0.00194559
0.03671138,0.7766298,0.6380899,0.003589707,-0.001579679,-0.003395657
0.04022225,0.7742697,0.6393081,0.003769181,-0.003201138,-0.002965198
0.03912804,0.7753691,0.6391924,0.003750415,-0.00189032,-0.0006453545
0.03711576,0.7801007,0.6396075,0.001111821,-0.002177543,0.001372471
0.03759588,0.7832433,0.6442629,-0.0004161148,-0.005974881,0.0002033112
0.03769744,0.7816574,0.6487789,-0.0008066585,-0.008209905,-0.000719701
0.03601603,0.7793486,0.6457555,-0.0006930026,-0.005789004,-0.004128417
0.03253122,0.777018,0.6428071,0.0009333232,-0.0009817909,-0.004959349
0.02755772,0.7761144,0.6442022,0.002247613,0.001245689,-0.001058825
0.02926534,0.7785421,0.6407775,0.004617659,0.0002417281,-0.000961439
0.032433,0.7817529,0.6344541,0.005868332,-0.0004495008,-0.0007851315
0.02985305,0.7825665,0.6347583,0.003159791,-0.002604163,0.00122813
0.0315716,0.78183,0.6397216,6.770379e-05,-0.007481219,0.003385049
0.03552323,0.782481,0.6429448,-0.000666248,-0.00831488,0.006226222
0.03817597,0.7815877,0.6424338,-0.0006697658,-0.003504161,9.199308e-05
0.04157321,0.7778312,0.6425429,-0.002477346,-0.0007458795,-0.007839041
0.03939534,0.775497,0.6452671,-0.004083297,-0.001260987,-0.00261913
0.03676711,0.7770044,0.6436109,-0.001322794,-0.0004480104,0.001159027
0.03774651,0.7810723,0.6400203,0.001846847,0.0008270374,-0.002605235
0.0364495,0.7826518,0.6403324,-0.001057135,0.0007402405,-0.001427112
0.03571865,0.7800468,0.6403506,-0.003193325,-0.000768078,-0.0007727245
0.03611578,0.778377,0.6412651,0.0001022434,-0.002584222,-0.003515497
0.03530773,0.7803949,0.6431569,0.00137375,-0.002950601,-0.003971569
0.035236,0.7820913,0.6428616,0.0007898518,-0.002312955,-0.005354656
0.03497888,0.7818918,0.6423133,0.001247821,-0.001884693,-0.004513512
0.03296944,0.7822374,0.6412937,0.002009191,-0.003696349,0.0006329388
0.03105427,0.7827833,0.641292,0.002739798,-0.008868839,0.004796598
0.03189055,0.7831735,0.6421265,0.0002205514,-0.01569586,0.007430035
0.03287138,0.7818229,0.643196,-0.003493369,-0.01835964,0.004487054
0.03321839,0.7796316,0.6441389,-0.004930908,-0.01437979,-0.002751549
0.03541996,0.7812472,0.6397895,-0.007363313,-0.009696382,-0.003011629
0.03513909,0.78461,0.63832,-0.00949755,-0.008348207,0.001745919
0.03411317,0.7867679,0.6429638,-0.005483111,-0.01253368,0.002724019
0.03685711,0.7858116,0.6431357,0.0001275596,-0.01387408,-0.000593354
0.03990428,0.7808934,0.6423447,-0.0003757447,-0.00602563,-0.004897269
0.04202151,0.7780209,0.6413127,-0.001093606,-0.002916651,-0.004008819
0.03909028,0.7791453,0.6404925,0.001908252,-0.003428155,0.0005512611
0.03296211,0.7805605,0.6420668,0.003988887,-0.002176135,0.001813384
0.03255938,0.7807008,0.6389212,0.004659363,-0.003547876,0.001066727
0.03308279,0.7805781,0.6401469,0.001469342,-0.002090176,0.0005345522
0.03300967,0.7815896,0.6440658,-0.003366444,-0.002368117,0.004105059
0.03723469,0.7821612,0.6430474,-0.003094044,-0.004053827,0.007783909
0.04057196,0.7818002,0.6470861,-0.00292813,-0.00183704,0.002058613
0.040774,0.7808362,0.6459089,-0.004648815,-0.002152349,-0.002558
0.04155529,0.7794867,0.6409005,-0.002367499,-0.00187473,-0.0008732911
0.04228147,0.7796496,0.6421266,0.002051523,-0.001329532,-0.003802011
0.04134906,0.7799357,0.6410698,0.004165961,0.0002403328,-0.008089111
0.04146372,0.7790873,0.6419623,0.002280741,0.004102579,-0.004833588
0.04143064,0.77973,0.6419949,0.0008704008,0.002106881,-0.00109071
0.0375261,0.7838486,0.6408142,0.002828407,0.0002335769,-0.003594628
0.03420592,0.7868406,0.6422816,0.001471196,-0.0004710523,-0.00315308
0.03460787,0.7828192,0.6390522,-0.0009484376,-0.002880487,0.0009639631
0.03685842,0.7786395,0.6375261,0.001334825,-0.001911246,0.003033343
0.03816378,0.7805997,0.6381966,0.005752269,-0.001447774,0.005073853
0.03785615,0.7814551,0.6411545,0.008247961,-7.948675e-05,0.004654804
0.04044721,0.77979,0.6477291,0.00133021,0.00212879,0.00327023
0.04460916,0.7808883,0.6489483,-0.005920471,0.001670387,-0.000488166
0.04604988,0.7818143,0.6494381,-0.0008151323,0.003798534,-0.006981555
0.04458044,0.7818676,0.6497409,0.002881691,0.005248717,-0.005190979
0.03947933,0.7833027,0.6462202,0.001493838,0.003595312,-0.001993714
0.03436315,0.7833622,0.6435033,0.001979016,0.003309697,-0.001439227
0.03523206,0.7827661,0.6433062,-1.267035e-05,0.002343242,0.004219794
0.03776397,0.7808403,0.6427379,-0.0004510533,8.019712e-05,0.0054635
0.03639871,0.7775143,0.6393959,0.002585615,-0.001470989,0.002878059
0.03729709,0.7764108,0.6414217,0.002294094,-0.001467531,0.004147017
0.03859292,0.7756446,0.643714,0.000504939,-0.001134272,0.002891942
0.03685192,0.7786787,0.6360224,-0.0004329197,-0.00442335,-0.0006102066
0.03959311,0.7840919,0.6311945,-0.00230797,-0.006820199,-0.002655863
0.04125105,0.7817181,0.6350585,-0.001749016,-0.002379468,-0.002865217
0.03951003,0.7779294,0.6430622,0.0003497786,0.002552998,-0.003322153
0.03968989,0.7779626,0.6495995,-0.001325814,0.003057843,-0.004525498
0.03760668,0.7778255,0.6467295,-0.002277393,0.003257857,-0.002617088
0.03424686,0.7806067,0.6394774,-0.001831736,0.005171794,-0.002717152
0.03121655,0.7831029,0.6362207,-0.003045933,0.00547048,-0.003756262
0.03184403,0.7820743,0.6371302,-0.003097627,0.005526081,-0.00223287
0.03493948,0.7834968,0.6381952,-0.003487156,0.006833909,-0.003445624
0.03285815,0.7855389,0.6378178,-0.002678973,0.003634523,-0.00264544
0.03279203,0.7846014,0.6399246,-0.001004002,-2.758761e-05,-0.0003386558
0.03426041,0.7834703,0.6428509,-0.001337924,0.002044744,0.0005264508
0.03296096,0.7832531,0.6416353,-0.0002397872,0.003284945,0.001934549
0.03554257,0.7824133,0.6396995,-0.002741181,0.0006700399,0.0006386458
0.03830391,0.7788619,0.6387701,-0.006483222,-0.004242334,-0.0009856544
0.04019928,0.7750848,0.6372875,-0.002863463,-0.007109901,-0.003942284
0.04227728,0.7761608,0.6402523,0.0001383969,-0.002327867,-0.005903381
0.03993363,0.7792004,0.6449906,0.0005263459,0.003107302,-0.004049974
0.0375555,0.7794609,0.6442287,0.002484061,0.003705331,-0.004697612
0.03719871,0.7799644,0.6411097,0.001947006,0.004246373,-0.002598746
0.03591677,0.7810588,0.637826,-0.001095548,0.004509876,0.0003261977
0.03561217,0.7805419,0.6370836,-0.0009448273,0.004352625,-0.0009324517
0.03653132,0.7810648,0.6406654,0.001471035,0.005442494,-8.698963e-05
0.0357631,0.7805881,0.6421741,0.0003706181,0.005140385,0.0001396971
0.03399345,0.7785107,0.6398936,5.544545e-05,0.004743692,-0.0002987754
0.03332588,0.7793043,0.6382014,0.001642491,0.00361606,0.001029889
0.03403535,0.7813546,0.6400716,-1.841631e-05,-0.003703807,0.002980757
0.0369093,0.7823186,0.6425228,-0.001277615,-0.01034961,0.005337551
0.04013966,0.781726,0.6423579,-0.002441891,-0.005460439,0.002841944
0.04228242,0.7798918,0.6439506,-0.002556643,0.001458374,-0.002454508
0.04220902,0.778402,0.6473769,-0.0001352138,-0.0002775767,-0.004035358
0.03989548,0.7771852,0.6483367,0.0003227159,0.0007984535,-0.002939387
0.04006623,0.7768818,0.6466924,0.002226279,0.005352957,-0.001678237
0.03901289,0.7798012,0.6424742,0.00332817,0.003060074,-0.002001353
0.03451679,0.7849436,0.6398377,0.001748095,0.002099403,-0.003126845
0.03259283,0.7876307,0.6420646,0.001502433,0.003531739,-0.00192711
0.03276465,0.7880883,0.6413179,-0.001495248,0.002867339,0.003289575
0.03299763,0.7849952,0.6381832,-0.004391957,0.00263018,0.007866241
0.03162179,0.7780852,0.6400517,-0.005348002,-0.004320693,0.005375314
0.03189561,0.7780072,0.6407658,-0.005716496,-0.0121084,0.0007352641
0.03493144,0.7806608,0.6398218,-0.002586469,-0.008228237,-0.00110289
0.03428305,0.7783369,0.6406963,0.0003702982,-0.002881956,-0.003450757
0.03477795,0.7785955,0.6399865,0.003248833,-0.0008432658,-0.003291662
0.04005128,0.7770985,0.6403241,0.002954418,0.004192286,-0.0009374611
0.04304111,0.7739799,0.6405039,-0.0006270324,0.005903596,-0.002705548
0.03993326,0.7780351,0.6404146,0.001734337,0.005540604,-0.004327999
0.03724768,0.7815824,0.6433523,0.002249844,0.008184867,-0.004087759
0.03964246,0.7814833,0.6450349,-0.0002854589,0.000826322,-0.002844739
0.03839749,0.7819989,0.6436796,0.0003791583,-0.006632964,0.0001028397
0.03437577,0.7821113,0.6386858,-0.001163994,0.003271844,-0.001525748
0.03214073,0.7818631,0.6344595,-0.0007742684,0.009701919,-0.003322763
0.03113441,0.7818633,0.6358757,0.001306714,0.003224728,-0.0008211458
0.03465178,0.7820877,0.6370504,0.001570145,-0.00203243,0.0008571253
0.03630857,0.7818704,0.6366581,0.001742769,-0.003643004,0.003460299
0.03582085,0.7818879,0.6375976,-0.0008539999,-0.004669129,0.003968383
0.03702647,0.7815667,0.6388568,-0.001085573,-0.005221884,0.003202985
0.03738063,0.7790906,0.6415642,-0.0002099459,-0.003474696,0.004286099
0.03960877,0.7774222,0.6456332,-0.001386008,0.001200174,-0.002679519
0.03934556,0.7801401,0.644429,-0.0002267422,0.006249547,-0.01094104
0.03796301,0.7860902,0.6413167,-0.0002769622,0.005800886,-0.008181588
0.03961512,0.7885601,0.6429983,0.001049635,0.003187799,-0.003997993
0.03830392,0.7855807,0.6399355,0.004269284,0.004964074,-0.003160017
0.0372283,0.7837499,0.636875,0.003744002,0.005172838,-0.00178413
0.03746378,0.7848187,0.6450485,0.001906877,0.007251744,-0.002268564
0.03697653,0.7847754,0.650582,0.0003629994,0.01057717,-0.003184423
0.03646909,0.7823899,0.6451035,0.001255411,0.005082192,-0.003072814
0.03524462,0.7805553,0.6394089,0.002552008,0.00169416,-0.004213749
0.03666193,0.7803041,0.6399072,0.0017224,0.005097317,-0.002217323
0.03737449,0.7807194,0.6388124,0.003149698,0.005584119,0.0008734708
0.03701281,0.7816683,0.6358363,0.004578206,0.002520458,-0.0006112531
0.03807395,0.7820198,0.6385638,0.003871962,0.0001556509,-0.0002930415
0.03618874,0.7820744,0.6398285,0.003129696,0.002020444,0.002048718
0.03515366,0.7820728,0.6394132,0.0009030575,0.003794524,0.001229769
0.03387909,0.7828805,0.6436681,-0.001886784,0.002015916,-0.0002359362
0.03125462,0.7847316,0.6460218,-0.002163124,-0.0006917614,-0.0002118536
0.03493015,0.7847489,0.6440697,-0.003593165,-0.003356832,0.001118596
0.03894106,0.7837444,0.6437538,-0.007525709,-0.002125703,0.002331435
0.03746908,0.7832748,0.6438743,-0.005674652,0.00198423,0.001869106
0.03536542,0.7840446,0.636973,-0.0009189864,0.003694211,-0.0003037103
0.03580664,0.7847835,0.6311533,-8.450385e-05,0.003452484,0.000237525
0.03674699,0.7817708,0.635176,0.0006656516,0.002624573,0.004291442
0.03574074,0.7787953,0.6385569,-3.376204e-05,0.002998884,0.004447649
0.03604312,0.7797536,0.6383104,-0.0006784567,0.00428124,0.002658999
0.03647342,0.7811575,0.64227,0.0005174019,0.004793001,-0.0003418557
0.03570833,0.7804324,0.6497597,-0.0009452211,0.005896513,-0.004386723
0.03635331,0.7792875,0.6506931,-0.001100218,0.005386425,-0.0004471613
0.03610429,0.7795536,0.6446227,-0.0005699118,0.0007995515,0.002974812
0.03574997,0.7809768,0.6417983,-0.002170166,-0.001329285,0.002062696
0.03547606,0.7834138,0.642833,-0.003215424,0.002105954,0.004536255
0.03459124,0.783801,0.6437114,-0.00518345,0.002220265,0.003581208
0.03685432,0.7818888,0.6428262,-0.005729652,-0.003014485,0.003015059
0.04007851,0.7818425,0.6427083,-0.003111899,-0.007785962,0.004671853
0.03991067,0.7820054,0.6425882,-6.108144e-06,-0.008142457,0.001041017
0.03572536,0.7812949,0.637243,0.001033681,0.0012172,4.106696e-05
0.03175532,0.7794501,0.6331561,0.0004421044,0.0122325,0.00243156
0.03284809,0.7773162,0.6350907,0.002304764,0.01220712,0.004277333
0.03340263,0.7802173,0.6390726,0.001803146,0.006390199,0.005877553
0.03107738,0.7834416,0.6408074,-0.002673056,0.00131586,0.00410317
0.03214834,0.7818027,0.6384891,-0.004437931,-0.00159722,0.002955416
0.03437827,0.7813741,0.6370884,-0.004374814,-0.0004853,0.002206442
0.03507326,0.7826563,0.6391522,-0.002930611,0.00128591,0.0002784531
0.03706129,0.7826802,0.6412752,-0.0001825745,0.001379858,0.001732127
0.0390883,0.7830733,0.6402937,0.001219096,0.003040892,0.003387149
0.04099321,0.7817682,0.6396503,0.002316563,0.004757354,0.003393184
0.04229904,0.7785239,0.6412731,0.003467683,0.004406491,0.002507952
0.04081582,0.7780939,0.6421424,0.003215098,0.006983819,-0.0008053974
0.03796887,0.7790569,0.6452433,0.002555472,0.009296787,-0.003092339
0.03483744,0.7799219,0.6470056,0.00320628,0.005121605,-0.002900564
0.03357472,0.781211,0.6446497,0.003001106,0.0008731316,-0.002683108
0.03265159,0.7804605,0.6430476,0.00167598,0.002547757,-0.0004232279
0.03009232,0.7807598,0.6402084,0.00136101,0.006090083,0.003781417
0.03061822,0.7838417,0.6393481,0.001242306,0.005415477,0.004435697
0.0322093,0.7861629,0.6410646,0.0006386132,0.001126983,0.004122654
0.03424456,0.7861946,0.6405713,-0.002141973,-0.002647412,0.005613453
0.03927823,0.7830826,0.6427472,-0.00519049,-0.002000821,0.004809043
0.04112976,0.7806279,0.6456468,-0.00438494,0.001146163,0.005558238
0.03931562,0.7802565,0.6444539,-0.002384497,0.0005582583,0.006189357
0.03816291,0.7792196,0.6439404,-0.001154333,0.0006346968,-0.0001573007
0.03779994,0.7807517,0.6439222,-0.0002818276,0.003359389,-0.004655632
0.03672435,0.7838034,0.6399408,-0.0001965927,0.003923834,-0.002301988
0.03536151,0.7836769,0.6363059,-0.000155274,0.0031199,-0.0007613059
0.03648965,0.7832789,0.6389638,-0.0005406533,0.001432323,-0.002986284
0.03730263,0.7852913,0.6417678,-0.0006799359,0.001636896,-0.004538671
0.03710976,0.7863795,0.6401082,0.0008154506,0.001682882,-0.002667977
0.03708953,0.7843406,0.6406861,0.001657551,-0.002228297,0.0009069673
0.03622927,0.7823608,0.6418743,0.0004635899,-0.005428086,0.00374153
0.03953832,0.7823804,0.6374856,-0.001856566,-0.008423297,0.0009511073
0.04347072,0.7819215,0.632984,-0.002920073,-0.008150359,-0.002655842
0.04248638,0.7804653,0.6327637,-0.0002161088,-0.0008659318,-0.0002760474
0.0418311,0.7795901,0.6343689,0.0009968569,0.006404316,0.0002904105
0.03918146,0.7789131,0.6371764,-0.0006489761,0.008357806,0.0006620141
0.03443886,0.778967,0.640603,0.0008252722,0.003852534,0.002846554
0.03550992,0.7795259,0.6411717,0.001797438,0.0005609144,0.002037666
0.03722484,0.7791346,0.6395511,0.001462514,0.001765226,0.004937449
0.03449539,0.7803641,0.6403208,0.002308016,0.00108913,0.006808449
0.03447023,0.7828587,0.6407524,0.0007639741,0.001150322,0.004306092
0.03619044,0.7833535,0.6398892,0.0006533364,0.001485909,0.005639276
0.03627949,0.7811837,0.6418408,0.002202268,0.0002014788,0.002179929
0.03854869,0.7775547,0.6437845,0.0009457318,-0.0007285643,-0.003340988
0.04166873,0.7783165,0.6440514,-0.0009091924,-0.003090014,-0.0004960047
0.04487805,0.7825314,0.6412767,-0.003341952,-0.002738426,-0.0004478894
0.04650176,0.7826608,0.6382793,-0.004342062,0.000259235,-0.002977252
0.04326165,0.7812741,0.6441191,-0.00219416,0.0007690886,-0.001982083
0.03962798,0.7820905,0.6494582,0.0023622,-0.001019518,-0.003365504
0.03778687,0.7820189,0.6449126,0.007141472,-0.004074003,-0.004664263
0.03698806,0.7805456,0.6411192,0.005299419,-0.00387587,-0.00328338
0.03556615,0.7795478,0.6412095,0.002994837,-0.002675763,-0.001885083
0.03277503,0.7792154,0.6390179,0.005025739,-0.003959223,0.0007174407
0.03219296,0.7808402,0.6377944,0.002889904,-0.002112585,0.004063437
0.03481417,0.7824536,0.6436136,-9.992435e-05,0.0001034649,0.003865537
0.04001673,0.780124,0.6496368,-0.0005470545,8.088671e-05,0.002683427
0.04233215,0.7784159,0.6472984,0.00146724,0.001230434,0.004871874
0.04045874,0.7809278,0.6443306,0.005723053,0.001567876,0.003793853
0.04072324,0.7846586,0.6462406,0.002400937,5.755081e-05,0.001312872
0.04017425,0.7870633,0.6460347,-0.002407595,-0.001850443,0.000393538
0.03831662,0.7854989,0.6447024,-0.001051087,-0.001444783,-0.003374714
0.03839215,0.7810015,0.6460109,-0.001079081,0.00128617,-0.002276241
0.03713808,0.7781403,0.6454339,0.00221303,0.002891108,-1.974639e-06
0.0339652,0.7789056,0.6419937,0.00630341,0.002613164,-0.00179053
0.0305046,0.7814968,0.6397905,0.003502038,-0.001795066,-0.0006092392
0.02885879,0.7841632,0.6425662,0.001716656,-0.006868958,-0.0006245752
0.03146308,0.7863081,0.6462538,0.0001684557,-0.006248867,0.0007412955
0.03777475,0.7828722,0.6452105,-0.001747081,-0.005996108,0.002076257
0.04225661,0.7766363,0.6451987,0.0001442094,-0.007726315,-0.003916687
0.04193772,0.7776159,0.6452602,0.001502497,-0.005390204,-0.00551123
0.04075633,0.7806558,0.6405981,0.005397753,-0.002463045,-0.003076134
0.03811079,0.7813168,0.6375558,0.01094165,-0.002353789,-0.004663066
0.0350238,0.7826606,0.6381202,0.006540957,-0.002183883,-0.004331737
0.0357705,0.7818026,0.6418232,-0.003351543,0.0006755452,-0.00457886
0.03695914,0.7815621,0.6461493,-0.006535527,0.002444304,-0.007889422
0.0367403,0.7823334,0.6447559,-0.002393836,-0.0006620615,-0.006567825
0.03756606,0.7806277,0.6433745,0.002562195,-0.0007952577,-0.00279833
0.03798264,0.780751,0.6451814,0.001289881,0.0001405322,-0.0005514378
0.03706149,0.7824212,0.6443829,-0.001428368,-0.001510993,0.003283262
0.0377329,0.7837424,0.6438574,-0.0002488397,0.001635085,0.004927928
0.03887493,0.7834186,0.6440474,-0.0022718,0.001609013,0.0008531095
0.03963363,0.780902,0.6421325,-0.003359245,0.000721249,-0.00387125
0.04058865,0.7803283,0.6413376,-0.0006014346,0.003980657,-0.004170758
0.03836561,0.7813712,0.6410568,-0.001045633,-0.0003620941,-0.003501864
0.03663309,0.7850177,0.6413358,0.0001524874,-0.002021499,-0.004114531
0.03775479,0.7885566,0.6425346,0.001844104,0.0008123136,0.0009960301
0.03720787,0.7846772,0.6422095,0.001349936,0.0003342184,0.00534357
0.03561199,0.7797167,0.6427968,0.002652809,0.00335082,0.00228761
0.03422942,0.7793308,0.6418563,0.001761299,0.003009872,0.0009602895
0.03464779,0.7792848,0.6390737,0.001220737,0.001173623,-0.0008002828
0.03645956,0.7792476,0.6403569,0.002353912,0.001108019,-0.002685376
0.03786137,0.781107,0.6408478,0.002228539,-0.002517542,0.002443145
0.03955607,0.7825569,0.6396516,0.00303919,-0.001260619,0.005190011
0.03908477,0.7823131,0.6418699,0.001177905,0.001900083,0.003121757
0.03833456,0.7834999,0.6465322,-0.0007885058,0.003046963,0.004089065
0.03930531,0.7850579,0.6513196,-0.0001112629,0.004818901,0.002743545
0.03880486,0.7831443,0.6492594,-0.0004009071,0.003665271,0.001230696
0.03852615,0.780924,0.6449951,0.000895608,0.003925988,0.003503683
0.03809386,0.7819716,0.64781,0.0006440582,0.004070443,-0.001873649
0.03612463,0.7826408,0.647981,-0.0006933236,6.900096e-05,-0.004239755
0.03615226,0.7827044,0.6460649,0.001260373,-0.002462493,0.004849903
0.03842706,0.7855574,0.6471156,2.700142e-05,-0.001804873,0.006908482
0.04100725,0.786391,0.6426385,-0.003053177,-0.001157251,0.003813121
0.04152222,0.7827583,0.6384886,-0.002810971,-0.004001209,0.001685751
0.03909354,0.7793119,0.6403718,-0.001826834,-0.005024504,-0.001918918
0.03603451,0.7784212,0.6410001,0.000979611,0.001543534,-0.00111431
0.03234243,0.7798424,0.6408336,0.004206278,0.008238065,0.001681079
0.03105462,0.7814696,0.6418865,0.002579153,0.007314558,0.001166103
0.03449438,0.7839107,0.6423606,-0.0005379982,0.0022934,-0.0003204472
0.03656197,0.785966,0.64328,-0.002279588,0.0006202409,0.003296789
0.03707416,0.7853039,0.646816,-0.003321173,-0.003002659,0.005708305
0.03885554,0.7859061,0.6510456,-0.0006576985,-0.007317256,-0.0008586157
0.03910964,0.785456,0.6527683,0.001179315,0.0003915491,-0.00421402
0.03879356,0.7821008,0.6490679,-0.001777327,0.006883317,-0.001650844
0.03929535,0.7818474,0.6401049,-0.003629818,0.002689399,0.0004340569
0.04095021,0.7838901,0.6350217,-0.00338061,0.001803476,0.001282264
0.04410345,0.7847057,0.6352302,-0.003207753,0.00261068,0.0007240678
0.04424268,0.7821372,0.6391431,-0.003323987,0.001112295,-0.0001088978
0.03958585,0.7783209,0.6491577,-0.001963086,0.003220927,-0.002652223
0.03512247,0.7788629,0.6533338,0.0007037154,0.005165941,-0.00139274
0.03546264,0.7797654,0.6474089,0.000485622,0.001402364,0.00142703
0.03700433,0.7787465,0.6413563,0.0007558594,-0.002949135,-2.769002e-05
0.03608852,0.7796337,0.6386917,0.002900559,-0.003254495,0.002076993
0.03769554,0.7810797,0.638952,0.00168119,-0.003568893,0.004688119
0.0399168,0.7822713,0.6388389,0.0005985882,-0.003949425,0.005717513
0.03815012,0.782166,0.6387526,0.0007502667,-0.001606583,0.006836272
0.03594549,0.780547,0.6395574,-0.001679306,0.0001096834,0.006717589
0.03476754,0.7806511,0.639997,-0.002270497,-4.469023e-05,0.008645284
0.03724095,0.7815069,0.6405887,-0.001087681,0.00118098,0.004909543
0.04216303,0.7820934,0.6382639,-0.001476316,0.003525772,-0.0007202022
0.0419182,0.7822276,0.6369458,0.0005341668,0.002405301,0.002086978
0.0387323,0.7808851,0.6398757,0.002870477,-0.0003089095,0.004232021
0.03596825,0.7788542,0.6416639,0.002279006,-0.0004506554,0.003355566
0.0336761,0.7772238,0.6416793,0.0006321801,-0.0007696951,0.001536896
0.03484348,0.7793604,0.6397565,-0.002313067,-0.0009796941,-0.0001298282
0.03622564,0.7822535,0.6381407,-0.00252811,-0.0001662093,0.003226079
0.0360322,0.7815536,0.6392039,-0.0009203156,-0.0006821373,0.006680543
0.03744982,0.7821401,0.6399199,-0.001855939,-0.00318223,0.005724284
0.03934654,0.7818907,0.6404206,0.001200521,-0.005883007,0.002630112
0.04262914,0.7793501,0.6409711,0.006009787,-0.003216151,-0.001776675
0.04484315,0.7782841,0.642196,0.004933309,0.001656735,-0.004355956
0.03990928,0.7772869,0.6427232,0.002535898,0.002823426,-0.002849691
0.03458588,0.7792765,0.6397572,-0.0002271727,0.002926342,-0.003142178
0.03577026,0.7826113,0.6392754,-0.004019263,0.0001138808,-0.004971716
0.1233835,0.8123268,0.5825123,0.03825091,0.005424184,0.2337584
0.1260237,0.8121434,0.5814486,0.03540897,0.005760061,0.2291893
0.1270139,0.8118307,0.5817272,0.03391331,0.00582952,0.2210487
0.1274876,0.8109142,0.5809408,0.03665336,0.002907362,0.2161438
0.1275576,0.8120566,0.5818822,0.0397148,-0.0003166269,0.2141591
0.1237455,0.8141207,0.584839,0.04169092,7.270028e-06,0.2124939
0.1212436,0.8150083,0.5837946,0.03935092,0.0007829425,0.2112519
0.1189892,0.815418,0.582619,0.0341836,0.003936327,0.2146313
0.1195895,0.8154143,0.5856334,0.03044989,0.008132791,0.2180065
0.1233782,0.8150898,0.5863818,0.03049597,0.006523292,0.2125629
0.12313,0.815344,0.5824802,0.03303842,0.003566385,0.2059256
0.1244037,0.81518,0.5790584,0.03331877,0.003178534,0.2064925
0.1263617,0.8138764,0.5794428,0.03311333,0.002816734,0.2040358
0.1261241,0.8119539,0.5830218,0.03226606,0.003921869,0.1979575
0.1284901,0.8109572,0.5837117,0.02776866,0.007345992,0.1953857
0.1287446,0.8140866,0.5818451,0.02351068,0.01049947,0.19163
0.1296444,0.8183049,0.5813408,0.02221959,0.01182553,0.1882527
0.1324525,0.818035,0.5787473,0.02394074,0.01211322,0.1845652
0.1273031,0.8150561,0.5801866,0.02440719,0.01236677,0.1778574
0.1204777,0.8132784,0.5847608,0.02084455,0.01100585,0.1753273
0.1191173,0.8147385,0.5828644,0.0194372,0.009523368,0.1772049
0.118078,0.8169896,0.5820171,0.02231946,0.0108306,0.1791858
0.1184875,0.8162067,0.5827453,0.02604861,0.01109867,0.1778144
0.1211697,0.813636,0.5829822,0.02798782,0.009143163,0.175611
0.1216929,0.8106158,0.5856317,0.03076978,0.006789225,0.1768169
0.1232417,0.8085937,0.5837938,0.03402571,0.004744719,0.1763579
0.128102,0.8087108,0.5814042,0.03135461,0.006502864,0.1742881
0.1322591,0.8105642,0.5826478,0.02901783,0.0103398,0.1693201
0.1357035,0.8153184,0.5834827,0.02848437,0.01316744,0.1603333
0.1358981,0.8183578,0.5853201,0.02340139,0.01590752,0.1522271
0.1343495,0.8170575,0.5850936,0.01917244,0.01953898,0.1430838
0.1353938,0.8172189,0.5843877,0.01560338,0.02425848,0.1385358
0.12846,0.8180603,0.5871542,0.01386098,0.02515839,0.1392067
0.1155191,0.81864,0.5888737,0.01854396,0.02161248,0.1377431
0.1104626,0.8196175,0.5886069,0.0216127,0.01763561,0.1417139
0.1092589,0.8167248,0.5862226,0.01967443,0.01415987,0.1485912
0.1106265,0.8135173,0.5838428,0.0183326,0.01234622,0.1499039
0.1175953,0.8125539,0.585907,0.02072473,0.008322861,0.149116
0.1237462,0.809787,0.5893968,0.02349078,0.005135625,0.1471094
0.127092,0.8094944,0.5927399,0.02394636,0.008881311,0.1450014
0.1307736,0.8139121,0.5936357,0.02399254,0.01090904,0.1424356
0.1333625,0.8163628,0.5848905,0.02310449,0.01241565,0.1372229
0.1314403,0.8149823,0.5757456,0.02079116,0.01927911,0.1300088
0.1294033,0.8130423,0.5802494,0.01348892,0.02304983,0.1229318
0.128934,0.8129063,0.5850216,0.006553469,0.02175612,0.1192507
0.1257024,0.8159475,0.5820574,0.01191033,0.02114179,0.1161172
0.122637,0.8195002,0.5858276,0.01734949,0.02224324,0.1133969
0.1192312,0.8191776,0.5895417,0.01427532,0.0211975,0.1140416
0.1164382,0.8173504,0.5854143,0.01505583,0.01832472,0.1159444
0.1175773,0.8157343,0.5842972,0.01792601,0.01762538,0.1178252
0.1172727,0.8134188,0.5823358,0.01549844,0.01744456,0.1162363
0.119041,0.8160422,0.5791222,0.01252073,0.01967774,0.1138325
0.1245863,0.8194055,0.5809711,0.01083905,0.02247774,0.1136508
0.1269144,0.8148366,0.5823685,0.009565089,0.018889,0.1108566
0.1280715,0.8109885,0.5846486,0.008338161,0.01707172,0.1095956
0.1282802,0.8100832,0.5881575,0.005713604,0.02379804,0.1093052
0.1275624,0.8074961,0.588378,0.008227257,0.02933394,0.105226
0.129756,0.808518,0.5888347,0.0141772,0.02690509,0.1006816
0.130403,0.8120486,0.5871257,0.01340996,0.02491889,0.09523584
0.1256014,0.8150539,0.5782403,0.01123849,0.02754611,0.09355698
0.1202995,0.8175933,0.5724949,0.009467174,0.0269715,0.09554344
0.1195512,0.8166073,0.5755741,0.006252071,0.02564603,0.09352817
0.1198253,0.8146247,0.5761141,0.006787167,0.0260489,0.09178086
0.1173864,0.8150729,0.5765894,0.006477448,0.0231459,0.09013752
0.1174694,0.8156646,0.5834955,0.00397593,0.01895973,0.08819279
0.1198493,0.8151314,0.586221,0.004424643,0.01541081,0.0906193
0.1227394,0.8149725,0.5844306,0.007832921,0.01628283,0.0915242
0.129842,0.8144358,0.5839355,0.01122303,0.01984479,0.08842647
0.1323028,0.8125666,0.5828927,0.009082705,0.01917814,0.08352563
0.1271007,0.8128373,0.5827378,0.006922586,0.02081876,0.07665911
0.124529,0.8162984,0.5827026,0.008596175,0.02513758,0.07224857
0.1233928,0.819086,0.578864,0.004746324,0.02656139,0.07488392
0.1239202,0.8181054,0.5766379,-0.001483731,0.02503113,0.07789648
0.1260854,0.8154793,0.5829036,-0.004570591,0.01849988,0.0717569
0.1246829,0.814922,0.5865217,-0.004623088,0.01366715,0.06612489
0.1237845,0.8143728,0.5816294,0.0005904792,0.01585214,0.06663019
0.1210936,0.8135368,0.5785619,0.004701263,0.02160677,0.06436663
0.116243,0.8143612,0.5773969,0.005856312,0.0264884,0.06512409
0.1176896,0.8160187,0.5784808,0.007098993,0.02494683,0.07022152
0.1195569,0.8189656,0.5812751,0.006827002,0.02067561,0.07063551
0.1194268,0.820288,0.5821363,0.00438959,0.01853887,0.06849356
0.1232291,0.8191136,0.5867244,0.0005661628,0.01701029,0.065834
0.1249598,0.8191869,0.5896258,0.001232771,0.01709481,0.06340942
0.1239973,0.8187576,0.5844276,0.003182934,0.0204769,0.06261826
0.1262205,0.817628,0.5800018,0.003329829,0.02313311,0.06057327
0.1270868,0.8180071,0.5824211,0.004115902,0.01968984,0.05767165
0.1264389,0.8179135,0.5867158,-0.001073529,0.01706489,0.05567115
0.1292085,0.8161404,0.5877217,-0.002595622,0.02100578,0.05190113
0.1305875,0.814709,0.5872446,0.001847511,0.02308788,0.04894545
0.125493,0.8155301,0.5833602,-0.0002397371,0.01938951,0.05042443
0.1182335,0.8173842,0.5786909,0.0009760499,0.01663013,0.04977864
0.1169914,0.8184168,0.5788711,0.003470071,0.01874514,0.04740891
0.1209456,0.8182461,0.5792739,0.0002082922,0.02093945,0.04709494
0.122841,0.8177725,0.5790501,-0.0005784083,0.02037977,0.04545906
0.1227146,0.8179642,0.5782903,-0.002654624,0.01944762,0.04500482
0.1231675,0.8171006,0.5772966,-0.004658731,0.02001035,0.04594015
0.1251812,0.815315,0.5788829,-0.004612759,0.02091621,0.04611867
0.1260263,0.8155559,0.5821927,-0.008322452,0.01998088,0.04531751
0.1241551,0.8180545,0.5856898,-0.01006509,0.02038726,0.04334398
0.124846,0.8197434,0.5835904,-0.008763858,0.0202921,0.04348782
0.1247315,0.8167033,0.5805273,-0.006240809,0.01809349,0.04187459
0.1225872,0.8120391,0.5845925,-0.003056922,0.01944521,0.03850044
0.1244709,0.8119728,0.5875261,-0.004195578,0.02095295,0.03787373
0.1265492,0.8130121,0.5869767,-0.004969318,0.02175451,0.03637277
0.1277204,0.8126104,0.5851305,-0.003448788,0.02260819,0.035243
0.1267927,0.8146534,0.5821949,-0.003865274,0.02096055,0.03419
0.1235704,0.8177328,0.5830967,-0.004414681,0.02186941,0.03170331
0.1249062,0.8188369,0.5834103,-0.004250456,0.0220866,0.03001942
0.1250404,0.8185117,0.5791746,-0.00419389,0.01875422,0.02759523
0.1233798,0.8176636,0.5771473,-0.005594655,0.01602362,0.02613304
0.1256432,0.8165048,0.5794043,-0.006982519,0.01274907,0.02538582
0.1253215,0.8159728,0.581558,-0.005536685,0.01287233,0.02477999
0.1239887,0.8165487,0.5802625,-0.004622706,0.01833245,0.02608766
0.1235347,0.8164667,0.577425,-0.005573332,0.02389127,0.02679095
0.1206157,0.8163352,0.5741976,-0.00458219,0.02534998,0.02799313
0.1204148,0.8155649,0.5709791,-0.003499634,0.02338206,0.02738344
0.1228078,0.8143411,0.5737228,-0.005842159,0.02240623,0.02318989
0.1249595,0.8157819,0.5794078,-0.007574195,0.02188714,0.02183094
0.1272466,0.8157209,0.5817314,-0.007881812,0.02230966,0.02238262
0.1265122,0.8154481,0.5844456,-0.0083528,0.0226413,0.0224705
0.1244505,0.8176072,0.5885713,-0.007652334,0.02098639,0.02184426
0.1233609,0.81634,0.5907423,-0.008082459,0.02056889,0.0195505
0.1216019,0.8153462,0.5860027,-0.008601739,0.02058166,0.01886273
0.122248,0.8156179,0.579916,-0.008847689,0.02287151,0.01879635
0.1250322,0.8146912,0.5819842,-0.009797283,0.02350158,0.01694842
0.1269002,0.8156707,0.5821197,-0.009531314,0.017989,0.01473342
0.1281782,0.8158238,0.5774471,-0.01082033,0.0161319,0.01243823
0.1259323,0.8176135,0.5759935,-0.01042856,0.01684608,0.01182252
0.1229534,0.8201837,0.577165,-0.005213875,0.01726716,0.01386597
0.1238493,0.8163831,0.580749,-0.001764236,0.01836992,0.01240672
0.1248136,0.8119793,0.5829763,-0.00385961,0.01746312,0.006725043
0.1257943,0.8113533,0.5830335,-0.008666426,0.02015698,0.005946867
0.125723,0.811998,0.5813663,-0.009264054,0.02276284,0.007183013
0.1224931,0.8128826,0.5755106,-0.007054061,0.02215499,0.007659523
0.1206571,0.8135059,0.5720778,-0.006453542,0.02254435,0.01102868
0.1205364,0.814402,0.573026,-0.006465777,0.02072198,0.01169203
0.1197909,0.8162985,0.5774668,-0.008644617,0.0192511,0.01295963
0.1183686,0.8197897,0.582585,-0.01154314,0.01860676,0.01371894
0.118262,0.821175,0.5810371,-0.01417127,0.017147,0.009928929
0.1218152,0.8171882,0.5802652,-0.0141056,0.01507936,0.01023601
0.1248006,0.8137592,0.583053,-0.01073804,0.01217956,0.00867829
0.1236556,0.8152052,0.5817558,-0.01096524,0.01190162,0.006548925
0.122052,0.8160624,0.5793988,-0.01147678,0.01031555,0.009330248
0.122293,0.8146758,0.575489,-0.01124476,0.01005914,0.008254553
0.1222533,0.8153531,0.57061,-0.01238537,0.01261663,0.008062114
0.1224003,0.8156131,0.5746994,-0.01074405,0.01081308,0.008751656
0.1242329,0.8148344,0.5832449,-0.009980334,0.01047227,0.006067133
0.1254196,0.8155689,0.5859192,-0.009885609,0.01138515,0.001933449
0.1246366,0.8152476,0.5834298,-0.00905821,0.01290235,-0.003630421
0.1220785,0.8150898,0.5760875,-0.008603261,0.01756705,-0.002029078
0.1200139,0.8155541,0.570179,-0.006470241,0.01827248,0.000847818
0.1207298,0.8150504,0.5742317,-0.007337414,0.01840363,-0.00323519
0.1212165,0.8153701,0.5804308,-0.009325669,0.01912237,-0.003366166
0.1209797,0.8158679,0.5811939,-0.01025955,0.01726791,-0.0001419186
0.1225912,0.8178051,0.5800094,-0.0143043,0.01590251,0.003492031
0.1242858,0.8204348,0.578733,-0.01565985,0.01169652,0.008017511
0.1239202,0.8194664,0.5772802,-0.01411199,0.007626661,0.005842413
0.1244254,0.8179574,0.5773614,-0.01472457,0.01057334,-0.000173677
0.1277111,0.8181463,0.5773352,-0.01468309,0.01473795,-0.003430427
0.1300331,0.8179654,0.5760331,-0.01326661,0.01492207,-0.00655538
0.1300092,0.8178465,0.5771436,-0.01116684,0.01491231,-0.009413019
0.1288662,0.817294,0.5784836,-0.008372003,0.01551477,-0.01030809
0.1272987,0.8159073,0.5775273,-0.007062434,0.01522702,-0.01360452
0.1250461,0.8148172,0.5780438,-0.00789788,0.01651809,-0.01739455
0.121742,0.8136077,0.5797686,-0.008720825,0.01836009,-0.01364433
0.1217588,0.8134617,0.5816492,-0.007923845,0.01774307,-0.008163503
0.1238785,0.8145414,0.5844189,-0.006615746,0.01480659,-0.007732337
0.1233308,0.8146551,0.5869623,-0.00707744,0.01273126,-0.008007329
0.1227402,0.8153322,0.5868899,-0.0100911,0.01185583,-0.007101518
0.1228146,0.8153767,0.5834858,-0.01288051,0.009634107,-0.004615631
0.1254055,0.8130268,0.5811154,-0.01325712,0.01115825,-0.003681844
0.1293465,0.8122863,0.5822201,-0.01301419,0.01459551,-0.006355597
0.1279792,0.8133584,0.5853851,-0.01202702,0.01401512,-0.009403657
0.1268384,0.8142364,0.5886775,-0.009700097,0.01550194,-0.0132162
0.1285064,0.8142674,0.5894893,-0.008607738,0.01732868,-0.01372949
0.1276083,0.8143693,0.5887578,-0.008462798,0.0153983,-0.01151083
0.1275071,0.8158112,0.5881711,-0.008777437,0.01322628,-0.01166235
0.1281907,0.8154232,0.5851275,-0.01051926,0.01107332,-0.01017709
0.1271194,0.81498,0.5776611,-0.01107512,0.01097399,-0.01108915
0.1260711,0.8173084,0.5729721,-0.01121616,0.01028473,-0.01504565
0.124925,0.8205226,0.5775455,-0.01269995,0.008479679,-0.01290336
0.1265488,0.8240385,0.5835107,-0.0125072,0.01078796,-0.007978805
0.1303462,0.8225703,0.5865908,-0.01042877,0.01046525,-0.007975254
0.1320464,0.8165943,0.5894388,-0.008237413,0.009481611,-0.01404687
0.1326619,0.8147545,0.5877723,-0.007881268,0.01346783,-0.01712869
0.1286247,0.817755,0.5811983,-0.006732547,0.01596012,-0.01254145
0.1224247,0.8206063,0.5758135,-0.001673618,0.01851477,-0.01015944
0.1235518,0.8187323,0.5757427,-0.0007294027,0.01716861,-0.01208775
0.1237846,0.816491,0.5767513,-0.004747613,0.01168265,-0.013706
0.1198243,0.8167518,0.5740451,-0.007924656,0.01113337,-0.01354092
0.1208303,0.8138826,0.5745572,-0.01217019,0.01119631,-0.01317094
0.1222891,0.8129225,0.5770245,-0.01344619,0.01445029,-0.01437791
0.1245989,0.8147494,0.579254,-0.01063421,0.01749244,-0.01668367
0.1296269,0.8135402,0.5871088,-0.01097338,0.01317298,-0.020616
0.1283925,0.8139318,0.5892192,-0.01141057,0.01179371,-0.02062746
0.1273797,0.8155332,0.5839736,-0.007726953,0.0122234,-0.01854329
0.1303713,0.8169326,0.5827329,-0.00509949,0.01362181,-0.02089387
0.1289277,0.8189544,0.5815304,-0.006067348,0.015324,-0.02161883
0.1273053,0.8182073,0.5810231,-0.006937986,0.01196089,-0.02058786
0.1263882,0.8184946,0.5799892,-0.006687876,0.0109561,-0.01656992
0.1232762,0.8201823,0.5771014,-0.008442183,0.008772995,-0.009573215
0.1213978,0.8187862,0.5812137,-0.0101137,0.006538711,-0.009862808
0.1191157,0.8165305,0.5852316,-0.007023375,0.008506228,-0.01462922
0.1198795,0.8147396,0.5830764,-0.004550658,0.004741416,-0.0183517
0.1252224,0.8147974,0.5820345,-0.008017903,0.004016823,-0.01831642
0.127924,0.8159196,0.5811878,-0.01080091,0.007702055,-0.01580275
0.1306794,0.8150382,0.5810393,-0.009446282,0.008384919,-0.01794109
0.1330157,0.8150709,0.5854279,-0.00905292,0.0149518,-0.01953692
0.1303866,0.8156786,0.586404,-0.009887161,0.01946393,-0.02225444
0.127682,0.8149628,0.5825587,-0.008963394,0.01720755,-0.02639442
0.124679,0.815002,0.581994,-0.007416833,0.01641589,-0.02256996
0.1215954,0.8136317,0.5791787,-0.006041128,0.01394123,-0.01859169
0.1217097,0.8120656,0.5776509,-0.005196616,0.01228836,-0.01606601
0.1207226,0.8144653,0.5837422,-0.004916592,0.01074175,-0.01577667
0.1189163,0.8168632,0.5851824,-0.00472214,0.004799184,-0.0209901
0.1205047,0.8163624,0.585512,-0.009185169,0.001011466,-0.020659
0.1236981,0.8161875,0.5862834,-0.01393331,0.0017131,-0.02016147
0.1261844,0.8167725,0.5814949,-0.008533164,0.003230158,-0.02170694
0.1286242,0.8147161,0.5815242,-0.002256186,0.002549233,-0.02013628
0.1293496,0.8117107,0.5834597,-0.003328017,0.004838167,-0.02332347
0.1257635,0.8111632,0.5857384,-0.003874434,0.01358483,-0.02658654
0.1213187,0.8120151,0.5899185,-0.003612408,0.01837129,-0.02637415
0.1197884,0.8150559,0.5839751,-0.004313577,0.0162448,-0.02433703
0.1198763,0.8179908,0.5765841,-0.002529855,0.01257977,-0.02262498
0.1188306,0.8183257,0.5790567,-0.001487103,0.01005951,-0.02546152
0.1183633,0.8191673,0.5824701,-0.002604272,0.008131791,-0.02516171
0.1215529,0.8195479,0.5804868,-0.003872034,0.005281947,-0.02368795
0.1250334,0.8192612,0.5775619,-0.006769689,0.005753903,-0.02256314
0.1264273,0.8183261,0.5776411,-0.007806034,0.008546749,-0.02021578
0.1241675,0.8155634,0.5757123,-0.004718762,0.009318986,-0.02339485
0.1197333,0.8139523,0.5732798,-0.003266867,0.00942947,-0.0240334
0.1211674,0.8135661,0.5740196,-0.00608723,0.0100429,-0.02573941
0.1253042,0.813936,0.5754172,-0.008256642,0.01174828,-0.03101677
0.1256953,0.8144857,0.5779767,-0.005147087,0.01259527,-0.02787436
0.1216877,0.815347,0.578297,-0.002393676,0.00949977,-0.02645221
0.1158006,0.8174293,0.5772265,-0.003881604,0.005427902,-0.02429925
0.1175644,0.8170505,0.5790017,-0.003285233,0.007297787,-0.01718091
0.1211332,0.8167881,0.5821674,-0.001076055,0.009492244,-0.01808241
0.1203814,0.8178999,0.585611,-0.001337984,0.005677019,-0.01896008
0.1239093,0.816362,0.5833339,-0.00295228,0.005258324,-0.01719953
0.1246503,0.8165737,0.5779865,-0.00516038,0.007538968,-0.0186568
0.1223792,0.8190154,0.5772947,-0.006193767,0.007507608,-0.02022767
0.1243703,0.8193504,0.5767327,-0.00666109,0.006422079,-0.02411473
0.1237058,0.8176471,0.5789687,-0.008567293,0.004055307,-0.02688683
0.1238802,0.8152158,0.5844594,-0.00861929,0.005807722,-0.02501722
0.1248569,0.8154881,0.583706,-0.007041504,0.008168088,-0.02239013
0.122005,0.8161882,0.5807892,-0.006388172,0.008499403,-0.02052334
0.1218748,0.8131229,0.5805897,-0.00479117,0.01132031,-0.02036528
0.122703,0.8115487,0.578907,-0.004663661,0.01065737,-0.02131613
0.1227519,0.8128377,0.5769326,-0.005975733,0.009119596,-0.02166174
0.1229451,0.8136949,0.5778506,-0.004317946,0.01086389,-0.01993862
0.1210473,0.8176139,0.5795589,-0.003858159,0.01100991,-0.01730253
0.1208606,0.8224483,0.5808398,-0.005686172,0.009961879,-0.01693653
0.1240655,0.819848,0.5824282,-0.007057568,0.003428839,-0.0165834
0.1276753,0.8142822,0.581341,-0.008234067,-0.004629545,-0.01666216
0.1285211,0.8132104,0.5797946,-0.006420437,0.0001498226,-0.02120705
0.127042,0.8129748,0.5819866,-0.005682053,0.007541468,-0.02581252
0.1252481,0.8126187,0.5838197,-0.00675327,0.005804944,-0.02684979
0.1210851,0.8147275,0.5863347,-0.004225747,0.004842547,-0.02657006
0.1177832,0.8180618,0.5903848,-0.004961379,0.003449379,-0.0243878
0.1184318,0.8215589,0.5901345,-0.008715473,-3.935865e-05,-0.01999861
0.1175399,0.8223354,0.5864099,-0.008474159,0.001525006,-0.01662481
0.1160892,0.8195042,0.5827369,-0.006434787,0.0006084565,-0.01551219
0.1190298,0.8171003,0.5799123,-0.004899257,-0.002352057,-0.01521888
0.122483,0.8182734,0.57741,-0.005947318,-0.001079331,-0.01465473
0.1242711,0.8214921,0.577649,-0.007181047,-0.000685317,-0.01245902
0.1258325,0.8222544,0.5800673,-0.006957859,0.003268466,-0.01226662
0.1260676,0.820091,0.5773734,-0.007695557,0.009968632,-0.01696437
0.127199,0.8160879,0.5750038,-0.006595092,0.009310044,-0.02070069
0.1277994,0.8142232,0.5772633,-0.003382461,0.004195391,-0.02280638
0.1237581,0.8168241,0.5777964,0.0006646633,0.0009706996,-0.02282811
0.1197388,0.8179833,0.5803691,0.001854819,0.002600855,-0.01954663
0.1184685,0.8180279,0.5833269,-0.0006392271,0.006053272,-0.01858538
0.1170941,0.8179889,0.5817045,0.000145886,0.006170652,-0.01587658
0.1162565,0.8159228,0.5815721,-6.719695e-05,0.00450391,-0.01130372
0.1179996,0.8149332,0.5823516,-0.002842065,0.002152581,-0.01219729
0.1206017,0.8154409,0.5808601,-0.004273009,0.0009266346,-0.01104991
0.1220252,0.8178191,0.5769372,-0.007953805,0.000153341,-0.007887338
0.1226498,0.8213393,0.5710404,-0.008370502,-0.002367774,-0.01281739
0.1226578,0.8227784,0.5694165,-0.007050917,-0.0006006829,-0.01843608
0.1248597,0.8212026,0.5720977,-0.009011677,0.004145343,-0.01720378
0.1284217,0.8181921,0.5741873,-0.006873644,0.005788568,-0.01687037
0.1276234,0.8177236,0.5779585,-0.006854286,0.006117375,-0.01780829
0.1240555,0.8181828,0.5805829,-0.009325769,0.005626853,-0.01588529
0.1201969,0.8181202,0.5778409,-0.006927273,0.005158629,-0.01641921
0.1174053,0.8194939,0.5770063,-0.008622902,0.002825182,-0.01741811
0.1183254,0.8213199,0.5784266,-0.01064604,-9.136735e-05,-0.01408745
0.1203478,0.8229367,0.5783771,-0.008244977,0.002190704,-0.01054205
0.1223488,0.8221576,0.582385,-0.00840563,0.001483801,-0.01012652
0.1246164,0.8204299,0.5872197,-0.007442173,-0.002287044,-0.01357639
0.125265,0.818547,0.5866257,-0.005144474,-0.002068671,-0.01581285
0.1251023,0.813649,0.5852219,-0.002118345,-0.002663019,-0.01449694
0.1248801,0.8112741,0.5854353,0.0006992637,-0.0004027134,-0.01408978
0.12495,0.8130415,0.5847064,-0.001414718,0.004216971,-0.01351917
0.1253518,0.814933,0.5835066,-0.001521185,0.004111593,-0.01384463
0.1257361,0.8174062,0.5817609,-0.002102819,0.001448377,-0.01572399
0.126523,0.8187722,0.578926,-0.007324714,-4.51411e-05,-0.01397927
0.1256911,0.8180252,0.5800894,-0.008494209,0.002618848,-0.009812515
0.1243643,0.8177204,0.5817432,-0.009409706,0.003492963,-0.008170431
0.1251313,0.8176096,0.5787487,-0.01357055,0.003398444,-0.009759991
0.1251944,0.8144781,0.5790458,-0.01552092,0.005716517,-0.01193487
0.1247415,0.8111996,0.5806616,-0.01325023,0.003637923,-0.01322955
0.1249866,0.8123274,0.5801968,-0.009579007,0.003286852,-0.01274806
0.1242509,0.8131855,0.5810754,-0.009305148,0.002685845,-0.009718452
0.1241719,0.8122437,0.580469,-0.008018481,-0.0002618606,-0.008089238
0.1254372,0.8135688,0.5818161,-0.004081892,0.00216859,-0.007845341
0.1261318,0.8153135,0.5853754,-0.001817373,0.001901424,-0.005264123
0.1263866,0.8154033,0.586521,-0.001444692,0.001516654,-0.005753062
0.1265626,0.81527,0.5867105,-0.005557339,0.002737686,-0.00811379
0.1261285,0.81525,0.5864865,-0.009850629,1.990839e-05,-0.005464294
0.1254172,0.814903,0.587677,-0.008462227,-0.0007936043,-0.004072188
0.1248773,0.8135537,0.5870988,-0.004572705,-0.0009518099,-0.002739158
0.1255027,0.8118965,0.5852421,-0.001077776,0.001919885,-0.001137292
0.1287793,0.8122961,0.5874175,-0.00157052,0.004914533,-0.006985879
0.1316365,0.8127845,0.5879397,-0.004563249,0.002523396,-0.01018049
0.1306434,0.8115028,0.5867908,-0.004042268,0.002286594,-0.00909461
0.1290284,0.812252,0.5857947,-0.002525202,0.0009038649,-0.01219997
0.1290143,0.8155521,0.5829155,-0.003410317,0.001355067,-0.01509062
0.1279498,0.8175716,0.5820474,-0.004215196,0.005201162,-0.01446987
0.125056,0.816806,0.5825483,-0.00412117,0.002771717,-0.01234057
0.1218149,0.816108,0.5843721,-0.001950724,0.002034724,-0.0122024
0.1199427,0.8172091,0.586981,0.0009204618,0.002240014,-0.009642733
0.1216632,0.8175944,0.5854429,-0.003133251,-0.00203307,-0.007476692
0.1258176,0.8180211,0.5837905,-0.008614873,-0.003087507,-0.01409192
0.1287241,0.8177873,0.5857398,-0.006389151,-0.003649369,-0.01692599
0.1280382,0.8140915,0.58852,-0.002116051,-0.003539309,-0.01048321
0.1251496,0.8114803,0.5906327,0.0008101275,0.0004709513,-0.004890431
0.1246699,0.8123001,0.5877324,0.0007360911,0.002360651,-0.006172939
0.1252151,0.8129904,0.5789727,-0.001089253,0.0007768125,-0.008917842
0.1247738,0.8123504,0.5747649,0.0006649262,-0.0005918084,-0.007195705
0.1252143,0.8122652,0.5790107,0.00167717,-0.0001849403,-0.008168445
0.1256306,0.8128482,0.5822292,0.002633864,-0.001261322,-0.007975581
0.128638,0.8128449,0.5811052,0.004911493,-0.002654515,-0.007362533
0.1328004,0.815109,0.5833724,0.003224989,-0.0004056658,-0.01474381
0.1323675,0.8175673,0.5879363,0.002351013,0.002264419,-0.01998819
0.1312051,0.8158045,0.5868804,0.003356182,0.003899762,-0.02293669
0.1312657,0.814552,0.5876169,0.003446847,0.003214671,-0.0259692
0.1302047,0.8154908,0.5906434,0.004604512,0.002021271,-0.02549555
0.1290104,0.815086,0.5830004,0.003633328,0.005244954,-0.02664489
0.1270503,0.813269,0.5751127,0.0006935763,0.007233523,-0.02943393
0.1233672,0.8123888,0.5774024,-0.002194313,0.005530343,-0.02979687
0.1201974,0.814162,0.5778612,-0.005030601,0.004407692,-0.02244837
0.1191476,0.8166121,0.5744797,-0.006876276,0.002518969,-0.01416449
0.1200463,0.8188025,0.5746056,-0.008483706,-0.0002701262,-0.01428486
0.1215289,0.8233219,0.5759241,-0.007404182,-0.0007025572,-0.01195942
0.120846,0.8264034,0.5762567,-0.005157021,0.0002684668,-0.004836683
0.12036,0.8221437,0.5774429,-0.003689958,-0.0006815449,-0.002138629
0.1213295,0.8155059,0.5765808,-0.00118196,-0.001376446,-0.003775237
0.1218561,0.8097433,0.5757061,4.239786e-05,-0.001968039,-0.004745889
0.1269832,0.80469,0.5779457,0.001971966,-0.004690613,-0.005397137
0.1329569,0.8063781,0.5776113,0.002795969,-0.005583229,-0.009084984
0.1320396,0.8127166,0.5756991,0.001291983,-0.005311401,-0.01241022
0.1318579,0.8175127,0.5756916,0.002808046,-0.002176641,-0.01550222
0.1338875,0.8184597,0.5791337,0.001048387,0.004684205,-0.01772002
0.1301486,0.8182562,0.584754,-0.002404362,0.005177841,-0.01408161
0.1248011,0.8227738,0.5832946,-0.0009084995,0.002974516,-0.01174636
0.1229125,0.8235341,0.5785104,-0.00139289,0.003322096,-0.01326091
0.1198502,0.8201555,0.5782186,-0.001993304,-0.00191958,-0.01281717
0.1172865,0.8199679,0.5808185,0.0004040769,-0.009002137,-0.01138018
0.1209128,0.8152558,0.584671,0.0008843533,-0.01117831,-0.006540022
0.1281789,0.811849,0.5826562,0.001166478,-0.0116873,-0.001354873
0.1325986,0.8139556,0.5788393,0.003129416,-0.008874069,-0.005141228
0.1316675,0.8154057,0.5816549,0.003695203,-0.000982798,-0.01035449
0.1310413,0.8191283,0.5841611,0.002614411,0.00322284,-0.01137415
0.1310943,0.8178208,0.5839538,0.002070843,0.003211054,-0.01396338
0.1265062,0.8139666,0.57883,0.0008193889,0.007615513,-0.01247963
0.1234919,0.8159274,0.5732236,-0.0003176855,0.01039969,-0.008289249
0.1252577,0.8152686,0.5792725,0.0001864519,0.006546091,-0.01109359
0.1252281,0.8151501,0.5838269,4.58186e-05,0.002924648,-0.01259344
0.1236923,0.8179091,0.5768912,0.0004035398,0.001353134,-0.01120053
0.123484,0.8189662,0.5739552,0.0009637902,0.002010126,-0.01313131
0.1237727,0.8197759,0.5808759,0.0005648367,0.00333254,-0.01215201
0.1245408,0.8173063,0.5865456,0.0006345403,0.002328426,-0.009054254
0.1258259,0.8148773,0.5851289,-4.788667e-05,-2.405486e-05,-0.006129544
0.1277297,0.8153535,0.5841363,-0.0004916814,-0.003669411,-0.004941373
0.1298244,0.8151423,0.5843748,0.0007249949,-0.004646637,-0.009174604
0.1285153,0.8156037,0.5811401,0.001779654,-0.001425598,-0.009007373
0.1231837,0.8165003,0.5810961,0.001182526,-0.0001308708,-0.00667164
0.1194478,0.8185862,0.5830858,0.000630799,0.000232762,-0.009413454
0.1205468,0.8199864,0.5812362,0.002415621,0.0008552974,-0.007611026
0.1226112,0.8174274,0.5806591,0.00338436,-0.0004476926,-0.005435922
0.1221643,0.8159315,0.5799978,0.001407442,-0.002317167,-0.006853085
0.1223731,0.8161923,0.5784051,-0.002527072,-0.005700926,-0.006488582
0.1243593,0.8142178,0.5803941,-0.006523076,-0.007174919,-0.008604549
0.1252663,0.8119021,0.5808896,-0.005965321,-0.007405939,-0.00923548
0.1252673,0.8138898,0.5792678,-0.001585358,-0.009646601,-0.006986907
0.1244054,0.8164674,0.5793109,0.001737796,-0.003569478,-0.006519163
0.1231262,0.814123,0.5802082,0.002799154,0.003650692,-0.005349468
0.1223651,0.8132905,0.5827964,0.001707956,-0.0001645383,-0.006110519
0.1234681,0.8153337,0.5840177,-0.0009021121,-0.002375384,-0.006897049
0.1260829,0.8153552,0.5831072,-0.001694258,-0.001605021,-0.007124342
0.1251421,0.8153162,0.5825981,-0.000567365,-0.003330024,-0.009375002
0.1238504,0.8157998,0.5798054,-0.001766603,-0.00365297,-0.01047609
0.1234126,0.8178541,0.5766815,-0.002889156,-0.004418877,-0.01275445
0.1187098,0.8200918,0.5773522,-0.004636301,-0.00432404,-0.009146543
0.1177296,0.817274,0.5785666,-0.009658162,-0.002818798,-0.001078951
0.1236068,0.8128866,0.5779922,-0.006965691,-0.002632386,-0.003344307
0.1290058,0.8125413,0.5801937,0.003051705,-0.001347986,-0.009780873
0.12986,0.8161566,0.583289,0.008536553,-0.001612406,-0.01384917
0.1256908,0.8195461,0.5809718,0.008395574,-0.0029826,-0.01171517
0.1232974,0.8191926,0.5769177,0.004686924,-0.00140943,-0.00546356
0.1242991,0.8190848,0.5750901,0.002067142,-0.001192186,-0.006041132
0.1240091,0.8209519,0.5790145,0.001880077,-0.001156715,-0.005308607
0.1218036,0.8209454,0.5862985,0.001472961,-0.0002135158,-0.003439378
0.1200017,0.8202873,0.5861832,0.0003872162,-0.00104606,-0.004010149
0.1222043,0.8191135,0.583894,-0.0003597866,0.0008546008,-0.0003266217
0.124769,0.8164151,0.5835953,0.0004869937,0.003025159,-0.001856375
0.1250683,0.8162353,0.5807473,-0.002599015,0.002555198,-0.007146216
0.1256997,0.8170899,0.5808024,-0.004853732,0.002920997,-0.00946443
0.126476,0.8164549,0.5816992,-0.002053227,0.002269673,-0.01051462
0.1283186,0.8166858,0.5823471,-0.002909037,0.0003571612,-0.007106168
0.127752,0.8167572,0.5855102,-0.002216885,-0.001061776,-0.005324116
0.1241187,0.8165425,0.5817413,-0.0007854341,0.000746532,-0.00445372
0.1223697,0.8167749,0.575037,-0.002672854,0.004261767,-0.005225051
0.1211363,0.8165992,0.5753566,0.0006178847,0.002836948,-0.01033823
0.1196609,0.8166866,0.5794362,0.004075778,-0.0006774586,-0.007095518
0.1177873,0.8165103,0.5829697,0.003589979,-0.003422171,-0.00124185
0.1180926,0.8157237,0.5798227,0.002682771,-0.004704003,0.001029257
0.1208762,0.8154201,0.5747456,0.001027722,-0.003851034,0.0002489651
0.1204785,0.8169092,0.5738521,0.001001063,-0.006447484,-0.005822038
0.1222834,0.8188341,0.5708068,0.0005482711,-0.009872549,-0.004668951
0.1251079,0.8183485,0.5740219,-0.002291543,-0.01021993,-0.002911671
0.1232152,0.8184649,0.5844959,-0.003701065,-0.009513612,-0.005771444
0.1242923,0.8200763,0.5856202,-0.003874799,-0.004984254,-0.003979882
0.1258314,0.8191407,0.5808441,-0.004618246,-2.29489e-05,-0.004956233
0.1245745,0.8172706,0.5777443,-0.004262861,-0.000510584,-0.004816211
0.1250965,0.8164656,0.5780459,-0.0008110291,-0.00145575,-0.002995402
0.1250672,0.8163321,0.5826604,0.003647771,0.0005088032,-0.005840957
0.1243385,0.8171687,0.5828162,0.004703933,-0.0006504076,-0.005522053
0.1224596,0.8180833,0.5809022,0.002506888,-0.005793064,-0.003153316
0.1200636,0.8207547,0.5828385,0.0005809134,-0.006284585,-0.001174001
0.1215042,0.8230977,0.5835842,-0.0005789166,-0.00112854,-0.001594417
0.1236084,0.8203766,0.5840146,-0.001220723,0.002861834,-0.003684459
0.125043,0.8183444,0.5836771,-0.0006113107,0.002530637,-0.002397715
0.1287293,0.819765,0.5827327,-0.001396048,-0.001869374,-0.005298217
0.1298563,0.819288,0.5846915,-0.004302147,-0.005804469,-0.01059064
0.1253604,0.8168234,0.584905,-0.005407271,-0.004250873,-0.01096323
0.1207961,0.8136048,0.5829504,-0.002569134,-0.0004452183,-0.008789699
0.1175555,0.8116477,0.5806486,0.001230144,0.0009354834,-0.00624665
0.1158469,0.8135798,0.5780929,0.0002132761,0.002412462,-0.006963511
0.1179181,0.8155572,0.5790502,-0.001405965,0.00449857,-0.007155823
0.1197278,0.8154172,0.5798281,0.001545214,0.003779904,-0.004205196
0.1203163,0.8161523,0.5784346,0.004901691,-4.477117e-05,-0.00151556
0.1216006,0.8170291,0.5780883,0.008250377,-0.00284857,0.001095879
0.1227628,0.81664,0.5758808,0.006050678,0.001671916,-0.002605314
0.1247077,0.8165677,0.5740438,0.00013168,0.007330798,-0.00816379
0.1238758,0.8165614,0.5748961,0.0009634109,0.004780421,-0.003956641
0.1184634,0.8157563,0.5734154,-0.0008312324,0.0008571977,-0.0002857326
0.1150374,0.8149978,0.5719242,-0.003570173,-0.001404054,-0.002734405
0.1160066,0.8151692,0.5753925,-0.000464657,-0.00389979,-0.002722234
0.1176913,0.8158613,0.5806417,-0.0012943,-0.003340352,-0.001521901
0.1192962,0.8169399,0.5832061,-0.001280199,-0.003321022,-0.0008826895
0.1222156,0.8182103,0.5832183,0.0004350517,-0.003571077,0.0004833729
0.1245233,0.8166152,0.5816295,0.0002250793,-0.001053791,0.0007034361
0.1253396,0.8145365,0.5794658,0.004095843,-0.001312615,-3.755196e-05
0.1252561,0.8173051,0.5795219,0.006173107,-0.001846105,-0.001350729
0.124413,0.8200073,0.581666,0.00574398,0.001194084,-0.00257863
0.1242686,0.818883,0.5829957,0.005579052,0.002942358,-0.00440164
0.1236885,0.8166681,0.5814666,0.003378419,0.002341816,-0.006322051
0.1240467,0.8149117,0.5801155,0.003600927,0.001042403,-0.005152827
0.1256089,0.8170249,0.5817287,0.00242131,0.0006858589,-0.004516426
0.1236447,0.8210697,0.5802453,-0.001921128,0.000414587,-0.005521025
0.1211904,0.8207138,0.5766646,-0.003326971,-0.001359869,-0.004552841
0.1208274,0.8178355,0.575183,-0.004272213,-0.002148571,-0.00275396
0.1214034,0.815828,0.5731426,-0.004437094,-0.003805424,-0.002246116
0.1227024,0.8153929,0.5756961,-0.001417682,-0.008190416,-0.004313383
0.1209685,0.8159851,0.5810261,0.0008583842,-0.01076425,-0.003086343
0.1183631,0.8166978,0.581169,0.001122205,-0.008307793,0.002893271
0.1185708,0.8184282,0.5805832,0.0007109748,-0.002069208,0.004090646
0.1220824,0.8175272,0.5818953,0.000269325,0.002595852,0.001755324
0.1285827,0.8146786,0.5826391,0.003549215,0.001537923,-0.001423819
0.1295631,0.815336,0.5811037,0.006888337,-0.0006255633,-0.004611596
0.123182,0.8155015,0.5789262,0.0003430656,0.0006973848,-0.003620156
0.1191016,0.8154345,0.5776022,-0.0059687,-0.000260646,-0.004201687
0.121233,0.8183298,0.5769774,-0.001511648,-0.003468569,-0.005659951
0.1254188,0.8200475,0.5784522,0.001903066,-0.003664594,-0.005500877
0.1269243,0.8197553,0.5774684,0.001443427,-0.002909803,-0.009380301
0.1259149,0.8193757,0.5753345,0.003571039,0.002591509,-0.01098452
0.1224172,0.8212608,0.5752423,0.004644902,0.008255676,-0.006185233
0.1186938,0.822589,0.5743162,0.002120733,0.00519625,-0.0007096111
0.1198327,0.8193057,0.5750204,-0.002666207,0.003968761,0.00151912
0.124,0.8170782,0.5734631,-0.007251983,0.005009061,0.001098492
0.1285592,0.8179941,0.5725952,-0.006268083,0.002522385,0.002278159
0.1300649,0.8184642,0.5807534,-0.002295305,-0.0005255372,0.003840703
0.1267411,0.8177056,0.5863322,-0.002346376,-0.00487223,0.005513267
0.1247161,0.8171571,0.5809208,-0.002961284,-0.003548721,0.006299846
0.1249666,0.8179852,0.574903,-0.001866589,0.001733614,0.003268469
0.1249869,0.8197657,0.5783778,-0.0008573041,0.00206137,0.0001748483
0.1250819,0.8209831,0.5824454,0.001306937,0.002854286,-0.00406531
0.1243861,0.8173794,0.5829164,0.001082375,0.001210886,-0.008981347
0.1218066,0.8138844,0.5862257,-0.0007281111,-0.002812649,-0.00779329
0.1171992,0.817595,0.5837017,-0.0008770352,-0.001366327,0.0009733382
0.1145549,0.8210105,0.5781818,-0.002071038,-0.001130894,0.008941168
0.1162776,0.8209838,0.5768363,-0.001930797,-0.002645374,0.00551997
0.1202671,0.8210652,0.578864,-0.001111193,-0.003939613,0.0007226333
0.1247924,0.8213968,0.5857017,-0.001874782,-0.00740535,0.002724969
0.1251654,0.8215201,0.5836014,-0.001188825,-0.006294562,0.001167633
0.1243738,0.8197857,0.5778437,-0.001180577,-0.003704705,-0.002923524
0.1287065,0.8189431,0.5794613,-0.001634462,-0.004709134,-0.005468283
0.1285918,0.8211911,0.5772388,-0.0008806023,-0.003651737,-0.005397855
0.123469,0.823846,0.5765808,-0.001918446,0.0003201785,-0.00187274
0.1238099,0.8249872,0.5789824,-0.005301532,0.005047454,-0.0001811385
0.1255033,0.821731,0.5801819,-0.00918869,0.006421232,0.00249125
0.1267777,0.8165167,0.5824537,-0.008899708,0.004695578,0.002487592
0.128025,0.81306,0.5793704,-0.005362571,0.002445301,-0.004867275
0.1268361,0.808584,0.5763966,-0.002604393,-0.002036549,-0.005965111
0.1251658,0.8075034,0.5779571,0.003299811,-0.002361231,0.001668137
0.1183322,0.8118114,0.5775924,0.008800895,-0.0003455873,0.008318391
0.113271,0.8157668,0.5748784,0.008074935,-0.002265271,0.007175174
0.1195597,0.8210536,0.572687,0.007072045,-0.001882288,0.002950696
0.1245601,0.8232024,0.5737429,0.007068698,-0.003716982,0.00311791
0.1233879,0.8251675,0.5749353,0.003112952,-0.00671516,-2.643808e-05
0.121552,0.8328004,0.5742174,-0.0001863776,-0.0005901288,0.0004504205
0.1208906,0.8276113,0.5716554,-3.838679e-05,0.003663391,0.004070706
0.123445,0.8175125,0.5685282,-0.00461775,-0.0004562355,-0.004924887
0.1253024,0.8172217,0.5717314,-0.005908419,-0.003051125,-0.009404949
0.1216838,0.8131838,0.5781575,0.0001203293,-0.0007259763,-0.002026078
0.1180179,0.8151979,0.5801882,-0.001277013,0.001557082,0.002506546
0.1211861,0.8212187,0.5799673,-0.001064565,0.001775341,0.001229224
0.1237399,0.8176531,0.5822881,0.002029796,0.002082313,-0.002609658
0.1210275,0.8185566,0.5858401,-0.0007457557,-3.047276e-05,-0.004382367
0.1194145,0.8197153,0.5838669,0.0009512623,-0.001344601,-0.006318786
0.1177086,0.8167693,0.5792524,0.000377575,0.002441863,-0.001094962
0.1178266,0.8151851,0.5788649,-0.002522245,0.004886234,0.007740479
0.1215968,0.8115291,0.5793776,-0.001481396,0.003871102,0.003830337
0.1227169,0.8156497,0.5805085,-0.002522674,0.001981558,0.002518362
0.1219343,0.8244764,0.5837653,-0.001622818,0.0008676891,0.006507445
0.1203332,0.8267478,0.585362,-0.004173943,-0.001634368,0.006375591
0.1189379,0.8264085,0.584247,-0.007845516,-0.007786071,0.007766296
0.12042,0.8231328,0.5807357,-0.005641484,-0.01202053,0.0004976116
0.1212875,0.8199732,0.5776162,-0.006358337,-0.01047439,-0.00886666
0.1204059,0.8190316,0.5763541,-0.006716227,-0.006091227,-0.003175849
0.1189347,0.8167429,0.5746044,-0.004481224,-0.003619284,0.002379496
0.1184645,0.814423,0.5754095,-0.002451691,-0.0002513216,0.0008691945
0.1223711,0.8117377,0.5801456,-1.450017e-05,0.003894481,0.004013917
0.1264706,0.8128441,0.5846139,0.002521903,0.001802262,0.006352165
0.1245378,0.8188598,0.5866468,0.005654949,-9.930039e-05,0.002707433
0.1222069,0.8218317,0.5863579,0.005723502,0.001575324,0.001810041
0.124163,0.8203925,0.5817788,0.004708224,0.001890105,0.002715216
0.1235973,0.8179164,0.5754903,0.003053158,0.002170355,0.00219993
0.1210946,0.81589,0.5763983,2.219216e-05,0.0003196971,0.001698573
0.1208794,0.8106703,0.5769688,0.001190282,-0.003195769,0.0002709309
0.1204438,0.8069972,0.5716651,0.002423375,-0.003024891,0.000675733
0.1213744,0.8142689,0.5722821,0.001512708,-0.002182581,0.003092325
0.122859,0.8201272,0.5706939,0.0007669033,-0.005914506,0.004775083
0.1236597,0.8178298,0.5645284,-0.001580161,-0.007937793,0.003268994
0.1244473,0.8184549,0.5697593,-0.003833271,-0.003531528,-0.0006111499
0.1239266,0.8229315,0.5758101,-0.005389339,1.522136e-05,-0.0008026039
0.1253125,0.8251931,0.5751403,-0.005851089,0.001803068,0.0003071643
0.1257404,0.820087,0.5770276,-0.004498134,0.003349022,4.618553e-05
0.125066,0.8140742,0.5782456,-0.003186648,0.003275868,0.001623862
0.1261331,0.8163789,0.5779664,-0.002961255,0.003095434,0.002383178
0.1210986,0.8171201,0.5786412,-0.002962232,0.000959259,0.0003578092
0.1165499,0.8139251,0.5792761,8.557542e-05,-0.001357867,-0.000842162
0.1216188,0.8153858,0.5795443,0.006495039,-0.003311561,0.0001925473
0.1252134,0.8164972,0.578947,0.0109173,-0.004068167,0.0008132376
0.1213243,0.8171812,0.5801529,0.009181239,0.001220212,0.001783518
0.117638,0.8210234,0.5808892,0.00527265,0.003494016,0.004901963
0.1180776,0.8216284,0.5791979,0.003247818,0.001462591,0.008199347
0.1184529,0.8212133,0.5781164,0.001081666,0.002191071,0.00899604
0.1196456,0.8196205,0.5775673,0.0006866931,0.000739179,0.004643999
0.1222427,0.8121945,0.5788743,0.001057201,0.0007971451,-0.0004372296
0.1234251,0.8094866,0.5809391,-0.001555608,0.002930684,-0.0005651734
0.1260548,0.8130343,0.5827655,-0.002909693,0.001637793,0.002289361
0.1283261,0.8146654,0.5857761,-0.001111018,0.001408075,0.00471726
0.1282628,0.8158172,0.5852968,0.001230521,0.0005536913,0.00307315
0.1246975,0.8163601,0.5787946,0.0009265252,-0.00190787,-0.001478083
0.1164262,0.8160378,0.5723659,-0.0004563539,-0.001859726,-0.004199803
0.113168,0.814345,0.5728026,0.001855624,-0.0009048103,-0.002009341
0.1144596,0.8121301,0.5748052,0.004974666,-0.002024932,0.00517289
0.1138125,0.8161316,0.5729628,0.007145455,-0.005684346,0.01214605
0.1168255,0.8222588,0.5742289,0.006923033,-0.007306686,0.01481043
0.1228477,0.8239631,0.5774007,0.003960442,-0.003006832,0.008545723
0.1264159,0.8252243,0.5781903,0.003597841,0.002368986,0.0006433822
0.1255821,0.8252744,0.5780844,0.001836787,0.0003893712,0.003908934
0.1240034,0.8225858,0.5768665,-0.002995399,-0.003766878,0.004885889
0.1263055,0.8209254,0.5762434,-0.004605835,-0.002588869,-0.0007334065
0.1260353,0.8178502,0.5746863,-0.003603369,-0.002250837,-0.001439367
0.1237224,0.813877,0.5740681,-0.00258383,-0.001956875,-0.001824932
0.1236025,0.8148417,0.575045,-0.002861789,-0.001314747,0.0006930073
0.1215186,0.8162147,0.5737818,-0.002548225,-0.002183714,0.003911361
0.1208663,0.8149589,0.5779506,-0.001142418,-0.0006229084,0.002063158
0.1213073,0.8162456,0.5839869,-0.00101623,-0.001683627,0.004106711
0.1209387,0.8189574,0.5837931,-0.0005417583,-0.003917598,0.003856278
0.1247095,0.8216489,0.5846687,-0.0004936027,-0.00462791,0.00187596
0.1272345,0.8243551,0.585897,-0.0003819393,-0.00556066,0.003997369
0.1243031,0.8222804,0.5863443,4.052686e-05,-0.003655767,0.001254726
0.1206583,0.8193516,0.5859155,-0.002073085,-0.004043641,0.0002446207
0.1193589,0.8209842,0.5781192,-0.003039864,-0.005354565,0.001442933
0.1202657,0.8204349,0.5719323,-0.002744731,-0.006472529,-5.224331e-05
0.1231737,0.8183177,0.5761963,-0.004789292,-0.0113141,0.001251049
0.1279774,0.8188588,0.580928,-0.006010646,-0.01155897,0.001588564
0.1284987,0.8183208,0.5834581,-0.002524138,-0.007261808,0.001854538
0.1249408,0.8193777,0.5867394,0.00330446,-0.002330841,0.001917489
0.1238153,0.8215278,0.5843644,0.004777747,0.002078129,0.001678147
0.1229996,0.8190249,0.5788092,0.003465717,0.0004823373,0.003207991
0.1217155,0.8170251,0.5765231,0.004352555,-0.001673746,-3.419002e-05
0.1206417,0.8182873,0.5767757,0.003600633,-0.0008412,-0.0007098481
0.1204561,0.8183087,0.5785894,-0.001120416,-0.002860307,0.004664554
0.1226505,0.8177557,0.5810014,-0.0054551,-0.004581956,0.00795257
0.1241523,0.8181778,0.5849106,-0.005583493,-0.003383362,0.00752803
0.125347,0.8177611,0.5853819,-0.004320765,-0.002853797,0.002438073
0.1254833,0.8161252,0.5824807,-0.004481714,-0.0008615672,-0.001602207
0.1244991,0.8150265,0.5821184,-0.002632324,0.0001123616,-0.002963762
0.1262373,0.8161053,0.5803476,-0.001697483,-0.003273044,-0.002469722
0.1267909,0.8183756,0.5810418,-0.00406486,-0.003916153,0.0006721874
0.125886,0.8192151,0.5847807,-0.003433845,-0.0002341089,0.0009043662
0.1252062,0.8192746,0.5860147,-0.0008610725,0.00310234,0.000917341
