accx,accy,accz,gyrox,gyroy,gyroz
0.07463273,0.4435051,0.9062794,0.08867579,-0.2149471,0.1496169
0.07811375,0.4402767,0.9067216,0.09868693,-0.209341,0.1512504
0.08064712,0.4382707,0.9100201,0.1065894,-0.1905667,0.1505615
0.08291915,0.4367032,0.9156437,0.1033232,-0.1821226,0.1458435
0.08215511,0.4375273,0.9130847,0.1004215,-0.1845188,0.1434348
0.08115252,0.437642,0.9118949,0.1052614,-0.1974962,0.1401509
0.08280164,0.4351351,0.9119856,0.1047764,-0.213945,0.1379879
0.08261306,0.434883,0.9037078,0.1028599,-0.2093438,0.136207
0.08250028,0.4362682,0.8975701,0.1051269,-0.1808224,0.1339396
0.07923245,0.4382385,0.9000839,0.1049952,-0.1571476,0.1353309
0.07351045,0.4381884,0.9039352,0.1066312,-0.1736495,0.134417
0.07469459,0.4386916,0.9042633,0.1054945,-0.2054177,0.132908
0.07777768,0.4421103,0.9024882,0.1017922,-0.2036662,0.1320412
0.08051115,0.4411634,0.8998135,0.1028925,-0.17812,0.1306366
0.08467953,0.4393896,0.8998653,0.1007985,-0.1539512,0.1349084
0.08306097,0.4409864,0.9065016,0.09700593,-0.1554537,0.1330243
0.08039377,0.4420877,0.9093435,0.09629179,-0.1702404,0.1271012
0.08275394,0.4434447,0.9067729,0.09595368,-0.1641707,0.1300196
0.08315375,0.4428838,0.9067741,0.09913813,-0.1629879,0.1267773
0.08287451,0.4398578,0.9038972,0.1008888,-0.1640772,0.1187165
0.08351043,0.4381572,0.9020839,0.09704721,-0.1546561,0.1160162
0.08025101,0.4377253,0.9024147,0.08983968,-0.1535847,0.1149322
0.07895351,0.4376289,0.8961224,0.07593619,-0.1402294,0.1186403
0.0828825,0.4373028,0.897642,0.07034597,-0.1286803,0.1187642
0.0859271,0.4374809,0.9149936,0.08152898,-0.1344705,0.1150488
0.08442939,0.4368294,0.925612,0.08529359,-0.1380072,0.1152266
0.08020149,0.4327873,0.9103117,0.08067112,-0.1460322,0.1073352
0.07857677,0.4301956,0.8917573,0.08193983,-0.1385893,0.1031961
0.07877062,0.4345565,0.8993406,0.08509675,-0.1108793,0.1140355
0.07846198,0.4397158,0.9028915,0.08683435,-0.09942694,0.11757
0.07772327,0.4373646,0.8947123,0.0807065,-0.129888,0.1108328
0.07739796,0.4338141,0.9088857,0.0727092,-0.1750969,0.1069573
0.07920764,0.4325866,0.9191511,0.07535889,-0.1655711,0.1083773
0.07970957,0.4293241,0.9109939,0.07702647,-0.1344036,0.1098934
0.08085883,0.4300942,0.9072747,0.07408348,-0.1307246,0.1076097
0.083754,0.4317933,0.9029512,0.0717908,-0.1266154,0.1057906
0.08329093,0.430632,0.9044154,0.07047027,-0.1371256,0.1035319
0.0821176,0.4361717,0.9130341,0.08199643,-0.1527354,0.09988164
0.08087759,0.4402375,0.916071,0.09630864,-0.1504934,0.0975574
0.08022183,0.4352196,0.9139251,0.09005849,-0.1436842,0.09624153
0.08174121,0.4316333,0.9077203,0.08200986,-0.1193937,0.09818701
0.08123792,0.4332391,0.9060836,0.08501928,-0.1067027,0.09940517
0.07754821,0.4342924,0.9083892,0.08080905,-0.1267943,0.09681467
0.0744275,0.4326188,0.9115278,0.07520702,-0.1438365,0.09316688
0.07906621,0.4338616,0.915488,0.07524265,-0.1408794,0.08926702
0.08543635,0.4360637,0.9106244,0.07809802,-0.1221446,0.09142496
0.08303694,0.435447,0.9060967,0.08369454,-0.1126167,0.09488589
0.08055629,0.4361577,0.907658,0.07479826,-0.1157649,0.09081288
0.08089763,0.4382483,0.9085759,0.06314288,-0.1180913,0.08672112
0.08000052,0.4402296,0.9113492,0.0693164,-0.1190054,0.08412167
0.08045093,0.439605,0.9115061,0.07523492,-0.1145857,0.08214535
0.07896277,0.4397395,0.9095797,0.07753677,-0.1150931,0.08235857
0.07679168,0.4410961,0.909859,0.07949413,-0.1187573,0.07989182
0.07795596,0.4374865,0.9091267,0.07738481,-0.1219706,0.07830118
0.07857975,0.435868,0.9077038,0.07940604,-0.1214451,0.07956137
0.08031457,0.4354615,0.9047082,0.08188654,-0.1068618,0.07928711
0.08402463,0.4329036,0.9031484,0.07648883,-0.09084081,0.07939667
0.08549387,0.4308483,0.9055418,0.0690916,-0.07691202,0.0773735
0.08799728,0.4269978,0.9092047,0.06877015,-0.0737844,0.07273082
0.09058782,0.4305307,0.9148801,0.06845904,-0.08011053,0.07082297
0.08440145,0.4359988,0.9158377,0.06256193,-0.08167497,0.07056868
0.07484435,0.4326959,0.9084979,0.05546644,-0.08460641,0.07208736
0.07344602,0.4331925,0.9025534,0.04774453,-0.06523245,0.07353947
0.07450316,0.4371226,0.9029531,0.05302784,-0.04300279,0.0713201
0.07148978,0.4388178,0.9087014,0.06072497,-0.0690642,0.06918502
0.07031623,0.4402974,0.9138887,0.05325873,-0.09630309,0.06811838
0.07299527,0.43916,0.9125924,0.05248284,-0.08814256,0.06693589
0.07527869,0.4373095,0.9093314,0.05375194,-0.08317032,0.06609677
0.07541518,0.4349861,0.9067464,0.04635539,-0.08709807,0.06494924
0.07600375,0.4313604,0.9037209,0.04273876,-0.0813722,0.06394044
0.07856136,0.4297974,0.9054305,0.04354561,-0.07653256,0.06291471
0.07964946,0.4306543,0.9137089,0.05219493,-0.07888492,0.06171327
0.07820483,0.4316718,0.9190804,0.05996154,-0.08947018,0.06038497
0.07709983,0.4307399,0.9115263,0.05883432,-0.1008717,0.05922063
0.07660141,0.428518,0.9011875,0.05802275,-0.08136138,0.05961312
0.07453371,0.4277201,0.9035095,0.05710813,-0.05559972,0.05965247
0.0725529,0.4303084,0.905451,0.05495309,-0.06677902,0.05645964
0.07280956,0.4332062,0.899781,0.05065619,-0.08760275,0.05368545
0.07302952,0.4318125,0.9016011,0.0482753,-0.09683324,0.05400721
0.07530446,0.4303707,0.9072961,0.05387352,-0.0875625,0.05364793
0.0785329,0.4310534,0.9104901,0.05877504,-0.0666916,0.05328701
0.07458879,0.431158,0.9140961,0.05719045,-0.0719606,0.05215206
0.07007598,0.432419,0.9147761,0.0534302,-0.08595562,0.04888579
0.07249861,0.4328288,0.913295,0.05194187,-0.08610111,0.04931653
0.07302573,0.4316347,0.9101204,0.05273773,-0.08173755,0.04944919
0.07136929,0.432246,0.9073812,0.0570311,-0.06647725,0.04675763
0.07258653,0.4334491,0.9071723,0.06169138,-0.064792,0.04583059
0.07237215,0.4338225,0.906352,0.05785895,-0.07755331,0.04389203
0.07198945,0.4330688,0.9076746,0.0520899,-0.08132407,0.04443686
0.07331991,0.4331131,0.9094548,0.05124368,-0.08517699,0.04652001
0.07228014,0.4336308,0.9086311,0.0526413,-0.07290625,0.043769
0.06931529,0.4315311,0.9069231,0.05303887,-0.05672305,0.04138416
0.06891816,0.4290471,0.9065994,0.04814623,-0.05810405,0.03955752
0.07674499,0.427464,0.9112171,0.04758056,-0.05328119,0.03739605
0.08449224,0.4295913,0.9134523,0.05696145,-0.04922108,0.03695219
0.07806471,0.4346326,0.9099533,0.06116758,-0.05250177,0.03453363
0.07119516,0.4352819,0.9068464,0.04772689,-0.05265598,0.0317265
0.07406746,0.434869,0.90356,0.03283913,-0.04374043,0.03230783
0.07179678,0.4365958,0.902108,0.04251545,-0.03177253,0.03651554
0.06614348,0.4378797,0.9033276,0.05146304,-0.04144797,0.040666
0.06584544,0.4377584,0.9055797,0.0399347,-0.06389423,0.03866694
0.068501,0.4353286,0.9073059,0.0383521,-0.07797316,0.03563522
0.07408331,0.4319113,0.9043398,0.04150255,-0.069488,0.03635047
0.07481061,0.4269503,0.9017186,0.03711858,-0.04956156,0.03442405
0.07126159,0.4252113,0.9045471,0.03610736,-0.05140011,0.03152499
0.07244788,0.4290065,0.9099758,0.03259167,-0.05348736,0.03027214
0.07108533,0.4295543,0.9150999,0.03391593,-0.05367132,0.02765957
0.06820651,0.4279877,0.9172382,0.04409001,-0.07362056,0.02720981
0.06885506,0.427655,0.9150527,0.05060451,-0.08875792,0.02614828
0.07106488,0.4278645,0.9081704,0.05119566,-0.08923973,0.02380468
0.0751666,0.4299389,0.9011058,0.04980125,-0.06707875,0.02708067
0.07352787,0.4309164,0.9014375,0.05240232,-0.04697636,0.0281691
0.06961062,0.4301331,0.9042478,0.049685,-0.07186083,0.02360426
0.06969054,0.4277578,0.901421,0.04387488,-0.09061634,0.02080928
0.06951648,0.4258078,0.9007583,0.04768787,-0.07064746,0.02015178
0.07329767,0.4292081,0.9047224,0.04814062,-0.05422223,0.02022521
0.07643599,0.4354552,0.9068514,0.04650517,-0.0536998,0.01822112
0.07471426,0.4390903,0.9092892,0.04606286,-0.05887725,0.01504372
0.07481457,0.4374101,0.9091362,0.04073365,-0.06307435,0.01410877
0.07585451,0.4345578,0.9086585,0.0396348,-0.05515911,0.01666564
0.07856799,0.4339334,0.9107662,0.03803213,-0.04354287,0.02296798
0.08056857,0.4331966,0.9077567,0.03687063,-0.04757755,0.02450874
0.07553388,0.4350016,0.9074987,0.04317739,-0.05616513,0.02046268
0.0706539,0.4371521,0.9105494,0.04547223,-0.06222385,0.01846128
0.07536604,0.4356778,0.9090446,0.04391633,-0.0687546,0.01651556
0.08038974,0.4348076,0.9089571,0.04521996,-0.0630504,0.01495868
0.07716314,0.4340697,0.9079859,0.05034339,-0.05692352,0.01613962
0.07658519,0.4336188,0.9057406,0.05133751,-0.05485778,0.01625309
0.0771765,0.4351713,0.9039286,0.04181594,-0.04795737,0.01407783
0.07404202,0.4344372,0.8988423,0.03611273,-0.04443804,0.01330004
0.07668317,0.4316024,0.8959273,0.03824312,-0.03752235,0.01209498
0.07913894,0.430003,0.8961534,0.04885338,-0.03310901,0.007144834
0.07684054,0.4304075,0.8958188,0.06216181,-0.04390809,0.004147401
0.07597179,0.4324505,0.894265,0.04628789,-0.05285154,0.005794525
0.074335,0.4347678,0.8913352,0.02514901,-0.04045219,0.01125668
0.07296254,0.4368138,0.8918125,0.03629473,-0.01823825,0.01612188
0.07257342,0.4367446,0.9006719,0.0388687,-0.01868535,0.01382676
0.07126849,0.4367896,0.91051,0.02751631,-0.04219572,0.01157611
0.07319574,0.4408118,0.9069146,0.02943634,-0.05914768,0.01094248
0.08106149,0.4415214,0.9006301,0.0253185,-0.04106225,0.007263784
0.08695503,0.4348672,0.903501,0.02128111,-0.0129295,0.006733781
0.08143132,0.4292463,0.9017007,0.02147192,-0.01649923,0.006406535
0.07630676,0.4307652,0.9020977,0.0146795,-0.01393925,0.004079601
0.08010733,0.4343583,0.9114254,0.01955902,-0.007427629,0.0068186
0.0796263,0.4332577,0.9124698,0.02479079,-0.02531955,0.008727101
0.07711148,0.4327904,0.9039267,0.0186938,-0.02266147,0.007326043
0.07836787,0.4344178,0.8957263,0.01795896,-0.001601394,0.008007097
0.07672235,0.4346153,0.8972358,0.0170849,0.01412577,0.006697994
0.07410402,0.436907,0.9020618,0.009961165,0.01121152,0.006288166
0.07158652,0.4375419,0.9015244,0.003164788,-0.01596841,0.008572344
0.07214495,0.4368479,0.9053285,0.003935811,-0.02194098,0.007609562
0.07788639,0.437718,0.9043599,0.006841408,-0.00684381,0.009890825
0.07988385,0.4344975,0.900643,0.004096777,0.005367262,0.01334505
0.07771117,0.4322944,0.9094863,0.004474921,0.00337649,0.01053712
0.07317395,0.4337328,0.9137888,0.001262944,-0.01002082,0.008505985
0.06812876,0.4343141,0.9117692,-0.007279453,-0.004730796,0.0086818
0.06806076,0.4353341,0.9114099,-0.007121338,-0.002715103,0.009975647
0.07073962,0.4365243,0.9086372,-0.006710184,-0.001899171,0.01031973
0.07306655,0.4379097,0.9084104,-0.007114102,0.006155625,0.007311426
0.07128227,0.437871,0.907458,0.0002536921,-0.007139111,0.007809884
0.06822791,0.4364066,0.9103753,0.005999116,-0.01665122,0.008382097
0.07043248,0.4344201,0.9166983,0.004211553,-0.02029363,0.006670092
0.07389422,0.4289696,0.9131659,0.001882373,-0.0156817,0.008132513
0.07512383,0.4261184,0.9113942,0.003027458,-0.002106977,0.007496959
0.07073536,0.4277244,0.9132731,-6.421847e-05,-0.01160627,0.006747172
0.06726617,0.4254353,0.9119787,-0.007542664,-0.01044124,0.008030471
0.07539888,0.4228344,0.9140741,-0.009123522,0.008711258,0.006644833
0.08147322,0.4262353,0.9183186,-0.000281616,0.02427603,0.005031193
0.07455484,0.4287066,0.92143,0.01128042,0.03417242,0.0006817185
0.06584523,0.4249314,0.9159489,0.006822062,0.02498567,-0.002125254
0.06430084,0.4225787,0.9085236,-0.0002033301,0.02372765,0.002102485
0.06640753,0.4260142,0.9128003,0.005775834,0.02700091,0.003419656
0.06710213,0.4294808,0.9164607,0.002414005,0.01128993,0.001356996
0.06741078,0.4312657,0.9162868,-0.002296504,-0.003741103,0.0007834785
0.06995085,0.4322952,0.9160101,-0.0003784616,-0.01112334,0.0004694654
0.07314713,0.4305955,0.9109883,-0.004502968,-0.007631048,-0.0006493582
0.07094287,0.4272791,0.9066857,-0.004306033,-0.003022556,-0.002163778
0.06777621,0.4255049,0.9047613,-0.008268489,-0.0009662878,-0.0002778595
0.07031343,0.4252023,0.9070334,-0.01483731,0.007821461,0.001828737
0.07110955,0.4242096,0.9163049,-0.004582632,0.002176623,3.085377e-05
0.06989847,0.4232252,0.9232768,0.008577841,-0.02201396,-0.00199192
0.07015553,0.4245134,0.9203394,0.0131112,-0.04004986,-0.003338175
0.06906726,0.4254245,0.9109974,0.009921482,-0.02315312,-0.004140528
0.0664764,0.4238935,0.9076921,0.005832112,0.006881863,-0.004474393
0.06385544,0.4232361,0.9144213,0.005572833,-0.001447592,-0.005176061
0.06605796,0.4237254,0.9210797,0.002558238,-0.01746902,-0.005440748
0.06982058,0.4236323,0.920903,0.001147408,-0.01799034,-0.005240806
0.07047939,0.4239469,0.9179625,0.001808446,-0.01421218,-0.004380849
0.06999069,0.4253828,0.9159643,0.002641539,0.0007179399,-0.003964679
0.06637096,0.4267778,0.9124267,0.004635094,-0.004054609,-0.003857687
0.0648553,0.425717,0.9129358,0.002258897,-0.01583684,-0.002184028
0.06442332,0.4242647,0.9137815,0.001702491,-0.01121289,-0.001995179
0.06296878,0.4251626,0.9093665,0.004732023,-0.01434116,-0.003113755
0.06752706,0.4245275,0.9120827,0.004709309,-0.008452646,-0.003805727
0.06903458,0.4211015,0.9139584,0.003265795,-0.005694676,-0.007873811
0.06736617,0.4196205,0.9116695,0.000147966,-0.01482469,-0.01105102
0.06931615,0.424364,0.9159733,-4.931259e-05,-0.008988516,-0.008389982
0.07121691,0.4301309,0.9173797,0.005490441,-0.008340629,-0.006390519
0.07465442,0.4276252,0.9165319,0.007966549,-0.007079546,-0.008373031
0.07284936,0.4235741,0.9167829,0.009240498,-0.001883279,-0.009719726
0.0679134,0.423907,0.9162642,0.009890491,-0.013323,-0.009083224
0.06848056,0.4231648,0.9163304,0.000849851,-0.01994723,-0.01087106
0.06949568,0.4237818,0.9118053,-0.003414975,-0.01205994,-0.01293583
0.07096893,0.4250271,0.9083711,-0.0003012917,-0.002082501,-0.01134248
0.068683,0.4246005,0.9100932,-0.01103039,0.0007846253,-0.0106838
0.06644758,0.4255209,0.9128781,-0.01442249,0.007113996,-0.01135586
0.07513217,0.425004,0.9146962,0.001400891,0.0275433,-0.01100969
0.08083643,0.4255929,0.913764,0.007312245,0.03574762,-0.01066139
0.07303874,0.426339,0.9135801,0.00131052,0.0205378,-0.01036358
0.06522032,0.421517,0.9131307,-0.004301574,0.01071591,-0.009906871
0.06780702,0.4186212,0.913167,-0.001666427,0.03020947,-0.007146288
0.06899299,0.4218348,0.9179304,0.001254898,0.0449419,-0.003458106
0.06308861,0.4251268,0.9224636,-0.00559446,0.01888323,-0.00362934
0.06196101,0.4240882,0.9224393,-0.008459862,-0.008463327,-0.005128507
0.06423892,0.4243794,0.9239599,-0.01143321,-0.007549773,-0.004482993
0.06760659,0.426775,0.9290507,-0.012203,0.005423341,-0.00491308
0.07103164,0.4209823,0.9251129,-0.005427597,0.01362003,-0.00663072
0.06955043,0.4156156,0.9191723,-0.006076996,0.008205761,-0.006762867
0.07074751,0.4183175,0.923137,-0.005084013,0.003045292,-0.006211448
0.0728182,0.419132,0.9222261,-0.0005701978,0.00284714,-0.005328454
0.06918581,0.4189017,0.9172247,0.002445141,-0.008435221,-0.006353774
0.06608428,0.4196817,0.9154627,0.004410564,-0.01910998,-0.009980303
0.06629399,0.4179523,0.9133363,0.0007021149,-0.007100246,-0.0114258
0.06679612,0.4175517,0.9141424,0.002871141,0.01185967,-0.0101902
0.06452526,0.4205013,0.9147814,0.004329916,0.01296321,-0.008675199
0.06227122,0.4214161,0.9169067,0.0005456583,-0.000412616,-0.00929337
0.06237649,0.4204985,0.920098,-0.001588152,-0.009796041,-0.009995018
0.06337155,0.4210159,0.9141183,-0.008214989,0.002631672,-0.007731953
0.06711788,0.4205807,0.9086461,-0.006446809,0.02017114,-0.00558322
0.07069067,0.4198755,0.9115639,-0.002109456,0.0152143,-0.0039225
0.06977399,0.4195549,0.9138494,-0.006160913,0.005288815,-0.006012368
0.06767677,0.4199587,0.9137331,-0.003518465,0.002002643,-0.01150679
0.06789964,0.4211814,0.9135756,-0.0005422049,0.001906435,-0.01275939
0.06706722,0.4189708,0.9112551,-0.0001136856,0.007606129,-0.01241273
0.06401592,0.4171696,0.9087963,0.0004220648,0.004022091,-0.01120374
0.06266381,0.4182742,0.9112903,-0.002749356,-0.004320801,-0.009159114
0.06252955,0.4178139,0.9156887,-0.001237405,-0.006201929,-0.01026176
0.0646164,0.4161516,0.9182731,0.0001046777,-0.003982496,-0.01084543
0.06759297,0.4152826,0.91927,-0.001343997,0.005334302,-0.01146392
0.06662917,0.4177791,0.9189419,0.0007395941,0.006453554,-0.01219395
0.06475789,0.4206764,0.9157538,-1.372059e-05,0.0007583554,-0.01001192
0.06542437,0.4191381,0.9059083,-0.00343463,0.0007129934,-0.009838736
0.06841246,0.4174155,0.9007049,-0.004183143,-0.001409701,-0.01145507
0.07040905,0.4183544,0.9068327,-0.00396416,-0.003686544,-0.01147693
0.07029803,0.4199045,0.9101526,-0.009087972,-0.008002685,-0.01264382
0.07039916,0.4207356,0.9098856,-0.01555154,-0.007819395,-0.01351637
0.06831167,0.4207612,0.907492,-0.01230927,-0.0006904699,-0.01157173
0.06731049,0.4202098,0.9058297,-0.007697703,0.003639039,-0.01067419
0.07444728,0.4173185,0.9160231,-0.004611452,0.02106675,-0.01224965
0.08114224,0.4140275,0.9262171,0.005643282,0.03677473,-0.01288209
0.07416146,0.4151513,0.9261762,0.01119723,0.02420396,-0.01237112
0.06533571,0.4173625,0.9145015,-0.002436035,0.009126053,-0.01397501
0.06765947,0.4183772,0.9009954,-0.01668685,0.01486264,-0.01362786
0.06577238,0.420979,0.9123706,-0.003114703,0.03559784,-0.006848169
0.05827139,0.421474,0.9264187,0.00930234,0.04565112,-0.005183965
0.05780174,0.4202221,0.9200413,-0.008384672,0.01409431,-0.01306208
0.06099434,0.4205612,0.9162478,-0.01776964,-0.02363741,-0.0172551
0.06812091,0.4182395,0.9135807,-0.010561,-0.006181643,-0.01372621
0.07430281,0.4152128,0.9119754,-0.008119433,0.0162093,-0.009566052
0.07002875,0.4148465,0.9160722,-0.005606499,0.004728431,-0.01092751
0.06578984,0.4136227,0.9153004,-0.01050723,0.00924958,-0.01457634
0.06887007,0.4123003,0.9211723,-0.01577798,0.009971427,-0.01381826
0.07067751,0.4117483,0.9274271,-0.002555538,0.0007366585,-0.01219676
0.07036084,0.4110609,0.9190242,0.008608983,0.001764358,-0.0120527
0.07115415,0.4131084,0.911374,0.0003728731,-0.009237755,-0.01061465
0.06850089,0.4167786,0.9107292,-0.006267591,0.004891279,-0.01068647
0.06512052,0.418234,0.9137863,-0.001252674,0.02505253,-0.0135961
0.06432206,0.4188466,0.916842,-0.002549525,0.004242427,-0.01471383
0.06329151,0.4187358,0.915962,-0.006503616,-0.007886836,-0.01392584
0.06408805,0.4168337,0.9164965,-0.004805126,-0.005070754,-0.0133336
0.06431551,0.4161832,0.9179606,-0.005992446,-0.00027146,-0.01257836
0.06464842,0.4168823,0.9198139,-0.00554372,0.006822176,-0.01292532
0.06780122,0.4167079,0.9233893,-0.006176766,-0.003495502,-0.01289041
0.06847058,0.4167184,0.9217542,-0.00913138,-0.009906255,-0.01139902
0.06764979,0.417642,0.9157997,-0.005384249,0.004174154,-0.01036879
0.06623577,0.4181507,0.9131599,-0.003665956,0.01637652,-0.0101049
0.06443896,0.4165022,0.9155465,-0.004949308,0.00984521,-0.01006067
0.06442591,0.4126665,0.9197016,-0.003814456,-0.003628988,-0.009055597
0.06432014,0.4103545,0.9184914,-0.002873508,-0.007772716,-0.009723785
0.0663538,0.4126942,0.9107555,-0.0007159194,0.001053884,-0.01198329
0.06856569,0.4150988,0.9051882,9.741725e-05,0.01811227,-0.01208657
0.06558407,0.4133493,0.9077873,-0.003374409,0.01726905,-0.01091095
0.06246683,0.4116237,0.9118586,-0.007617174,0.002859827,-0.008600646
0.0638832,0.4116454,0.9099183,-0.006000156,-0.002697545,-0.00924009
0.06481554,0.4135007,0.9113335,-0.0007867896,-0.005714778,-0.0138888
0.06412175,0.4173216,0.9160435,0.001691202,-0.00202821,-0.01514141
0.06554194,0.417334,0.9126016,0.001592196,0.00219479,-0.01258371
0.06477936,0.4157853,0.9086244,-0.005014565,0.001889315,-0.008477296
0.06292751,0.4171472,0.9066862,-0.008821231,0.003860147,-0.005945493
0.06445295,0.4163543,0.9056163,-0.007187857,0.001886915,-0.006892238
0.0652538,0.4139597,0.9087611,-0.01947861,0.008867672,-0.007312981
0.06698764,0.4116434,0.9093638,-0.02907305,0.02209357,-0.00886956
0.06870167,0.4112649,0.9119161,-0.01300318,0.03509663,-0.01159622
0.06570111,0.4157297,0.9162962,0.001333026,0.04919597,-0.01086738
0.06267791,0.416289,0.9169916,-0.008397861,0.03529101,-0.01116079
0.06207849,0.4132062,0.9182394,-0.01573833,0.01814827,-0.01181512
0.06250788,0.4140606,0.9150716,-0.008106851,0.03128576,-0.004035918
0.06202577,0.4140387,0.9131769,-0.01032945,0.0342189,0.002197916
0.05870483,0.4135218,0.9149549,-0.01740807,0.01733303,-0.002793435
0.05646055,0.4146463,0.9135157,-0.01808257,0.005133866,-0.005991928
0.05998174,0.4150648,0.9169925,-0.01884958,0.001448623,-0.003898217
0.06619819,0.4150914,0.9202421,-0.01263819,0.009314499,-0.003886786
0.06707609,0.4117674,0.918636,-0.008433675,0.0163882,-0.00474241
0.06267346,0.4089592,0.9170505,-0.01027435,0.01180813,-0.006502279
0.06048399,0.4109724,0.9152293,-0.008492629,0.009626547,-0.01058943
0.06354614,0.411472,0.9204388,-0.006436791,0.007175921,-0.01294528
0.06681391,0.4108639,0.925511,-0.0009245646,-0.004454902,-0.01246109
0.06522716,0.4112956,0.9204967,0.001175222,-0.01032191,-0.0151939
0.06411778,0.4109653,0.9159303,-0.001985878,0.003211113,-0.01713462
0.06375131,0.4110047,0.9168066,-0.001715358,0.02402116,-0.01047209
0.0589602,0.4102515,0.9188544,-0.003403166,0.02312934,-0.005761863
0.05746103,0.4095025,0.9193556,-0.004002438,0.005963919,-0.01135744
0.06086523,0.4106687,0.9173767,-0.006159134,0.001491444,-0.01634067
0.06251675,0.4114662,0.9132041,-0.01064817,0.01287744,-0.01357609
0.06247253,0.4113382,0.9115631,-0.007379347,0.0258335,-0.01197463
0.060552,0.4116217,0.9138263,-0.005414117,0.01934617,-0.01206185
0.05961635,0.411993,0.9142364,-0.007802097,0.006680882,-0.008359753
0.0624332,0.4108229,0.9142797,-0.008138569,0.008320524,-0.008806569
0.06488155,0.4097378,0.9167783,-0.008336411,0.008339959,-0.01037602
0.06359934,0.4097441,0.919701,-0.005806686,0.01117941,-0.007731468
0.06051721,0.4085866,0.9201754,-0.0006974172,0.01178242,-0.008890753
0.05949618,0.408073,0.9187815,0.0003180926,0.001686331,-0.01074714
0.06055918,0.4088158,0.9196121,-0.002650164,0.0004037113,-0.01138921
0.06230847,0.4101964,0.92008,-0.004581657,0.002430676,-0.01265328
0.06211584,0.4126509,0.9207723,-0.004008336,0.006259862,-0.01168868
0.06038802,0.4127607,0.9231398,-0.0007117008,0.007935535,-0.01132019
0.06154654,0.4110705,0.9214088,0.004279203,0.001639388,-0.008623219
0.0632066,0.4100732,0.9166957,0.00778002,0.001871123,-0.003495247
0.06386509,0.4090171,0.9116952,0.008016994,0.0004510121,-0.003522208
0.06348992,0.4079515,0.9101048,0.005437056,-0.0005581318,-0.007532316
0.06117741,0.4069339,0.9144559,-0.0009737727,0.00159719,-0.01061817
0.05984951,0.4083331,0.9169129,-0.01080043,-0.0001278218,-0.008784557
0.05886877,0.4107749,0.9176026,-0.01008721,0.006560637,-0.005582976
0.06195142,0.4097405,0.9201831,-0.000746761,0.02086414,-0.005483869
0.06757335,0.4089779,0.9197285,-0.00109107,0.03109607,-0.004674394
0.06442761,0.409697,0.9178661,-0.003249937,0.01280607,-0.005061125
0.05853675,0.4098577,0.9180921,-0.00903704,-0.01212848,-0.007681707
0.05664098,0.4124662,0.9184233,-0.01646863,0.007270257,-0.008087527
0.05686241,0.414208,0.9199211,-0.002034427,0.02655593,-0.005039194
0.05947378,0.4126048,0.922414,0.008156273,0.01515493,-0.002086007
0.05849181,0.4123857,0.9224338,-0.005872163,-0.004534272,-0.006451883
0.05840917,0.4121966,0.9210205,-0.01326572,-0.02664804,-0.01109796
0.06468748,0.410032,0.920818,-0.004448002,-0.01180676,-0.006699043
0.06769953,0.4067258,0.9220521,0.002761178,0.01386575,-0.002967905
0.06616992,0.4048708,0.9243759,-0.0007278686,-0.002725714,-0.004127496
0.06476811,0.4085492,0.9252692,-0.002827603,-0.007376015,-0.006140025
0.06689788,0.4119768,0.923161,-0.001054715,-0.003978436,-0.008669319
0.06890719,0.4109217,0.921453,0.0009795095,-0.02351081,-0.009860807
0.06480808,0.4098278,0.9220145,0.007381838,-0.02050144,-0.009978544
0.06288284,0.4088839,0.9211804,0.006458177,-0.009525276,-0.009334396
0.06379562,0.4086222,0.9181263,0.005587447,-0.002819619,-0.008713794
0.06174582,0.4092044,0.9184437,0.01062008,0.01228806,-0.008404665
0.0592418,0.4082607,0.9217165,0.004113956,0.001093525,-0.007084037
0.05949912,0.4077339,0.9207459,-0.001547878,-0.01231413,-0.008270147
0.0643312,0.4077821,0.9164106,0.00114079,-0.0009550716,-0.008970597
0.06706694,0.406645,0.9145025,0.0007864941,0.008171491,-0.006848427
0.06578397,0.4069873,0.9152776,1.888819e-05,0.01339431,-0.007140726
0.06530262,0.4093561,0.9168912,7.273417e-06,0.001298456,-0.0070051
0.06558354,0.4109452,0.918832,0.000670257,-0.01840903,-0.006553699
0.06702355,0.4115034,0.920783,0.003203027,-0.006411396,-0.007283158
0.06737121,0.4110791,0.9210095,0.005760628,0.004678752,-0.007323159
0.06833688,0.4108372,0.918734,0.005555879,-0.006016331,-0.01139232
0.06962873,0.4110671,0.9179932,0.003837272,-0.009987319,-0.0157194
0.0688748,0.4091838,0.9207959,0.004959959,-0.01364425,-0.01421036
0.06943626,0.4078797,0.9224623,0.005895226,-0.008270497,-0.01106636
0.06639359,0.4096032,0.9181861,0.008332625,0.007091351,-0.008010246
0.06215316,0.4119542,0.9113458,0.0128352,-0.000669113,-0.006531523
0.06253916,0.4130864,0.9119151,0.01174483,-0.009522179,-0.008336732
0.06344067,0.4124353,0.9214703,0.01104169,-0.01193848,-0.008649212
0.06581924,0.4121046,0.9288526,0.01377315,-0.02344776,-0.00608714
0.06830806,0.411299,0.9234736,0.01237939,-0.02007812,-0.002890047
0.06918322,0.4080398,0.9119088,0.008789485,-0.01790804,-0.0005358767
0.06651927,0.4056723,0.9059956,0.002339677,-0.02177559,-0.003108345
0.06300605,0.4050962,0.9032307,-0.001939021,-0.0007784473,-0.003559779
0.06920965,0.4040772,0.907294,0.01155173,0.01355768,-0.0005155328
0.07438493,0.4033014,0.9197911,0.02516189,-0.008309881,-0.003957511
0.06917735,0.4034675,0.9261163,0.01514312,-0.03228357,-0.005595284
0.06677508,0.4046541,0.923818,0.007154874,-0.02321383,-0.006150858
0.07028151,0.4090695,0.9204649,0.01517845,0.00471737,-0.00608479
0.07109011,0.4133912,0.9226012,0.01574945,0.01777103,-0.0006460564
0.06691578,0.4138909,0.9247989,0.01233665,0.001633634,-0.005403359
0.06453964,0.4146916,0.9193342,0.0131462,-0.02362318,-0.0093896
0.0682507,0.4156103,0.9178928,0.009823173,-0.01653179,-0.00540379
0.07259611,0.4161803,0.9190116,0.009843871,-0.001869691,-0.006934462
0.07224556,0.4147102,0.9158087,0.01052185,-0.006530073,-0.00570741
0.06903309,0.4099525,0.9121985,0.004156934,-0.002212689,-0.005647172
0.06796882,0.4106519,0.9089829,0.003466619,-0.00595853,-0.009095585
0.07068178,0.4121852,0.9186468,0.01293845,-0.01537475,-0.009817241
0.07413772,0.4101817,0.9306514,0.02194472,-0.02208005,-0.01102299
0.07343422,0.4115159,0.9198338,0.01934876,-0.03913467,-0.008504356
0.07204497,0.4116186,0.9081762,0.01439573,-0.02496271,-0.005269268
0.07424201,0.4123918,0.9128579,0.01745874,-0.004971362,-0.00471688
0.07359522,0.4148334,0.9179816,0.01464572,-0.01617201,-0.005381013
0.07114029,0.4128021,0.9215791,0.01124521,-0.01948326,-0.006056641
0.07152198,0.4122825,0.9213342,0.01433148,-0.01848854,-0.004334408
0.0740327,0.41455,0.9164598,0.01279136,-0.01297924,-0.003593988
0.07703142,0.4157824,0.9182528,0.01274778,0.0006305255,-0.002558124
0.073337,0.4156808,0.9183821,0.01370087,-0.002346983,-0.005079252
0.06890374,0.4156865,0.9141319,0.01152695,-0.004422504,-0.01008816
0.07370468,0.417245,0.9136489,0.009314642,0.005153838,-0.006889894
0.07851891,0.4166163,0.9115414,0.003337115,0.01248937,-0.002651277
0.07919728,0.4153051,0.9111096,0.0006915262,0.01992142,-0.001431753
0.07750922,0.4152475,0.9135322,0.002314287,0.0215832,-0.001259811
0.07347031,0.4140979,0.9157602,0.001109842,0.01632231,-0.00303916
0.07300066,0.4134037,0.9179694,-0.001430594,0.01691569,-0.003083501
0.07429931,0.4115588,0.9155989,-0.003715006,0.01799975,-0.00372941
0.07405668,0.4083748,0.9149403,-0.002237653,0.0186439,-0.002445912
0.07444223,0.408742,0.9185096,-0.001122435,0.02451944,0.001746286
0.07335111,0.4122094,0.9221468,-0.002301784,0.02676798,0.003595667
0.07223698,0.4137308,0.9218663,-0.004128849,0.02782812,0.004211115
0.07368548,0.4134519,0.9162402,-0.01317508,0.03355059,-0.0004870157
0.07818319,0.4143891,0.9174,-0.02033823,0.04305499,-0.005339154
0.08304721,0.4142545,0.9227398,-0.01697189,0.04685325,-0.002914979
0.07839689,0.4151834,0.9256374,-0.01393853,0.02895654,-0.00238591
0.07153345,0.4178016,0.9247489,-0.01604611,0.0114719,-0.00361948
0.07362737,0.4165655,0.9142763,-0.01564478,0.02517099,-0.002100722
0.07222665,0.4161512,0.9079763,-0.01008226,0.05409595,0.0008865102
0.06647184,0.4167433,0.9110139,-0.008921361,0.06628617,0.005176635
0.06401366,0.4134159,0.9155578,-0.01601823,0.04505902,0.0057132
0.06209701,0.4106927,0.9194637,-0.02343603,0.01010475,0.001238926
0.06672866,0.4096102,0.9195538,-0.02181032,0.006311631,-0.001463068
0.07178411,0.4087931,0.9212644,-0.01658492,0.02544592,0.0002848974
0.06764617,0.4082976,0.9219968,-0.01868717,0.0330838,0.001710742
0.06535955,0.4089421,0.9224865,-0.02015998,0.03580364,0.001064974
0.0656514,0.4104299,0.9266291,-0.01952704,0.03281771,0.0003228057
0.0657988,0.4095899,0.9250345,-0.01453635,0.02233593,-0.001780408
0.0682973,0.4094346,0.9239544,-0.003886122,0.01118057,-0.002673218
0.06831006,0.4103131,0.924453,-0.0057466,0.004460821,-0.001300083
0.06722501,0.4103044,0.9190825,-0.008213134,0.02459608,-0.0008548653
0.0648994,0.4118493,0.9139685,-0.004458694,0.04071304,0.00142679
0.05933312,0.413089,0.9131119,-0.01104214,0.01858596,0.003040765
0.0582529,0.413314,0.917354,-0.01399508,0.0001135401,0.000226034
0.06478578,0.4108454,0.919155,-0.01040886,0.003998791,-0.0007228406
0.07023683,0.4070771,0.9191351,-0.008743509,0.008364869,0.0007831988
0.06731414,0.4098217,0.9240355,-0.004354528,0.007096048,0.002398699
0.06411095,0.412734,0.9228598,-0.002308244,0.008705736,0.004356439
0.06585462,0.4105276,0.91991,-0.001413808,0.01163097,0.002805134
0.06444832,0.4106451,0.919885,-9.865426e-05,0.01278259,-0.001892296
0.06013624,0.4108084,0.9112015,-0.003725428,0.01767463,-0.005163846
0.05646442,0.409002,0.9072734,-0.007719528,0.01634317,-0.0034976
0.05490686,0.4099205,0.9169252,-0.007841807,0.01138038,-0.00051572
0.05674903,0.4109717,0.9240128,-0.006560332,0.01183179,-0.002258473
0.05862512,0.4110137,0.9227304,-0.005743061,0.01178494,-0.002775878
0.06276736,0.4108726,0.9201946,-0.004850221,0.01392146,-0.001861936
0.06555283,0.4082375,0.9221013,-0.003524103,0.01209926,-0.003270454
0.06181826,0.4060875,0.92238,-0.001159387,0.004586375,-0.0002590085
0.06020608,0.4068294,0.9201543,-0.001736337,0.0006860268,0.002876903
0.05983022,0.4073425,0.9209361,-0.009746262,-0.002754644,0.0007342415
0.06021678,0.4069424,0.9214959,-0.01611286,-0.002956849,0.0006790625
0.06669997,0.4077275,0.9244515,-0.01167538,0.005599282,0.003934955
0.07057785,0.4088346,0.9276095,0.001493106,0.01820534,0.004986306
0.06598496,0.4082874,0.9259129,0.009950781,0.02568762,-0.0005475258
0.05730282,0.4081131,0.9233542,0.0008398409,0.02323725,-0.005853798
0.05388499,0.4089388,0.9214555,-0.007359959,0.0212101,-0.0003304942
0.0577647,0.4101579,0.9226639,0.001340334,0.02362604,0.005889001
0.05927182,0.4127316,0.9246117,0.005127301,0.0150252,0.002737153
0.05813288,0.413975,0.9232683,-0.002944006,-7.716325e-05,-0.0002547321
0.05827351,0.4126537,0.9199115,-0.005246585,-0.002736739,0.0004923375
0.05976316,0.4087356,0.9179147,-0.0007561726,0.001523039,7.98886e-05
0.06188094,0.4038525,0.9186509,0.001952254,0.004086397,-0.000400847
0.06285408,0.4048045,0.9179737,0.0004808772,0.006201507,0.0003779119
0.0629671,0.407178,0.9208737,-8.740087e-05,0.009934575,0.001882153
0.06298755,0.4056718,0.9283588,0.004277321,0.00815136,0.001731963
0.06426424,0.4072032,0.9315683,0.006230314,-0.01160052,-0.001559247
0.0639019,0.4088767,0.9292909,0.002706822,-0.02806677,-0.00501686
0.06181736,0.4085591,0.925413,0.0003844984,-0.01627448,-0.006199113
0.06244673,0.4107067,0.9269017,0.003057222,0.004656282,-0.001514775
0.06201862,0.4107104,0.9281185,0.00595276,0.008036202,0.003683307
0.05912874,0.4107064,0.9244972,0.003885415,-0.005494709,-0.0002090878
0.05790986,0.4115915,0.9228598,0.00366431,-0.01491049,-0.003602812
0.06098535,0.4085373,0.9192683,0.006862824,-0.003232539,-0.00204126
0.06399479,0.4069543,0.9180898,0.006028349,0.01264458,-0.003454562
0.06145875,0.407048,0.9202125,-0.0002536313,0.007356422,-0.003093677
0.05849254,0.4077392,0.9164174,-0.007042741,-0.003165909,-0.000974004
0.0566461,0.4099578,0.9151059,-0.003569102,-0.004511575,-0.002857713
0.05696912,0.4094112,0.9172676,0.002413467,0.001269351,-0.003623633
0.05959689,0.4078627,0.9169371,-0.0007045485,0.0127642,-0.002539391
0.05793363,0.4065554,0.917765,-0.001141932,0.005657236,-0.002531858
0.05684995,0.4064781,0.9200748,-0.001209655,-0.006903666,-0.001945187
0.05783804,0.4076249,0.9216359,-0.002596327,-0.003686166,-0.002138924
0.05825154,0.4058647,0.9200428,0.003344691,-0.006163515,-0.003778914
0.06147228,0.4032785,0.9168636,0.004962807,-0.007406161,-0.004901546
0.06176776,0.401055,0.91483,0.007517851,-0.008234763,-0.004602005
0.05943366,0.4028337,0.9154676,0.01744605,-0.01484636,-0.002799258
0.05713208,0.4085119,0.9176122,0.01506613,-0.01819426,-0.002763244
0.05413901,0.4087397,0.9156451,0.008177083,-0.02321541,-0.006111424
0.06110487,0.4070033,0.9158089,0.00918527,-0.002852451,-0.008020442
0.07151438,0.4069931,0.9230991,0.007437308,0.0315065,-0.004461871
0.06942105,0.4063933,0.9270542,0.003889905,0.0277531,-0.0009668709
0.06339658,0.4064175,0.9208984,-0.0006400065,0.003084139,-0.004789145
0.06103909,0.405911,0.9142934,-0.001082983,-0.006220459,-0.006800396
0.0593981,0.4087916,0.9208485,0.008381495,0.01422493,0.00139877
0.05712651,0.4128019,0.9270258,0.008723453,0.03291568,0.006664419
0.05318139,0.4110938,0.9220477,-0.001817713,0.0006222889,0.0004427333
0.05482647,0.4100247,0.9214104,-0.006591195,-0.0291505,-0.004761509
0.06186322,0.4097593,0.922427,-0.003391316,-0.008848491,-0.0004041854
0.06328375,0.4067125,0.9212601,0.001449076,-0.0005463423,0.003426572
0.06241662,0.4059479,0.9229878,-0.001579531,-0.01483106,0.002881373
0.0629082,0.4055401,0.9210649,-0.005485107,-0.0106578,0.004060779
0.06395009,0.4025663,0.9217106,-0.003007937,-0.004278479,0.002545227
0.06555301,0.4021221,0.9295604,0.004959774,-0.005770675,0.0002492491
0.06168692,0.4035481,0.9337139,0.01529219,-0.01593269,0.001458929
0.05860838,0.4034721,0.9258938,0.004865765,-0.03597544,-0.0009287941
0.06261455,0.4044653,0.9144792,-0.008537621,-0.03107348,-0.003700515
0.06494917,0.4054757,0.9188815,0.004607934,-0.002818026,-0.002705578
0.06245584,0.4053503,0.927526,0.01005515,0.01107661,-0.002114986
0.05894582,0.4064173,0.9259908,0.001108399,-0.004420341,-0.002251443
0.05928039,0.4081196,0.9254647,0.001244736,-0.02547369,-0.001484873
0.06540396,0.410366,0.9236548,0.00322845,-0.01357461,0.001130956
0.07119668,0.4101909,0.9212148,0.004776602,0.001164931,0.001280411
0.06776577,0.4082816,0.9225644,0.004693095,-0.003984157,-0.002208736
0.06248858,0.4100783,0.9217163,0.0001343103,-0.006699228,-0.002613319
0.06600592,0.4108729,0.9208901,-0.002378081,-0.01618909,-0.001631346
0.06624335,0.4084201,0.9207424,-0.0004131932,-0.007906744,-0.003118982
0.06379208,0.4051512,0.9226234,0.002506146,0.009131588,-0.002945719
0.06632087,0.4015563,0.9247237,-0.0001254121,-0.008434096,-0.004418614
0.06507251,0.402764,0.9229072,-0.002337766,-0.01581367,-0.008195386
0.06476696,0.4064557,0.9218542,-0.0003582938,-0.008283616,-0.003836447
0.06592388,0.4072373,0.9177623,-0.000141275,-0.009239185,0.002576703
0.06367261,0.4071654,0.9135617,0.003524632,-0.004740665,0.003744463
0.06394356,0.4067489,0.9167983,0.008183273,-0.0128831,0.003434929
0.06389127,0.4068561,0.9197409,0.01022035,-0.02224458,8.900629e-05
0.06314763,0.4070464,0.9178753,0.01301852,-0.01676974,-0.001757289
0.06160381,0.4057947,0.9124513,0.00910593,-0.01382921,-0.001496331
0.05991596,0.4055448,0.9097186,0.002948268,-0.007774968,-0.001932397
0.06679666,0.4064462,0.9148867,0.003718623,0.01071795,-0.0009596111
0.07311637,0.4072209,0.9229994,0.008126649,0.02920635,-0.001006278
0.06846339,0.4069578,0.9277221,0.01211108,0.02205723,0.0003065428
0.06457525,0.4057152,0.9230912,0.003294838,-0.0007417028,0.001060862
0.06811932,0.4060019,0.9155142,-0.007449727,-0.004287542,0.002209015
0.06839913,0.4081878,0.9163087,0.004644053,0.02033252,0.009398379
0.06349867,0.4105266,0.9184497,0.01162336,0.04130331,0.01189639
0.06182519,0.4098224,0.9176449,-0.007711581,0.003229685,0.006186401
0.06331819,0.4067768,0.9193102,-0.0190795,-0.04113784,0.001900726
0.06816743,0.4050257,0.9224776,-0.007374735,-0.01650937,0.002991218
0.07225894,0.4035562,0.9260531,0.001808242,0.003063172,0.002726935
0.06918464,0.4038846,0.925651,-0.004986512,-0.004732473,-0.001305219
0.06692496,0.4050353,0.9216174,-0.007841152,0.004037072,0.0008887333
0.06919002,0.4045414,0.9201574,-0.00195089,-0.0006933979,0.002946165
0.07014825,0.4051877,0.91572,0.0008386595,-0.006783455,-0.0007526223
0.06912197,0.4024064,0.914847,0.005535122,-0.01277705,-0.001879546
0.06947966,0.3989455,0.9228378,0.001475024,-0.03485721,-0.003676949
0.07071701,0.4041529,0.9214298,-0.006609307,-0.0227616,-0.00470438
0.07076782,0.4100779,0.9132825,0.002295404,0.00754023,-0.002098403
0.06999096,0.4094184,0.9126651,0.006349017,0.01709442,-8.903436e-05
0.06538937,0.4049641,0.9167789,-0.0006794352,0.001021234,0.001903828
0.06068851,0.401339,0.9210302,-0.003000822,-0.02457558,0.001534573
0.06289989,0.4031645,0.9201567,-0.003093788,0.0001458218,0.001519801
0.06703441,0.4072475,0.91816,0.001196139,0.02627174,0.004500341
0.06863354,0.4089188,0.921177,0.003480846,0.005437666,0.00402275
0.06852902,0.4083025,0.9212852,-0.004284897,0.001471911,-0.0002109322
0.06873475,0.405794,0.9197561,-0.01016443,0.001857193,-0.004218729
0.07068167,0.4032375,0.9196914,-0.003135611,0.001526659,-0.003398072
0.07069541,0.4023117,0.9171964,0.004105118,0.01589398,0.0002611515
0.06693356,0.4026678,0.9180945,-0.003017357,0.00167974,-0.0001981126
0.06416148,0.4031018,0.9206756,-0.007834172,-0.01197573,-0.000632408
0.06508149,0.4027935,0.9206685,-0.005360877,-0.003958913,0.0006713656
0.06586938,0.4037451,0.9213299,-0.006698431,-0.004874486,0.001103797
0.06498201,0.4055891,0.920202,-0.004070071,-0.002951743,0.003204844
0.06516038,0.4057102,0.9188639,-0.001077099,0.0006004006,0.003636614
0.06647491,0.4060581,0.9190781,-0.0007246304,-0.003080041,0.00172391
0.06951775,0.4082348,0.9226934,0.003741883,-0.004796392,0.001968794
0.07360224,0.4099443,0.9287109,0.003710554,-0.0009406757,0.001099635
0.07203119,0.4071278,0.9277732,-0.0003295274,0.001455593,-0.0009617656
0.06648818,0.40221,0.9292212,-0.005411409,-0.007905113,-0.0003596501
0.06547768,0.4020846,0.9350347,-0.01357618,-0.01079803,2.600075e-05
0.06975123,0.4026493,0.9291535,-0.01160257,0.0005795597,-0.0004820407
0.07572439,0.4012924,0.9234555,-0.002025188,0.01320036,-0.001782929
0.07535865,0.4014428,0.926437,0.0033012,0.02021824,-0.003224379
0.06917254,0.4007436,0.9233048,0.007368814,0.006481464,-0.0008664259
0.06708522,0.4013144,0.9179183,0.002114153,-0.002955384,-0.00075378
0.06692436,0.4039523,0.9206875,-0.004597516,0.02078524,-0.00153532
0.06594566,0.4048522,0.9273315,0.004159552,0.03507147,0.002441961
0.06323073,0.4069151,0.9311322,0.00656352,0.00757964,0.001938516
0.05981062,0.4086436,0.9254359,-0.006548879,-0.02475695,-0.001466828
0.06269286,0.4055917,0.9155673,-0.01441552,-0.021396,-0.003234905
0.06704613,0.4019006,0.9163419,-0.007718683,-0.002185988,-0.0009725585
0.06860682,0.4012889,0.9224876,0.0009280147,0.00378286,0.004725565
0.06859042,0.4006337,0.9229845,-0.00431444,-0.001123673,0.00194064
0.06731126,0.3986444,0.9179378,-0.01053925,-0.009211598,0.0003174081
0.06835711,0.3995572,0.9126151,-0.01061704,-0.007075191,0.003176998
0.06829692,0.402397,0.9193276,-0.007628215,-0.01042779,-6.575934e-05
0.06752663,0.4031874,0.927635,0.001302567,-0.02723121,-0.002758079
0.06872045,0.4028776,0.9225356,-0.0005056605,-0.02494416,-0.005930394
0.06872129,0.4025249,0.9204639,-0.002536115,-0.007921198,-0.005256931
0.06910877,0.4028541,0.9208924,0.0046005,0.004532321,0.0002877564
0.06714807,0.4034765,0.9143003,-0.001436278,-0.0002889568,0.0002150211
0.06428499,0.405186,0.9113277,-0.005263235,-0.01867427,0.0001922069
0.06779053,0.4079677,0.9120264,-0.0009129298,-0.01825686,-0.00193291
0.07277347,0.4072327,0.91261,-0.001398491,0.0002065929,-0.004625585
0.07368835,0.4061823,0.9136343,0.00157293,0.01761992,-0.002351141
0.07020905,0.4074759,0.9168086,0.00122183,0.01096875,-0.003990294
0.06682161,0.4068686,0.9235743,-0.002904468,-0.009482229,-0.003699883
0.06968504,0.4063325,0.9268922,-0.003439985,-0.00491847,0.002382769
0.07194321,0.4055004,0.9236981,-0.003145996,0.002574292,0.005925666
0.06820562,0.4033853,0.919212,-0.001490109,0.004261586,0.003332412
0.06540563,0.4040054,0.9220205,-0.003999351,-0.0005061492,-0.0026017
0.06508806,0.4046835,0.9259598,-0.006557433,-0.01681913,-0.00338837
0.06507871,0.4037949,0.9212075,-0.00392773,-0.005428136,-0.003483558
0.06556786,0.4044061,0.9170962,-0.002486068,0.004576455,-0.004484926
0.06535126,0.405227,0.9136266,-0.0001813269,-0.004871024,-0.001211357
0.06603854,0.4056032,0.9146072,0.001782994,-0.001111921,-0.0004293831
0.06755063,0.4056319,0.9210812,0.001818206,-0.005326453,0.0004742027
0.06852101,0.4044347,0.9179497,0.004739132,-0.0101496,0.003054486
0.07075149,0.4035566,0.9187747,0.004575189,-0.009054669,0.002600419
0.07150138,0.4024345,0.9252405,-0.002891519,-0.01389925,0.003427481
0.07003507,0.400664,0.9239857,-0.004963457,-0.01128388,0.005554856
0.0691041,0.4003105,0.9244196,-0.0003015642,-0.01356443,0.006142811
0.06840605,0.4001029,0.9210551,-0.001771131,-0.0123919,0.001988032
0.07119073,0.3996949,0.9154048,-0.0018002,0.008083142,-0.002768418
0.07436396,0.4001723,0.9172865,0.002446306,0.02652477,-0.001074933
0.06934961,0.3996926,0.9189255,0.001848075,0.02133172,-0.001218756
0.06449873,0.3980412,0.9211249,0.002680583,-0.004120314,-0.005089092
0.06793789,0.3973663,0.9219051,0.002159474,-0.01029588,-0.003378627
0.07015869,0.3999923,0.9203553,0.0008362476,0.02115088,0.004289891
0.06839537,0.4047154,0.9239566,0.005862234,0.04694757,0.007826671
0.06696529,0.4067191,0.9270859,0.006999108,0.0147646,0.003951304
0.06549457,0.4069031,0.9258815,0.002138013,-0.02728638,0.0007528836
0.06908974,0.406966,0.9235665,-0.002329988,-0.01038773,-0.002016343
0.07452132,0.4043517,0.9216392,-0.0002953514,0.0009547074,-0.0005597401
0.07195352,0.4008874,0.9228095,0.002218867,-0.01034388,0.004248156
0.0692074,0.3992657,0.9239509,-0.006333785,-0.005973529,-0.002391969
0.07031362,0.3997689,0.9207253,-0.00959188,-0.01695799,-0.007319846
0.0707015,0.4007718,0.918501,0.0007228993,-0.01646302,-0.0008024844
0.07248674,0.4003656,0.9207963,0.008231327,-0.009995306,0.001169018
0.07104943,0.4006762,0.9232633,0.00307515,-0.03811027,-0.0003146317
0.06826828,0.4002226,0.9239527,-0.002042445,-0.04742067,-0.0003803144
0.071626,0.3992733,0.9235056,0.00803344,-0.02052354,-1.530686e-05
0.07249191,0.4007077,0.9225115,0.0135331,0.00273251,0.001493879
0.06817594,0.4012345,0.9233076,0.006036707,-0.01263152,0.0008794041
0.06656168,0.4030476,0.9284011,0.001450716,-0.03652204,-0.003189271
0.07074418,0.4053378,0.9319943,0.0001821587,-0.02168959,-0.006656881
0.07593019,0.4036375,0.9228562,0.004327961,-0.007590451,-0.0003570178
0.07451541,0.403019,0.9121362,0.007543088,0.0001496743,0.006747548
0.07325909,0.4031378,0.9162949,0.00154608,-0.005236551,0.0007737915
0.07489729,0.403194,0.9200966,-0.002275023,-0.02967068,-0.003442253
0.07197035,0.4048187,0.919526,0.003648363,-0.01970737,-0.001419536
0.07004239,0.4041907,0.9270848,0.01707421,-0.01993815,-0.003765842
0.07145482,0.4034209,0.9277319,0.02467883,-0.03506334,-0.004325276
0.0737073,0.4027736,0.9206384,0.01523144,-0.007988643,-0.001963014
0.07687094,0.4006411,0.921468,0.00427205,0.008517008,-0.001740121
0.07657254,0.4015198,0.9246153,0.008701409,0.0007815865,-0.001747504
0.07507526,0.404095,0.9290653,0.01275499,-0.00669474,-0.00481653
0.07513984,0.4061196,0.9308219,0.008539848,-0.01441813,-0.007620164
0.07588765,0.4077432,0.9268471,0.01151984,-0.008343437,-0.005094161
0.07776996,0.4067596,0.925003,0.0123779,-0.0002384161,-0.004454194
0.07806987,0.405597,0.9196839,0.008929198,-0.002680751,-0.002604704
0.07706799,0.4057174,0.9153613,0.01002845,-0.01745301,-0.0005310544
0.07516695,0.4052946,0.915287,0.005811938,-0.02023236,-0.007016188
0.07400103,0.4054543,0.9134702,0.003531907,0.004942281,-0.007523505
0.0795879,0.4048293,0.9180808,0.004659523,0.02595137,-0.001518422
0.08476167,0.4036147,0.9240703,0.005561575,0.03476989,-0.003093928
0.0784153,0.4046314,0.9262283,0.009973003,0.02170632,-0.003880948
0.07218197,0.406295,0.9232018,0.001934257,0.0004458836,-0.003634639
0.07713828,0.4081582,0.9118676,-0.006313694,0.01232426,-0.003739463
0.07891813,0.4091641,0.9117166,0.003687399,0.03448575,0.004489375
0.07268334,0.409027,0.925631,0.009402981,0.04307063,0.01164103
0.06951521,0.4108688,0.9341582,0.003931966,0.01799808,0.009475938
0.07054545,0.4113886,0.9264218,0.002565964,-0.01821647,0.002909394
0.07747211,0.4087666,0.914779,0.007448814,0.007583093,-0.001781901
0.08360682,0.4069511,0.9205572,0.007765886,0.03130902,-0.0003536097
0.07615029,0.4065932,0.9236976,-0.002145713,0.006327932,0.0006684526
0.06903348,0.4070743,0.91808,-0.01064752,0.008821703,-0.001597974
0.07429481,0.4070766,0.9230095,-0.004929822,0.02098739,-0.001372668
0.07649462,0.4065352,0.925651,0.007564115,0.01476143,-0.000952847
0.07114542,0.4062174,0.9270397,0.01002523,0.004145961,-0.002979396
0.07052847,0.4054351,0.92631,0.002347103,-0.01534989,-0.004313079
0.07392239,0.4062449,0.9190363,-0.003671425,-0.007430572,-0.004114864
0.07511137,0.4073961,0.9227039,0.002257902,0.01351412,-0.0015651
0.07276289,0.4059316,0.9245117,0.009814266,0.01018215,0.00215961
0.07021177,0.4056184,0.9207089,0.002931466,-0.002247062,0.001128494
0.07523775,0.4085574,0.9211556,-0.001174876,-0.01697305,-0.0008190625
0.07971659,0.411674,0.9162073,0.001370669,-0.001930666,0.001555446
0.07562145,0.4125097,0.9138634,-0.001659418,0.02220784,0.001439348
0.07344032,0.4115717,0.9147533,-0.002805353,0.007218961,0.0001880406
0.07369162,0.4091573,0.915243,-0.005291714,0.004637162,0.00128228
0.07232914,0.4058352,0.9208402,-0.00495801,0.01500936,0.0002822434
0.0744257,0.4059677,0.9225936,0.001996273,0.007640104,-0.000304769
0.07755815,0.4062429,0.921983,0.00218634,0.00957213,-0.0002102863
0.07569716,0.4025179,0.9222484,-0.002153379,0.005682505,-0.00106206
0.07384301,0.401101,0.9196441,-0.006627039,-0.0021095,-0.001233533
0.07556359,0.4002063,0.9177599,-0.004646275,0.007619943,-0.002275667
0.07494638,0.3988741,0.9173123,0.0002850253,0.01435555,-0.0008127432
0.07342608,0.4013609,0.9190701,-0.001743219,0.01365221,0.001547722
0.0729575,0.4021726,0.9204804,0.002225121,0.006172897,-0.0004539315
0.07138411,0.4019704,0.9197909,0.007114918,-0.004214414,-0.001025009
0.07141085,0.4021185,0.9189426,0.005446399,-0.005090789,0.001015593
0.07019526,0.4024047,0.9173039,0.001596534,-0.002667764,0.002316472
0.06668923,0.4066077,0.9167572,-0.009582578,-0.0005946748,0.003136802
0.0668652,0.4075664,0.9144356,-0.008284637,0.007192659,0.002769894
0.07537979,0.4064443,0.9129356,0.007039957,0.02547925,0.001581194
0.08462997,0.4073157,0.9146762,0.009653527,0.03696176,-0.0008731203
0.07656972,0.4055596,0.9134571,0.004127353,0.0204471,-0.003978816
0.06551848,0.405645,0.9140182,-0.005834415,0.004245064,-0.004912796
0.07002922,0.406586,0.9154519,-0.01346835,0.0192222,-0.002864085
0.0704368,0.405975,0.9175256,-0.005655506,0.04112806,0.0008704911
0.06539232,0.4030854,0.9265773,-0.002278444,0.03972796,0.002811228
0.06454273,0.3981875,0.9320425,-0.01111287,0.005370775,0.0007276424
0.06237887,0.4005881,0.9261671,-0.01437296,-0.0315574,-0.002635896
0.0673886,0.4029646,0.9172121,-0.00563163,-0.009160828,-0.002842436
0.07336904,0.4004133,0.9168265,0.002525061,0.02149973,-0.002194718
0.0686241,0.4015522,0.9200069,-0.004213429,-0.0005475205,-0.002945644
0.06699255,0.4017382,0.9198433,-0.009981269,0.001368742,-0.001022888
0.07054751,0.4012636,0.9233742,-0.004472956,0.02044019,0.000488726
0.07102032,0.403535,0.9239162,-0.0006192439,0.009392477,-0.0009542427
0.06900495,0.4045655,0.9220976,0.001810697,-0.001996785,-0.002447203
0.06762003,0.4043461,0.9228151,-0.0009722234,-0.02283252,-0.004795927
0.0698514,0.4038805,0.9188992,-0.006781887,-0.01916793,-0.004413864
0.07103426,0.4042304,0.9186671,-0.002835267,0.01452177,-0.001322532
0.06714934,0.4043484,0.9208757,-0.0004842689,0.01648412,-0.000431203
0.06388178,0.4038946,0.9204384,-0.004153442,-0.0008923903,0.000829088
0.06601081,0.4043607,0.9225336,-0.004687068,-0.01878378,0.001686258
0.07053748,0.4041356,0.9193648,-0.00383853,-0.0008348442,2.975871e-05
0.07249338,0.4040509,0.9137366,0.000256149,0.02968897,0.0005172823
0.07010183,0.4043485,0.9148307,0.0007227921,0.008664559,0.001821215
0.06673312,0.404011,0.9210995,-0.007927407,0.004194524,0.0006600075
0.06906454,0.4040568,0.9273789,-0.01023222,0.01587701,0.002286302
0.07259816,0.4033037,0.9258962,-0.004671765,0.007791861,0.004526383
0.07108708,0.4024066,0.9241673,-0.0007482057,0.015888,0.003266875
0.06795423,0.4027855,0.9260892,-0.001827885,0.005887941,0.002808338
0.06404115,0.4025467,0.9185517,-0.00594214,-0.008567654,0.0007937933
0.06464995,0.400912,0.9111506,-0.005066139,0.004558727,-0.0004890422
0.06862605,0.399983,0.9175956,-0.002709861,0.01178297,-0.0001961827
0.06777359,0.4025129,0.9234919,-0.001391145,0.01511172,-0.004562439
0.06803855,0.4055497,0.9232188,-0.0008830169,0.01008796,-0.004540062
0.06853203,0.4051636,0.9261815,-0.004025387,0.0009200581,-5.761684e-05
0.06732819,0.4049866,0.9269852,-0.002780375,0.004722425,0.0009185352
0.06864564,0.4050853,0.921901,-0.0006289107,0.005243772,0.002506834
0.06788455,0.4027333,0.9190972,-0.002714909,0.002666695,0.004458548
0.06866541,0.4018769,0.9173593,-0.00541626,0.004547233,0.005598141
0.07325086,0.4014739,0.9150954,-0.007457738,0.01105134,0.00241631
0.07671439,0.3992373,0.9183837,0.001270891,0.02470241,-0.003243355
0.07643518,0.3999193,0.9226159,0.01030328,0.03117598,-0.003146855
0.07010938,0.4020517,0.9209968,0.0008166315,0.01547581,-0.004348688
0.06644229,0.4038975,0.9198294,-0.01394641,0.004033849,-0.006142298
0.0679398,0.4063848,0.9215606,-0.01768723,0.02597116,-0.000717184
0.06610667,0.404969,0.9209794,-0.009193371,0.04172555,0.005448321
0.059184,0.4030877,0.9214227,-0.000907759,0.01503581,0.006764018
0.05460886,0.4046235,0.9239666,-0.004318167,-0.01652684,0.002259162
0.06375053,0.4037772,0.9227718,-0.006144286,-0.01783597,-0.0008893087
0.07474696,0.4010722,0.9189945,0.0009236834,-0.000956767,0.004065073
0.07214135,0.3995509,0.9157095,0.002317962,0.008033239,0.006318584
0.06729548,0.4002311,0.9167554,-0.001694478,-0.005190934,-0.001645869
0.06638627,0.4041453,0.9195885,-0.003509664,-0.01691693,-0.007954616
0.06602582,0.4054465,0.918283,-0.003309668,-0.000601067,-0.002766059
0.06547321,0.4003092,0.9211281,0.0005186207,0.005903555,0.0016272
0.06146399,0.3952209,0.9255922,0.002243903,-0.02647407,-0.002687432
0.05852339,0.397202,0.9228034,0.002400197,-0.04795959,-0.003380546
0.06165241,0.4017113,0.9203139,0.007499502,-0.02229862,-0.0005672432
0.06364088,0.4031246,0.9192891,0.01120537,0.003014515,0.000139188
0.06213186,0.4050579,0.9196781,0.006583471,-0.0126666,0.003870549
0.06248827,0.4054669,0.9245551,-0.001089154,-0.02728737,0.005971042
0.06424804,0.4043266,0.9270477,0.0002239198,-0.02128175,0.002792076
0.06664973,0.4037431,0.9232607,0.002281308,-0.007363189,0.002245153
0.06899835,0.4002229,0.9172195,-0.00186572,0.01535815,0.003913734
0.06825237,0.4005455,0.9166939,-0.001164999,-0.0001078528,0.002611233
0.06761926,0.4018703,0.9234125,-0.0001534094,-0.02694775,0.001454344
0.06934296,0.39871,0.9264001,0.00242839,-0.007026162,0.001728965
0.06937782,0.4001017,0.9170672,0.007695521,-0.0005880021,0.001147526
0.06747829,0.4006957,0.9088249,0.005018349,-0.0080509,0.001217341
0.06622173,0.3991152,0.9203604,0.001389012,-0.01329182,-0.001503111
0.06658159,0.4004426,0.9316571,0.0006950069,-0.03564845,-0.006093593
0.06814627,0.3989333,0.9238382,0.002913162,-0.02069291,-0.004008015
0.069085,0.3982945,0.9210016,0.008510661,0.002297767,0.0004230613
0.0694605,0.400541,0.9256239,0.009747878,-0.009133265,0.002422809
0.0687747,0.4036311,0.9232088,0.008878392,-0.0108008,0.002172302
0.06743094,0.4067318,0.9239853,0.00982931,-0.01411237,-0.001981208
0.06849423,0.4042706,0.925656,0.01117384,-0.01990195,-0.003546941
0.07030237,0.4004442,0.9216923,0.01130667,-0.02023715,-0.0006714063
0.07191323,0.4000328,0.9215115,0.008574755,-0.02973997,0.001769296
0.07241248,0.4015191,0.9279206,0.002062964,-0.02186304,0.001986813
0.06918306,0.4036604,0.9324324,-0.00571407,-0.002637435,-0.001561127
0.06837455,0.4022166,0.9229511,-0.004844709,0.01623544,-0.002778034
0.07435801,0.3985774,0.9126335,-2.085421e-07,0.04256951,-0.00232295
0.07976793,0.3968114,0.9211083,0.0003312692,0.04667387,-0.00891186
0.07662418,0.3979263,0.927057,0.002609261,0.02718286,-0.01280231
0.06991194,0.4014746,0.9202412,-0.0001607306,0.01538667,-0.009578061
0.06797584,0.4028497,0.9205672,-0.005656055,0.02353859,-0.007461207
0.06693963,0.4024664,0.9263147,0.001143662,0.03880045,-0.002848496
0.06444015,0.402211,0.9304548,0.004787471,0.03653346,-0.0002538889
0.06194762,0.4008449,0.9308193,-0.003579095,0.01466492,-0.005647112
0.0614568,0.4013044,0.9248752,-0.009799701,-0.007273136,-0.009755741
0.06450992,0.4018244,0.9240409,-0.01114929,-0.0001734356,-0.01075863
0.06673748,0.4007757,0.9228567,-0.01175285,0.01968579,-0.01018931
0.06942563,0.4007144,0.9117667,-0.01413259,0.01948305,-0.007249726
0.06741471,0.3992339,0.9089576,-0.01439307,0.03015961,-0.005853871
0.06102009,0.3969901,0.915227,-0.01070576,0.04423588,-0.007741488
0.06410791,0.3958524,0.9190155,-0.009975095,0.03083727,-0.0109209
0.06572074,0.3969934,0.9241677,-0.006956647,-0.0005164835,-0.01213212
0.06396726,0.3998088,0.9265835,0.006066782,-0.03626479,-0.01145933
0.0681972,0.3985216,0.925741,0.0143415,-0.02773878,-0.009807996
0.06669191,0.3971011,0.9260735,0.004262334,-0.007801544,-0.009677743
0.06430329,0.3987775,0.9250258,-0.00408857,-0.03009224,-0.01351536
0.06434396,0.3993638,0.9273621,0.006063107,-0.0298141,-0.01302134
0.06122188,0.4009539,0.9295847,0.01812563,-0.02223248,-0.008517992
0.06252237,0.402909,0.9235955,0.02132683,-0.03684449,-0.004297759
0.06320783,0.4040516,0.9187329,0.01612516,-0.03677712,0.003332279
0.06171407,0.4031988,0.9206822,0.009066589,-0.04902559,0.003138243
0.06333189,0.4004092,0.9218572,0.01429428,-0.06227136,-0.001178577
0.06421117,0.4030901,0.9201873,0.02144367,-0.05959027,0.003643235
0.06614258,0.405624,0.920733,0.02198207,-0.066073,0.003638589
0.06849913,0.4032877,0.9213999,0.02577195,-0.06508225,0.002396221
0.06974343,0.4034553,0.9190234,0.02723389,-0.05922764,0.004598996
0.07118881,0.4039317,0.9148082,0.02731892,-0.055398,-0.001098509
0.07163704,0.4048042,0.9100824,0.03074658,-0.05335093,-0.0008751135
0.07346327,0.4064589,0.9144176,0.03578597,-0.06335283,0.003559285
0.07461411,0.4052102,0.9241005,0.04808006,-0.06932237,0.00206307
0.07503587,0.4060961,0.9244478,0.05530504,-0.0674683,0.004049663
0.07841612,0.4095319,0.9215792,0.05091081,-0.06488852,0.00356091
0.07995428,0.4116583,0.9168709,0.04194441,-0.05938117,0.002756048
0.0799713,0.4104741,0.9099792,0.02725928,-0.04168957,0.005580421
0.08121902,0.4068406,0.9118703,0.01964329,-0.01195753,0.004320175
0.08245539,0.4065618,0.9137957,0.0140364,0.004878025,0.004741503
0.08512201,0.4072817,0.9100306,-0.001486823,0.01632738,0.00252765
0.08632631,0.4066551,0.911523,-0.00699811,0.03658893,-0.001709568
0.08334235,0.4062733,0.9161095,-0.002188915,0.04292626,0.001148557
0.07729786,0.4023944,0.917473,-0.004544794,0.03404226,0.001896575
0.07304388,0.3994407,0.9159642,-0.01536353,0.03207759,0.002937738
0.07500967,0.404146,0.9126757,-0.02340373,0.04110179,0.00793813
0.07554307,0.4091092,0.9103209,-0.01504883,0.04725517,0.009201152
0.07244679,0.4076643,0.910702,-0.007719232,0.04138501,0.00918225
0.07190651,0.4083496,0.9115174,-0.02324675,0.02709023,0.008967148
0.07328869,0.4123871,0.9100808,-0.03534505,0.01208136,0.008008805
0.07763413,0.4082641,0.908791,-0.02472547,0.009117433,0.007746425
0.08226419,0.4031371,0.9082456,-0.01641126,0.02117386,0.007600087
0.08031495,0.4047585,0.9070886,-0.0180644,0.03104831,0.006965365
0.07570602,0.4059383,0.9106754,-0.01658433,0.03377809,0.005790647
0.0735847,0.4069795,0.9174537,-0.01394095,0.03390197,0.006151616
0.07308675,0.405676,0.9201961,-0.01052274,0.02100369,0.004673038
0.07359977,0.4026721,0.9211401,-0.008245608,0.006518744,0.001070535
0.07299509,0.4028186,0.9219279,-0.01219596,0.01504067,0.00118311
0.07154673,0.3993458,0.9239187,-0.01598054,0.03349775,0.003158829
0.07197255,0.3967254,0.9276726,-0.01798435,0.0398781,0.004180405
0.07072864,0.4039713,0.9269559,-0.0190594,0.02974969,0.002814969
0.06850468,0.4112791,0.9252632,-0.0177138,0.01752314,0.001191239
0.06950108,0.4101055,0.9261527,-0.01538949,0.02756152,0.003560141
0.06927149,0.4068195,0.9214662,-0.01142652,0.0453006,0.005246107
0.06642247,0.4069122,0.9148622,-0.01218771,0.04489662,0.004452967
0.06460881,0.4065722,0.9148474,-0.01694852,0.03113628,0.005010632
0.06533017,0.404656,0.9185691,-0.01691445,0.01485949,0.006350236
0.06760437,0.402139,0.9240013,-0.01664662,0.01869559,0.006572923
0.06836694,0.4003403,0.9280395,-0.01485096,0.033072,0.004474304
0.06811333,0.4018759,0.9263564,-0.009913642,0.02894526,0.002044465
0.06798801,0.4026172,0.9239846,-0.007061291,0.02656903,0.003048515
0.067785,0.4023114,0.9259256,-0.004406361,0.02383435,0.006314613
0.06716873,0.401886,0.9295468,-0.004823275,0.01448756,0.006912413
0.06536704,0.3980947,0.9314857,-0.0067153,0.01456362,0.003044725
0.0648919,0.3962537,0.9308913,-0.006898335,0.01200899,2.702065e-05
0.06533611,0.3985169,0.9308117,-0.009103541,0.01104711,0.002406877
0.0643057,0.4026985,0.9324626,-0.0101627,0.006592816,0.004084978
0.06468195,0.4063998,0.9296085,-0.01020549,-0.0001212782,-0.0005182908
0.06918168,0.4025771,0.9216302,-0.008906368,0.0153884,-0.004322914
0.07329572,0.397385,0.9174755,-0.002612334,0.03658784,-0.002413831
0.06907714,0.3983906,0.9242431,0.002030701,0.04952252,0.00162493
0.06243608,0.3978418,0.9317032,-0.003992907,0.04177111,0.004849079
0.06088355,0.3971234,0.9230072,-0.01171991,0.02602439,0.004108245
0.05783732,0.4005124,0.9143414,-0.005264127,0.03036334,0.002381124
0.05671845,0.4004778,0.9206184,-0.0006558397,0.02420422,0.003878264
0.05874652,0.3988866,0.9277974,-0.008652594,0.01159852,0.003373778
0.05534442,0.3991604,0.935292,-0.01052884,0.005668157,0.0005905258
0.05474723,0.3979068,0.9354237,-0.008436874,-0.006450383,-0.001758518
0.05775581,0.3983512,0.9228685,-0.008356666,-0.002010551,-0.004429118
0.05760317,0.397732,0.9205152,-0.007068157,0.004997583,-0.004562796
0.05984772,0.3959554,0.9237979,-0.007649088,0.001796807,-0.002906892
0.06103585,0.3976591,0.9222244,-0.006042582,0.008160818,-0.001841259
0.05987209,0.395544,0.927359,-0.00152877,0.008048467,-0.001943614
0.06000235,0.3931674,0.9336031,0.001676226,-0.01258805,-0.003888244
0.05904405,0.3950442,0.9333876,-0.0005983904,-0.03396067,-0.005442405
0.05905168,0.3943929,0.928457,-0.005583529,-0.02472877,-0.005996193
0.0582877,0.3949287,0.9209873,-0.002904786,-0.005011883,-0.002153166
0.05806858,0.3983365,0.9178453,0.002473542,-0.0034438,0.003619103
0.06083216,0.4007975,0.919413,0.00325461,0.003655653,0.002056948
0.06129895,0.4004497,0.9201595,-0.0003763526,0.005641701,-0.0001186223
0.06139096,0.3985579,0.9186576,-0.004309748,-0.001208381,-0.0003026866
0.06219888,0.4003034,0.9180431,-0.002234779,0.002476892,-0.003850094
0.0633782,0.4012431,0.9196583,-0.0002173474,0.0004490453,-0.003725717
0.06450314,0.3995097,0.9227617,-0.0005093907,-0.0004528595,-0.0003335051
0.06259846,0.4001031,0.9248744,0.0004508465,-0.001595185,0.001403673
0.06214803,0.4010629,0.9222873,0.001501815,-0.007409636,0.002274737
0.0622372,0.401587,0.9213712,0.003003935,0.002072257,0.001871267
0.05958905,0.4013344,0.9228767,0.002253934,0.007553915,0.001750892
0.05771879,0.400241,0.920865,0.002491982,-0.001200583,-0.00231244
0.05842431,0.399935,0.9205646,0.00427074,-0.007347686,-0.006887244
0.06162662,0.4001672,0.9207268,0.00348989,-0.006299497,-0.001903212
0.0631565,0.4019548,0.9187485,0.006345121,-0.004819544,0.003710608
0.06229959,0.403338,0.9181922,0.007821661,-0.01370471,0.005678547
0.06135346,0.4026354,0.9193935,0.003966407,-0.02657957,0.005967659
0.06001892,0.401156,0.9218324,0.004475296,-0.03646137,0.00135221
0.06151254,0.3981344,0.9210194,0.006955303,-0.02750783,-0.001705319
0.06673172,0.3949681,0.9200256,0.00709299,-0.001039699,-0.002611749
0.06995536,0.3954408,0.9210418,0.007530546,0.003711233,-0.002241753
0.06373577,0.3981218,0.9178493,0.006912849,-0.007214776,-0.0002756803
0.05681238,0.398113,0.9156864,0.00350106,-0.01081855,-0.001151886
0.06160672,0.3991253,0.9176719,0.001707997,-0.009278383,0.0009188593
0.06457504,0.4027153,0.9216621,0.002385746,-0.007762653,0.0020784
0.06129703,0.4013344,0.9267335,-0.001461256,-0.02015854,-0.0004903954
0.06312004,0.398642,0.9267774,-0.005672113,-0.03268597,0.001211859
0.06591564,0.3986163,0.9230564,-0.002277117,-0.03150661,0.002238176
0.06791186,0.3973441,0.921288,0.002893216,-0.03078863,0.002502305
0.06975176,0.3974244,0.9212741,0.004169254,-0.03357169,0.0004797107
0.06843949,0.3995099,0.9209341,0.003798891,-0.03468779,-0.004456365
0.06850473,0.4021128,0.9208299,0.004981319,-0.02381321,-0.002484846
0.06901142,0.403415,0.923192,0.009259525,-0.0140423,-0.001292671
0.06768408,0.4006613,0.9259963,0.01511169,-0.03064741,-0.004752378
0.06847416,0.3990176,0.9262146,0.01782159,-0.05839095,-0.006533013
0.07095119,0.3993707,0.9219441,0.01586551,-0.06714376,-0.007262696
0.07291492,0.3987291,0.9149526,0.01376541,-0.04509575,-0.004608769
0.07239916,0.4005799,0.9139653,0.01386359,-0.02052664,-0.001988914
0.07069847,0.4039471,0.9221955,0.01263737,-0.02581177,-0.001506123
0.07142088,0.4048208,0.9289495,0.01025291,-0.04099798,-0.001634776
0.07350399,0.4034265,0.9251215,0.01025424,-0.0441146,-0.003776201
0.07568737,0.4013064,0.9212797,0.01124542,-0.03678931,-0.003448044
0.07555061,0.3994664,0.9245341,0.0153283,-0.02661193,-0.002283755
0.07417221,0.3993198,0.9241078,0.02099851,-0.03042148,-0.003160129
0.07520446,0.3997394,0.9221747,0.01860975,-0.03925385,-0.004793821
0.07430417,0.3981564,0.9226821,0.01459085,-0.03730659,-0.005873285
0.07300005,0.3985646,0.9200439,0.01591551,-0.03334809,-0.001896865
0.07487759,0.4010915,0.9208245,0.01507286,-0.02628205,0.0001041348
0.07527344,0.4014721,0.9245367,0.01493275,-0.0257377,-0.002403687
0.07489725,0.4021656,0.9247133,0.0201002,-0.03526655,-0.003112653
0.07541545,0.4039712,0.9237044,0.02441371,-0.03651089,-0.004057135
0.07667301,0.4059676,0.9206586,0.02327583,-0.03949413,-0.001940531
0.07882788,0.4052116,0.9182123,0.01852195,-0.04229703,-0.0009213763
0.0796771,0.4020476,0.9171084,0.01747704,-0.03844648,-0.004434866
0.08085674,0.4027822,0.9181527,0.01857633,-0.03787477,-0.003934612
0.08233909,0.4031901,0.921399,0.01552486,-0.03081362,-0.004055247
0.08492879,0.4022038,0.9148673,0.01369562,-0.01829889,-0.004419327
0.092642,0.403426,0.9090489,0.01684429,-0.004648194,-0.002003235
0.09627662,0.4034887,0.9179071,0.02375991,-0.002061744,-0.003204192
0.08603906,0.404302,0.9236956,0.02694189,-0.01619024,-0.004815553
0.07547977,0.4051584,0.9196518,0.01571778,-0.01651195,-0.005329484
0.07880853,0.4062541,0.9153987,0.004082628,-0.005340249,-0.004806223
0.08323215,0.4095121,0.9132873,0.007785621,0.001520001,-0.000724227
0.08115606,0.4086473,0.9137108,0.009560635,-0.0001569004,0.004089734
0.08324672,0.4074442,0.9161667,0.003261197,-0.01105295,0.006451868
0.08510236,0.4090005,0.9173015,0.00570859,-0.01200152,0.002587089
0.08411905,0.4079932,0.9164055,0.008057498,-0.01018035,-0.002067774
0.08556508,0.4072055,0.9164859,0.00432934,-0.008839492,-0.000434237
0.0855024,0.4072215,0.9159229,0.005768392,0.0008264334,0.0006532864
0.08703042,0.4078015,0.9153128,0.003366779,0.005807574,-0.000265325
0.08831509,0.4103436,0.9191554,0.0008531542,0.003114896,-8.906031e-05
0.08568634,0.4097672,0.9256723,0.007742628,-0.01182148,-0.003658264
0.08520725,0.4063442,0.9287629,0.01043663,-0.01853831,-0.009935464
0.08451726,0.404624,0.9234081,0.005354991,0.007900574,-0.009888189
0.08421003,0.4043517,0.9187893,-0.0009313397,0.03156846,-0.002608146
0.08423396,0.4059153,0.9229376,-0.004139119,0.02664107,0.001129165
0.08168573,0.4089458,0.9248175,-0.01001389,0.02032199,-0.004412297
0.08245302,0.4102443,0.9218954,-0.01842738,0.02999105,-0.01065895
0.08576759,0.4090624,0.9204401,-0.01606123,0.03289177,-0.01094741
0.08923812,0.4061805,0.918143,-0.009549561,0.02756722,-0.01186371
0.09262904,0.4036197,0.9165491,-0.0003263877,0.02381023,-0.0157
0.09372222,0.4047662,0.9218785,0.02536604,0.01241598,-0.01635911
0.09010699,0.409022,0.9300416,0.0692168,0.002030679,-0.01802165
0.08347282,0.415435,0.9320373,0.09269909,-0.04986556,-0.02468565
0.08446549,0.4213205,0.9300721,0.04940339,-0.1448968,-0.03191903
0.08562242,0.4208848,0.9302861,0.01762151,-0.1485642,-0.03195224
0.07704069,0.4154635,0.9275739,0.07607924,-0.04276461,-0.01468278
0.06877613,0.4054539,0.91339,0.1082889,0.02656594,0.005239056
0.06304327,0.398954,0.9001719,0.03060167,-0.02830553,0.005040306
0.06411949,0.4127114,0.9085686,-0.02237561,-0.1549754,-0.003347769
0.08432292,0.5012279,0.8570159,0.2011107,-0.0568566,0.1116191
0.08460529,0.5025288,0.8627463,0.2175101,-0.04281431,0.1125023
0.08271012,0.5075519,0.8747248,0.2393811,-0.03561994,0.1142447
0.07665686,0.5099274,0.8836641,0.21915,-0.06561591,0.1124998
0.07257989,0.5150671,0.8792963,0.2039608,-0.09176017,0.1114102
0.078049,0.5159698,0.8692047,0.2101812,-0.1052468,0.1118232
0.08592211,0.5122304,0.8666897,0.2026446,-0.09392834,0.1090884
0.08484757,0.5092561,0.8617733,0.2023477,-0.07765113,0.103031
0.08107028,0.5052588,0.8607901,0.2075115,-0.08103733,0.09857777
0.08076289,0.5041213,0.8709251,0.2044323,-0.08072152,0.1011198
0.0818169,0.5037603,0.8773785,0.2086687,-0.09348953,0.1077587
0.08431966,0.5011712,0.8765036,0.2083347,-0.1069322,0.1084162
0.08291129,0.4994931,0.8695754,0.2019581,-0.09976999,0.1015966
0.07865639,0.4995338,0.8634921,0.1986487,-0.09195401,0.09634689
0.07658425,0.5005651,0.8634749,0.1953698,-0.08469338,0.09646902
0.07561242,0.5002478,0.8637861,0.191694,-0.09274562,0.09683423
0.07791113,0.5014352,0.86502,0.1830801,-0.1028242,0.0949684
0.07928993,0.5038316,0.8672531,0.1798037,-0.08809236,0.0943952
0.07876563,0.5026432,0.8699312,0.1817157,-0.07343158,0.09450774
0.07975405,0.5031086,0.8677746,0.1780512,-0.06984718,0.09394614
0.07881094,0.5068013,0.8602309,0.1763616,-0.07252277,0.0946895
0.07907549,0.5084294,0.8604636,0.1740981,-0.07968365,0.09511187
0.0799764,0.5052575,0.8679145,0.1706312,-0.08101538,0.0943047
0.08040198,0.5002233,0.8746167,0.1672957,-0.07008432,0.08950155
0.08287315,0.499037,0.8735391,0.1609971,-0.0547809,0.08352819
0.08173097,0.4976321,0.8701753,0.1604607,-0.05591524,0.08356284
0.07951515,0.4977837,0.8753089,0.1632488,-0.06687561,0.08026941
0.07867755,0.5023758,0.8764575,0.1654302,-0.06959356,0.07408994
0.07598661,0.5007387,0.8764661,0.1693166,-0.0689456,0.0765241
0.07457599,0.497748,0.8796177,0.170365,-0.06756392,0.07997861
0.07468133,0.4992018,0.8715872,0.1666685,-0.06866869,0.07966695
0.07529212,0.4982927,0.8639465,0.1580587,-0.06850328,0.07824154
0.07600608,0.4985353,0.8649853,0.1483048,-0.05445449,0.07108174
0.07905574,0.498845,0.8665639,0.1402086,-0.02737995,0.06103523
0.08317146,0.4975454,0.8697272,0.1376804,-0.004512244,0.05750149
0.07822581,0.4991361,0.8734807,0.1376296,-0.01595056,0.05804631
0.06861464,0.5003189,0.8736062,0.1246427,-0.04236016,0.05835309
0.06537883,0.4993637,0.871299,0.1158365,-0.04462721,0.06654806
0.06808052,0.4953525,0.8728962,0.1263973,-0.04298051,0.07800716
0.07078502,0.4915102,0.8766016,0.1334137,-0.04499776,0.07578369
0.06834614,0.4932906,0.879054,0.1325025,-0.05131358,0.07028555
0.06738149,0.4955294,0.8797678,0.1329412,-0.06770779,0.07294313
0.0708195,0.4955946,0.8757248,0.133064,-0.07150923,0.07087547
0.0721842,0.4942626,0.8730172,0.1314109,-0.0739888,0.0677913
0.07339823,0.4921251,0.8711049,0.133724,-0.07440935,0.06809186
0.07401906,0.4919888,0.8705493,0.1391687,-0.06061897,0.0642505
0.07256889,0.4918928,0.8795755,0.1359603,-0.059537,0.06556463
0.07025793,0.4916099,0.8881335,0.1359566,-0.07345598,0.06892566
0.06741508,0.4936331,0.889057,0.1427403,-0.09829716,0.06627601
0.07023754,0.4949408,0.8816309,0.1402898,-0.1101917,0.06224299
0.0740689,0.4934975,0.8709114,0.1354331,-0.08209266,0.05584286
0.07171441,0.4923852,0.8738216,0.1302462,-0.06384583,0.05541828
0.07072571,0.4924213,0.8786705,0.1262188,-0.08499785,0.05709722
0.07144826,0.4926146,0.8757901,0.1296912,-0.102308,0.05345614
0.07126301,0.4939789,0.880696,0.1313506,-0.09361852,0.05671752
0.07247773,0.4948713,0.8819001,0.1312552,-0.08715014,0.05887257
0.07142561,0.4934224,0.878086,0.1319536,-0.09102348,0.0551909
0.0691433,0.4925492,0.8845047,0.1296073,-0.0939477,0.05486001
0.07031274,0.4930638,0.8861365,0.1273397,-0.1062917,0.05405793
0.07398003,0.4922299,0.8830237,0.1295153,-0.1090182,0.05315264
0.07746105,0.4914102,0.8824318,0.1314365,-0.09513447,0.05161821
0.07618041,0.4925932,0.8775869,0.1253467,-0.08916485,0.04909014
0.07355314,0.4934707,0.8772611,0.1202215,-0.08556263,0.04895007
0.07546406,0.4930487,0.8803102,0.1222925,-0.08970072,0.05015382
0.07580992,0.4930476,0.8806782,0.1223983,-0.09811981,0.05334098
0.07599257,0.4937318,0.880257,0.1200986,-0.09958008,0.05364018
0.07891923,0.4931112,0.8759577,0.1205771,-0.1056969,0.05032707
0.07749245,0.4920123,0.8714052,0.1241651,-0.1034257,0.04902797
0.07530426,0.4930324,0.8698014,0.125569,-0.09664404,0.04631375
0.07512418,0.4936143,0.8708996,0.1204976,-0.09601763,0.04210233
0.07641963,0.4928427,0.8727361,0.1134391,-0.07762914,0.04078233
0.08520493,0.493937,0.8768998,0.1110906,-0.04518444,0.03994918
0.0924437,0.4948133,0.8854781,0.1189588,-0.03362793,0.03843115
0.08659934,0.4933748,0.8843074,0.1240817,-0.06103606,0.0387179
0.08030322,0.4930496,0.872385,0.1010146,-0.08805128,0.03829906
0.08455216,0.4949144,0.8659366,0.07855465,-0.07513657,0.03726446
0.08542117,0.4964388,0.870068,0.1000835,-0.05477464,0.03801528
0.07788657,0.4965472,0.8770387,0.1185472,-0.05244112,0.03693479
0.07535388,0.4982474,0.8771753,0.09853272,-0.07221014,0.03690902
0.0777076,0.5019666,0.8782189,0.09105198,-0.1024728,0.03987588
0.08137939,0.5013328,0.8817862,0.1012605,-0.09706849,0.04047223
0.08485714,0.4968526,0.8793272,0.09883847,-0.08322295,0.03893609
0.08498229,0.4942235,0.8778531,0.09481801,-0.08883137,0.03606515
0.08597848,0.493832,0.876602,0.0922574,-0.07082384,0.03339078
0.08714528,0.4950018,0.8776338,0.09180301,-0.06450516,0.03193968
0.08769859,0.4954913,0.8846348,0.1012353,-0.09255609,0.03079367
0.08749723,0.495285,0.88265,0.1075924,-0.1044025,0.03205047
0.08494277,0.4945701,0.8700002,0.1034745,-0.09623646,0.0327002
0.08369279,0.4921668,0.858494,0.09733043,-0.07066781,0.02942562
0.08320063,0.4934868,0.8619308,0.09470635,-0.05080175,0.02633589
0.08577595,0.4974294,0.8743106,0.09258701,-0.06304117,0.02615144
0.09075765,0.4990531,0.8756222,0.08959313,-0.07160765,0.02452749
0.09235378,0.4988717,0.8751371,0.08752547,-0.06192031,0.02165896
0.09204089,0.4962237,0.8741825,0.0840114,-0.0497441,0.02509176
0.09107427,0.4952676,0.8675188,0.08066044,-0.04015882,0.02774889
0.0914421,0.4961711,0.864659,0.07704091,-0.03498055,0.02051175
0.09029525,0.4954184,0.863802,0.07141112,-0.03607845,0.01485199
0.08769578,0.4951,0.8653676,0.0664234,-0.03278576,0.01764087
0.08880833,0.4941584,0.8656845,0.06282286,-0.01896498,0.01924257
0.08741608,0.494347,0.8702782,0.06479458,-0.0149593,0.01715776
0.08507902,0.495837,0.8804384,0.0678068,-0.02000287,0.01881274
0.08629957,0.4957168,0.8756604,0.06564781,-0.02478796,0.02122567
0.08648776,0.496059,0.8723689,0.06592659,-0.02423534,0.01913153
0.08647371,0.4957659,0.8762779,0.06635854,-0.01583227,0.01729404
0.0858347,0.4956512,0.8696403,0.06082604,-0.01686004,0.01546656
0.08326069,0.4961603,0.8664684,0.05473438,-0.01627873,0.01285905
0.08173017,0.4955398,0.8683302,0.05099278,-0.008291354,0.01302455
0.08326232,0.4959592,0.8682171,0.04759824,0.001804741,0.01319318
0.0882654,0.4959085,0.8692314,0.04394143,0.0252294,0.01164272
0.09211183,0.4956181,0.8729731,0.0423332,0.03317153,0.01150302
0.08569052,0.4964359,0.8781452,0.03903716,0.008362858,0.01388513
0.07488431,0.4969118,0.873978,0.02533224,-0.01095061,0.01614883
0.07537542,0.4966982,0.8662564,0.01579581,-0.001665606,0.01577795
0.07899749,0.4944607,0.8657753,0.03154575,0.01225172,0.01434952
0.07799159,0.4937776,0.8710251,0.0495706,0.01051333,0.01352013
0.07973151,0.4952234,0.878312,0.04255345,-0.004120564,0.01261679
0.07963279,0.4947242,0.8795562,0.02944877,-0.02745073,0.01235986
0.07950299,0.4943976,0.8815095,0.02548958,-0.03164186,0.01345036
0.08242242,0.492936,0.8831972,0.02521069,-0.02055357,0.0124461
0.0817846,0.4898385,0.8700247,0.02905084,-0.02108122,0.007541595
0.08054596,0.4885951,0.8616479,0.02946572,-0.01375429,0.00440257
0.07908735,0.4896994,0.8757178,0.02782058,-0.01741791,0.007431256
0.07844493,0.492866,0.8891419,0.0335132,-0.04389345,0.01064083
0.08064244,0.4936494,0.8844381,0.03635328,-0.04931341,0.008710427
0.07999068,0.492646,0.8765374,0.03426273,-0.03116091,0.00730392
0.0795058,0.4933039,0.8756389,0.03102511,-0.01183366,0.007989598
0.0806791,0.4927615,0.8740796,0.02724784,-0.01557788,0.007045074
0.07848546,0.4921232,0.8750559,0.02810194,-0.0263886,0.006503045
0.07558248,0.4915851,0.8769842,0.02736399,-0.01649399,0.006328662
0.07597724,0.4914631,0.8754272,0.02351877,-0.01316221,0.007739928
0.07798147,0.4930163,0.8772867,0.02108156,-0.008703018,0.01002586
0.0779288,0.4931034,0.8782406,0.01917524,-0.007288796,0.006416853
0.07731468,0.4930776,0.8808189,0.01777717,-0.02230476,0.00059858
0.07718199,0.493142,0.8835025,0.01805629,-0.01936277,-0.002423018
0.07630036,0.493004,0.8788357,0.02209202,-0.01707371,-0.0005981354
0.07804144,0.494035,0.8786265,0.02195095,-0.01473794,0.003340057
0.07957898,0.493663,0.8747146,0.01859927,-0.001685014,0.0009353577
0.07599242,0.4928742,0.8682308,0.01972877,-0.01078978,0.002204226
0.07211882,0.4929107,0.877869,0.022644,-0.01708081,0.00831181
0.0719929,0.4931312,0.8840816,0.02816352,-0.0132154,0.007405834
0.07430205,0.4931892,0.8802922,0.02629295,-0.01636462,0.004969689
0.07563187,0.4928161,0.8819073,0.01907124,-0.01575747,0.0008283573
0.07477784,0.4932269,0.8825409,0.01858815,-0.02048081,-0.000753004
0.07390785,0.4934149,0.8780916,0.01702872,-0.02650301,0.004588126
0.07347403,0.4946757,0.8688702,0.016371,-0.03007638,0.002887974
0.07404354,0.4960795,0.8596983,0.01280772,-0.0312265,-0.003856768
0.07713851,0.4931773,0.8664315,0.007012876,-0.009718846,-0.007732933
0.08211803,0.4904984,0.8808552,0.01227336,0.02019076,-0.008719341
0.08365072,0.4910857,0.8835103,0.01477566,0.01929425,-0.004569851
0.07746493,0.4895339,0.8800868,0.0101876,-0.005992166,-0.001341586
0.07102737,0.4863159,0.8765469,0.005689064,-0.01413379,-0.002852122
0.07192047,0.4878528,0.8739879,0.002094048,0.001478504,-0.00202766
0.07488078,0.4920082,0.8770072,0.007101314,0.01249691,0.002847705
0.07517265,0.493872,0.8783863,0.0120166,-0.005080337,0.004882778
0.07470768,0.4952924,0.8756689,0.007547926,-0.03108506,0.00235876
0.07318237,0.4957957,0.8746103,0.004513233,-0.0301471,0.0001885789
0.07191455,0.4948513,0.8760585,0.008027968,-0.02593431,-0.0002964525
0.07416088,0.4919496,0.8789378,0.008792365,-0.02900125,-0.002993686
0.07673483,0.4852264,0.8793534,0.004828554,-0.02386977,-0.007862343
0.07665042,0.4801392,0.8781771,0.004633565,-0.02126464,-0.00890607
0.07560092,0.4823974,0.8788256,0.01001386,-0.02418309,-0.006328363
0.07376275,0.4895057,0.8837415,0.0173058,-0.05178644,-0.001326864
0.07204364,0.4928196,0.8893071,0.01792879,-0.0817425,0.004081535
0.07443745,0.490018,0.8842727,0.01350292,-0.05231278,-0.0002599522
0.07773726,0.4880353,0.8755916,0.01181147,-0.01068907,-0.007990449
0.07534442,0.4898268,0.8755326,0.006480009,-0.01820306,-0.005465079
0.07299468,0.492132,0.8820338,0.00422772,-0.04348259,-0.001502931
0.07489288,0.4914141,0.8886641,0.01109402,-0.05882573,-0.004111344
0.07791699,0.4903768,0.886035,0.01508735,-0.05323056,-0.00740621
0.08179327,0.4895497,0.8794734,0.01390538,-0.0326367,-0.006943202
0.08159152,0.4884155,0.8781523,0.009683006,-0.03035572,-0.002006096
0.08042463,0.4911921,0.8765207,0.007416008,-0.0339931,0.002857256
0.08471713,0.4932961,0.8738131,0.007687458,-0.03046716,0.001001617
0.08522781,0.4923357,0.8673072,0.006262004,-0.03177169,-0.003033512
0.08218917,0.4896857,0.8629047,0.009563936,-0.02785924,-0.003293033
0.08165513,0.4864461,0.8749466,0.01211146,-0.03289374,-0.005925854
0.08071526,0.4890734,0.8851421,0.009017634,-0.0437322,-0.008936255
0.08092298,0.4915075,0.8803867,0.009332324,-0.04151375,-0.008333379
0.08231704,0.488572,0.8793431,0.01098549,-0.0385127,-0.009083378
0.08386943,0.4867833,0.884538,0.01180734,-0.03189746,-0.005627502
0.08479421,0.4867312,0.8845573,0.01319331,-0.03397341,-0.001741846
0.08426648,0.4875522,0.879508,0.01382771,-0.04667468,-0.004209112
0.0851288,0.4882749,0.8747629,0.01460177,-0.05113093,-0.002556984
0.08440118,0.4887709,0.8735774,0.01540184,-0.05351872,0.001748648
0.08248509,0.4899634,0.8733721,0.01338453,-0.05062352,0.001125024
0.08339058,0.488661,0.8691126,0.00465553,-0.0429327,-0.00484477
0.08851332,0.4863612,0.8664024,0.001231674,-0.02733926,-0.009967894
0.09530604,0.4869773,0.869298,0.009288453,-0.005656833,-0.009623198
0.09150843,0.4903819,0.8709142,0.01199983,-0.004198992,-0.008065636
0.08397361,0.4942562,0.8720899,0.008456551,-0.02098864,-0.002112852
0.08572941,0.4927637,0.8708115,-0.002577096,-0.03129298,8.98028e-05
0.08914786,0.4893197,0.8652461,-0.01409787,-0.01988518,-0.005946409
0.09181724,0.4911204,0.8658451,0.003999628,-0.008842825,-0.006146898
0.08839141,0.4908825,0.8719512,0.02386173,-0.01946031,-0.005743143
0.08165596,0.4895164,0.8766615,0.009417128,-0.03396739,-0.007079181
0.08663847,0.4927927,0.8770361,-0.002437918,-0.04509947,-0.007800243
0.09413217,0.4939163,0.8787255,0.002336079,-0.04137201,-0.01105204
0.0977609,0.4935257,0.8852107,0.004886557,-0.02790854,-0.0102309
0.09725799,0.4915528,0.8815103,0.01009897,-0.02997836,-0.01002363
0.09203848,0.4872961,0.8753404,0.008707626,-0.02578897,-0.01102722
0.09509164,0.4886956,0.8796652,0.003514185,-0.01926701,-0.009002329
0.09829945,0.4908986,0.8797853,0.01431101,-0.03740357,-0.008996418
0.09585386,0.4897653,0.8768302,0.02092051,-0.04907549,-0.008248523
0.09643496,0.490838,0.872824,0.01483247,-0.03621268,-0.007606305
0.09419773,0.4922558,0.8654043,0.01036107,-0.02035703,-0.008134442
0.09399851,0.4931955,0.8676077,0.00466944,-0.01595139,-0.009467788
0.0953696,0.4939792,0.8723424,0.001362917,-0.01873797,-0.01134545
0.09360454,0.4943009,0.8722321,0.0002393038,-0.0155546,-0.009198215
0.09579798,0.4962859,0.8732763,-0.003135727,-0.003903476,-0.008695394
0.09504546,0.4954937,0.8697207,-0.00741109,0.01925909,-0.008217794
0.09278975,0.4939892,0.8675967,-0.01302139,0.03684666,-0.006655507
0.0933224,0.4984459,0.8706713,-0.01204074,0.02242002,-0.01076266
0.09289743,0.5008087,0.8683266,-0.009377731,0.008063214,-0.01065107
0.09511379,0.4970128,0.8674346,-0.01184731,0.0206817,-0.008204436
0.09558164,0.4936077,0.8707135,-0.01150882,0.02955416,-0.01097364
0.09475807,0.4929575,0.8709124,-0.01289524,0.02928049,-0.01058128
0.09545621,0.4925106,0.87106,-0.01533919,0.03266553,-0.009893977
0.09503086,0.4915141,0.870745,-0.01118193,0.03040516,-0.01144207
0.0960609,0.4946836,0.8711086,-0.008243357,0.03201696,-0.011353
0.09550393,0.4985785,0.8741668,-0.00928857,0.03644137,-0.01184987
0.0928593,0.4964248,0.8762996,-0.007306362,0.030349,-0.01148755
0.09090157,0.4916051,0.8771204,-0.003768409,0.02722435,-0.01184332
0.0894006,0.4889067,0.8760482,-0.007062732,0.02451124,-0.01468466
0.08626921,0.4902988,0.8750436,-0.01797092,0.02424613,-0.01562796
0.08257809,0.49119,0.8716379,-0.02728226,0.03684098,-0.01563593
0.08838969,0.4906516,0.8671325,-0.02668063,0.05621526,-0.01695687
0.09559779,0.4930913,0.8738578,-0.01981501,0.08256146,-0.02014005
0.09133891,0.4936184,0.8814867,-0.01904206,0.08739994,-0.02240613
0.08368735,0.4925469,0.8789128,-0.02600122,0.06068723,-0.01869754
0.07721892,0.4933334,0.8780458,-0.03735364,0.04195787,-0.01275497
0.07591216,0.4930012,0.8786052,-0.04419965,0.04231113,-0.009556165
0.07929737,0.4929566,0.877001,-0.03053172,0.05106859,-0.01059837
0.07762777,0.4932247,0.8789028,-0.01668017,0.05114836,-0.01362673
0.07689708,0.4928903,0.8797587,-0.02393818,0.03342118,-0.01315237
0.07974692,0.4926307,0.8767576,-0.02909976,0.0146135,-0.01113489
0.08163362,0.490342,0.8731161,-0.02758871,0.01152832,-0.0100371
0.08601556,0.4880345,0.86859,-0.03026779,0.02274835,-0.01215563
0.08582318,0.4886465,0.8684815,-0.02861308,0.02837475,-0.01622272
0.08228114,0.4904981,0.8713932,-0.02515648,0.03170499,-0.01411047
0.08212664,0.4940049,0.8724106,-0.02217585,0.03441729,-0.01110566
0.07838511,0.4983523,0.8759247,-0.01419792,0.01657411,-0.009835174
0.07894985,0.4955227,0.8744505,-0.0103428,0.001304978,-0.006408745
0.08352179,0.4879124,0.8654644,-0.01712969,0.008246853,-0.007465846
0.08078984,0.486599,0.8620918,-0.02453085,0.01603759,-0.01079071
0.07902982,0.4875934,0.8700856,-0.02222907,0.01703183,-0.01294187
0.07773508,0.4865055,0.8859783,-0.01961878,0.0178837,-0.01439581
0.07659853,0.4864185,0.8922548,-0.02283262,0.01852995,-0.01243837
0.0796698,0.4875269,0.8841318,-0.01831162,0.02144549,-0.01137945
0.08096434,0.4897442,0.8778037,-0.01492331,0.0299757,-0.01028109
0.08307763,0.4896939,0.8753957,-0.02247862,0.0302996,-0.008907809
0.08016704,0.4907654,0.8756968,-0.02666063,0.02057824,-0.00860263
0.0735958,0.4945523,0.8764694,-0.026136,0.01440785,-0.005752064
0.07749892,0.4926229,0.8743309,-0.02407282,0.01683257,-0.008444008
0.07941013,0.4895154,0.8757502,-0.02269504,0.02623923,-0.01394768
0.07588849,0.4888558,0.8778316,-0.02203936,0.02504378,-0.01310916
0.07563841,0.4889444,0.8787695,-0.01868396,0.01522198,-0.01324246
0.07314274,0.4929967,0.8823165,-0.01832334,0.01020933,-0.01311786
0.07365257,0.4950041,0.8830731,-0.01763402,0.01128125,-0.01082571
0.07608233,0.4915723,0.8826386,-0.01663774,0.01813582,-0.009895067
0.07267908,0.4884526,0.8840878,-0.01777563,0.01392074,-0.007914937
0.0712284,0.4890802,0.8833953,-0.01488408,0.005841297,-0.008062775
0.07189622,0.4905379,0.8834107,-0.0183262,-0.005507134,-0.009703136
0.0717148,0.4891144,0.8837935,-0.02985139,-0.01925028,-0.0103123
0.07525104,0.4891835,0.8808356,-0.03020354,0.008502165,-0.01456312
0.08122706,0.4894792,0.8800044,-0.01777813,0.04432301,-0.01972525
0.08359827,0.4880662,0.8816505,-0.0115518,0.04312689,-0.02014535
0.07707327,0.489454,0.8834925,-0.01790046,0.03718308,-0.01538526
0.06875886,0.4901639,0.8855812,-0.02434656,0.02251938,-0.009888467
0.06921056,0.490894,0.883234,-0.02345147,0.0008370667,-0.009128286
0.07034604,0.4924055,0.8817185,-0.01512547,0.01080586,-0.007909964
0.06745532,0.490225,0.8830443,-0.008837405,0.02348015,-0.003755125
0.06710237,0.4887616,0.8807699,-0.01661487,0.003135089,-0.004655414
0.06687652,0.4882405,0.8803703,-0.0246458,-0.009583191,-0.007724287
0.06702838,0.4876065,0.8817963,-0.01772151,-0.006795975,-0.007169017
0.06889588,0.4886903,0.8836925,-0.01239718,-0.01503547,-0.00608671
0.06845582,0.4882897,0.8853257,-0.01658196,-0.01739654,-0.005097897
0.07036971,0.4886352,0.8778185,-0.01642312,-0.01790901,-0.006825258
0.07336498,0.4895367,0.8746396,-0.01518823,-0.02187467,-0.009717667
0.07128773,0.4880939,0.8872373,-0.01288821,-0.02589286,-0.006893688
0.0705735,0.4871198,0.8948768,-0.006645462,-0.05256945,-0.005306515
0.07384763,0.4856696,0.8832225,-0.009689685,-0.07150313,-0.008705229
0.07589048,0.4844817,0.8706793,-0.01228936,-0.0450666,-0.01000975
0.0749477,0.4841902,0.8781172,-0.006070709,-0.0131427,-0.009479709
0.07359071,0.4830804,0.8884398,-0.004443292,-0.01529857,-0.009779999
0.07385582,0.4850126,0.8889041,-0.006139111,-0.02842659,-0.01252753
0.07547891,0.4868193,0.8856613,-0.007557148,-0.02748201,-0.0173206
0.08059431,0.4840464,0.8757248,-0.008601887,-0.02013057,-0.02100667
0.08507369,0.4825692,0.8771152,-0.00864421,-0.0118924,-0.02241624
0.08231855,0.4845197,0.8881734,-0.01036604,-0.02069637,-0.01872108
0.07884461,0.4888829,0.8880299,-0.01171668,-0.04098695,-0.007001015
0.07937962,0.4928159,0.8853036,-0.01095675,-0.04101771,0.00443631
0.08005266,0.4904776,0.8793889,-0.00627136,-0.02844473,0.001764398
0.08052686,0.4872377,0.8786229,-0.002456288,-0.01059054,-0.004128377
0.07999082,0.4889973,0.8838904,-0.007928075,-0.003956852,0.0002052518
0.07867797,0.4886669,0.8814508,-0.01248853,-0.02092082,0.000403571
0.08063529,0.4862439,0.8848622,-0.005778789,-0.03048602,-0.002126532
0.0838651,0.4870653,0.8828473,0.002177071,-0.03225363,-0.001562565
0.08524302,0.4869028,0.8755694,0.004737631,-0.03997938,-0.005694444
0.08470148,0.486386,0.8808687,0.007380836,-0.04790206,-0.00500196
0.08242929,0.4869442,0.8805129,0.007310212,-0.05001534,-0.002599022
0.08191896,0.4841832,0.8764154,0.003515837,-0.04485254,-0.003920702
0.08536292,0.4809569,0.8733234,0.00287414,-0.03794558,-0.002008257
0.09330864,0.4809084,0.8711359,0.004173306,-0.02074989,-0.007405329
0.09857816,0.4858724,0.8797976,0.01188096,-0.004958176,-0.0127065
0.0901122,0.4919907,0.8831332,0.02491907,-0.009772845,-0.004132655
0.08053412,0.4934539,0.877104,0.02381357,-0.02392114,0.002955917
0.08338404,0.4960942,0.8734386,0.005936705,-0.03422555,0.001346052
0.0866952,0.4972676,0.8743891,-0.007065916,-0.0185909,0.001276741
0.08632026,0.4945355,0.8764463,0.002480063,0.005959259,0.003639644
0.08748382,0.4960949,0.8739262,0.01637389,0.002757345,0.001257519
0.08721631,0.4964618,0.8728773,0.01150828,-0.001039345,-0.0003125728
0.08899686,0.4949345,0.8689032,0.0031634,0.0007640255,-0.00117892
0.09282876,0.4951966,0.8637208,-0.001066881,-0.01136771,-0.009521427
0.09247806,0.4893115,0.8719327,-0.00207199,-0.01568581,-0.01589423
0.09309901,0.4831428,0.8789259,0.003476035,-0.008976485,-0.01636312
0.09462288,0.4851067,0.8764266,0.003185846,-0.006104365,-0.01432924
0.0940542,0.4873252,0.8765251,0.006341701,-0.006593076,-0.01220232
0.0948365,0.4862117,0.8773021,0.01418115,-0.01209756,-0.01332579
0.0942082,0.4876012,0.8717063,0.00901849,-0.01301805,-0.01121518
0.09305694,0.4916269,0.8655346,0.002726535,0.005773558,-0.007996413
0.09166011,0.4940851,0.8686439,-0.00144453,0.03078545,-0.00542214
0.08732312,0.4960851,0.8745167,-0.00403469,0.03328821,-0.001349248
0.0857855,0.4948938,0.8779413,-0.005288092,0.02384748,-0.004558621
0.08879566,0.4918145,0.8796694,-0.01682737,0.02947737,-0.008829752
0.09236095,0.4950343,0.8735349,-0.0231897,0.04046855,-0.007265982
0.09189605,0.4967791,0.8696919,-0.02435859,0.05134608,-0.01031577
0.0888276,0.4931619,0.8774112,-0.03179448,0.05640401,-0.01577017
0.08797016,0.4913903,0.8818978,-0.03289565,0.04574288,-0.01427118
0.08757466,0.4895775,0.8744213,-0.03257727,0.04363729,-0.01285692
0.09006242,0.4883704,0.8681863,-0.03487454,0.05059003,-0.0151681
0.09284573,0.4894681,0.8736405,-0.0332353,0.052191,-0.01187159
0.09052816,0.4916324,0.8773297,-0.02641129,0.0543004,-0.006937864
0.08877182,0.4939218,0.8739065,-0.01713515,0.05256495,-0.006932814
0.08610346,0.4932415,0.8743119,-0.01809466,0.05297342,-0.005458774
0.08194136,0.4925266,0.87306,-0.01764724,0.05493293,-0.003153609
0.08187949,0.493396,0.8693002,-0.009744193,0.05087653,-0.006808576
0.07987469,0.4933804,0.8707005,-0.01867421,0.04824479,-0.01175171
0.07459706,0.4946933,0.8705877,-0.0317734,0.0447198,-0.009792313
0.07629251,0.4960028,0.8691215,-0.03516682,0.04316811,-0.009187538
0.08265047,0.4929398,0.8731277,-0.04018326,0.048683,-0.01496642
0.08745938,0.4886214,0.879202,-0.03225898,0.06340643,-0.01682155
0.09056972,0.4882962,0.8819168,-0.02093815,0.07662895,-0.01403295
0.08221583,0.488971,0.8798864,-0.03411871,0.06492858,-0.01116515
0.06961405,0.4873422,0.8763087,-0.04682928,0.05101504,-0.009927692
0.06947991,0.4870878,0.8743971,-0.040172,0.05411287,-0.008838257
0.06951649,0.4884665,0.8754437,-0.02889934,0.05137631,-0.006090225
0.06789541,0.4877571,0.8815986,-0.01834274,0.04434315,-0.005808289
0.07216933,0.4871627,0.8912878,-0.01808663,0.0395427,-0.005544734
0.07275306,0.4896349,0.8961963,-0.02352145,0.02831348,-0.005118538
0.0708964,0.490996,0.8897838,-0.01878699,0.01636774,-0.006308083
0.0709087,0.4898722,0.8811716,-0.01815571,0.01265315,-0.0055887
0.07171873,0.4889797,0.8794517,-0.02101448,0.0165718,-0.005932779
0.07367107,0.4869404,0.8774815,-0.01740352,0.02088252,-0.005244848
0.07311406,0.4853607,0.878579,-0.01762547,0.01986013,-0.003219066
0.06990065,0.4863662,0.8888545,-0.01319257,0.00963024,-0.003679391
0.06704509,0.4872484,0.8936524,-0.006566262,-0.002562419,-0.004430473
0.06754398,0.4872141,0.8839632,-0.009701383,0.006782753,-0.007592119
0.06898095,0.4858528,0.8737226,-0.009647029,0.02380345,-0.008846291
0.0672206,0.4842304,0.8787459,-0.008659605,0.02067321,-0.005035462
0.06611343,0.4854137,0.8841618,-0.01444262,0.01468244,-0.002102769
0.06560933,0.4872225,0.879085,-0.0190354,0.01179031,-0.002143843
0.06634615,0.487734,0.8829788,-0.01673405,0.00963485,-0.003250939
0.06889425,0.4896948,0.8875582,-0.009816862,0.01181648,0.0004331512
0.06636492,0.4921535,0.88538,-0.006869435,-5.199153e-05,0.002866914
0.06393755,0.4930606,0.8902367,-0.008075835,-0.0220562,-0.0002502119
0.06618506,0.4921444,0.8908592,-0.00901734,-0.03894605,-0.0008684113
0.0673292,0.4878106,0.8861097,-0.008108473,-0.04111457,-0.002362117
0.06897115,0.4837518,0.8837433,-0.006265647,-0.03450053,-0.003506887
0.06972491,0.482706,0.8819323,-0.0050607,-0.04645918,0.0005187961
0.06924219,0.4821877,0.8828318,0.00079331,-0.06097993,0.004030062
0.07221225,0.482106,0.8820567,0.01020905,-0.06486615,0.003931094
0.0738716,0.4820594,0.8814085,0.01763566,-0.06818229,0.003039729
0.0750852,0.4838616,0.8795205,0.0205904,-0.06497293,0.004612355
0.07884369,0.4868598,0.8788169,0.01900275,-0.06643687,0.004854351
0.07721212,0.4879862,0.8848484,0.01743359,-0.0675035,0.003763584
0.07312615,0.4893349,0.8837831,0.01448228,-0.06251685,0.002098876
0.07504664,0.4891795,0.8833409,0.01434001,-0.05610301,-0.004101007
0.08087736,0.4883546,0.8843337,0.02316606,-0.03564919,-0.008355939
0.08644177,0.4892636,0.8772807,0.02937914,-0.02626176,-0.006028558
0.08504661,0.4888082,0.8790824,0.02298581,-0.03666044,0.001156884
0.08095194,0.4887377,0.8783442,0.009486442,-0.03855118,0.006355122
0.08337497,0.4887774,0.8729875,0.004274189,-0.03618257,0.003705205
0.08310396,0.487601,0.8766745,0.01546013,-0.03668605,0.002544155
0.08163578,0.4894321,0.875909,0.02819114,-0.03741646,0.005161707
0.08570499,0.4934335,0.8761374,0.02662476,-0.03709213,0.00563686
0.0890353,0.4940958,0.8750725,0.02171745,-0.03683868,0.004680735
0.09306639,0.4922334,0.8696351,0.02262061,-0.03832134,0.002619846
0.09247911,0.4929008,0.87052,0.01811536,-0.03663189,-0.0006187433
0.08892757,0.4925391,0.8689877,0.0135231,-0.03084322,-0.003457657
0.09140458,0.4900444,0.8700435,0.0135308,-0.02175537,-0.00318396
0.09120783,0.4914766,0.8715705,0.01270411,-0.02132237,-0.001599327
0.09197203,0.4939181,0.8667317,0.01999935,-0.03423363,-0.0008569866
0.09378865,0.4948197,0.8646838,0.02664781,-0.04040838,-0.000245628
0.09111721,0.4947452,0.8629204,0.02332091,-0.03191115,-0.001257246
0.0922008,0.4946331,0.8639327,0.02159516,-0.0233,-0.001818401
0.09034271,0.4983145,0.8646539,0.02147732,-0.02883972,-0.001410824
0.08753751,0.5009963,0.8626926,0.02017698,-0.03537551,-0.00108717
0.09179552,0.4990048,0.864632,0.01904068,-0.03131149,-0.0005099952
0.09406396,0.4968279,0.8664959,0.01892795,-0.02403469,-0.002229239
0.09474805,0.4961154,0.8703706,0.01849762,-0.008718159,-0.003546954
0.09455215,0.4961959,0.8710006,0.01493116,-0.001191967,-0.002663633
0.0930035,0.4973375,0.8689088,0.01258693,-0.01045291,-0.001610934
0.09356673,0.4995375,0.8737724,0.01337528,-0.01097952,0.0009279984
0.09460869,0.4996093,0.873096,0.01500709,-0.007036492,0.001765152
0.09625769,0.4988537,0.8655396,0.01586292,-0.005038697,0.0002534868
0.09516607,0.4996858,0.8618568,0.01531622,0.0001448706,0.001169959
0.09271569,0.4987902,0.8661725,0.009118311,0.0005120176,0.002789226
0.09405947,0.4975922,0.8744004,-0.0001297655,0.002655105,0.003343525
0.09477862,0.4969898,0.8736549,0.001416425,0.007946357,0.0006790571
0.09435882,0.4967488,0.87235,0.003528648,0.01078603,-0.006989618
0.09448939,0.4968305,0.8739995,-0.002221775,0.01720321,-0.01138855
0.09433473,0.495245,0.8681817,-0.004457599,0.02266683,-0.009354276
0.09440146,0.49568,0.8670762,-0.008669847,0.01988927,-0.006395419
0.09329807,0.4969152,0.8720568,-0.01094779,0.01348304,-0.003906584
0.09185491,0.4979881,0.8707155,-0.01090607,0.01384319,-0.004240671
0.09248278,0.5010748,0.8655154,-0.02056981,0.02747123,-0.008693246
0.0969764,0.5007347,0.8643759,-0.01930408,0.04696606,-0.01167085
0.1016708,0.500891,0.8728067,-0.001767654,0.05725901,-0.01005013
0.09815752,0.5036014,0.8801312,0.005089289,0.04990269,-0.007029513
0.08959337,0.5010858,0.8736241,-0.01268863,0.0325544,-0.004958958
0.08452895,0.4987727,0.8657362,-0.03381036,0.02396887,-0.003932513
0.0850226,0.5003731,0.8689178,-0.02338471,0.03530918,-0.003388628
0.08633744,0.5005775,0.8737052,-0.01151165,0.04890016,-0.00292853
0.08094325,0.5014303,0.8744267,-0.01915706,0.03550193,-0.003280606
0.07747301,0.5031783,0.8711164,-0.01256584,0.01118962,-0.002466615
0.08411644,0.5011982,0.8603705,-0.01280372,0.005142235,0.0003629159
0.08897943,0.4989153,0.8555126,-0.02147406,0.01069378,0.002280787
0.08917049,0.5001323,0.859855,-0.01240833,0.02037577,0.001554325
0.08931569,0.4995286,0.8611821,-0.01239869,0.0237255,-0.001738168
0.08930925,0.4950861,0.8628792,-0.01677187,0.02294837,-0.003982842
0.09081723,0.491888,0.864763,-0.01459203,0.02576654,-0.003797273
0.09013712,0.4925917,0.869689,-0.01424067,0.01662053,-0.002832007
0.08789933,0.4938869,0.8779573,-0.01021469,0.01239154,-0.002580449
0.08712805,0.4930989,0.8753751,-0.01640114,0.02105439,-0.005994835
0.08491906,0.495075,0.8701974,-0.02300211,0.02600877,-0.007219305
0.08269923,0.4996167,0.8712835,-0.0159897,0.02842994,-0.003826331
0.08164921,0.5006234,0.8705958,-0.01324757,0.01768646,-0.002478076
0.08386505,0.4999596,0.8705697,-0.01542614,0.009216907,0.0002893517
0.08772879,0.4998421,0.8714211,-0.01836718,0.0178846,0.001740604
0.08771456,0.4991085,0.8699681,-0.02090645,0.02491162,-0.00197802
0.08669427,0.4957338,0.8691892,-0.02179931,0.02743935,-0.001850137
0.08401391,0.4916259,0.8681115,-0.02388673,0.0269596,-0.001455741
0.08066088,0.4937093,0.8691878,-0.02461243,0.03216367,-0.004261975
0.08141346,0.4967313,0.8721771,-0.02430445,0.04474469,-0.005033407
0.08062195,0.4949402,0.8708759,-0.02203372,0.04868115,-0.005150668
0.07699134,0.4930947,0.8712781,-0.02134318,0.03790452,-0.004033998
0.07547723,0.4913468,0.8743109,-0.02912406,0.02087933,-0.003697861
0.07553042,0.492411,0.8747918,-0.03428513,0.01444871,-0.004395456
0.07746133,0.4968635,0.8770017,-0.02174156,0.01773268,-0.003342259
0.08112494,0.4976303,0.8787623,-0.006757403,0.02509408,-0.003311048
0.0810903,0.496189,0.8791633,-0.009370493,0.03136819,-0.002324486
0.07879847,0.4952217,0.8831095,-0.01032168,0.02599234,-0.002143223
0.07912397,0.4938265,0.8870823,-0.005552339,0.01648046,-0.003790685
0.07794886,0.4923574,0.8874947,-0.01055351,0.01069463,-0.002481223
0.07546105,0.489955,0.8851462,-0.01368761,0.01160464,2.425346e-05
0.07526334,0.4883999,0.8780312,-0.02303969,0.01943022,0.001541352
0.07807486,0.488652,0.8701191,-0.03375439,0.03534795,-0.003666979
0.08397173,0.4893019,0.8751817,-0.01606209,0.06177681,-0.01062565
0.08460024,0.4900563,0.8837627,-0.001446995,0.06971508,-0.006599439
0.07694262,0.4911408,0.8808344,-0.01535686,0.04239759,-0.001474837
0.07044285,0.4922842,0.8817319,-0.02804236,0.02130377,-0.0001930041
0.07127053,0.4915663,0.8840375,-0.02785993,0.03316549,0.002224701
0.0737176,0.4913316,0.8796113,-0.01969963,0.04347472,-0.0004448024
0.07158696,0.4917702,0.8814308,-0.009727514,0.03568384,-0.002961218
0.07180022,0.4901045,0.8821676,-0.01122283,0.03136635,0.0009064909
0.07317021,0.4905257,0.8796323,-0.01858887,0.02462476,0.002545038
0.07140747,0.4911824,0.8784995,-0.01876882,0.01618311,0.001201055
0.07250378,0.4884975,0.8761139,-0.01692396,0.01454351,0.0004712765
0.07250561,0.4880061,0.8805497,-0.01606801,0.01056527,-0.0004579303
0.0716149,0.4892603,0.8824,-0.01742022,0.0168477,-0.001355507
0.07282169,0.4871009,0.8823836,-0.0200596,0.01903016,-0.0007343816
0.07188771,0.4852418,0.8903054,-0.01234655,0.004495679,0.004726058
0.07166377,0.4873019,0.8896785,-0.005102646,0.004039916,0.007339038
0.06949457,0.4880179,0.8815968,-0.008308093,0.01080163,-0.0005471734
0.0650281,0.4875376,0.8756201,-0.01049931,0.01609215,-0.004450134
0.06476242,0.4894285,0.8753855,-0.01473438,0.01899318,0.001519749
0.06553245,0.4907702,0.8785008,-0.02004777,0.01192194,0.005075475
0.06585539,0.4906654,0.8759993,-0.01794881,0.0146268,0.002604807
0.06785612,0.4910013,0.8801812,-0.01446723,0.02167352,-0.002702265
0.06989441,0.4929112,0.8843598,-0.01261033,0.02476189,-0.005820701
0.0681231,0.4929548,0.8785937,-0.0100272,0.02321626,-0.004132473
0.06512796,0.4890272,0.8784337,-0.0115014,0.01371662,-0.001913356
0.06599427,0.4869112,0.8784001,-0.01573686,0.01838888,-0.001485817
0.06536673,0.4889767,0.877804,-0.01520388,0.02693233,-0.001616233
0.06360247,0.4908619,0.8811929,-0.01465332,0.0276003,-0.001160297
0.06422884,0.4876691,0.8813136,-0.01480429,0.02225276,-0.0004588741
0.06382727,0.484536,0.8831845,-0.0121193,0.006393925,-0.0003369784
0.06471256,0.4864972,0.8846017,-0.01124203,0.006951104,-0.0005083188
0.06588283,0.4865009,0.8819833,-0.01036011,0.01259874,0.0001715184
0.06499913,0.4855434,0.8795114,-0.00652635,0.008601989,0.001299825
0.06530736,0.4870409,0.8742582,-0.001729761,0.01680114,0.001186787
0.0653775,0.4888404,0.8721523,-0.001949662,0.01922649,0.001272794
0.06512798,0.4919119,0.8793358,-0.005303454,0.01105675,0.001281289
0.06507083,0.4919022,0.8843331,-0.003744487,0.003945901,0.0008869262
0.06337852,0.4877521,0.8858385,-0.003142968,-0.008085791,0.002041638
0.0620042,0.4840504,0.8892752,-0.004852763,-0.01786289,0.002306165
0.06391086,0.4814758,0.8840729,-0.009689891,-0.01675244,0.0002200933
0.07088501,0.4816497,0.8766031,-0.01511961,0.002836844,-0.005813714
0.07644869,0.4827651,0.8792199,-0.005976277,0.02983317,-0.01246482
0.07026842,0.4834276,0.8803341,0.003196614,0.03522998,-0.00891639
0.05972286,0.4854911,0.8790163,-0.004043255,0.008484499,-0.001884782
0.05864331,0.485983,0.8804263,-0.01178004,-0.0155138,-0.001725356
0.06265231,0.485744,0.8803869,-0.01182574,0.002955135,-0.0008236094
0.06430326,0.4869539,0.8827233,-0.00584933,0.01508631,0.001894109
0.06450164,0.4873564,0.8880764,0.001350397,-0.0150367,0.002944209
0.06355164,0.4878178,0.8888185,-0.001148048,-0.03539224,0.003996335
0.06447506,0.4875811,0.8833925,-0.005057659,-0.03213804,0.00191877
0.06561566,0.4867006,0.8786735,-0.001273318,-0.02404514,-0.000311107
0.0645472,0.4863366,0.8800867,-0.002223751,-0.01854342,-1.573796e-05
0.06571043,0.484566,0.881996,-0.005007159,-0.02280505,-0.0008007951
0.06550319,0.4845297,0.8807345,-0.003189976,-0.02498552,0.0006877709
0.06460066,0.4853344,0.8820282,-0.001569436,-0.0250146,0.003693104
0.06595484,0.4851064,0.8818914,0.007369429,-0.03503576,0.003773475
0.065493,0.486709,0.8765596,0.01443102,-0.04782501,0.002203521
0.06782154,0.4862405,0.8740367,0.008844256,-0.04713028,0.003590377
0.0707151,0.4855653,0.8746964,0.004736072,-0.0327106,0.00801537
0.0694308,0.4863226,0.8757851,0.003740217,-0.0250554,0.007833448
0.07005514,0.4839972,0.8768947,0.002788556,-0.03072904,0.00674326
0.07189216,0.4829706,0.8777766,0.006449873,-0.03562867,0.006304617
0.07371942,0.4842632,0.8787118,0.01001128,-0.03092376,0.0009585182
0.07649237,0.4850557,0.8780802,0.005646582,-0.02397877,-0.001502055
0.07653945,0.484929,0.8793737,0.0006454527,-0.02261437,-0.001046833
0.07294909,0.4851737,0.8795366,0.003375177,-0.02561177,-0.0002052274
0.06949873,0.489492,0.8764227,0.003120836,-0.02985004,0.002283779
0.06950724,0.4926803,0.8764127,0.0008001609,-0.02212027,0.001641753
0.07220921,0.4897893,0.8760447,0.004974101,-0.01303626,0.001933819
0.07459433,0.4858747,0.8753836,0.008606415,-0.02420177,0.004244284
0.07381371,0.4854158,0.8752035,0.009804933,-0.03527872,0.005816273
0.07309842,0.4855265,0.8753683,0.009526545,-0.03655469,0.005978722
0.07501476,0.4833015,0.8802487,0.009103234,-0.03509854,0.001554572
0.07519603,0.4836583,0.8812816,0.01092622,-0.03033928,-0.001538089
0.07483829,0.4872253,0.8769496,0.01128186,-0.03045492,0.003399641
0.0751749,0.4897763,0.8767153,0.01156964,-0.03145874,0.009709217
0.07517036,0.4890819,0.8786969,0.01262137,-0.0326024,0.007818589
0.07691991,0.4860454,0.8774834,0.01297675,-0.03736223,0.006609993
0.07830217,0.4850408,0.8750741,0.01513989,-0.04019395,0.009505193
0.07771674,0.4847014,0.874274,0.01399605,-0.04614342,0.006405219
0.07663274,0.4852963,0.8729312,0.005805033,-0.04736587,0.004749304
0.07776781,0.4872976,0.8735329,0.002614456,-0.02726472,-0.001128339
0.0844967,0.4879647,0.8743033,0.01043639,0.0001525303,-0.01139725
0.09042718,0.4910377,0.8733577,0.01904929,0.001662921,-0.005689805
0.08505275,0.49284,0.8761863,0.02061729,-0.02226451,0.000247498
0.07692226,0.4908776,0.8769083,0.007301233,-0.03428113,-0.0006284981
0.07966622,0.4911649,0.8770697,-0.007446423,-0.02455205,0.003416391
0.08404106,0.4915167,0.8816071,0.006273371,-0.01705014,0.004129824
0.08420793,0.4905069,0.8815589,0.02091628,-0.02400835,0.005546864
0.08393078,0.4887152,0.8782067,0.01080915,-0.03365539,0.004932519
0.08076852,0.4881249,0.8745573,0.01000666,-0.03812622,-0.001383224
0.08163324,0.490572,0.8693681,0.01570628,-0.03966278,-0.0002051773
0.08488327,0.490148,0.8695198,0.01291079,-0.03609867,0.0004708522
0.08639201,0.488049,0.872525,0.01660875,-0.03564724,-0.0009348576
0.09207238,0.4876001,0.8708488,0.01661455,-0.03326343,0.002148993
0.0919469,0.4880578,0.8731371,0.01351044,-0.02448823,0.001948838
0.08829538,0.4904963,0.8788214,0.01734601,-0.02689888,0.0004465015
0.08868861,0.4908525,0.8774244,0.01638814,-0.02800882,-0.000965064
0.08430371,0.4911883,0.8747741,0.01348843,-0.02125018,-0.001958054
0.08186926,0.495032,0.8704898,0.01093669,-0.01330794,-0.003385943
0.0841298,0.4962176,0.8659087,0.005777341,-0.0003540043,-0.007643756
0.08441021,0.4939106,0.8687498,0.002860703,0.001429946,-0.004665559
0.08606821,0.4915286,0.8705037,0.001223215,0.001601822,-0.0006613585
0.08838296,0.4919328,0.8709771,0.0004393074,0.01549346,-0.003439014
0.08949913,0.4929879,0.8732744,-0.003733491,0.02819575,-0.002965686
0.08970928,0.491178,0.8741701,-0.008000779,0.03378123,-0.002024195
0.08897977,0.4911745,0.8760918,-0.00623868,0.02927167,-0.003144127
0.08699378,0.4913295,0.8753572,-0.009270998,0.02674319,-0.002890341
0.08430672,0.4896082,0.8711891,-0.01261387,0.03301708,-0.004190547
0.08427691,0.4901048,0.8711348,-0.008401666,0.03524939,-0.006177164
0.08403903,0.4897033,0.8783384,-0.007683775,0.03734089,-0.00700644
0.08171944,0.4883088,0.8843584,-0.01346005,0.03409374,-0.006828716
0.08075985,0.4889261,0.8807461,-0.01730925,0.02834665,-0.00623179
0.08044156,0.4891095,0.8762944,-0.0107118,0.03742784,-0.005594692
0.0804252,0.4888749,0.8768999,-0.002523767,0.04614215,-0.004761934
0.08074715,0.4898295,0.8792453,-0.005696866,0.04575942,-0.005749297
0.08045048,0.4908002,0.8832126,-0.01150953,0.04579239,-0.007391291
0.08018477,0.4909968,0.8827701,-0.01414691,0.04614805,-0.006725752
0.07849884,0.4910759,0.8746175,-0.01284596,0.04784064,-0.004178613
0.0746398,0.4916555,0.8693381,-0.006476574,0.04507906,-0.0005097468
0.07071759,0.4942787,0.8746623,-0.008137331,0.03134086,0.0006404214
0.06980839,0.4956062,0.88008,-0.01839992,0.02004992,-0.002798002
0.07633162,0.4887855,0.8749559,-0.01867005,0.03162914,-0.00685731
0.08613864,0.4818353,0.8715436,-0.009623818,0.05920757,-0.01147689
0.08650177,0.48443,0.8755784,-0.007064277,0.07367806,-0.01387498
0.07683966,0.4862808,0.8754136,-0.01232761,0.0661882,-0.01052701
0.06748624,0.4845213,0.8743471,-0.02206305,0.04485102,-0.006442696
0.06449732,0.4892548,0.8755731,-0.03076298,0.03069323,-0.0004547733
0.0661015,0.4934994,0.8746609,-0.02394542,0.04553307,0.003094026
0.06479801,0.4903709,0.8766565,-0.01019176,0.05863768,-0.0009643784
0.06277682,0.4886665,0.8832389,-0.008053373,0.03561616,-0.002543216
0.06570801,0.489796,0.8890841,-0.01229825,0.01153974,-0.003951467
0.06756782,0.4895681,0.885934,-0.01546104,0.01259882,-0.005454901
0.06842247,0.4880065,0.8795435,-0.01269389,0.01234518,-0.001712691
0.07045512,0.4850501,0.8824751,-0.008158286,0.008681936,-7.625284e-05
0.07024,0.4825083,0.8838689,-0.01015851,0.01176013,0.0009657965
0.06835193,0.48286,0.882228,-0.009469957,0.01073444,-0.001228444
0.0646629,0.4843715,0.8832884,-0.005856744,0.007492298,-0.003918169
0.06347164,0.4847427,0.8774459,-0.002398846,-0.00123582,0.001559944
0.06484305,0.4856319,0.8722468,0.001746646,-0.01062949,0.001576545
0.0641638,0.4864012,0.8756497,-0.001047259,0.0002523052,-0.0003324001
0.06561683,0.4873208,0.881912,-0.003077962,0.01113758,0.001352318
0.06619221,0.489965,0.8866994,-0.001835639,0.003058419,-0.0003870169
0.0662066,0.4891302,0.8850215,-0.004515604,-0.001841862,0.004649135
0.06920209,0.4875941,0.8833933,-0.004787056,0.002137161,0.008317612
0.06816686,0.4879348,0.8846387,-0.00432623,0.003365585,0.001565016
0.06731072,0.4852859,0.8829333,-0.004256635,0.00548974,-0.002427765
0.06842213,0.4856096,0.8828944,-0.002159375,0.006586628,-0.0004922601
0.06590396,0.4871165,0.883428,-0.00380176,0.004043924,0.002023626
0.06470749,0.4849937,0.880293,-0.00540272,0.007197747,0.000782523
0.06551294,0.4847035,0.878337,-0.003689847,0.007994024,0.0009681114
0.06625845,0.4839719,0.8792646,-0.002734188,0.00147534,0.001794173
0.06679896,0.4844424,0.8809604,-0.0006280899,-0.003203318,-0.0007445749
0.06552781,0.4867823,0.8833331,0.002377305,-0.005249751,0.000564534
0.06408499,0.4866282,0.8855528,0.002449355,-0.003052091,0.0004076309
0.06354467,0.4878667,0.8850489,0.001238302,-0.001966932,-0.001320629
0.06394771,0.4877224,0.8847554,0.0001858394,-0.00194877,-0.0001537257
0.06406178,0.4858865,0.8886635,-0.0007715737,0.001911132,-0.0009337105
0.06365758,0.4863888,0.8895155,0.002324958,0.002522335,0.0009271537
0.06422008,0.4855098,0.8804885,0.006097409,0.001691836,0.002573783
0.0647625,0.4842879,0.8717236,0.003584566,-0.001434137,-0.0006237579
0.06474321,0.4834714,0.8754962,0.001628882,-0.008619795,-0.002883277
0.06195677,0.4844787,0.8817134,0.002043156,-0.01975671,-0.002945545
0.0590074,0.4873784,0.8790582,-0.004248579,-0.02958927,-0.003006037
0.06374969,0.4857069,0.8750054,-0.01025958,-0.008813206,-0.003841433
0.07082782,0.4834648,0.8731457,-0.003669549,0.02469976,-0.00123841
0.07032772,0.4822822,0.8795871,0.007879088,0.02236503,0.002401558
0.06331066,0.4792649,0.8899373,0.009827317,0.004399649,0.002276393
0.05783135,0.4794522,0.8830482,0.0001418664,0.002704989,0.003793489
0.06081403,0.4822926,0.8767378,-0.008763741,0.01686319,0.008494189
0.06446266,0.4861486,0.8835023,-0.005732032,0.03133043,0.01086389
0.06096796,0.489031,0.8826353,-0.002299405,0.01507358,0.006391692
0.06033638,0.4885774,0.8826303,-0.006293072,-0.01129488,0.001951479
0.06299554,0.488043,0.8858647,-0.00467796,-0.01017183,0.002141541
0.06223402,0.4863335,0.8815116,-0.002042168,-0.003810889,0.0004077048
0.06259158,0.4854295,0.8795366,-0.003521183,-0.003937797,0.0006672514
0.06288188,0.486641,0.880856,-0.001873068,-0.01046263,0.001418661
0.06296229,0.4855457,0.8816689,-0.003416581,-0.02118214,-0.004902008
0.06442585,0.4842341,0.8823581,-0.002381195,-0.01308115,-0.00909929
0.06268057,0.4830641,0.8826885,0.006869324,-0.00932051,-0.004020341
0.06107971,0.4828014,0.883053,0.01247276,-0.02835499,0.003156741
0.06129322,0.4841623,0.8797277,0.01141713,-0.03757268,0.003448028
0.0617812,0.4839423,0.8772175,0.007647137,-0.02439447,0.0003466764
0.06304975,0.484121,0.8813366,0.007853994,-0.01165681,-8.580148e-07
0.06281766,0.4816682,0.8857704,0.0086012,-0.02235219,0.0005042305
0.06438205,0.4778212,0.8844283,0.006926774,-0.03097199,0.002027794
0.06791678,0.4808385,0.8830197,0.007595548,-0.02073766,0.002110369
0.06861022,0.4833958,0.8858683,0.005299154,-0.01763552,0.001205563
0.06756118,0.4819589,0.8864379,0.00462404,-0.01510401,0.00328473
0.0664604,0.4844069,0.8856988,0.005317712,-0.01352048,0.004588981
0.06670365,0.4873658,0.8853744,0.001413063,-0.01953151,0.004262198
0.06834603,0.4861412,0.8828247,0.001339773,-0.01670214,0.002717547
0.06857784,0.4855241,0.8817365,0.005286415,-0.01541213,0.0005344036
0.06778261,0.48656,0.8817962,0.01047437,-0.01925026,0.0004001806
0.0689385,0.4860536,0.8829083,0.01104314,-0.02869484,0.001405005
0.07006958,0.4851604,0.8845316,0.008432529,-0.04404279,0.002308243
0.0695316,0.4823073,0.8855627,0.0112327,-0.03942926,0.00082865
0.07117958,0.4765975,0.8884505,0.01132594,-0.02980062,-0.0001067184
0.07281201,0.4763921,0.8879904,0.01346212,-0.03308277,0.001705447
0.07129204,0.4834787,0.8861563,0.01918961,-0.03121334,0.003171888
0.07032145,0.4891107,0.8860543,0.01734363,-0.03043541,0.006547713
0.07105542,0.4890918,0.8826108,0.01599607,-0.03201281,0.007242644
0.07195241,0.4877463,0.8830215,0.01584785,-0.03614622,0.005444627
0.07230032,0.487429,0.8877302,0.01337453,-0.05066535,0.009185843
0.07233925,0.4846222,0.8868349,0.009818385,-0.05048946,0.01013901
0.07288286,0.482623,0.8809215,0.002475577,-0.03501982,0.005040885
0.07569314,0.4828276,0.8769415,0.002772724,-0.02076147,0.0005040751
0.0788675,0.4804611,0.8824958,0.01322093,-0.006716909,-0.001744978
0.07719049,0.4803954,0.8882673,0.01835663,-0.01750447,-0.0004285676
0.07509443,0.4832771,0.88133,0.01350418,-0.04160114,0.0004055049
0.07610938,0.484894,0.8756668,0.005421885,-0.03668362,0.0008445401
0.07563684,0.4857718,0.8793737,0.004206507,-0.01010228,0.00208224
0.07522993,0.4855548,0.880827,0.01038117,0.01006238,-0.003468759
0.07537315,0.4884975,0.8802224,0.01434729,-0.01268238,-0.009185316
0.07502747,0.490517,0.8809203,0.01246461,-0.04619363,-0.003220778
0.07783482,0.4875978,0.8799966,0.008927766,-0.02975785,0.004461336
0.08059281,0.4878767,0.8790912,0.009407889,-0.02346975,0.004959758
0.0808585,0.4870298,0.8799382,0.01201622,-0.03796345,0.004226885
0.08216799,0.4846882,0.8842145,0.01355318,-0.0262503,0.001132642
0.08242185,0.4860583,0.8872893,0.01337849,-0.02885812,-0.003156549
0.08146145,0.4853771,0.882305,0.01220058,-0.03628591,0.0004865725
0.08209137,0.4858007,0.8786735,0.01730509,-0.03753156,0.004560354
0.08209605,0.4870009,0.8806406,0.02314048,-0.05303014,0.001866177
0.08151595,0.4853946,0.8783004,0.02218571,-0.04485705,0.0003379827
0.08175924,0.4866459,0.8722408,0.02043596,-0.02914744,0.0003844373
0.08293654,0.4882042,0.8695058,0.01512246,-0.02694423,0.0002994367
0.08552089,0.4889194,0.8703955,0.008967995,-0.02143682,0.002979738
0.0864535,0.489539,0.8697136,0.009567307,-0.02313292,0.004831069
0.0864537,0.4882855,0.8670588,0.009216011,-0.01506865,0.003027488
0.08745771,0.4890127,0.8678241,0.005844193,0.002690423,4.434607e-05
0.08410666,0.4892264,0.8686229,0.005312268,0.008155683,-0.002117876
0.08075761,0.4883683,0.8665994,0.002185321,0.00830763,-0.002620927
0.08474898,0.489294,0.8670279,-0.005025246,0.01138135,-0.002112887
0.08758816,0.4887666,0.8696973,-0.004773348,0.02152714,-0.002211119
0.08581212,0.4887308,0.8727057,0.001253975,0.02190715,-0.002843284
0.08554772,0.4890251,0.8747953,0.003457068,0.0169828,-0.002444924
0.0852672,0.487687,0.876519,-0.001207348,0.02520062,-0.001238817
0.08254653,0.4874048,0.8833403,-0.007884088,0.02986723,-0.0003762301
0.08096925,0.4875715,0.890069,-0.005789634,0.03407706,-0.0003049365
0.08144476,0.4884566,0.8878355,-0.004830876,0.02622295,-0.0007814839
0.08153806,0.4894449,0.8812597,-0.009665571,-0.01624203,-0.0004368143
0.08273147,0.4896689,0.8771228,-0.007380476,-0.04173678,-0.0001072675
0.08374226,0.4903679,0.8769182,-0.003615365,0.004098679,0.0001084685
0.08076777,0.4895129,0.8787841,-0.001667097,0.05358549,0.00240721
0.07712184,0.4882019,0.8796778,-0.003787617,0.01434756,0.004150206
0.07785852,0.4878666,0.8801914,-0.00917935,-0.0156774,0.001644795
0.08693906,0.4865011,0.879443,-0.003960671,0.03917622,-0.004793226
0.09574474,0.485598,0.8774661,0.0009072702,0.06415633,-0.00959269
0.08780132,0.4862203,0.8810355,-0.002338141,0.04790854,-0.005729928
0.07604724,0.4862957,0.8850073,-0.007292362,0.03527102,0.0001824135
0.07730887,0.4858854,0.8806874,-0.01838992,0.01878246,-0.0005161648
0.07867261,0.4862097,0.876661,-0.02383741,0.03496801,-0.0006302638
0.07625185,0.4861711,0.8775742,-0.01722538,0.04973894,0.003273403
0.07435735,0.4859592,0.8831781,-0.00922836,0.02475808,0.00517244
0.06923843,0.4866147,0.8890817,-0.002775918,0.005810265,0.003361151
0.06874903,0.4878284,0.8828156,-0.005052653,0.007249822,0.0008343902
0.07319598,0.4894057,0.8763999,-0.01047512,0.01114564,0.001226334
0.07382745,0.4888462,0.8832923,-0.007415769,0.008306638,-0.0003759692
0.0729014,0.48621,0.8861537,-0.007932497,0.009480475,-0.004740598
0.07173629,0.4840708,0.8793058,-0.01122265,0.01419195,-0.003394267
0.07218598,0.4826321,0.8767317,-0.006911805,0.01409017,-0.0008871024
0.07370429,0.4834432,0.8810952,-0.002291169,0.01206476,0.001458309
0.07337921,0.48472,0.88598,0.001232273,0.0005181228,0.005288104
0.07333989,0.4845562,0.8865441,3.192773e-05,-0.004577277,0.001151729
0.07092116,0.48514,0.8839418,-0.005526083,0.009239819,-0.003894387
0.06834037,0.4859299,0.8833308,-0.003427147,0.01966355,-0.002662528
0.06988898,0.4879683,0.88595,-0.002244272,0.01384359,-0.003477205
0.07190353,0.4894901,0.8871437,-0.004102998,0.007482139,-0.004452477
0.07431976,0.4863456,0.8805868,-0.003053155,0.0158978,-0.003475444
0.07579914,0.4826146,0.8736211,-0.005637086,0.02172061,-0.002436705
0.0748522,0.4820077,0.8769654,-0.005618476,0.02168994,-0.0006074963
0.07422873,0.4855338,0.8798641,-0.00408982,0.02034925,-0.001565994
0.07237599,0.4899734,0.8777763,-0.005580736,0.0124873,-0.002617518
0.0688928,0.4889187,0.880256,-0.004125136,0.01554114,0.001017692
0.06784966,0.4861656,0.8816581,-0.004405065,0.0191409,0.003821036
0.06844531,0.4851521,0.879724,-0.004228105,0.0135121,0.00255141
0.06795365,0.4840067,0.8806146,-0.001977968,0.01095369,0.0007370013
0.06889465,0.4839062,0.8799134,-0.0025006,0.003446304,0.0001372247
0.07003695,0.4833533,0.8784355,-0.001666367,0.004277935,-0.0007322295
0.06901585,0.4832139,0.8801666,-0.0004488778,0.01233018,-0.001599418
0.06835586,0.4860798,0.8827801,0.001062608,0.01039325,-0.0004401676
0.06704118,0.4892433,0.8856332,0.00384782,0.01105355,0.0003156247
0.06663238,0.4903816,0.8844546,0.004564979,0.01071563,4.074868e-05
0.06979056,0.4869415,0.8789142,0.005251133,0.01094189,0.0009816551
0.07255272,0.4829597,0.8751206,0.00539902,0.01232693,0.0002740551
0.07197184,0.4845713,0.8740746,0.001887695,-0.0006295352,-0.0005205123
0.06826915,0.4846683,0.8747757,-0.005149253,-0.008976214,0.001045185
0.06558141,0.4822963,0.8727197,-0.01189669,-0.004745163,-6.657945e-05
0.06793394,0.4834938,0.8699089,-0.01125534,0.006002866,-0.004010049
0.07433895,0.4839087,0.8743252,-0.00211806,0.03068908,-0.007544975
0.07846303,0.4837358,0.880908,0.004385817,0.04101819,-0.007154032
0.07189894,0.4852864,0.8857881,-0.004146652,0.02469406,-0.002374965
0.06297135,0.4853427,0.8884545,-0.0199062,0.01973506,-4.178214e-05
0.06461847,0.4870293,0.8848534,-0.02452818,0.03272744,0.00088173
0.06558762,0.4898461,0.8819595,-0.01655954,0.03833964,0.00229515
0.05796642,0.4874918,0.8844964,-0.007436561,0.0255685,0.000933788
0.05411566,0.4827741,0.8845972,-0.005636363,0.00517103,0.0006133909
0.05771475,0.4803247,0.87983,-0.007761915,-0.002083977,0.001718407
0.06224777,0.4795056,0.8765806,-0.006488918,0.001958355,0.001718265
0.06332537,0.4782166,0.8783813,-0.003630718,0.0008356256,0.00182847
0.06205119,0.4758335,0.8802337,-0.002493993,-0.005629052,0.0008589705
0.06275592,0.4768065,0.8788722,-0.005892633,-0.007449328,-0.00123702
0.06354871,0.4798703,0.8789757,-0.009487077,-0.002959937,-0.002329492
0.06388946,0.4795004,0.8811368,-0.002744522,-0.00330789,-0.001828905
0.06445794,0.4813175,0.8835485,0.004074018,-0.01506642,-0.001538062
0.06455526,0.486546,0.8870396,0.001128079,-0.02471738,-0.002099715
0.06659171,0.4882467,0.8857708,-0.0004950664,-0.01382002,-0.001547372
0.06720087,0.4865656,0.8788818,0.0001457439,-0.0003654123,0.0008615403
0.06605398,0.4844585,0.8756325,-0.0004083738,-0.007062621,0.003141413
0.06599881,0.4838198,0.8776294,0.001560251,-0.008193853,0.002679731
0.06496152,0.4814894,0.881844,0.001800078,-0.0003211754,0.002289874
0.06508607,0.4777393,0.8865126,-0.00146128,-0.001557176,0.003653992
0.06564235,0.4789344,0.8893844,-0.003397496,0.001303735,0.002632307
0.06500411,0.4805534,0.8892084,-0.003057295,-0.000822063,0.0005023321
0.06537077,0.480695,0.887061,-0.002067291,-0.009218926,-2.970018e-05
0.06533189,0.4821269,0.8856303,-0.001984497,-0.004312431,-0.0003390826
0.06426474,0.4815816,0.885186,0.0003412502,-0.003468131,-0.001215741
0.06092704,0.4828852,0.8887677,0.003766779,-0.01141978,-0.001997554
0.05743405,0.4848016,0.8929782,0.002912823,-0.01860088,0.001068866
0.06067446,0.482123,0.8879048,0.003528151,-0.02862004,0.004930952
0.06527505,0.4812971,0.8817465,0.005971237,-0.02955087,0.001957401
0.06428544,0.4810972,0.8814862,0.005329956,-0.02092601,-0.001651804
0.06516959,0.4803773,0.8807464,0.005945733,-0.01643396,-0.00166895
0.06893899,0.4827867,0.8820033,0.00660368,-0.0179358,-0.001643694
0.06916032,0.4812161,0.8851411,0.0059738,-0.02098264,0.002288132
0.06927608,0.4793819,0.8837575,0.006917669,-0.02125524,0.005670048
0.06973286,0.4819185,0.8808194,0.007840173,-0.02544997,0.003284165
0.06780638,0.4827895,0.8805482,0.01070616,-0.03438514,0.004162096
0.06610655,0.4844309,0.8822929,0.01265886,-0.04284082,0.008318205
0.06584487,0.483337,0.8837038,0.008236784,-0.04925377,0.009443003
0.07125392,0.4794007,0.8815232,0.007139455,-0.03463796,0.005788943
0.08026764,0.4792172,0.8785952,0.01132344,-0.0006327954,-0.002106869
0.08113122,0.4789602,0.8790544,0.0117784,0.01081358,-0.004647861
0.07448298,0.4801268,0.8792674,0.01206545,-0.01748632,0.001721424
0.07042356,0.4819737,0.8778612,0.007797802,-0.04302087,0.006283108
0.0720101,0.4835816,0.8767363,-0.001500973,-0.02735824,0.00347351
0.07320755,0.4874799,0.8765254,0.001528639,-0.006578772,0.0009662143
0.07141252,0.4867357,0.8791156,0.009259603,-0.01114375,0.004099156
0.07127302,0.485908,0.8804973,0.009837971,-0.02634675,0.007289416
0.07159269,0.4878521,0.8752872,0.006206941,-0.04635074,0.01013996
0.07324199,0.4834983,0.8711628,0.0002161073,-0.04317659,0.01063117
0.07806446,0.4789289,0.8772471,0.004867925,-0.03107449,0.005594226
0.07880592,0.480346,0.8836532,0.01097483,-0.04781185,0.004118686
0.0782691,0.4822716,0.8812441,0.004908856,-0.04777668,0.004702877
0.08174925,0.4830153,0.8825406,0.004543335,-0.03126096,0.003849159
0.08350904,0.4867276,0.8913418,0.00867207,-0.03205866,0.004302333
0.0833916,0.4902499,0.894978,0.01284836,-0.04520675,0.002610537
0.0832124,0.4861594,0.8889456,0.02282672,-0.06769443,0.003898783
0.08227828,0.4829067,0.881656,0.02702289,-0.05927108,0.006328968
0.0818263,0.4857312,0.8841844,0.02506236,-0.03798701,0.002681007
0.08177509,0.4867592,0.8863734,0.02203873,-0.04111514,0.001417792
0.08210377,0.4874922,0.8803568,0.01814322,-0.04138631,0.003102372
0.08267808,0.4883328,0.8792755,0.01819428,-0.04903776,0.001533234
0.08534295,0.4878006,0.877255,0.01700936,-0.04520937,0.0007418345
0.08879594,0.4893123,0.8713941,0.01358378,-0.02918524,0.001984687
0.08798833,0.4892525,0.8738869,0.01566875,-0.03678892,0.002518409
0.08754308,0.4884436,0.8826806,0.01826849,-0.03509592,0.003917967
