accx,accy,accz,gyrox,gyroy,gyroz
0.1430435,0.8582404,0.5079076,0.1659561,0.1052379,0.2300635
0.1437065,0.8590809,0.5049226,0.1630211,0.1034863,0.2302418
0.1448624,0.8535234,0.5047835,0.1539797,0.1005688,0.2253475
0.1484423,0.8522739,0.5065643,0.1495355,0.1043153,0.221381
0.1492003,0.8523913,0.5050091,0.1492157,0.1043875,0.2179403
0.1482776,0.8529684,0.5050126,0.1465224,0.1009917,0.2142378
0.1475699,0.8520864,0.5031928,0.1433593,0.09919617,0.2152435
0.1471017,0.850266,0.5007717,0.1415395,0.09719295,0.2146341
0.1467622,0.8510904,0.5041014,0.1410373,0.09732916,0.2121832
0.1454955,0.8494203,0.5079027,0.1410029,0.09527048,0.2104543
0.1439843,0.8485541,0.506573,0.1467363,0.09222547,0.2060362
0.1444255,0.8477868,0.503754,0.1524269,0.08981037,0.2038606
0.1467648,0.8444545,0.5023412,0.1514937,0.08725128,0.2019986
0.1475646,0.8446376,0.50236,0.1502648,0.08738082,0.198939
0.1472379,0.846368,0.5032717,0.1495868,0.08807986,0.1962125
0.147202,0.8486272,0.5030438,0.1499306,0.09077529,0.1896808
0.1470922,0.8495286,0.5042655,0.1496244,0.09163724,0.1863077
0.1472389,0.8486411,0.5059821,0.147587,0.08897051,0.1860455
0.1462214,0.8498583,0.502823,0.1461789,0.08976207,0.1849947
0.145679,0.8492591,0.5012245,0.1435254,0.08906284,0.1859521
0.146815,0.8490766,0.5068527,0.1420692,0.08794738,0.1824794
0.1472993,0.8505766,0.510878,0.1405823,0.08883995,0.1776414
0.1463016,0.8494945,0.5055815,0.137148,0.08431462,0.1769031
0.1442303,0.8485193,0.5001786,0.1367344,0.07989616,0.1760487
0.1432721,0.8475181,0.5030452,0.1370871,0.07913311,0.1751708
0.1430053,0.8451632,0.5038763,0.1362816,0.07637596,0.1726486
0.1436986,0.8426314,0.501982,0.1356516,0.07411615,0.1694934
0.1478127,0.8442798,0.5050637,0.131575,0.07527962,0.1671474
0.1510613,0.8493336,0.5063049,0.1271683,0.07569286,0.1616367
0.149555,0.8489595,0.5051889,0.1284983,0.07384811,0.155557
0.1469777,0.84795,0.5055257,0.1284908,0.07680435,0.1527725
0.1461166,0.8490921,0.5042201,0.121365,0.08951564,0.1515917
0.1441694,0.8472834,0.5021456,0.1171585,0.1010674,0.1501771
0.1429032,0.847033,0.5022095,0.1238827,0.09326918,0.149995
0.1427558,0.8471856,0.5083941,0.1314195,0.07449586,0.1523413
0.1392437,0.846104,0.5151732,0.1296691,0.06651713,0.1530609
0.1394188,0.8462315,0.5113611,0.1278544,0.06589666,0.1487941
0.1419056,0.8472362,0.5026965,0.129522,0.06574873,0.1441597
0.1402505,0.8494686,0.4976677,0.1268252,0.06405135,0.1429913
0.1423049,0.8488406,0.4973934,0.1257773,0.06107585,0.1395214
0.1442346,0.8480531,0.5011368,0.1267737,0.06072915,0.1338029
0.1439181,0.850315,0.5057511,0.1239368,0.05521592,0.1327475
0.1457287,0.8509335,0.5110959,0.1225619,0.05059039,0.1320549
0.1458913,0.8516116,0.5112837,0.1212768,0.0518213,0.1295515
0.1482831,0.8516544,0.506585,0.1204809,0.05096196,0.1278169
0.1489033,0.8509163,0.5075955,0.1222882,0.05520736,0.1238878
0.1458844,0.851753,0.5062433,0.1215806,0.05690662,0.1203942
0.1475544,0.8509328,0.5020529,0.1200709,0.04968064,0.1194317
0.1476292,0.8490966,0.5033821,0.1186645,0.04616452,0.1191557
0.1465483,0.846554,0.502584,0.1179263,0.04932058,0.1198755
0.1474325,0.8448153,0.5035919,0.1169361,0.05665125,0.1174754
0.1449837,0.846178,0.5061561,0.1122772,0.05937695,0.1109279
0.1429704,0.8471195,0.5049855,0.1087826,0.05726678,0.1082598
0.1428148,0.8507881,0.5060547,0.1080126,0.0542088,0.1117973
0.1428723,0.8561145,0.5052657,0.1084541,0.04892632,0.1130851
0.1424201,0.8545245,0.504283,0.107154,0.04720219,0.1099383
0.1410895,0.8517703,0.5044024,0.1048437,0.04384583,0.1078936
0.1422573,0.8522137,0.5024987,0.1063731,0.03947685,0.1056082
0.1446038,0.8500268,0.5034343,0.1053572,0.04257094,0.1017785
0.1461608,0.8483268,0.5044109,0.1021775,0.04881153,0.1000565
0.14494,0.8489459,0.5053311,0.100134,0.05371564,0.09950515
0.1407956,0.8483021,0.5036471,0.09835529,0.04937092,0.09723155
0.1396134,0.8486566,0.4993759,0.1024848,0.04190719,0.09490567
0.1409354,0.8486828,0.5010948,0.1063348,0.04313302,0.09195225
0.1430109,0.8475132,0.502775,0.1044961,0.04048474,0.08784378
0.1453076,0.8479675,0.505013,0.1020742,0.03545064,0.08756411
0.1446199,0.8479761,0.5085711,0.1001218,0.04033241,0.08735285
0.1435829,0.8480176,0.5051859,0.09926243,0.04304823,0.08378894
0.1429702,0.8487375,0.5019513,0.09924774,0.03699086,0.08131747
0.1416463,0.8487218,0.5016538,0.09922572,0.03159992,0.0778388
0.1441515,0.8491427,0.5025529,0.09601214,0.03221833,0.07533983
0.1482973,0.8511451,0.5054783,0.09239942,0.03670716,0.07386189
0.1484453,0.8539241,0.5048124,0.09489459,0.03655011,0.06981759
0.1477064,0.8538,0.5032821,0.09519409,0.03384948,0.07100364
0.1464573,0.8525922,0.5030415,0.08809522,0.03710601,0.07465326
0.1431938,0.8520833,0.5022587,0.08190758,0.03929526,0.07342035
0.1427489,0.8500123,0.5040331,0.08203561,0.03649629,0.0714818
0.1419686,0.8503649,0.5046586,0.08273735,0.0337789,0.06871045
0.1389813,0.851019,0.5035309,0.08001473,0.03154566,0.06551527
0.1403044,0.8486018,0.5035857,0.08035902,0.03054857,0.06350721
0.1415405,0.8481863,0.5024015,0.08131944,0.02764638,0.06191187
0.1423678,0.8492041,0.502735,0.08078486,0.02246079,0.06189874
0.1465369,0.8503665,0.5044989,0.08269153,0.02167191,0.06265644
0.1463264,0.8519042,0.5060132,0.0812939,0.02229431,0.06406026
0.144054,0.8512392,0.5084651,0.07905336,0.02430763,0.06250069
0.1446859,0.8492403,0.5078015,0.08017472,0.0306326,0.0570989
0.1450084,0.8482118,0.506242,0.0805888,0.03112357,0.05582516
0.1479638,0.8484976,0.5071169,0.0820322,0.02752974,0.05555579
0.1507886,0.8486572,0.5068794,0.08194207,0.0288669,0.05048589
0.1472922,0.8476355,0.5059018,0.07983507,0.02981555,0.04706391
0.1434733,0.8468831,0.5053642,0.0795724,0.03046418,0.04786155
0.1442359,0.8474011,0.5056066,0.07717751,0.03122158,0.04918942
0.1450135,0.8486269,0.505947,0.07554498,0.02846647,0.04993221
0.1436997,0.8508985,0.5038808,0.07791868,0.02687484,0.04895947
0.1425076,0.8542169,0.5018267,0.07826921,0.02402445,0.04688615
0.1404714,0.8565546,0.5027304,0.07450182,0.01928175,0.04644412
0.1394748,0.8571295,0.5036895,0.06834687,0.02012085,0.04566353
0.1413348,0.8559845,0.5041192,0.06391758,0.02370053,0.04356129
0.1431125,0.8541159,0.5066864,0.06166132,0.02560588,0.04197613
0.146012,0.853219,0.5083777,0.05744171,0.02510647,0.03926344
0.1477247,0.8507512,0.5077734,0.05403004,0.02488021,0.03639963
0.1461681,0.8474511,0.505222,0.05479515,0.02686765,0.03568812
0.1448022,0.8482049,0.4994953,0.05666203,0.0246125,0.03534229
0.1423952,0.8487364,0.4972245,0.05697717,0.02126575,0.03489932
0.1424743,0.844598,0.4999598,0.05792649,0.02213766,0.03416742
0.1450201,0.8416683,0.5026825,0.05872509,0.02115257,0.03133319
0.1441759,0.8419704,0.5045369,0.05835579,0.02066283,0.02917636
0.1443772,0.8409619,0.5039028,0.06041537,0.02283612,0.02907724
0.1448457,0.8403275,0.5049959,0.06014389,0.02104079,0.02689148
0.1435641,0.8439184,0.5070231,0.05832425,0.0165092,0.02566565
0.1430354,0.8475848,0.5053067,0.05856079,0.01364477,0.02651725
0.1415842,0.8482775,0.5082882,0.0530402,0.01269522,0.02452237
0.1439107,0.8511008,0.5132358,0.0506254,0.01166193,0.02452118
0.1474414,0.8543374,0.5123691,0.05679226,0.010804,0.02875546
0.1457865,0.8531711,0.5107783,0.05988754,0.01174707,0.03076502
0.1461906,0.8547414,0.507063,0.06171331,0.01115338,0.02585897
0.1480772,0.8578039,0.5019727,0.06010956,0.01141198,0.01925284
0.1465098,0.8530081,0.5005006,0.05276936,0.01542841,0.02049262
0.143956,0.8477423,0.5001341,0.04952285,0.01842137,0.02205273
0.1407287,0.8483477,0.5015641,0.04952493,0.01915874,0.01891271
0.1403493,0.8486062,0.5036292,0.04817661,0.014997,0.01707133
0.1460196,0.8466788,0.5028289,0.04506217,0.009882529,0.01522074
0.149037,0.8452652,0.5023606,0.04240294,0.01126815,0.01668605
0.1415058,0.8464036,0.5039584,0.0427069,0.01053167,0.01948813
0.1334667,0.8497903,0.5072437,0.04350411,0.006983536,0.01684687
0.1361024,0.8520703,0.5100052,0.04506206,0.007492424,0.01550142
0.1411359,0.8507215,0.5059881,0.04558911,0.005379387,0.01698079
0.1435986,0.8481818,0.5002956,0.04405412,0.001959559,0.01675877
0.1474326,0.8486322,0.5026867,0.04410897,0.004828642,0.01509649
0.1472495,0.8498645,0.5034697,0.043547,0.007659348,0.0112043
0.1461366,0.8499353,0.4979537,0.04357801,0.006573466,0.006688989
0.1479795,0.8500957,0.4968731,0.04483154,0.006436675,0.004833718
0.1450864,0.8485885,0.5002608,0.04344084,0.006641551,0.003378919
0.1430592,0.8464528,0.5068376,0.04267556,0.007259477,0.002270818
0.1431478,0.845997,0.5121073,0.04210709,0.008884503,0.006319281
0.1398962,0.8482256,0.5096264,0.04010556,0.007568291,0.01063209
0.1403954,0.8510875,0.5085832,0.04023247,0.004537662,0.008860777
0.1434254,0.8487074,0.5096638,0.04112859,-0.0006222194,0.006838187
0.1444056,0.844865,0.5074266,0.04112744,-0.00573987,0.007790561
0.142276,0.8445491,0.5059195,0.03976348,-0.003873942,0.008506587
0.1392727,0.8460884,0.5037377,0.03762698,-0.003250441,0.007672909
0.1431357,0.8493296,0.5016958,0.03708248,-0.006509767,0.005863525
0.1473364,0.8505747,0.5033519,0.034421,-0.006182026,0.005326462
0.1474093,0.8493073,0.5049577,0.02965685,-0.005214192,0.005351921
0.149354,0.8477872,0.5057901,0.02873908,0.0002634636,0.003643102
0.1502785,0.8466357,0.5067309,0.02861057,0.01065961,0.0001290414
0.1483529,0.8498282,0.5061516,0.02649255,0.0134207,-0.002592726
0.1449156,0.8536414,0.5062315,0.02691919,0.008953165,0.0009118487
0.1423248,0.8539769,0.5072513,0.02972665,0.00353509,0.003447432
0.1431884,0.8510086,0.5069896,0.03217367,-0.001278731,-0.003508737
0.1433216,0.8441906,0.5064926,0.03447216,-0.001768291,-0.007635666
0.142645,0.8416712,0.50519,0.03471113,-0.001421664,-0.002971313
0.1437174,0.8445534,0.5030809,0.03346421,-0.005339597,0.0002802515
0.1447757,0.8461653,0.5013087,0.03664555,-0.005085227,-0.001700567
0.1462238,0.8477798,0.4993432,0.03936697,-0.001999487,-0.002835323
0.1464829,0.8492687,0.4984817,0.03305215,-0.003712269,-0.002032902
0.1460913,0.8496835,0.4981318,0.02674808,-0.002314785,-0.004759782
0.1477873,0.8499684,0.4983378,0.02742645,-0.001025723,-0.006181174
0.1472948,0.8501605,0.5023238,0.02778148,-0.004344578,-0.00668964
0.1457283,0.850013,0.5056003,0.027125,-0.008332095,-0.01179005
0.1462215,0.8499742,0.5031948,0.02800185,-0.01356059,-0.01167008
0.1464753,0.8512995,0.5024972,0.0252291,-0.007099356,-0.00684024
0.1475334,0.8524698,0.5069192,0.01982292,0.003758737,-0.006709825
0.1475496,0.8530466,0.5090422,0.01808788,0.000346307,-0.01004501
0.1466769,0.8529166,0.5066877,0.01823672,-0.00162354,-0.0129626
0.1472341,0.8524302,0.5045093,0.01979589,0.0002756614,-0.01023801
0.1453994,0.8519831,0.5055435,0.02275307,-0.001440262,-0.006676259
0.1440224,0.8473675,0.5061747,0.02209375,0.00121156,-0.009199914
0.1463482,0.8428196,0.5049784,0.01995777,0.00202446,-0.009883106
0.1482809,0.8455005,0.5057347,0.01956147,-0.0008352127,-0.008506141
0.1491119,0.8498022,0.5054226,0.01932619,-0.001435829,-0.01013665
0.1497647,0.8504114,0.5029935,0.01738259,-0.003753622,-0.009586545
0.1486863,0.8499165,0.5008126,0.01580054,-0.004365432,-0.007345172
0.1466864,0.8500159,0.4990852,0.02018598,-0.003012829,-0.006831472
0.1487093,0.8499248,0.500118,0.02374971,-0.00494803,-0.009032107
0.151349,0.8495381,0.5006333,0.02218609,-0.004593909,-0.01409411
0.1496221,0.8473401,0.5003326,0.02257609,-0.00283504,-0.01494362
0.1494785,0.8448868,0.5021767,0.02296871,-0.003249566,-0.01301575
0.1491374,0.8460389,0.5023768,0.0211977,-0.003303224,-0.01485046
0.1452278,0.848485,0.5029667,0.01585761,-0.005967578,-0.01648492
0.143852,0.8506379,0.5054479,0.00979597,-0.008440624,-0.01783424
0.1454977,0.8521348,0.5074698,0.01007592,-0.006780236,-0.01822339
0.1472919,0.8511897,0.5090001,0.01012505,-0.004197464,-0.01327444
0.1471353,0.849947,0.5074392,0.009809188,-0.001532263,-0.009126765
0.1451686,0.8491568,0.5057925,0.01241419,-0.001782359,-0.0102073
0.144081,0.8476254,0.5057632,0.01340607,-0.004072712,-0.01286799
0.144343,0.845885,0.5044847,0.01393939,-0.003525636,-0.0140526
0.1458779,0.8444832,0.5054139,0.01225638,-0.0004200829,-0.01511485
0.1469372,0.8466946,0.5063342,0.008746433,0.002326996,-0.01769191
0.1469941,0.850851,0.5049504,0.005909935,-0.000638301,-0.01388716
0.1456936,0.8495152,0.5054753,0.005189552,-0.004018719,-0.00871185
0.1435485,0.8474775,0.5047878,0.007446608,0.0008274895,-0.01446764
0.1445701,0.8491408,0.5025816,0.007249082,0.002865205,-0.01804897
0.1455091,0.8488449,0.5023271,0.00853943,-0.005376123,-0.01617703
0.143646,0.849141,0.5008656,0.009960775,-0.01188814,-0.01821074
0.1419399,0.8512067,0.4979805,0.008524681,-0.01096159,-0.01845827
0.1415723,0.8523483,0.4957116,0.01429377,-0.01200702,-0.01815901
0.1450711,0.8539446,0.494713,0.0178515,-0.01506801,-0.01968125
0.1496126,0.852502,0.496055,0.01243744,-0.008952648,-0.0198798
0.1503293,0.8486743,0.4979696,0.008960502,-0.003008103,-0.02017119
0.1482358,0.8457086,0.500863,0.008144379,-0.008365143,-0.01906146
0.1463033,0.8433047,0.5048626,0.007887214,-0.0102928,-0.01527642
0.1472555,0.8452371,0.5049185,0.008328854,-0.004326181,-0.01320242
0.1477057,0.8496846,0.5034581,0.009222261,-0.001882538,-0.01916845
0.1465455,0.8520687,0.5054054,0.005428845,-0.004902221,-0.0264389
0.146739,0.8521253,0.5060619,0.0003346508,-0.007431858,-0.02360483
0.1468787,0.8506062,0.5049802,0.004767745,-0.004865457,-0.01820435
0.1489261,0.8510831,0.5048788,0.008313427,-0.003220102,-0.01721559
0.1507741,0.8501938,0.5038549,0.006691124,-0.005149735,-0.01697383
0.1475874,0.8469859,0.5039489,0.008415093,-0.005854056,-0.01697764
0.144563,0.8468272,0.5045749,0.009647531,-0.00681737,-0.01522857
0.1441415,0.8450883,0.5036811,0.008458231,-0.006443181,-0.01347156
0.1443591,0.844539,0.5033622,0.006118003,-0.004894343,-0.01506998
0.1446991,0.8486666,0.5022515,0.00405793,-0.00439664,-0.01450152
0.1442861,0.8494913,0.5005073,0.001572715,-0.002089998,-0.01439313
0.144413,0.8500635,0.4991382,-0.003425612,-0.002177249,-0.01880032
0.1446085,0.8521188,0.4989811,-0.004193338,-0.004071933,-0.02090508
0.1446198,0.8512745,0.5014461,-0.002776344,-0.003747889,-0.02083457
0.1463373,0.8502094,0.5019582,-0.003930988,-0.005934628,-0.02209739
0.1474132,0.8500489,0.5016039,-0.001001308,-0.006676788,-0.02374999
0.1455624,0.8508242,0.5053643,0.001880659,-0.004465033,-0.02181265
0.1434213,0.8517764,0.5089585,0.0006812283,-0.005912478,-0.01773265
0.1436279,0.851065,0.5090376,0.001493855,-0.008022313,-0.01909053
0.1442115,0.8497811,0.5087025,0.003022897,-0.009656451,-0.0191741
0.1443736,0.8499448,0.5088066,0.004233774,-0.01113058,-0.0158301
0.1458921,0.8519423,0.5038869,0.004599565,-0.009850387,-0.01688438
0.146921,0.8528058,0.4978628,0.003093205,-0.006569608,-0.01882837
0.1473369,0.8521457,0.5016891,0.001973545,-0.002211492,-0.02062731
0.1475119,0.8512323,0.5066797,-0.000454216,-0.001710226,-0.02083835
0.1468495,0.8496531,0.5048699,-0.001743472,-0.001863099,-0.02037377
0.1473823,0.8506337,0.5036622,-0.001560333,0.002653569,-0.02511372
0.1473528,0.8532089,0.5026266,-0.003264877,0.00244639,-0.02840873
0.1465553,0.8526722,0.5024605,-0.002953872,-0.001132465,-0.02804883
0.1457411,0.850921,0.5052894,-0.002398962,-0.003835877,-0.02800309
0.1437438,0.8478355,0.5058457,-0.00297287,-0.008215032,-0.02719634
0.1441866,0.8445931,0.505511,-0.0009683646,-0.006224162,-0.02562793
0.1450555,0.8471104,0.5052928,0.0006251622,-0.00234509,-0.02269433
0.1436414,0.8509997,0.5031742,-6.076136e-05,-0.004550653,-0.01990595
0.1427569,0.8516663,0.5007028,-0.000610933,-0.004379788,-0.01843273
0.1418305,0.8516539,0.4998405,-0.0002655995,-0.003342859,-0.01922715
0.1438595,0.851109,0.5036803,-0.001265574,-0.005454849,-0.02346925
0.1472867,0.8511869,0.5067475,-0.002508007,-0.006963905,-0.02647933
0.1458615,0.8506011,0.5036414,-0.0008028404,-0.009639782,-0.02673884
0.1449068,0.8485074,0.5020712,-0.000380574,-0.01170568,-0.02676564
0.1454186,0.8487652,0.5047879,-0.003931224,-0.008084327,-0.02619691
0.1430726,0.8505385,0.506404,-0.006579214,-0.00350488,-0.02436067
0.1424782,0.851841,0.5054515,-0.004326231,-0.003750777,-0.0234322
0.1436964,0.8516976,0.5046689,-0.001660074,-0.004688464,-0.02385071
0.1432299,0.8507034,0.5032563,-0.003599823,-0.006132228,-0.02163198
0.1425222,0.8503929,0.5018271,-0.004224494,-0.01024898,-0.01813081
0.1424202,0.8480429,0.5081471,-0.002017962,-0.007725014,-0.01843227
0.1445452,0.8464336,0.514979,-0.001525244,-0.001924702,-0.02216062
0.1456203,0.8484222,0.509794,-0.002071009,-0.002166804,-0.02275337
0.1435176,0.8493977,0.5037125,-0.003359102,-0.001799321,-0.02016022
0.1444647,0.8503982,0.5040628,-0.003358033,-0.003898277,-0.02167125
0.1451145,0.8530077,0.5032916,-0.002018498,-0.009595226,-0.02120721
0.1436558,0.8541812,0.5057281,-0.001170074,-0.009074566,-0.01839925
0.1452398,0.8541498,0.511039,-8.063147e-05,-0.007049275,-0.02048101
0.1462991,0.8529737,0.5087939,-0.001198143,-0.006806832,-0.01988465
0.1473274,0.847921,0.5046009,-0.003098866,-0.002954509,-0.01897758
0.146901,0.842821,0.5021051,-0.004659767,0.001679588,-0.02026437
0.1408952,0.8457261,0.4991623,-0.0062992,7.219079e-05,-0.01784473
0.1366419,0.8501173,0.5023982,-0.005247378,-0.004018781,-0.01572581
0.1372213,0.8486681,0.5059578,-0.005351027,-0.005569433,-0.01354701
0.1398551,0.8500754,0.5035606,-0.00659604,-0.007719252,-0.01335267
0.1418347,0.8535662,0.5028226,-0.007523387,-0.008451457,-0.01470083
0.1443617,0.8527466,0.5032807,-0.01079797,-0.01069197,-0.01337813
0.1489174,0.8525673,0.5034158,-0.01058916,-0.01218662,-0.01713252
0.1486797,0.8530355,0.5055347,-0.007853298,-0.006323113,-0.02168286
0.1476492,0.85255,0.5060319,-0.008836241,-0.005357487,-0.02146957
0.1497091,0.8529297,0.5052002,-0.00976028,-0.004813013,-0.0215705
0.1492079,0.8527297,0.5056762,-0.009431321,0.001628307,-0.01951953
0.1485402,0.8527222,0.5052589,-0.01023964,0.001596443,-0.01795288
0.1435234,0.8527259,0.5032688,-0.01076849,-4.325512e-05,-0.01875141
0.1360325,0.851741,0.5005842,-0.01057906,-0.001704405,-0.01659134
0.1384921,0.8508659,0.5000534,-0.0121582,-0.004867404,-0.01521513
0.1416003,0.8491025,0.5050296,-0.01557373,-0.002098179,-0.01584508
0.1393388,0.8464493,0.5103618,-0.01712232,0.001768568,-0.01436866
0.1400794,0.8450591,0.5097211,-0.01416792,0.002547811,-0.01519293
0.1390125,0.8455393,0.5055396,-0.01089036,-0.001683803,-0.01715266
0.1367508,0.8446246,0.5045965,-0.01222496,-0.00950909,-0.01548955
0.1408248,0.8429907,0.5111513,-0.01213463,-0.01517982,-0.0159184
0.1446333,0.84466,0.5179751,-0.008577463,-0.02124362,-0.01753415
0.1449572,0.8450947,0.5155211,-0.00817028,-0.02244104,-0.01973118
0.1453204,0.8444641,0.5115387,-0.009427157,-0.02313148,-0.02444987
0.1458538,0.8483035,0.5121581,-0.01166404,-0.03709668,-0.0221268
0.1467259,0.8508761,0.510743,-0.01517097,-0.04354283,-0.01712949
0.148244,0.8482873,0.5105198,-0.0153334,-0.02496118,-0.01645297
0.1507702,0.8461675,0.5120629,-0.01413156,-0.003079617,-0.01562381
0.1499113,0.8470926,0.5104614,-0.01265995,0.002646159,-0.02057951
0.1454482,0.8468634,0.5100778,-0.007433654,0.001575075,-0.02630644
0.1438744,0.8450599,0.5062347,-0.00205751,0.001068674,-0.02328521
0.1443284,0.8462208,0.5004675,-0.001712643,-0.004717609,-0.01869037
0.1456271,0.8482259,0.5024722,-0.003767889,-0.002697544,-0.01489393
0.146269,0.8495723,0.5029844,-0.004748953,0.003084505,-0.01331385
0.1450994,0.8509293,0.5002785,-0.006660493,-0.00354788,-0.01357987
0.1442783,0.850599,0.5012967,-0.01011785,-0.006543003,-0.01124355
0.1424895,0.8514441,0.5009577,-0.01362883,-0.01013004,-0.01075085
0.142649,0.8517755,0.4992805,-0.01684128,-0.01764344,-0.01257943
0.1437899,0.8489996,0.5014684,-0.01950283,-0.01911251,-0.01675046
0.1425478,0.8455187,0.5076698,-0.02208302,-0.02741345,-0.02061346
0.1436704,0.8417285,0.5138354,-0.02238504,-0.02946714,-0.01590237
0.1460008,0.8425302,0.5135907,-0.01713869,-0.01543562,-0.01283167
0.1476412,0.8452675,0.5101407,-0.008955034,-2.197774e-05,-0.01442865
0.1478746,0.8444848,0.5117628,-0.005820942,0.00987194,-0.0143182
0.1459152,0.8473117,0.5143347,-0.007076469,0.00389183,-0.01863606
0.1447988,0.8509517,0.514054,-0.004836464,-0.003720383,-0.01914402
0.1421904,0.8508705,0.5099185,-0.004487092,-0.00207109,-0.01465019
0.1403755,0.8515901,0.5025819,-0.006454068,-0.004937245,-0.01280296
0.1408359,0.8506144,0.5029472,-0.003840575,-0.00598642,-0.008820081
0.140296,0.8466926,0.5044125,-0.002995611,-0.006368589,-0.009792061
0.1439982,0.84347,0.5022311,-0.003485191,-0.01036206,-0.01257268
0.1474008,0.8448373,0.5100392,-0.005014074,-0.008560116,-0.01133317
0.1453556,0.8482868,0.516474,-0.008144942,-0.009170295,-0.01375595
0.1448215,0.8481665,0.5135062,-0.004258066,-0.01687403,-0.01513928
0.1459101,0.8494015,0.510768,-0.002339098,-0.02239364,-0.0175392
0.1485337,0.8509624,0.506581,-0.008825111,-0.02239217,-0.02068142
0.1509986,0.8495992,0.5024621,-0.0130981,-0.02199796,-0.01858323
0.1490774,0.850964,0.5029037,-0.01141086,-0.02404837,-0.01649756
0.1478428,0.8514159,0.5069813,-0.008952081,-0.02281356,-0.01253113
0.1489056,0.8478628,0.5087863,-0.0105849,-0.02099027,-0.01197078
0.1485572,0.8438591,0.5106387,-0.009910309,-0.01712058,-0.01475432
0.1471106,0.8418664,0.5167034,-0.00541203,-0.00850896,-0.009227541
0.1453101,0.843526,0.5153535,-0.002894205,-0.01080947,-0.007239555
0.1443546,0.8443443,0.5103201,-0.0004130472,-0.0218886,-0.01339349
0.1469727,0.8441528,0.5096116,0.004774043,-0.02405131,-0.01755038
0.1493654,0.8449228,0.5095412,0.01338743,-0.01801305,-0.01952761
0.1459247,0.8441722,0.5129811,0.01343051,-0.01453057,-0.01794393
0.1431865,0.845264,0.5142574,0.001217058,-0.01545377,-0.01602099
0.1457428,0.8492219,0.5108945,-0.00644478,-0.01479539,-0.01637322
0.147446,0.8524074,0.509033,-0.006114224,-0.01169792,-0.01578249
0.1469671,0.8517797,0.5086991,-0.001206765,-0.00947686,-0.01369415
0.1463855,0.8480101,0.5078157,0.002539767,-0.01154323,-0.009699863
0.1455731,0.8457536,0.5044333,0.002523483,-0.01280124,-0.008607155
0.1456503,0.8438312,0.5049065,0.005061941,-0.01011707,-0.01081154
0.1466586,0.8439555,0.5072135,0.004285699,-0.007190581,-0.01303088
0.1483774,0.8467105,0.5066025,0.001930884,-0.001284749,-0.01459674
0.1503896,0.8477115,0.5099014,0.003511489,-0.002088237,-0.01191331
0.1485429,0.8508721,0.5107236,0.001840148,-0.008303893,-0.009634673
0.1449874,0.8527677,0.5084832,-0.001483542,-0.007826596,-0.008658015
0.1459,0.8514902,0.5095972,-0.002646733,-0.009409696,-0.004982733
0.1472129,0.8525585,0.5087455,-7.049658e-05,-0.008130303,-0.006364077
0.1471986,0.8495163,0.508099,0.003608373,-0.002849593,-0.013289
0.1484789,0.8456872,0.5061871,0.002681702,-0.001796918,-0.01632977
0.1486818,0.8482114,0.5028914,0.002784324,-0.0007488305,-0.01401646
0.1486256,0.8494775,0.5060773,0.002540891,-0.004314198,-0.01231301
0.148701,0.8482634,0.5073354,-0.002863167,-0.006149343,-0.01131377
0.1482187,0.8482839,0.5019075,-0.003084842,-0.003389326,-0.008479406
0.1475806,0.8480122,0.4986111,0.002420993,-0.003314248,-0.008495768
0.1450645,0.8467978,0.4997157,0.003390283,-0.001537617,-0.007620156
0.1439004,0.8470368,0.5008243,0.001887932,-0.004541705,-0.004268586
0.1457022,0.8481927,0.5006502,-0.001266287,-0.008626171,-0.007839228
0.1470995,0.8495743,0.5051631,-0.007852627,-0.006586375,-0.0111991
0.1474952,0.8522684,0.5105001,-0.01011178,-0.006514318,-0.008043951
0.1471386,0.8518855,0.5079735,-0.007832175,-0.003889278,-0.00698768
0.1473278,0.850484,0.5040232,-0.005988737,0.0009637293,-0.007775645
0.1482464,0.8524723,0.5018193,-0.005376869,0.0005660033,-0.007480623
0.1487676,0.8540855,0.500533,-0.008846973,-0.001718161,-0.007771196
0.1486057,0.8561582,0.5032723,-0.01246363,-0.001429927,-0.009207229
0.1471449,0.8568725,0.5037489,-0.01050821,-0.001066365,-0.01254709
0.1452251,0.8545186,0.5016791,-0.008371559,-0.002470152,-0.01517668
0.1442574,0.8537107,0.5031947,-0.009832757,-0.001501658,-0.0132426
0.1460399,0.8513605,0.5030961,-0.009154346,-0.001636004,-0.0100678
0.1480542,0.8457625,0.5024709,-0.006983606,-0.002229425,-0.01023491
0.1462464,0.8407121,0.5051241,-0.007034108,-0.0009592899,-0.01016211
0.1451228,0.8398468,0.5060873,-0.005317481,-0.002840361,-0.00906531
0.146179,0.8429944,0.5066528,-0.00449907,-0.003283529,-0.00934381
0.1463706,0.8437023,0.508274,-0.00561022,-0.003921123,-0.008493042
0.1483559,0.8443536,0.5094212,-0.004534295,-0.006456699,-0.009415
0.1506167,0.8473363,0.5084031,-0.004183775,-0.005288733,-0.01283166
0.1484521,0.8507747,0.5005822,-0.002064505,-0.002453752,-0.01372291
0.1464162,0.8555876,0.4935746,0.001593981,0.0004872174,-0.01273575
0.1491389,0.8531412,0.4976737,-3.067324e-05,0.001306595,-0.01245866
0.1506845,0.8481369,0.5035298,-0.005199583,0.003022827,-0.01334296
0.147903,0.8506381,0.5041282,-0.009144367,0.003905965,-0.01041797
0.1464756,0.8498118,0.5081075,-0.007918631,-0.002342044,-0.00621599
0.1473356,0.8464793,0.5105381,-0.003965996,-0.005381613,-0.007051849
0.1474205,0.8460056,0.5059451,-0.003595677,-0.0009359015,-0.006901858
0.1467102,0.8468616,0.5047089,-0.005442325,0.002798139,-0.005980678
0.1454238,0.8525565,0.5019007,-0.008312733,-0.00127462,-0.004521814
0.1440193,0.8557002,0.4992528,-0.01136823,-0.006042587,0.0009074719
0.1437602,0.8531757,0.5034166,-0.01048564,-0.002949819,0.004376708
0.1431024,0.8503744,0.5028851,-0.005412733,-0.004256754,0.002290749
0.1422297,0.8476329,0.5034397,-0.0007434849,-0.007423448,-0.00519155
0.147512,0.8484476,0.5039798,-0.002134754,-0.004569764,-0.01061585
0.153864,0.8504082,0.4991493,-0.005471916,-0.001631267,-0.008381856
0.1508011,0.8507194,0.5006852,-0.005527602,0.00286914,-0.00553599
0.1482183,0.8514495,0.4996992,-0.007798106,0.0032774,-0.005131478
0.1510026,0.8497007,0.4975134,-0.008781667,0.000121573,-0.00501232
0.1498728,0.8477391,0.5023648,-0.006650351,0.001382878,-0.004474487
0.1479234,0.8484811,0.5036799,-0.008025618,0.002135101,-0.00510712
0.1463294,0.8480559,0.5045422,-0.007303462,0.002859022,-0.006315154
0.1431843,0.8468501,0.5061038,-0.004845259,0.003025367,-0.006131617
0.1444422,0.8484077,0.5054768,-0.004099168,0.0007430869,-0.005469753
0.1463647,0.8506649,0.5054549,-0.00300915,0.001064653,-0.005612347
0.146284,0.849965,0.5037339,-0.005902913,0.002739564,-0.006873743
0.1478252,0.848142,0.5005286,-0.008243861,0.004433528,-0.004694179
0.1473441,0.8485654,0.4977487,-0.008422491,0.005124498,-0.0005609342
0.1466943,0.8508556,0.5001385,-0.01073445,0.001305833,0.001550004
0.1477322,0.8518613,0.5039192,-0.01177814,-0.002438701,0.001854287
0.1469875,0.8511525,0.5028354,-0.01496644,-4.516521e-05,-0.001860658
0.1471434,0.8500737,0.5045464,-0.0177758,0.002899199,-0.00299193
0.1474986,0.8475966,0.5074193,-0.01604573,0.001170374,-0.002504447
0.146917,0.8448136,0.5066433,-0.01639106,0.002230581,-0.004920611
0.1474204,0.8437134,0.5045985,-0.01595388,0.005617793,-0.003494063
0.1462979,0.8437652,0.50086,-0.01322028,0.004926353,-0.002416533
0.1426428,0.8439523,0.4994041,-0.01264619,0.0042955,-0.002410512
0.1390995,0.844348,0.5019007,-0.01379274,0.003488602,-0.00140082
0.1404609,0.8448347,0.5036131,-0.01456299,0.002483704,-0.002164173
0.1460643,0.8447811,0.5031394,-0.009414339,0.003798235,-0.001065989
0.148962,0.8471649,0.5041084,-0.003547768,0.003927782,-0.001223213
0.1489593,0.8506519,0.5065053,-0.006394233,0.004152747,-0.00206436
0.1474768,0.8503045,0.5056674,-0.01050939,0.003741015,-0.0005479143
0.1475339,0.8493983,0.5049553,-0.01211952,0.0005300326,0.000118031
0.1521201,0.8493255,0.5060689,-0.01420146,-0.0004657802,0.0003390694
0.1548454,0.8477875,0.5059168,-0.01494266,0.002597141,-0.00207636
0.1515363,0.8457513,0.5081021,-0.01542572,0.005092394,-0.004516813
0.1466621,0.8439,0.5108138,-0.01150205,0.00284944,-0.005457683
0.1465332,0.8439981,0.5089086,-0.005055077,0.0005074062,-0.006798184
0.1480603,0.8450208,0.5047434,-0.00860861,0.001888428,-0.003689602
0.1465407,0.84444,0.5021089,-0.01298624,0.004085482,-0.003479635
0.1463612,0.8451209,0.5040306,-0.01116265,0.006008412,-0.007645811
0.1457245,0.8468194,0.506935,-0.01482498,0.002827986,-0.005653566
0.1443385,0.8474884,0.505999,-0.01813647,-0.004994762,-0.002889684
0.1447914,0.8487791,0.5075371,-0.01507677,-0.006696363,8.250945e-05
0.1440622,0.8478556,0.511256,-0.01095244,7.49156e-05,0.004675237
0.1448698,0.8445505,0.5095868,-0.004892276,0.005705434,0.00437328
0.1463562,0.84405,0.5076487,-0.002230758,0.001394887,0.00129574
0.1465686,0.8447692,0.50703,-0.005034176,-0.00433971,-0.003099608
0.1468952,0.8452885,0.5042594,-0.006026772,-0.001698485,-0.002727347
0.1461037,0.8461896,0.5039507,-0.006903295,0.002811563,0.000347429
0.1468473,0.8458316,0.5052658,-0.01038366,0.00584615,-0.002797083
0.1474679,0.8456873,0.5079455,-0.0111035,0.003098889,-0.001982964
0.1473885,0.8459683,0.5126459,-0.00701694,-0.001897682,-0.0003689066
0.149284,0.845403,0.515832,-0.003574141,0.005410177,-0.002328017
0.1499174,0.844249,0.5196064,-0.003237176,0.009954225,-0.002125875
0.1485275,0.8432276,0.5166867,-0.003386748,-0.000257948,-0.00659814
0.1464078,0.8437726,0.5082937,-0.002909334,-0.006379725,-0.007329411
0.1470635,0.8442257,0.5081264,-0.00305701,-0.002980507,-0.003228351
0.1487872,0.8441619,0.5059924,-0.004486429,0.002159689,-0.003642516
0.1473352,0.8448177,0.503334,-0.004268793,0.006838138,-0.0001953853
0.1468256,0.8445556,0.5087076,-0.001711975,0.009435421,0.002323013
0.1454717,0.8449132,0.5084173,-0.001527853,0.004096455,0.0007743567
0.1438296,0.8460846,0.5067029,-0.003638169,-0.003205669,0.001043071
0.1457113,0.8465764,0.5044307,-0.004934238,-0.0003827715,-0.001479159
0.1470623,0.8482003,0.4988367,-0.006586194,0.001185169,-0.003936054
0.1475073,0.8477771,0.5034219,-0.006236546,-0.00205734,-0.003205936
0.1472136,0.8460066,0.5078462,-0.004194158,-0.003096505,-0.002402558
0.147348,0.8468565,0.5079011,-0.005033181,-0.005496783,-0.001718786
0.1489584,0.8457716,0.5096711,-0.003814119,-0.0005938638,-0.001781121
0.1485308,0.8447406,0.5077049,-0.0006021309,0.005296602,-0.002626148
0.1465996,0.8448446,0.5104486,0.001075706,-0.003659079,-0.004119101
0.1449033,0.8421591,0.5141438,0.002654639,-0.01090583,-0.006399146
0.1443209,0.8428364,0.5126251,0.001701863,-0.006902164,-0.007118932
0.1443187,0.8450453,0.5119288,0.003229394,-0.006081349,-0.005613854
0.1444034,0.8448982,0.506835,0.007300799,-0.009830222,-0.004948862
0.1450647,0.8471216,0.5006992,0.006971346,-0.009690536,-0.003349473
0.1459498,0.8495682,0.4988354,0.004301034,-0.008488069,0.001771378
0.1478573,0.8510119,0.4998767,5.712621e-05,-0.008293023,0.005141421
0.1474212,0.84791,0.502184,-0.001844592,-0.007435633,0.001030779
0.1459477,0.8419742,0.5054201,-0.001548252,-0.00782084,-0.007517002
0.1476849,0.8440781,0.5116408,-0.001191573,-0.006011394,-0.01019417
0.1484384,0.8450477,0.5100485,0.003130655,-0.003806302,-0.00787755
0.1485197,0.8418186,0.5063501,0.004403729,-0.005159704,-0.007901551
0.1487256,0.8455387,0.5123072,0.002759342,-0.004652304,-0.006138935
0.1478241,0.8487484,0.5138835,0.003881965,-0.00255314,-0.001301205
0.148479,0.8485137,0.5135254,0.004476254,-0.002446106,0.0008547003
0.1485092,0.8490323,0.5154584,0.006343575,-0.006704378,-0.002255402
0.1457411,0.8476861,0.5103045,0.007137278,-0.01076693,-0.004377771
0.1435173,0.8460049,0.5049213,0.004621153,-0.003902942,0.001055406
0.1439634,0.8440623,0.5047834,0.002704456,0.002992201,0.004048771
0.1431993,0.8446059,0.5061463,0.002453964,-0.002523303,-0.00280001
0.1410812,0.8470755,0.505271,0.00577915,-0.005099838,-0.008173868
0.1436587,0.8454978,0.5028826,0.01009841,0.001965634,-0.003309591
0.1473831,0.845583,0.5010043,0.01174587,0.004318066,0.00320484
0.1475102,0.8474258,0.4989793,0.00836131,-0.001313416,0.003086799
0.1471341,0.8466019,0.5000747,0.002320556,-0.005577863,0.0005749667
0.1471799,0.8457117,0.5018574,0.004528086,-0.003962316,-0.002109417
0.1472489,0.8438664,0.5055199,0.009088466,-0.00254393,-0.002453297
0.1472615,0.8443311,0.5118958,0.007966736,-0.004632341,-0.0008044093
0.1471467,0.8470392,0.509567,0.008202442,-0.004032623,-0.002199437
0.147283,0.8472436,0.5062742,0.007211948,-0.003232739,-0.000856384
0.147207,0.8474632,0.509401,0.006207834,-0.004490558,0.002130036
0.1471928,0.8475105,0.5081029,0.008107796,-0.003429716,0.001147613
0.1472732,0.8487561,0.5057839,0.00679497,-0.001325238,0.0009573495
0.1471774,0.8507821,0.5057658,0.005857226,0.003535263,0.002470971
0.1474207,0.8484614,0.5046182,0.003334778,0.006383113,0.002694658
0.148124,0.8453125,0.504108,-0.0008091119,0.004300556,-0.002283814
0.1488561,0.8440897,0.5023787,0.001863388,0.005041164,-0.00660861
0.1485717,0.8453412,0.5024516,0.003262174,0.00281261,-0.003985164
0.1478435,0.8484801,0.5050946,0.001203001,-0.0003140839,-0.003031281
0.1488457,0.8486123,0.5029925,0.002069274,0.002449355,-0.003251059
0.1504878,0.8467166,0.4978093,0.001935988,0.001822409,-0.002546593
0.1502894,0.846398,0.4961577,0.0007387783,-0.0004428916,-0.004346073
0.1495996,0.8508753,0.5043095,-0.0005215575,-0.0006109684,-0.006184946
0.1501196,0.8551162,0.5136565,-0.002102782,-0.000641997,-0.008065734
0.1498064,0.8482532,0.5103703,-0.001213736,0.001706929,-0.006946809
0.1479597,0.8411907,0.509355,1.521237e-05,0.002892817,-0.002236297
0.1470142,0.8451935,0.514582,-0.0007019263,0.001873039,0.002679276
0.1479122,0.8488278,0.5112528,-0.00176199,0.001428024,0.005498017
0.1489795,0.8499888,0.5083181,-0.001704899,0.002245091,0.0006046511
0.1477966,0.8519021,0.5077093,-0.0004804835,0.002504137,-0.003409955
0.1465396,0.8476332,0.5032895,0.0007418471,-0.001810219,0.001628491
0.1483565,0.8430526,0.5039821,0.002323476,-0.006010755,0.004492931
0.1518163,0.8449393,0.5068428,0.003143596,-0.004715172,0.002399034
0.1548937,0.846579,0.5066838,0.00228476,-0.002557561,0.001861297
0.1526314,0.8473921,0.5053771,0.002462415,-0.003005869,0.001418108
0.1469934,0.8480361,0.49968,0.002082133,-0.002457026,-0.001029264
0.145981,0.8486659,0.4953542,0.0005977466,-0.0004260167,-0.004396927
0.1438787,0.8514716,0.4980598,0.0007495685,0.0004786403,-0.006416626
0.1395572,0.8512999,0.5024526,0.0003207186,0.004385295,-0.001781743
0.1407082,0.8499862,0.5050604,-0.0002351346,0.008141526,0.005710851
0.1425468,0.8518583,0.5053515,0.001340736,0.005133551,0.005583467
0.1422316,0.8517349,0.5070475,0.003158404,0.003058414,0.002698178
0.1449686,0.8506805,0.5103198,0.003865798,0.003732954,2.731611e-06
0.1485772,0.8508001,0.506653,0.002553965,0.00288589,-0.00435746
0.1476056,0.8495496,0.5009506,-0.0003681889,0.002981658,0.0001173272
0.1462366,0.8489933,0.5027265,-0.00164471,0.001393122,0.00656037
0.1480184,0.8494643,0.5036998,-0.0008820307,-0.0006688433,0.004132497
0.1481578,0.8490603,0.5022417,-0.001057809,0.00139427,0.003487115
0.1482172,0.8486029,0.5049638,-0.0008974916,0.001882479,0.002616142
0.1483752,0.8482208,0.5058808,0.001245157,0.002757064,-0.003299973
0.1464249,0.8477802,0.5035276,0.002781669,0.007326621,-0.00717371
0.1472006,0.8472846,0.5037274,0.002416292,0.007690766,-0.009021734
0.1477432,0.8479569,0.5096224,-0.0004062291,0.005956181,-0.006876974
0.1462927,0.8501193,0.5153401,-0.003824458,0.005410929,0.001138433
0.1457652,0.8503138,0.5082606,-0.003406407,0.004796119,0.006148559
0.1442494,0.8495108,0.5002297,-0.0005804427,0.006046382,-0.0002282081
0.1457838,0.8493145,0.5037733,-0.001025495,0.00586968,-0.007849065
0.1485003,0.8482544,0.5038887,-0.002805736,0.007676095,-0.001200378
0.1469793,0.8484682,0.5012038,-0.001956955,0.01165289,0.006132841
0.1459341,0.8493019,0.5037843,-0.002807043,0.01024934,0.00388992
0.1432463,0.8501355,0.503827,-0.003714764,0.008265102,0.00370535
0.1393506,0.8516672,0.5037091,-0.00271238,0.008200354,0.002777968
0.1433301,0.8498764,0.5050115,-0.004649999,0.01133157,0.001871615
0.148114,0.8475162,0.5041317,-0.00552686,0.0159295,0.00556514
0.1453936,0.8487324,0.5068516,-0.005192498,0.01288524,0.006569051
0.1440101,0.8490311,0.5094166,-0.005746345,0.009537878,0.005170545
0.145151,0.8478316,0.5059433,-0.004207867,0.01076276,8.609434e-05
0.1442884,0.8469817,0.5001834,-0.004029245,0.009883523,-0.00434291
0.1462304,0.8455713,0.4965223,-0.003599951,0.009846378,0.0001771796
0.1481932,0.8462906,0.5026449,-0.0019617,0.01013615,0.004419571
0.1469023,0.8479182,0.512148,-0.001840075,0.00589767,0.003365866
0.1471495,0.845991,0.5113417,-0.001150496,0.002662432,0.002824423
0.1472293,0.8443118,0.5066036,-0.002288947,0.004238188,0.005610983
0.1459786,0.845069,0.5047188,-0.004340079,0.004912879,0.005707161
0.1447998,0.8469349,0.5040519,-0.005386691,0.004307673,0.001080108
0.1439714,0.8495533,0.5036265,-0.00591452,0.005302113,0.001224643
0.144593,0.8491566,0.5029284,-0.005126659,0.003714723,0.006397543
0.1447376,0.8488727,0.5061491,-0.006368566,-0.0001366563,0.01111746
0.1456642,0.8516894,0.5096602,-0.006522249,-0.001141116,0.009673241
0.1489617,0.8517541,0.5064877,-0.004801321,0.001990396,0.00297235
0.1504815,0.8509478,0.5046469,-0.004627044,0.005998971,-0.00096775
0.1483244,0.8513378,0.5079611,-0.004163594,0.0051851,-0.004533471
0.1462156,0.8493075,0.5099494,-0.006492957,0.004712498,-0.003867468
0.1470959,0.8471243,0.5098759,-0.006724379,0.008073763,0.0002553792
0.1466482,0.8465246,0.5087213,-0.003351821,0.005483811,-0.0008392548
0.1441703,0.8455807,0.5052416,-0.004805916,-0.001077004,0.0002339085
0.144264,0.8441985,0.5016805,-0.004607549,-0.004734141,0.001468684
0.1450159,0.8450782,0.5032199,-0.002497212,-0.00444107,3.757379e-05
0.1460593,0.84757,0.5064316,-0.002071439,-0.0004355957,0.001542888
0.1478872,0.8473928,0.5059502,0.0004481627,0.0007138898,0.001906821
0.1477362,0.847271,0.5082511,-0.001357806,0.002351341,0.001819787
0.1485804,0.8493073,0.5128569,-0.006976044,0.005800117,0.0005357114
0.1504628,0.8501746,0.5127699,-0.01041691,0.004470303,-0.001212866
0.1484152,0.8488204,0.5113243,-0.009242623,0.004478014,0.002764513
0.1459318,0.8453531,0.5103596,-0.004325526,0.004583511,0.005592922
0.146661,0.844069,0.5085037,-0.005099548,0.003035563,0.001945965
0.1468766,0.8472766,0.507099,-0.005770991,0.003649835,-0.002374345
0.1469225,0.849616,0.5070138,-0.0002045523,0.001391501,-0.00246987
0.1473924,0.8491392,0.5065503,0.001307427,0.0001618825,-0.0008715978
0.1448407,0.8497914,0.5049443,-0.001317319,0.002292034,-0.0002544316
0.1419422,0.8517462,0.506711,-0.003636651,0.001785469,0.0006289131
0.1412964,0.8490416,0.5098339,-0.004195354,-0.0009021119,-0.0004939397
0.1418841,0.8457573,0.5106238,-0.003643612,-0.002447939,-0.001914041
0.1437876,0.8483982,0.5111191,-0.004109296,-0.0002111046,-0.0008541087
0.1448171,0.848887,0.5080425,-0.003868804,0.003069341,0.001081009
0.1445546,0.8453864,0.5039381,-0.003539917,0.003301839,0.004208422
0.144487,0.8437943,0.5038162,-0.002866683,0.0006527854,0.005908896
0.1454452,0.8445448,0.5042355,-0.001845499,-0.0003904021,0.005219756
0.1472127,0.8467171,0.5043132,0.0002574298,0.0003045509,0.004610885
0.1474253,0.847224,0.5040646,0.003548531,-0.002074662,0.003169475
0.1471358,0.8454514,0.5044435,0.002323218,-0.002060687,0.001164084
0.1472683,0.8438659,0.5061809,-2.994526e-05,-0.0006088683,0.0008516076
0.1471386,0.8441197,0.5083153,-0.0003887329,-0.002763797,0.0009232588
0.1471542,0.8446851,0.5126559,-0.001673283,-0.002786428,-0.001240483
0.1462529,0.8423448,0.5158097,-0.001161856,-0.003054502,-0.003066446
0.1453747,0.8413514,0.5123912,-0.0006926277,-0.003784415,-0.002541071
0.1449261,0.8436434,0.5076766,-0.001023531,-0.001983682,-0.001373364
0.1442441,0.844997,0.5096841,0.001290175,-0.0004236642,-0.001280556
0.1438177,0.8446613,0.5119702,0.002834671,0.003035044,-0.001944796
0.1418787,0.844001,0.5102506,0.001445846,0.002577623,0.0006279357
0.1399809,0.8449916,0.5107553,0.000292889,-0.00559212,0.002921113
0.1425819,0.8464089,0.5078841,0.001263866,-0.01220618,0.0008075258
0.1462863,0.8473861,0.504579,0.002363422,-0.0126162,-0.001030008
0.1462648,0.8475976,0.5103336,0.003650912,-0.0100455,-0.002797472
0.1465861,0.8457853,0.5143572,0.006910486,-0.009774818,-0.003721324
0.1462152,0.8456498,0.5124658,0.00731578,-0.005015391,-0.002772921
0.1423566,0.8459015,0.5107313,0.003722067,0.002537533,-0.003155709
0.1426939,0.8446308,0.5075358,0.002002357,-0.001579232,-0.003670251
0.1448252,0.8444508,0.5027301,0.002860728,-0.004787697,-0.005745321
0.1437126,0.8442135,0.5038839,0.004119268,-0.001674197,-0.007776174
0.1427794,0.8445658,0.5108679,0.004493916,-0.005330289,-0.003984796
0.140415,0.8451258,0.5144412,0.004077242,-0.007791423,0.0009537714
0.1407156,0.8475067,0.5148636,0.003326271,-0.005719052,0.002429904
0.144488,0.8533251,0.5094639,0.002124068,-0.006399832,0.003377059
0.1447525,0.8547158,0.5030454,0.003264744,-0.009359524,0.003573793
0.1443642,0.8503193,0.5087461,0.007492136,-0.01075385,0.002832036
0.1451896,0.8475948,0.5136446,0.01003226,-0.004155455,0.004566576
0.1475186,0.8502203,0.5115235,0.006284442,0.002432996,0.005172275
0.1497142,0.8524291,0.5100335,0.001674353,-0.003271578,0.0005146619
0.1478004,0.8490167,0.5078211,0.003519421,-0.008912329,-0.004746232
0.1478939,0.8467994,0.5096975,0.003977679,-0.004982572,-0.006266548
0.1494743,0.8473454,0.5124919,0.001807217,-0.002453908,-0.003641729
0.1469004,0.8472698,0.5104139,0.003785659,-0.003346466,0.00100496
0.1452893,0.8482382,0.5091683,0.004165987,-0.005448654,0.004763165
0.1457772,0.8488491,0.5089477,0.005943145,-0.01009708,0.003240605
0.1455153,0.8486369,0.5083008,0.01137909,-0.009186691,-0.001193174
0.1445648,0.8485614,0.5067699,0.01095925,-0.006864702,0.0009649215
0.14374,0.8487303,0.5046533,0.009438066,-0.009259013,0.004697835
0.1451369,0.8500013,0.506489,0.009832937,-0.007432828,0.004427186
0.1465163,0.851938,0.5115535,0.0081615,-0.004959453,0.004724843
0.1471699,0.8523857,0.5150157,0.005483965,-0.003647821,0.005447278
0.1479076,0.8475043,0.5144444,0.001351742,-0.001112814,0.006429886
0.1467199,0.8423544,0.5120148,0.00207725,-0.002781077,0.004043916
0.1471387,0.8441773,0.5124488,0.006037806,-0.002604054,-0.0002850032
0.1477662,0.8455994,0.5116792,0.005554598,-0.0002347804,-0.0001272496
0.1467804,0.8443864,0.505696,0.006570578,-0.0004395176,-0.0009996723
0.1484673,0.8480315,0.5012286,0.006719446,0.0003607089,-0.002913434
0.1484027,0.8515709,0.5020362,0.003884193,0.0006523604,-0.001885055
0.1456628,0.8500824,0.5040808,0.004439617,0.001558639,0.0001856296
0.1438991,0.8499566,0.5034117,0.00499992,0.002015796,0.002190244
0.1438619,0.8503735,0.5036176,0.004363469,-1.287921e-05,0.0009054922
0.1450455,0.8480332,0.5041198,0.003227364,-0.0005730189,-0.001721631
0.1432719,0.8480463,0.5008488,0.001141972,-0.002732056,-0.002033099
0.1426329,0.8493576,0.5004945,0.001137615,-0.00613294,-0.001209818
0.1453728,0.8481129,0.5003311,0.001472432,-0.007529038,0.000729684
0.1490127,0.8477259,0.4999517,0.000521578,-0.006216912,5.502338e-05
0.1538685,0.8482485,0.504959,4.121134e-05,-0.002194008,-0.004369956
0.1534992,0.8484342,0.5052291,0.001096085,-0.001620134,-0.004533864
0.1509414,0.8488575,0.5063935,0.002286454,-0.00163438,-0.001821973
0.1495293,0.8471771,0.5129508,0.001859248,-0.0002665731,-0.00328891
0.1442886,0.8449734,0.5115585,0.001890916,-0.002493179,-0.003226399
0.1432885,0.8447162,0.5098246,0.003103436,-0.003593853,-0.001328328
0.1464197,0.8471472,0.5114087,0.005363637,-0.004972554,-0.001413595
0.1457848,0.8516276,0.5072404,0.008216007,-0.006562984,0.003606403
0.1456678,0.8521571,0.5034453,0.007360473,-0.003126077,0.01015265
0.1461081,0.8507252,0.502099,0.002755178,-0.001171962,0.01111251
0.145383,0.8516847,0.4996642,-0.001615856,-0.001649543,0.009071011
0.1451042,0.8514048,0.5010894,-0.003672928,-0.002170718,0.004722285
0.1445183,0.8508424,0.5043146,-0.001899921,-0.003578102,0.001762959
0.1460077,0.8496588,0.5038223,-0.0008332932,-0.003419493,0.002405025
0.1483214,0.846983,0.5046211,-0.002546613,-0.003337327,0.00272657
0.1480915,0.8468316,0.5066035,-0.0006862773,-0.002814209,0.001270053
0.148121,0.8477154,0.505241,0.0008198558,0.000204364,0.0003308703
0.1469352,0.8483927,0.5052169,-0.0001833183,0.002896437,-0.0005721615
0.1431753,0.8506034,0.506131,0.002800593,0.002942144,-0.003708034
0.1424857,0.8521246,0.5049472,0.004963514,0.002232518,-0.005502943
0.1443626,0.8513712,0.5047645,0.003487067,0.003287319,-0.006247661
0.1446812,0.851034,0.5040923,0.002513621,0.00233328,-0.005520806
0.144404,0.8518797,0.5038956,0.00331396,0.001171693,-0.002068938
0.1443969,0.8520255,0.5055735,0.005924423,0.002537346,-0.002160587
0.1444564,0.8518455,0.5052252,0.006738763,0.0006057823,-0.0009353623
0.1448524,0.8505467,0.5037859,0.002939932,-0.0005424978,0.003337601
0.1461583,0.8494185,0.5023284,-0.001735731,0.001789633,0.004211993
0.1478098,0.8511539,0.5026918,-0.0003490532,0.002935786,0.003813733
0.1478064,0.8522233,0.5052315,0.00165254,0.004285239,0.002035954
0.1485345,0.8528993,0.5055748,-0.001943509,0.004329155,0.002883483
0.1504633,0.8546258,0.5047666,-0.003335088,0.003722772,0.005717326
0.1484629,0.8527839,0.5038785,-0.00516995,0.005569404,0.003862257
0.1456769,0.8484533,0.5038401,-0.007303147,0.006121457,0.001742482
0.1456632,0.8468523,0.5047002,-0.002947005,0.004138107,4.319284e-05
0.1442784,0.8496746,0.5040196,-0.0006292341,0.001798198,-0.001849307
0.1439428,0.8527735,0.5048389,-0.001647042,0.0003770553,-0.003130556
0.146005,0.8509006,0.5054372,-0.001373335,0.003138809,-0.002284876
0.146094,0.8479447,0.5036074,-0.0009514146,0.007684401,0.00183848
0.1465729,0.8477745,0.5020281,-0.0008188525,0.007086427,0.002418278
0.1477208,0.8503027,0.501197,-0.001786971,0.006982491,0.001979469
0.1471043,0.8542336,0.5049991,-0.001667412,0.008869697,0.001042325
0.1469567,0.8533247,0.50943,-0.00111281,0.006472309,-0.001054265
0.1464651,0.8514893,0.5094693,-0.0007697151,0.005496313,0.002254342
0.1454442,0.8531009,0.5102439,-0.002560548,0.003590285,0.003726036
0.1458054,0.8500824,0.5097447,-0.00878109,0.0004497666,0.003968479
0.1463586,0.8471857,0.5089231,-0.009086663,0.004457489,0.005455676
0.1475179,0.8492196,0.5095787,-0.003958707,0.00688075,0.00315506
0.14915,0.8496442,0.5076594,-0.003433146,0.004978176,0.001013736
0.1488838,0.8492976,0.5082775,-0.003947786,0.004463611,-0.003131435
0.1474401,0.8465539,0.5099491,-0.003991358,0.004636236,-0.004421565
0.1452324,0.8421248,0.5093014,-0.005147606,0.007872126,-0.002570571
0.1422779,0.8432615,0.5098107,-0.006048763,0.01110621,-0.004879686
0.1435851,0.847868,0.5078138,-0.006414198,0.008108197,-0.002135712
0.1475753,0.8520829,0.5061205,-0.004110014,0.001959172,3.52522e-05
0.1477593,0.8533654,0.5070501,-0.0008199177,-0.0001795564,-0.0002629266
0.1487346,0.8498771,0.5060182,-0.0002191877,0.001432154,0.004272654
0.1503667,0.8470155,0.505281,-0.001658056,0.003095439,0.002802872
0.1471873,0.846806,0.5047462,-0.002578664,0.004472979,0.002604943
0.1449656,0.8446563,0.5021177,-0.002035954,0.004065855,0.007385254
0.1466629,0.8426098,0.5002101,-0.002933181,0.003667935,0.005338101
0.1477713,0.8441694,0.5055911,-0.005472208,0.004322683,0.004101651
0.1462171,0.8475059,0.5127318,-0.007681362,0.003369385,0.003343473
0.1451891,0.8506278,0.5097376,-0.007825582,0.002294571,0.001005161
0.1463598,0.8481552,0.5071571,-0.005570511,0.001941332,0.001165028
0.1465254,0.8439147,0.5090956,-0.005847045,0.00111236,-0.002209578
0.1458802,0.8469893,0.5060578,-0.006317263,0.0008470152,-0.002327233
0.1432489,0.8480721,0.5049198,-0.005609303,0.00311389,0.001010867
0.1403084,0.8444507,0.506931,-0.00833717,0.003847848,0.001382736
0.1421297,0.8442768,0.5069703,-0.008300186,0.0003161684,0.004165701
0.1440317,0.8447537,0.5071624,-0.006170593,-0.001415291,0.001782557
0.1444031,0.8463738,0.5072847,-0.005969306,-0.001346024,-0.001781416
0.1447447,0.8489171,0.5097694,-0.001842381,-0.001070676,0.001145433
0.1431952,0.8487362,0.5130772,0.001233627,0.000349444,0.0003581271
0.1427618,0.8485663,0.5127707,-0.002237138,0.001128737,0.001623643
0.1437869,0.8485731,0.5118471,-0.005517415,0.003382364,0.003833277
0.1455971,0.8486049,0.5107853,-0.004163433,0.004451857,0.001749627
0.1481341,0.8480125,0.5092506,-0.002328109,0.002402919,0.003394055
0.1475199,0.8448516,0.5101546,-0.003269953,0.002498779,0.001177228
0.1465376,0.8421304,0.5136889,-0.0035715,0.00358243,-0.002412401
0.1476473,0.842919,0.5155514,-0.004491519,0.00341886,-0.0006798579
0.1468681,0.8456154,0.5119384,-0.006467165,0.0004894498,-0.002197884
0.1451596,0.8461185,0.5080849,-0.004606772,-0.002991362,-0.00247712
0.1442065,0.8455341,0.5095321,-0.0002897562,-0.0003585948,-0.001808523
0.1438831,0.845108,0.5110476,0.004632889,0.002351159,-0.00303598
0.1439532,0.8439408,0.5108226,0.007338177,0.000813419,-0.001321793
0.1425414,0.8444939,0.5134124,0.005340398,0.002471459,-0.002238407
0.1414435,0.845221,0.5149903,0.003617177,0.004488059,-0.002287064
0.1401662,0.8471604,0.5137538,0.000380966,4.145787e-06,0.003171487
0.1380838,0.8514679,0.510673,-0.005522295,-0.006796002,0.007001178
0.1397433,0.8521455,0.5057244,-0.004552005,-0.00962275,0.007152412
0.1416925,0.8505818,0.5095227,-0.0009972113,-0.007527722,0.005129207
0.1428275,0.8494622,0.5157215,-0.002729287,-0.006041472,0.004529213
0.1472785,0.8473163,0.5125978,-0.00338545,-0.008626872,0.003246642
0.1493689,0.8466223,0.5132945,-0.003853772,-0.009280032,0.0003171043
0.1490892,0.8471763,0.5151497,-0.003618346,-0.006473745,-0.0009639979
0.1504869,0.8455185,0.511136,0.00197893,-0.005071263,-0.004676859
0.1497748,0.8436291,0.5089954,0.004851002,-0.005472378,-0.006368671
0.1474624,0.8449851,0.5061247,0.003736958,-0.005478829,-0.004729227
0.1448523,0.8478555,0.5060173,0.004082535,-0.003342576,-0.005167596
0.1416196,0.850884,0.5083043,0.00592111,-0.003207895,-0.003961185
0.1403403,0.8523744,0.5061897,0.007100783,-0.007085152,-0.002424319
0.1405291,0.8510451,0.5066517,0.007187239,-0.007452085,8.628988e-07
0.1424795,0.8509552,0.5069099,0.01064329,-0.005384014,0.002932908
0.1464893,0.850954,0.5052403,0.01133803,-0.005960073,0.001873149
0.1481303,0.8493978,0.5068526,0.006976569,-0.006605879,0.001283874
0.1472782,0.8497832,0.5062909,0.004978944,-0.008918793,0.0004528413
0.1478338,0.8494633,0.5052261,0.001229394,-0.0121778,-0.00152329
0.1491163,0.8480012,0.504328,-0.0004463795,-0.01029364,-0.0005721077
0.148707,0.8486546,0.5023145,-0.0002370228,-0.006958314,0.0009269115
0.1482556,0.848326,0.5063423,-0.004203029,-0.006118296,-0.0009706603
0.148696,0.8456786,0.5106484,-0.0005305721,-0.003675258,-0.006447214
0.1476927,0.8437429,0.5110976,0.005260866,0.001592463,-0.009191641
0.1464249,0.8445,0.5146027,0.003605187,0.004968291,-0.006581227
0.1455531,0.8467673,0.5164598,0.00509841,0.002249663,-0.004102203
0.1439534,0.8470114,0.513809,0.008450972,9.122584e-05,-0.002699866
0.1441495,0.8445887,0.5133956,0.008829003,0.0006878453,-0.002068997
0.1449167,0.8428788,0.5141279,0.009282992,-0.003604079,-0.002104832
0.1443814,0.8462417,0.5124607,0.01087535,-0.005598454,-0.0001863643
0.1454653,0.8504724,0.510402,0.01074588,-0.002887786,0.0008189694
0.1472037,0.848635,0.5090538,0.008531821,-0.003368682,0.001406579
0.1477689,0.8476279,0.5082861,0.008875389,-0.003449046,0.004461565
0.1488081,0.8495022,0.5067043,0.008062652,-0.003171707,0.003269754
0.149763,0.8483109,0.5048185,0.006067421,-0.003172943,0.0004864218
0.1512716,0.8487088,0.5064047,0.006491481,-0.0007757988,0.001516979
0.158707,0.850914,0.5077784,0.005633268,0.001961671,0.001377578
0.1645749,0.8516607,0.5065271,0.004177023,0.004161502,0.002091311
0.1522801,0.8526934,0.5076464,0.002012729,0.003758372,0.003013971
0.138357,0.8527149,0.5107582,0.002001411,0.001506737,0.002394632
0.1444826,0.8517619,0.5118929,0.003549972,0.0002130008,0.003132027
0.1486154,0.847578,0.505961,0.001539384,0.00149548,0.001491003
0.1444043,0.8430229,0.4988599,0.002127108,0.004016757,-0.001032343
0.1482321,0.8467657,0.5035634,0.003451176,0.002650576,-0.001779698
0.1481562,0.850594,0.5083226,0.003783601,0.002020181,-0.0008550231
0.1451417,0.8481728,0.5041146,0.005404171,0.004327703,0.001409745
0.1467764,0.8480192,0.5031215,0.002790465,0.003440428,0.0005345288
0.1435302,0.8493446,0.5024235,0.00177991,7.362335e-05,0.0009865878
0.1436854,0.8482678,0.5000236,0.00323731,-0.003511891,0.003849454
0.1458566,0.8484937,0.501993,0.00144373,-0.004964145,0.002843981
0.1433365,0.8489764,0.5014643,0.002376362,-0.004293198,0.0001850958
0.1451563,0.8482706,0.4999652,0.00395603,-0.004507491,-0.002266739
0.1465844,0.8491072,0.5014795,0.002847913,-0.006780516,-0.002467461
0.1470397,0.850489,0.5024666,0.003975983,-0.006490687,-0.002689932
0.1485038,0.8513439,0.5054363,0.004659398,0.002817607,-0.005972014
0.1481804,0.8500586,0.5082193,0.001539606,0.007417352,-0.004273821
0.1504112,0.847508,0.5094116,-0.002177226,0.001766621,0.0005138064
0.1488111,0.8485975,0.5103597,-0.003127671,-4.408223e-05,0.001366902
0.1452299,0.8490587,0.5089978,-0.001317498,-0.003719514,0.0003848258
0.1460189,0.8471007,0.5077303,-0.0001136301,-0.006285714,-0.0001060827
0.1441292,0.8472241,0.5054569,0.001122437,-0.0006559871,0.001264945
0.1436919,0.8473867,0.5023567,0.00302667,-0.0006921948,0.0009635097
0.1456934,0.8481989,0.5001548,0.002414038,-0.00164172,0.0003077559
0.145953,0.8499914,0.4987333,0.002439552,0.0005528662,0.002006914
0.1486025,0.8503266,0.5046756,0.00371466,-0.000190054,0.0004908791
0.1490995,0.8507477,0.5107186,0.002613514,0.001193938,7.705787e-05
0.1461307,0.8505006,0.5065787,0.002230974,0.001950682,0.002323554
0.1456889,0.8489447,0.5045031,0.002434846,0.001488708,0.002217933
0.1468589,0.848134,0.5098492,0.0004073491,0.0002707863,0.001232929
0.1483003,0.848654,0.511761,-0.002362324,-0.001214326,-0.001460594
0.147808,0.8490585,0.5073383,-0.003880047,0.002009566,-0.002143843
0.1445135,0.8492183,0.5040741,-0.003361427,0.002401438,-0.0007778223
0.1420759,0.8501992,0.5054886,-0.003163186,0.001696721,-0.001087025
0.1413852,0.8493212,0.5064713,-0.002681282,0.002593826,0.001253904
0.1426747,0.847903,0.5059254,-0.0004543299,-9.594088e-05,0.003256446
0.1447239,0.8491781,0.5072192,0.0001646466,-0.0008376484,0.002506063
0.1458142,0.8505445,0.5061653,0.0003334611,-0.001543577,0.00225858
0.1478434,0.8516772,0.5000763,0.0006483674,-0.001555387,0.002785693
0.1494652,0.8514491,0.4956214,-0.0005700209,-1.213337e-05,0.003698662
0.1490997,0.8494522,0.496935,-0.0002770928,-0.0009556559,0.003544283
0.1482523,0.8500484,0.5001029,0.0002328144,0.001858093,0.003792512
0.1469644,0.8518687,0.5002057,-0.0004733593,0.003791729,0.003368003
0.1467821,0.8517078,0.4995416,-0.0009452816,0.003196217,0.0006944511
0.1472956,0.8510334,0.4994732,-0.003871461,0.004312879,-0.001051819
0.1453643,0.8514115,0.4978616,-0.006304818,0.00441095,-0.0008413338
0.1434937,0.8521668,0.4974851,-0.003657126,0.006285235,0.001294557
0.1436273,0.8538031,0.4964961,-0.001123405,0.004572034,0.001283365
0.1439333,0.855048,0.4969195,-0.002504034,0.001484811,-0.002328926
0.1471746,0.848832,0.5060783,-0.002892927,0.003221129,-0.004492981
0.1516581,0.8424874,0.5139934,-0.0001506187,0.002102146,-0.002957071
0.1504772,0.8494655,0.51017,0.0003149092,0.001882193,-0.0002594883
0.1488222,0.856107,0.5030708,-0.002983681,0.003652624,-0.001706968
0.1501728,0.8518488,0.5021696,-0.005177925,0.00453045,-0.002589686
0.1473914,0.8498627,0.5038836,-0.001879888,0.007483656,0.0006035718
0.1446374,0.8507307,0.5069842,0.002290603,0.006952437,0.001621086
0.1469832,0.8492215,0.5114721,0.0001544568,0.003681415,0.001294569
0.1467735,0.8501944,0.5089227,7.42934e-05,0.003153732,-0.0004463214
0.1415625,0.8502495,0.5032428,0.006158969,0.002009721,-0.002589704
0.1379775,0.8484317,0.5006789,0.009571101,-0.004278573,-0.003464907
0.1426093,0.8486577,0.5013073,0.00964949,-0.01097377,-0.008555186
0.1503249,0.8475178,0.5069196,0.007866833,-0.009058719,-0.01978207
0.1508772,0.8468742,0.5091554,0.005324523,0.0002353375,-0.03025111
0.1493872,0.8478285,0.5064166,0.002140529,0.01476617,-0.02550677
0.15027,0.8487808,0.5047406,-0.004531108,0.02830175,-0.0194009
0.1504534,0.8509054,0.5041191,-0.01146099,0.02744001,-0.03379713
0.1533732,0.8510582,0.5031895,-0.01650557,0.0303864,-0.0464363
0.09989046,0.932107,0.3752884,0.1761335,0.1064481,0.1018401
0.0975354,0.9313705,0.3712781,0.1735187,0.1048704,0.09842593
0.09673384,0.9278509,0.3703125,0.1722571,0.1134241,0.09842475
0.09660637,0.9285835,0.3697551,0.1674278,0.1206755,0.09595661
0.09852928,0.9269276,0.3693746,0.1673143,0.1221491,0.09623684
0.1029252,0.9251367,0.3690395,0.1656752,0.129214,0.09991827
0.09911087,0.9266729,0.3668922,0.16391,0.1372642,0.1034126
0.09328506,0.9224602,0.3627082,0.1643176,0.1114515,0.1014892
0.09403254,0.9201785,0.3605434,0.1608799,0.07819731,0.09771282
0.09895701,0.9249867,0.3656155,0.1575289,0.09143886,0.09796398
0.1050233,0.9294203,0.370123,0.1540283,0.1041021,0.0934133
0.1036113,0.9292642,0.3679501,0.1524982,0.09796417,0.08452154
0.1007011,0.9236881,0.3672194,0.152081,0.1008315,0.07719656
0.103094,0.9201436,0.3687647,0.1480629,0.09432985,0.07417429
0.1011392,0.9204336,0.3682531,0.145562,0.09080834,0.07745108
0.1000505,0.9211087,0.3695625,0.1443142,0.09022693,0.07708409
0.1008322,0.9210819,0.3717785,0.1441202,0.07901242,0.07567834
0.09734886,0.9202994,0.3707942,0.1464262,0.0837309,0.0782427
0.09836465,0.9212348,0.3704236,0.1483661,0.09016764,0.07604112
0.09889429,0.9213572,0.3712228,0.1494699,0.08431697,0.07647193
0.09410099,0.9233269,0.3708528,0.1489321,0.07623033,0.07963263
0.09347641,0.9272389,0.3718438,0.1464108,0.06348313,0.07804781
0.09808559,0.9260219,0.3735573,0.1427783,0.06654803,0.0813416
0.1034214,0.9233359,0.3731169,0.1412505,0.07639155,0.08525281
0.1021232,0.9218474,0.3698412,0.1395587,0.07192086,0.08086491
0.09980078,0.9226521,0.3661502,0.1334328,0.06868152,0.07651232
0.1034657,0.9244209,0.3672929,0.1303276,0.06418127,0.0763275
0.1030167,0.922439,0.3715639,0.1310436,0.06313761,0.07521893
0.1017096,0.9222047,0.3747792,0.1315185,0.06982544,0.07248016
0.1018077,0.9252544,0.3773083,0.1321276,0.06759472,0.06840085
0.09905593,0.9274245,0.3752695,0.1292491,0.0618041,0.06272834
0.1008182,0.9285177,0.367105,0.1252511,0.05722394,0.0627416
0.1021839,0.928759,0.359939,0.1219536,0.06029047,0.06512074
0.09987839,0.9276757,0.3588486,0.1175878,0.06625759,0.06312464
0.0999389,0.9245366,0.3607909,0.1130331,0.05419583,0.06354352
0.09976377,0.9234161,0.3604869,0.1068875,0.04686091,0.06482304
0.09914368,0.924089,0.3607951,0.1032468,0.05832829,0.06448601
0.09843917,0.9238528,0.364123,0.102024,0.06363266,0.06294377
0.09863757,0.9273071,0.371201,0.0996641,0.0550743,0.05827557
0.1012058,0.9298101,0.3810365,0.1015886,0.04438963,0.05593519
0.1034651,0.9255697,0.3790847,0.106063,0.04381429,0.0531358
0.1048921,0.9220644,0.3713451,0.1097158,0.04708641,0.04834589
0.1036705,0.9234589,0.3718368,0.1121056,0.04665336,0.04828269
0.1009814,0.9248388,0.3685564,0.1102319,0.04268575,0.04951597
0.09950207,0.9253448,0.3665959,0.1066004,0.03688237,0.04917742
0.09857425,0.9297386,0.3669879,0.1002116,0.04317848,0.04764543
0.09885561,0.9328141,0.3607611,0.09359747,0.05271223,0.04563673
0.09849078,0.9306582,0.3628389,0.09140862,0.05074555,0.04529604
0.09839158,0.9297417,0.3675019,0.08847639,0.04489324,0.04428359
0.09939476,0.9280173,0.3676603,0.08696945,0.03897125,0.04250669
0.1000406,0.9254282,0.3684861,0.08547321,0.03958349,0.04152768
0.1020249,0.9264597,0.3626655,0.08155585,0.04184402,0.04146814
0.1016206,0.9278678,0.3596011,0.08161837,0.03732226,0.04299374
0.09990325,0.9285692,0.3624736,0.08028322,0.03189361,0.04384249
0.1015123,0.9285839,0.3655935,0.07632669,0.02666801,0.04309282
0.1032601,0.9273806,0.3705831,0.07438351,0.03296508,0.04355507
0.1047463,0.9267853,0.369791,0.07372987,0.04352675,0.04348059
0.1043061,0.9271019,0.367658,0.0760289,0.03570094,0.03784684
0.1025851,0.927041,0.3687548,0.0780188,0.02594823,0.03202519
0.103001,0.9260492,0.3694999,0.07832854,0.02361437,0.03312666
0.101894,0.9253073,0.3706814,0.07791547,0.02393167,0.03347101
0.09911298,0.9247225,0.3665964,0.07703306,0.03175921,0.02854425
0.09664182,0.9239701,0.362102,0.07777071,0.03286166,0.0246561
0.09730376,0.9231342,0.3654258,0.07754039,0.02768206,0.0225122
0.09995521,0.9216565,0.3696558,0.07726353,0.02825946,0.02116901
0.0983085,0.9204747,0.3698168,0.07656606,0.02847119,0.02219682
0.09749685,0.9211049,0.3686047,0.07401841,0.03173577,0.02483845
0.09661172,0.924022,0.3691949,0.07229584,0.03374028,0.02782585
0.09212416,0.9266472,0.3694522,0.06837572,0.02725918,0.02934515
0.09365323,0.9267882,0.3665663,0.0644396,0.02396554,0.0297355
0.09924329,0.9264991,0.3642682,0.06302186,0.02851601,0.03068091
0.1018817,0.9282834,0.3654415,0.06141553,0.03669116,0.03093825
0.09957275,0.9306468,0.3668154,0.06080882,0.03728278,0.03044347
0.0954266,0.9299921,0.3674498,0.05903705,0.02460777,0.02973607
0.09833708,0.9285755,0.3678248,0.05737835,0.01493859,0.02762805
0.1007332,0.9292055,0.3645051,0.05652675,0.02228366,0.02504154
0.09848023,0.9293724,0.3610956,0.05216988,0.03246827,0.02384376
0.09950368,0.9282841,0.3623836,0.0486326,0.02809589,0.02335732
0.09917092,0.9256301,0.3631892,0.04837676,0.02281975,0.02256726
0.09727687,0.9222196,0.3622265,0.04805656,0.0201292,0.02141718
0.09730141,0.9213277,0.3633798,0.04743083,0.01369918,0.02021482
0.09786587,0.9213259,0.3644636,0.04977784,0.01468889,0.01954895
0.09941219,0.9211267,0.3644035,0.05392602,0.01615214,0.01829968
0.09928552,0.9221613,0.3679102,0.05250142,0.01922641,0.01693585
0.09901072,0.9199501,0.3734112,0.04862454,0.02666433,0.01804716
0.09873659,0.9175993,0.37397,0.04752266,0.02234396,0.0196514
0.09706993,0.9235426,0.3696143,0.04649291,0.01998382,0.01971464
0.0978858,0.9286772,0.3676479,0.04593081,0.0222786,0.02020895
0.09986794,0.9263353,0.3724936,0.04526548,0.01562773,0.02017689
0.1019968,0.9254913,0.3764201,0.04412322,0.01252543,0.01863767
0.101022,0.9270405,0.3720615,0.04348052,0.0158365,0.01778487
0.09505126,0.9263624,0.3670566,0.04197989,0.02397341,0.01644371
0.09205765,0.9260092,0.3670308,0.03947006,0.03175934,0.01507775
0.09370555,0.9267837,0.3656767,0.03457507,0.02421706,0.01621877
0.09641977,0.9260649,0.3608678,0.03008359,0.01644573,0.01860624
0.0971005,0.9253526,0.3571111,0.03021442,0.02358046,0.02177085
0.09683605,0.925028,0.3584408,0.0295911,0.02748391,0.02238919
0.09803239,0.9247973,0.36426,0.02530181,0.02201777,0.02094065
0.09777611,0.926216,0.3682874,0.02197445,0.01780443,0.02220003
0.09906271,0.9266366,0.3705809,0.02100716,0.01364587,0.02083162
0.1010547,0.9258894,0.3748952,0.02137553,0.01382243,0.01724261
0.1009553,0.9247412,0.3781586,0.02427326,0.01889332,0.01648951
0.1011529,0.9229131,0.3770011,0.02858635,0.01668867,0.01756609
0.09956484,0.9234957,0.3738019,0.02977454,0.01269796,0.01938237
0.1008891,0.923512,0.3706893,0.02881016,0.01217092,0.01464409
0.1043041,0.9205865,0.3652817,0.02655438,0.01566239,0.008326654
0.1040737,0.9190979,0.3652321,0.02158406,0.02170771,0.009765926
0.1039152,0.9209751,0.3709162,0.02098648,0.01473753,0.009622007
0.1012152,0.9229018,0.3705225,0.02280077,0.006883154,0.009546934
0.09801684,0.9204565,0.3732454,0.02071768,0.01214611,0.01225829
0.0985187,0.9186569,0.3771084,0.02125856,0.01535522,0.008317148
0.09866982,0.9217564,0.374623,0.02104316,0.01628873,0.003314542
0.09871132,0.9238758,0.3786816,0.01907712,0.01252532,0.003365069
0.09832584,0.9231999,0.3807467,0.02022457,0.004378529,0.005850392
0.09732369,0.9208738,0.3730389,0.01810889,0.006798853,0.01092168
0.09536743,0.9185529,0.3671785,0.01654368,0.008316489,0.01115023
0.09351532,0.9197782,0.3685343,0.01533475,0.003873253,0.003631445
0.09500825,0.9226761,0.371169,0.01035136,0.004368948,0.003791204
0.09684878,0.9241078,0.3675504,0.009156776,0.002522131,0.01075539
0.09900974,0.9242493,0.3686176,0.009068362,0.0004176505,0.009899536
0.1004844,0.9250163,0.375494,0.01036251,0.003112935,0.00834397
0.1001773,0.9266565,0.3780657,0.01301936,0.006580238,0.006778204
0.1033777,0.9250226,0.3760324,0.01011975,0.01195447,0.0003245664
0.1048027,0.9223743,0.3700528,0.008900204,0.009881377,-0.0004890114
0.1000262,0.9237528,0.372514,0.009579863,0.004420819,0.0001167107
0.09733434,0.9245058,0.3792702,0.005439289,0.007789355,-0.0006331176
0.09884143,0.9247888,0.3791202,0.002594611,0.00685242,0.00280302
0.09978412,0.9265336,0.3788985,0.005040097,0.003137943,0.004645626
0.09888944,0.9230805,0.3741352,0.00860164,0.003084822,0.003437573
0.0975283,0.9193991,0.3696226,0.01058932,0.0006663548,-0.001106139
0.09668162,0.9227194,0.3718307,0.01132456,0.004005208,-0.004579798
0.09631695,0.9248649,0.375269,0.01017881,0.00734821,-0.003292181
0.09578101,0.9230337,0.3800837,0.008031472,0.002257535,2.272687e-05
0.09572341,0.9222825,0.3816765,0.006482833,-0.0005730351,0.00767785
0.09731258,0.9214684,0.3833123,0.0067211,-0.0008240811,0.00843152
0.09929711,0.9202231,0.3839644,0.01044681,-0.002696927,-0.003142162
0.1002724,0.920903,0.3782119,0.01403663,-0.006272252,-0.01096274
0.0993367,0.9214929,0.3751898,0.01268734,-0.0122173,-0.007042582
0.09791254,0.9222656,0.374548,0.006696683,-0.02208571,-0.001912479
0.09870824,0.924342,0.3738918,7.124246e-05,-0.02785556,-0.006960365
0.09875817,0.9236862,0.3712032,-0.00524807,-0.01449836,-0.01153186
0.09660058,0.9222869,0.3660806,-0.0094377,-0.0009067922,-0.01222511
0.09361358,0.9234497,0.3686223,-0.006640696,-0.006753442,-0.01317624
0.09082854,0.9246051,0.3743309,-0.0003723058,-0.008619055,-0.00828102
0.09358603,0.9243089,0.3780442,-0.000548405,-0.0009124129,-0.006047598
0.09864056,0.9195479,0.3809697,0.001009991,-0.0008642861,-0.005064916
0.09900829,0.9136033,0.3796547,0.004182649,-0.001569139,-0.003342447
0.09888623,0.9139618,0.3801902,0.002044961,0.001752683,-0.006104188
0.100401,0.9157381,0.3815883,0.006510313,0.002967978,-0.003594397
0.10128,0.9159752,0.379745,0.01314711,0.001420853,-0.003733776
0.0985978,0.9189349,0.3794691,0.01168114,-0.004682376,-0.005773464
0.0931367,0.9230291,0.3747063,0.01139296,-0.01032875,-0.001705023
0.09215236,0.9257463,0.3686607,0.01149996,-0.01380745,-0.003330916
0.09427333,0.924842,0.3723531,0.01053009,-0.01657593,-0.00693905
0.09651781,0.9225132,0.3751085,0.01071559,-0.01036273,-0.01019253
0.09964822,0.924723,0.3711398,0.008119166,-0.003808275,-0.01175094
0.09911863,0.92555,0.370481,0.006257811,-0.008573812,-0.01159688
0.09770684,0.9224848,0.3743204,0.006612279,-0.01423783,-0.01708454
0.09909328,0.9219716,0.3775898,0.007125427,-0.0158243,-0.01559149
0.0987017,0.9221319,0.3784532,0.007164668,-0.01892998,-0.01118142
0.09820672,0.9220796,0.3775722,0.005924637,-0.02011573,-0.01229252
0.09846043,0.9217268,0.3775507,0.005321579,-0.01402058,-0.009868588
0.09576902,0.9212617,0.3775807,0.005399942,-0.01013363,-0.009138407
0.09372287,0.9237534,0.3745481,0.006970325,-0.01789654,-0.007048501
0.09523704,0.9248617,0.370616,0.008436988,-0.02537633,-0.003640669
0.09633525,0.9239726,0.3680174,0.006816712,-0.01996144,-0.005770234
0.09449399,0.9234622,0.3659094,0.004738813,-0.01600001,-0.003488261
0.09207594,0.9223478,0.3647689,0.004046668,-0.02376868,0.0005350859
0.09205863,0.9227748,0.365856,0.005298956,-0.02925076,-0.001457469
0.09529548,0.9248016,0.3694017,0.006188766,-0.03123117,-0.009036191
0.0995771,0.9267995,0.3726121,0.003865922,-0.03291545,-0.01719141
0.1000245,0.9251556,0.372838,0.001901166,-0.03021618,-0.01528313
0.09847088,0.921805,0.3714081,0.003202242,-0.02584666,-0.01251486
0.09868648,0.9220872,0.3703737,0.003860416,-0.01676633,-0.01618308
0.097562,0.9210252,0.369285,0.0009992991,-0.01061589,-0.01483765
0.09678297,0.9209584,0.3690492,-0.0002255005,-0.02077081,-0.01293935
0.09787326,0.9242695,0.3712141,0.003042651,-0.02963716,-0.01500081
0.09883398,0.9231876,0.3733985,0.005361436,-0.01626619,-0.01424676
0.0995296,0.9205042,0.3765409,0.00257397,-0.004133577,-0.01266944
0.09493424,0.9191086,0.3791179,0.0001803259,-0.01774127,-0.01084006
0.0903169,0.9193093,0.3769286,0.004098825,-0.02625152,-0.01138189
0.09627504,0.9228664,0.3747072,0.006370551,-0.01761584,-0.01758478
0.1029303,0.92423,0.3733586,0.002423608,-0.01756106,-0.02038879
0.1009506,0.9239214,0.3728869,0.0001220933,-0.02041072,-0.01854272
0.09595739,0.925378,0.374904,0.0005215211,-0.02091746,-0.01716839
0.08994547,0.9267699,0.3760771,-0.001759435,-0.02660782,-0.01404546
0.08604457,0.9268588,0.3782589,-0.006160994,-0.03430554,-0.0112302
0.09172276,0.9251137,0.377602,-0.006919277,-0.03838374,-0.01074265
0.09893742,0.922943,0.3713266,-0.005526169,-0.02990888,-0.009200623
0.09906526,0.9200873,0.3681022,-0.006456064,-0.02042098,-0.009716904
0.09885682,0.91933,0.3678181,-0.005960383,-0.02409703,-0.01396427
0.1003892,0.9193951,0.3669344,-0.003113687,-0.0245603,-0.01532457
0.1017999,0.9165985,0.3667838,-0.001122661,-0.01651632,-0.01453276
0.1015258,0.9222067,0.369835,-0.002342181,-0.01285397,-0.01477775
0.09891997,0.9296028,0.3725111,-0.005365455,-0.0135083,-0.01464857
0.09819218,0.9251654,0.3699516,-0.00515889,-0.01707466,-0.01429608
0.0976977,0.9236448,0.3697324,-0.004638191,-0.02099616,-0.01482938
0.09670143,0.927046,0.3711694,-0.005430448,-0.01914587,-0.01885595
0.09648858,0.9263299,0.3710527,-0.007535775,-0.01812751,-0.02010061
0.09563095,0.9262486,0.3731756,-0.01490678,-0.01985107,-0.01424641
0.09686154,0.9262421,0.3716575,-0.02013076,-0.02099819,-0.01226131
0.09863418,0.9242288,0.3688665,-0.01891305,-0.02328613,-0.01605446
0.09873121,0.9224721,0.3680903,-0.01553608,-0.0207004,-0.0184567
0.09815583,0.9227771,0.3666196,-0.01040137,-0.01780083,-0.01641743
0.09574926,0.9252259,0.3653932,-0.008652798,-0.02378238,-0.01352278
0.093749,0.9263434,0.3600369,-0.01075657,-0.02742905,-0.01399031
0.09431887,0.926318,0.3586041,-0.0126928,-0.02158645,-0.01282404
0.09582339,0.9266084,0.3629069,-0.01406639,-0.01714643,-0.01153146
0.09633883,0.9251714,0.3623228,-0.01268021,-0.02039549,-0.01235499
0.09781666,0.9209978,0.3679992,-0.01278979,-0.02226156,-0.011599
0.1011332,0.9176529,0.3784163,-0.01337304,-0.02021509,-0.0130378
0.1016391,0.9225936,0.3783489,-0.01107176,-0.02155764,-0.01408894
0.09942602,0.9293738,0.3743446,-0.01266027,-0.02297173,-0.01189415
0.09780067,0.9260764,0.3729999,-0.01361224,-0.02181828,-0.01162424
0.0975746,0.9229971,0.3735408,-0.01217403,-0.02027222,-0.01350761
0.09742181,0.9245154,0.3741172,-0.01318586,-0.01590482,-0.01546668
0.09695524,0.9229305,0.3709208,-0.01228034,-0.0130752,-0.01391811
0.09870147,0.9235651,0.3681033,-0.01162711,-0.01768983,-0.01186194
0.1008009,0.9242835,0.368807,-0.01057356,-0.02127706,-0.01350514
0.1013323,0.9231393,0.3668136,-0.00813368,-0.01375814,-0.01385314
0.09959312,0.9259259,0.3640654,-0.009571353,-0.006677663,-0.01438646
0.09580495,0.926913,0.3674419,-0.01015302,-0.01174914,-0.01458779
0.09507644,0.9256624,0.3713304,-0.009511246,-0.01552497,-0.009074675
0.09550895,0.9238668,0.3744154,-0.01175141,-0.01553631,-0.004632378
0.09506954,0.9216804,0.3791536,-0.01543558,-0.02080397,-0.007710021
0.09748463,0.9251971,0.376451,-0.01808614,-0.02307522,-0.01217486
0.1004982,0.9291649,0.3703609,-0.01553428,-0.02250986,-0.01278752
0.1015834,0.9283361,0.3688485,-0.01216238,-0.0217001,-0.01430311
0.09935035,0.927944,0.3672616,-0.01354952,-0.01546406,-0.0157056
0.09489469,0.9292732,0.3728745,-0.01521151,-0.01468591,-0.01324954
0.09417913,0.9278577,0.3800697,-0.01563662,-0.0214037,-0.01294069
0.09732395,0.9245807,0.3716457,-0.01512379,-0.0225969,-0.01376942
0.09921547,0.9240488,0.3643389,-0.01329302,-0.01569641,-0.01315111
0.09700189,0.9226957,0.3693593,-0.01351423,-0.008989655,-0.01293227
0.09503071,0.9223036,0.3717734,-0.01459083,-0.01549874,-0.009983595
0.09815631,0.9245765,0.3702131,-0.01525257,-0.02250677,-0.006049442
0.1013938,0.9235965,0.3650485,-0.01723431,-0.01348494,-0.004312688
0.101088,0.924695,0.3579004,-0.01679819,-0.007547432,-0.005161868
0.09877147,0.9284934,0.3638796,-0.0150123,-0.01012806,-0.007287755
0.09677924,0.9292678,0.3721791,-0.01549311,-0.01292343,-0.008739325
0.09980269,0.9273792,0.3672381,-0.01601829,-0.01753968,-0.01132924
0.1038403,0.9235494,0.3666064,-0.01699249,-0.01658836,-0.011685
0.1026999,0.9229876,0.3699334,-0.01709205,-0.01524036,-0.01050181
0.1013827,0.9241199,0.3673155,-0.01624124,-0.01736473,-0.01193865
0.1011823,0.9233116,0.3687789,-0.01636092,-0.01169753,-0.01324851
0.09879398,0.9237379,0.3678414,-0.01319218,-0.006408595,-0.01848242
0.09553092,0.9239873,0.3653153,-0.009617517,-0.01001472,-0.02352323
0.09348391,0.9252588,0.3711759,-0.01076325,-0.01586505,-0.01791158
0.09433088,0.9271424,0.3709382,-0.01181497,-0.01869495,-0.01106831
0.095071,0.926399,0.3663559,-0.01173274,-0.01335977,-0.01012772
0.09466551,0.9259244,0.3686659,-0.01389724,-0.006310479,-0.007730501
0.09809795,0.9256826,0.3684888,-0.0156508,-0.009131788,-0.002578919
0.101354,0.9247224,0.3664094,-0.01526504,-0.01076028,-0.001162854
0.1002319,0.9246306,0.3652536,-0.01690532,-0.003513605,-0.004036585
0.1006852,0.9243712,0.3611867,-0.01851777,0.0001627565,-0.007737562
0.1038032,0.9232618,0.3617487,-0.01601605,-0.00150691,-0.01150111
0.1048466,0.9233741,0.3639234,-0.01418741,-0.00538546,-0.01118818
0.1035809,0.9240285,0.3622891,-0.01437877,-0.007909389,-0.009435628
0.1020898,0.923364,0.366114,-0.01276241,-0.004681453,-0.0117009
0.09998214,0.9235748,0.3701138,-0.01111796,-0.003353941,-0.01216131
0.09846439,0.9238486,0.369131,-0.01293534,-0.003571432,-0.01339275
0.09852119,0.923157,0.3696565,-0.015623,-0.007008989,-0.01769327
0.09782829,0.9228922,0.3707037,-0.01823525,-0.01505233,-0.01709872
0.09760544,0.9219369,0.3751051,-0.02268367,-0.01347223,-0.01155902
0.09823616,0.9218113,0.3790838,-0.02229723,-0.01129147,-0.005668297
0.09797051,0.9224374,0.3731117,-0.01743857,-0.01599201,-0.007631466
0.09856601,0.9231577,0.3675125,-0.0158696,-0.0137259,-0.01257304
0.09901508,0.9238307,0.3697263,-0.01491758,-0.005474484,-0.009542822
0.09833235,0.9205262,0.3710546,-0.01305519,0.001409177,-0.007541365
0.09878614,0.9196162,0.3698945,-0.01111171,-0.002765288,-0.00578967
0.1000435,0.9239902,0.3685124,-0.01154186,-0.01043815,-0.004593554
0.1018734,0.923602,0.3665113,-0.0143318,-0.005701248,-0.01095051
0.1027925,0.9207381,0.3696678,-0.0135361,-0.004689432,-0.01283436
0.09925856,0.9181967,0.3742992,-0.01269883,-0.007983983,-0.01192885
0.09588081,0.915756,0.3724382,-0.009993203,-0.004760885,-0.01331074
0.0980387,0.9200533,0.3730996,-0.004422087,-0.006517594,-0.01206426
0.09964184,0.9251912,0.3762795,-0.004807973,-0.008092882,-0.01245893
0.09796652,0.9265575,0.3739278,-0.004892509,-0.006733372,-0.01132257
0.0972364,0.9286554,0.3722493,-0.003647633,-0.008284693,-0.00720442
0.09554328,0.9290979,0.3712612,-0.00609727,-0.007571834,-0.002463919
0.09311805,0.9271519,0.3676288,-0.006927691,-0.01092206,0.0009057265
0.09275301,0.9239624,0.3673272,-0.00882946,-0.01778035,-0.004078682
0.0924284,0.9230441,0.368764,-0.01431749,-0.02006577,-0.008729684
0.09583391,0.925935,0.3671093,-0.01866794,-0.01822083,-0.006566081
0.1023824,0.9268599,0.3642955,-0.01856436,-0.0118792,-0.006313035
0.1021457,0.9263872,0.3631785,-0.0180577,-0.009039527,-0.007699566
0.09937471,0.9255759,0.3689623,-0.02129735,-0.01433437,-0.00674003
0.1002747,0.9227422,0.3766843,-0.02090273,-0.01692031,-0.007233509
0.09997612,0.9199853,0.3734634,-0.01870225,-0.00606203,-0.01215173
0.0987071,0.9205105,0.3680047,-0.01849811,0.004139901,-0.01606035
0.09498329,0.9235594,0.3684262,-0.01472184,-0.006859363,-0.01489146
0.09010149,0.9238378,0.3674714,-0.01242673,-0.01498616,-0.01240284
0.09309378,0.9243194,0.3685957,-0.01004263,-0.001687058,-0.01067045
0.09722723,0.9283833,0.3714026,-0.004503426,0.004219959,-0.007999168
0.09495223,0.9308336,0.3718105,-0.005268963,-0.007858893,-0.005601656
0.09282005,0.9277592,0.3705935,-0.007484436,-0.01583654,-0.005429845
0.09194444,0.9232532,0.3654376,-0.006471351,-0.01068667,-0.005209405
0.09360153,0.9265881,0.3661409,-0.00827013,-0.007872401,-0.004370126
0.09757559,0.9299335,0.372213,-0.01119499,-0.0124961,-0.003507944
0.09689373,0.9275765,0.3711247,-0.01314211,-0.01190425,-0.002952244
0.09646204,0.9291236,0.3689976,-0.01362139,-0.008854133,-0.003013001
0.09823896,0.9277467,0.3688443,-0.01380887,-0.008306414,-0.001743571
0.09689437,0.9230665,0.3687238,-0.01508701,-0.006654537,-0.00204307
0.09792825,0.9235338,0.370624,-0.01483594,-0.003726286,-0.004455437
0.09949515,0.9236479,0.3706175,-0.01491823,-0.0002930531,-0.008499971
0.09809528,0.9239128,0.3671051,-0.01625124,-0.006057735,-0.01371319
0.09873159,0.9255806,0.3644028,-0.01678704,-0.01566794,-0.008988781
0.09877006,0.9262893,0.3671839,-0.01653196,-0.01174783,-0.001728567
0.09813527,0.9250938,0.3711649,-0.01480613,-0.004598086,-0.005297916
0.09802163,0.9225002,0.3708865,-0.01307463,-0.002057473,-0.006454051
0.09674151,0.9239278,0.3697838,-0.01191627,-0.002068469,-0.003748163
0.09717415,0.9262562,0.3690631,-0.0111448,-0.00545607,-0.004453108
0.09805104,0.9273262,0.3678549,-0.01116648,-0.00339889,-0.003107697
0.09962336,0.9296609,0.3653706,-0.01061037,-0.0007714037,-0.003519641
0.1016426,0.9300944,0.3633474,-0.01177926,-0.001444606,-0.004722002
0.09758332,0.9306191,0.3664338,-0.01514081,0.0004158684,0.0005222028
0.09137413,0.9308116,0.3695273,-0.01834014,-0.001433439,0.003744108
0.09171036,0.9289545,0.3669968,-0.019941,-0.003183954,-0.001344054
0.09722635,0.9277498,0.363029,-0.01614728,-0.002375176,-0.007433114
0.102568,0.9247785,0.3615636,-0.01213354,-0.001431018,-0.007537113
0.1034142,0.9224151,0.3666108,-0.01481834,0.001259835,-0.00602394
0.09960476,0.9228523,0.3734767,-0.01663355,-0.004974123,-0.008158724
0.09736034,0.9223755,0.3702895,-0.01510843,-0.01030143,-0.01007387
0.09793433,0.9228162,0.3661782,-0.01706672,0.0005739859,-0.01065573
0.09629283,0.9242918,0.3681909,-0.01875589,0.007873095,-0.007965809
0.09239475,0.924218,0.366861,-0.01556993,-0.0007913583,-0.00102549
0.09047878,0.9231981,0.3690863,-0.01292006,-0.008055918,0.003273009
0.09590296,0.9219636,0.3754581,-0.0123164,-0.002833217,0.003442656
0.1028672,0.9220097,0.3753915,-0.01117845,0.002048758,-0.0002402392
0.1000157,0.9234685,0.3747787,-0.01192269,0.002309336,-0.00536688
0.09645299,0.9242406,0.3751483,-0.01431402,0.00111696,-0.005387412
0.0981809,0.9252449,0.3733281,-0.01384057,-0.005217149,-0.002172217
0.09770551,0.9268192,0.3681712,-0.01311142,-0.004456304,0.0001974752
0.09879486,0.9255362,0.3621745,-0.01549226,0.0004009025,0.001077749
0.1005117,0.9235267,0.3668327,-0.01797411,-0.003096558,0.001186689
0.1002544,0.9242635,0.373623,-0.01914793,-0.001627004,-0.000245244
0.1020079,0.924454,0.3721959,-0.01633995,0.005259299,-0.00362449
0.1004233,0.923377,0.3721487,-0.01107031,0.00908989,-0.00367215
0.09812565,0.9235513,0.3685351,-0.009814199,0.008632922,-0.00172568
0.09900669,0.9247406,0.3610037,-0.009852679,0.005826487,-0.003077512
0.09791623,0.9247249,0.3644263,-0.01110694,0.006854459,-0.006900435
0.0967216,0.9222624,0.371329,-0.01452392,0.002808399,-0.008944174
0.09464119,0.9203499,0.3731789,-0.01419169,-0.003590156,-0.004981576
0.09351871,0.9223193,0.3736609,-0.01232629,-3.289133e-05,-0.002003914
0.09516997,0.9247675,0.3702611,-0.01203219,0.003371776,-0.001137725
0.0947663,0.9235457,0.3681157,-0.01274568,0.003759869,0.003762284
0.09689253,0.9230221,0.368614,-0.01468899,0.003567076,0.004563182
0.09987398,0.9242176,0.3675405,-0.01451403,0.001684275,0.00382706
0.09851575,0.9233572,0.3700749,-0.01283609,0.004189579,0.004274363
0.09785996,0.9234727,0.3709874,-0.01232387,0.006128947,-0.003497335
0.09766694,0.9239709,0.3700196,-0.01162383,0.00268681,-0.009319841
0.09809359,0.9232551,0.3740446,-0.01079747,0.0009450584,-0.0064998
0.101397,0.9238018,0.3763111,-0.01084867,0.002484321,-0.00367951
0.1023141,0.9236347,0.3769245,-0.0118451,0.004102037,-0.002682057
0.09959791,0.9234264,0.3789325,-0.01211072,0.004298106,-0.00244229
0.09875767,0.9236717,0.379355,-0.009840092,0.003302964,-0.002311477
0.09880603,0.9225306,0.376634,-0.008392638,0.001596072,-0.002770733
0.09813383,0.9221994,0.3718632,-0.008378741,-0.000775735,-0.003241497
0.09860124,0.9235947,0.370151,-0.005735906,-0.002544044,-0.003161811
0.09684249,0.9261056,0.3715576,-0.004745763,-0.00254295,-0.002764203
0.09495244,0.9260676,0.3729155,-0.005095989,-0.002463691,-0.001504807
0.09605286,0.9224037,0.3722678,-0.002536657,-0.00422771,3.905412e-05
0.09576938,0.9211256,0.3720153,-0.003146227,-0.004530447,0.003257886
0.09495914,0.9212067,0.3745944,-0.001786132,-0.004717173,0.004296175
0.09571295,0.9204384,0.3752986,0.002492111,-0.01090445,0.002018144
0.09912842,0.9220861,0.3745041,0.002268732,-0.01613543,0.0007706687
0.103901,0.9238409,0.372351,0.005802614,-0.01315503,-0.001953431
0.104199,0.9246201,0.3695694,0.006532652,-0.01027754,-0.003527265
0.1003953,0.9263634,0.3699876,0.002488836,-0.01291866,-0.006579117
0.09738243,0.9254044,0.3695575,0.00452265,-0.01310664,-0.01393808
0.09813059,0.9199481,0.3689996,0.00244229,-0.007503278,-0.01396895
0.0980491,0.9155995,0.3708757,0.0007476898,-0.001671191,-0.01249391
0.09370857,0.9193973,0.3746737,0.002865339,0.0001647815,-0.01459159
0.09229284,0.925168,0.3793677,-0.0002591919,-0.007421985,-0.009775378
0.09424687,0.9237557,0.3785345,0.001156477,-0.01693485,-0.004323777
0.09476798,0.9243159,0.3764232,0.002168881,-0.01483489,-0.001331309
0.09465599,0.9267537,0.3775702,-0.003313568,-0.008512839,0.002593843
0.09548395,0.9248182,0.3735205,-0.004330616,-0.005486071,0.001261217
0.09802597,0.9266795,0.3687933,-0.002326131,-0.00632491,-0.000570043
0.099315,0.9272889,0.3714343,-0.001787668,-0.01057408,0.001067599
0.09878576,0.9248255,0.3743507,-0.001589531,-0.01195477,0.0004861978
0.1006438,0.9251922,0.3752745,0.0002232788,-0.0119938,-0.001460047
0.1038561,0.9221218,0.3764332,0.002139055,-0.01216167,-0.004940504
0.104514,0.9212128,0.375873,0.002484027,-0.01139622,-0.008696093
0.1019948,0.923978,0.3746809,0.002549696,-0.01245234,-0.008237071
0.09974799,0.9252183,0.373235,0.001895685,-0.01399214,-0.007685256
0.09981846,0.9287207,0.3730741,0.002456923,-0.01545296,-0.009100519
0.09994234,0.927135,0.374299,0.004219306,-0.01381825,-0.008677941
0.099115,0.9222834,0.372618,0.005719596,-0.01050692,-0.006992561
0.09774924,0.9230167,0.3708887,0.004884211,-0.01246218,-0.002603075
0.0958417,0.9246267,0.3717422,0.002526718,-0.01504088,0.0045718
0.0938783,0.9282064,0.372503,0.003618617,-0.01538459,0.005798011
0.09483313,0.93162,0.3716684,0.003572326,-0.01040555,0.002854329
0.09956508,0.9288169,0.3726641,0.00252776,0.004170337,0.002384029
0.1025345,0.9254791,0.376893,0.003347366,0.01094531,-0.001030118
0.1016719,0.925153,0.3775255,0.0008941374,-0.002657307,-0.00483823
0.1007927,0.9242827,0.3782271,-0.001171046,-0.01487998,-0.00527258
0.1017431,0.922914,0.3770042,-0.0009243889,-0.00790407,-0.006515468
0.1025619,0.9235526,0.3688277,-0.001587795,-0.001339523,-0.005619087
0.1021062,0.9232308,0.3683227,-0.003046812,-0.006245758,-0.003691055
0.1004283,0.9223908,0.3693202,-0.004514169,-0.01056413,-0.002349056
0.09819753,0.9240692,0.367219,-0.002529125,-0.01507482,-0.001858651
0.1007797,0.9239063,0.3711165,7.134298e-05,-0.009679588,-0.004565437
0.1040512,0.9229147,0.3715535,-0.0002139178,0.001139925,-0.005222582
0.09962557,0.9230783,0.3763413,-0.0002602306,-0.008729071,-0.006015512
0.09588173,0.9223958,0.3838837,-0.0002662529,-0.01666614,-0.004770223
0.09600627,0.924678,0.3794188,-0.0007992201,-0.01132763,0.0007567004
0.0959109,0.9274335,0.3753904,-0.001276928,-0.01248124,0.0002102889
0.0987354,0.9250113,0.37233,-0.001016673,-0.01142624,-0.0003194133
0.1013451,0.9214643,0.3681512,0.000678563,-0.01013516,-0.001189083
0.1013698,0.9210506,0.3669108,0.001723438,-0.01157576,-0.003985806
0.1015973,0.9242537,0.3629334,0.001716071,-0.009841467,-0.001322382
0.1012908,0.9274092,0.3628783,0.001870838,-0.01424122,-0.005645125
0.10146,0.9249626,0.3662427,0.001955179,-0.01795411,-0.01021904
0.1024895,0.9220749,0.3653317,0.001197666,-0.01233674,-0.006052062
0.1025358,0.9243774,0.3662583,-0.0001428541,-0.00262572,-0.006000236
0.1009474,0.925871,0.3677534,-0.0004881539,0.001939981,-0.006023181
0.09790759,0.9262134,0.3690223,0.0004073349,-0.009093493,-0.00464864
0.09541096,0.9270885,0.3749624,0.001261582,-0.02053897,-0.003905168
0.09426007,0.92572,0.3750273,0.0008268557,-0.01491344,-0.002143399
0.09523161,0.9252642,0.3691976,-7.590053e-05,-0.007690695,-0.002144061
0.09838773,0.9243037,0.3683595,-0.0001479467,-0.009402842,0.0002330131
0.09937873,0.9223268,0.3664662,0.0002501164,-0.01431834,0.001937563
0.09917915,0.9224337,0.3663953,0.0004543948,-0.01932105,0.001490358
0.1003917,0.921295,0.3697569,-0.002387456,-0.009806225,0.004521159
0.1000947,0.9218556,0.3674732,-0.007372066,0.003207031,0.006730916
0.09973071,0.9230256,0.3679228,-0.007854121,-0.009317404,0.004968344
0.1005812,0.9206248,0.3708322,-0.003162791,-0.02024124,0.001576669
0.1016786,0.9213405,0.3703187,0.0007774649,-0.01289795,-0.00147343
0.1033302,0.9247358,0.3705547,-7.172284e-05,-0.007378328,-0.003653411
0.1028664,0.9271024,0.3690767,-0.002315716,-0.001133589,-0.00365465
0.1013915,0.9267768,0.3699285,-0.002592192,-0.002761639,-0.003876197
0.1013962,0.9236235,0.3719846,-0.002347613,-0.01032106,-0.006950869
0.1013073,0.9237686,0.3698325,0.0006289092,-0.007646271,-0.005830962
0.1013941,0.9255711,0.3691138,0.003811924,-0.008867639,-0.001237383
0.1020268,0.9259034,0.3678396,0.002138864,-0.01152894,0.002949777
0.1039319,0.9234337,0.3673568,-0.0004809577,-0.00802179,0.005964454
0.1059235,0.9197558,0.3688999,-0.002490366,-0.006906192,0.001820135
0.103202,0.9245494,0.3667239,-0.002914805,-0.004249179,-0.001329748
0.09986928,0.9306231,0.3635058,-0.002575726,-0.004265277,0.0009398895
0.1016502,0.9298204,0.3601708,-0.005328293,-0.007023986,-0.0009674833
0.1029661,0.9286179,0.3602695,-0.005210455,-0.003503889,-0.002795603
0.1024011,0.923894,0.3633723,-0.002470111,0.0009332052,-0.002198883
0.1031117,0.9186791,0.3628969,-0.003801593,0.003599133,-0.003903972
0.1029256,0.9208363,0.3658321,-0.006923923,-0.001062607,-0.004785627
0.103416,0.9228097,0.3697729,-0.007514865,-0.008457532,-0.004425133
0.1047828,0.921762,0.3687251,-0.002296373,-0.001059695,-0.006553699
0.104044,0.9223321,0.3720453,0.002991015,0.005971754,-0.007344853
0.1039785,0.9224847,0.3768288,0.003787325,0.003087073,-0.00349675
0.104965,0.9214693,0.374798,0.003790839,0.006663209,-0.003139535
0.1066545,0.9206928,0.371273,0.001941801,0.01188793,-0.005632171
0.1083321,0.9194477,0.3704224,0.001606241,0.01316908,-0.005192749
0.103328,0.9218502,0.3697796,0.003391805,0.01344918,-0.003852649
0.09484047,0.9262266,0.3693952,0.004435514,0.009242369,0.002047568
0.09385073,0.9265995,0.3704459,0.005814606,0.001859646,0.007672414
0.09946325,0.9287771,0.3704918,0.003434777,-0.005940231,0.006736345
0.1029621,0.9319519,0.3682825,-0.001300744,-0.008019625,0.004811029
0.1018853,0.930282,0.3657266,-0.008516581,-0.007235555,0.0009398087
0.1019999,0.9287566,0.3660879,-0.01715429,-0.01039111,-0.004112068
0.1038144,0.9276101,0.3664579,-0.01835612,-0.00881025,-0.007379494
0.1028923,0.925571,0.3635715,-0.01623062,-0.005771585,-0.008981881
0.1036599,0.9259023,0.3634677,-0.01293742,-0.004267262,-0.008330104
0.1049048,0.9251406,0.3646265,-0.006491784,-0.001665459,-0.007486964
0.1007466,0.9226617,0.3643457,-0.001548891,-0.003404837,-0.004977753
0.09915912,0.923451,0.365931,0.001828822,-0.0003011402,-0.00034402
0.1017261,0.924251,0.3663216,0.002012016,0.002816832,0.00191437
0.1032734,0.9231053,0.365797,0.001132674,0.0007023328,0.0004248989
0.1045253,0.9237279,0.3635863,0.004001298,0.006355419,-0.0005183529
0.1024237,0.9250733,0.3592659,0.003904151,0.01120452,0.0006469005
0.1003618,0.9295268,0.358984,-0.0005664904,0.0124207,0.001208806
0.1018633,0.9351493,0.3588091,-0.003675349,0.008940401,0.002325045
0.1024065,0.9322118,0.3574068,-0.005376964,0.001609511,0.001558316
0.1028586,0.9279244,0.3600843,-0.004969334,0.004730805,-0.0005693413
0.103179,0.9285709,0.3647427,-0.00680696,0.003686226,0.001045684
0.103411,0.9253754,0.3694226,-0.01379328,-0.0009701734,0.002983841
0.1045852,0.9215799,0.3696814,-0.01654335,0.008496645,0.003202978
0.103541,0.9208277,0.3690504,-0.01474133,0.02263277,-0.0004650404
0.09979459,0.9191004,0.3771644,-0.01423662,0.03055405,-0.0052074
0.09501806,0.9195521,0.3835393,-0.01334036,0.02111693,-0.00202425
0.09335322,0.9201154,0.3816098,-0.009507816,0.007547434,0.001939712
0.09613544,0.9207784,0.3745422,-0.004555923,0.009434333,0.002122769
0.09818251,0.9242355,0.362502,-0.004660549,0.009230834,0.004494268
0.09876651,0.923903,0.355173,-0.00632672,0.006604177,0.004946347
0.0992838,0.9230441,0.3520661,-0.005408607,0.009812383,0.004569789
0.10008,0.9239664,0.3556683,-0.00737832,0.008619882,0.007297123
0.1019697,0.9223723,0.3682265,-0.009190859,0.008222402,0.006256621
0.1014675,0.9220439,0.3685264,-0.008137911,0.008633512,0.003610123
0.09889639,0.9222552,0.3660452,-0.008828423,0.005057993,0.00386062
0.09844789,0.9221413,0.3712336,-0.01169151,0.00554295,0.003086207
0.0984907,0.9224357,0.3683534,-0.01279065,0.008354247,0.002186706
0.09881152,0.9219534,0.3672236,-0.007538801,0.01014201,0.0009668691
0.09971392,0.9222306,0.3673939,-0.002218726,0.008199372,6.232886e-05
0.1003234,0.9213168,0.3650406,-0.00613478,0.001486336,0.0008985271
0.1022714,0.9203992,0.3679757,-0.01053784,0.001040457,0.0002561683
0.1040279,0.9213363,0.3665761,-0.007769937,0.009793746,0.001248233
0.1041878,0.9225966,0.3669999,-0.006058968,0.01889985,0.002966036
0.1020358,0.9241739,0.3704363,-0.006546246,0.01664997,0.002918087
0.0987248,0.9232742,0.3689458,-0.005157561,0.006976041,0.004792213
0.09819791,0.920488,0.3703515,-0.003453828,0.004512835,0.005185171
0.0988661,0.9187425,0.369418,-0.001481594,0.004049488,0.004137446
0.1004626,0.9185405,0.3667284,-0.002344523,0.0005999856,0.004402261
0.1049399,0.9202571,0.3665666,-0.004104946,-0.001466471,0.003769585
0.1091531,0.9220052,0.3646545,-0.001049039,0.006115855,0.002213772
0.1082334,0.9226999,0.3658638,0.0001675542,0.01728316,0.000764633
0.1029264,0.9219987,0.3692173,-0.003089946,0.008479705,0.001727549
0.1003351,0.9210108,0.3716196,-0.00516299,0.0005352227,0.001239321
0.1010258,0.9210995,0.3719887,-0.004979614,0.01041469,-0.003218237
0.1003655,0.921463,0.3727351,-0.004750918,0.01003574,-0.006405882
0.0970421,0.9225997,0.3770263,-0.004676862,0.0004789608,-0.006812056
0.09455493,0.922848,0.3756911,-0.002266057,-0.004977867,-0.0007360425
0.09644462,0.9234921,0.3710125,-0.00154639,-0.002313779,0.005795191
0.09839878,0.9257301,0.3705487,-0.002954137,0.006238997,0.003244605
0.1003733,0.9241051,0.3706343,-0.001138238,0.005674201,0.001623968
0.1025372,0.9219706,0.3723061,0.0007570606,0.0003162574,0.003769557
0.101437,0.9229233,0.3764352,0.002272461,-0.003749515,0.004344479
0.1028363,0.922014,0.3789326,0.002344069,-0.004188852,0.005789716
0.1052474,0.9200046,0.3764454,-0.0007336614,-0.0001416228,0.005006855
0.1034474,0.9185919,0.3739112,-0.001775815,-0.0001849346,0.0019365
0.101204,0.9169469,0.3735175,-0.001127272,0.001266172,0.0009599472
0.09966144,0.9161634,0.3687475,0.0004724567,-0.003632915,-0.0006614591
0.1004413,0.9176162,0.36704,0.001891094,-0.01208553,-0.001307426
0.1019108,0.9214274,0.369281,0.004696051,0.001217608,-0.0003963015
0.09929204,0.9242979,0.3689042,0.009945569,0.0115833,-0.004268552
0.09680156,0.9224723,0.3717632,0.008082042,-7.417586e-05,-0.00708764
0.0973492,0.9195587,0.3733639,0.005592036,-0.007380252,-0.003381339
0.09820901,0.9219347,0.3736127,0.007714365,-0.007025034,-0.001091274
0.09900884,0.9240801,0.3742909,0.004235921,-0.01140017,-0.002225154
0.09982558,0.9222012,0.3710557,0.001725361,-0.01509962,-0.003022825
0.1009207,0.9222183,0.3693323,0.004792607,-0.01247112,-0.002539049
0.1019035,0.9224251,0.3652762,0.00633235,-0.007338652,-0.002189243
0.1011402,0.923412,0.3646638,0.00552692,-0.001352047,-0.001060216
0.100253,0.9269737,0.370192,0.00494346,-0.004082588,0.004147924
0.1003741,0.9279764,0.3679284,0.005859909,-0.01176616,0.00799559
0.1015228,0.9260625,0.3675241,0.0066242,-0.006518934,0.005474667
0.1033323,0.92319,0.3710136,0.007480842,-0.005249841,0.002550468
0.1021382,0.923127,0.3721419,0.006977253,-0.01065594,0.001611952
0.1008461,0.9246556,0.3756548,0.005196696,-0.007665913,-0.001510179
0.1035058,0.9249186,0.376941,0.007195287,-0.006316223,-0.002946279
0.1043407,0.9270415,0.3759442,0.00951701,-0.003415312,-0.0005255109
0.1013421,0.9268304,0.3732143,0.008586219,-0.002205022,-0.00108345
0.09924421,0.924859,0.3692662,0.004912194,-0.004135324,-0.0007892743
0.1006539,0.923399,0.3681075,-0.00139054,0.003430794,0.001734324
0.1023194,0.9199712,0.3679643,-0.004367927,0.005866301,0.0009491881
0.1011038,0.921949,0.3692924,0.0003672067,-0.002168929,0.001610327
0.1014599,0.9252066,0.3706367,0.006635654,-0.01126806,0.00177243
0.1036609,0.9220042,0.3699463,0.005462884,-0.01468174,-0.0005957287
0.1041734,0.9206362,0.3656491,0.00498847,-0.01079657,-0.001472603
0.1033987,0.9211561,0.3605165,0.0112883,-0.01115693,-0.003084298
0.1009918,0.9206227,0.3630057,0.01145412,-0.01072732,-0.003100973
0.09915859,0.9217614,0.367302,0.008780343,-0.006876981,-0.003012017
0.09920514,0.9214735,0.365527,0.008883161,-0.004933507,-0.005730782
0.1017243,0.9195447,0.3617269,0.007131983,-0.002721415,-0.005050467
0.1053502,0.9192882,0.3613559,0.007301633,-0.006523317,-0.002504878
0.1027439,0.9207485,0.3646381,0.006264495,-0.0114421,-0.002526992
0.09969922,0.9230395,0.3678018,0.005293215,-0.0115524,-0.003142125
0.102033,0.9241219,0.3704835,0.006091983,-0.007858471,-0.002278406
0.1016446,0.9245251,0.366078,0.003590156,-0.001910682,0.0002922179
0.1007827,0.9278709,0.3575211,0.004591146,-0.004706409,0.002201717
0.1018986,0.9311223,0.3611862,0.006257052,-0.01014182,0.0009740817
0.1015319,0.9266987,0.365144,0.003827893,-0.0100915,-0.0008964993
0.1031063,0.921059,0.3624222,0.002192386,-0.00581082,0.0007276753
0.10476,0.9240442,0.3647889,0.001644811,0.003220904,0.001903002
0.1032482,0.927015,0.3649671,0.00344083,0.003701845,-0.0001424666
0.1022399,0.9271622,0.3662627,0.003997542,-0.001385026,-0.001549991
0.1028471,0.9284018,0.3694516,0.004119829,-0.0005561028,-0.002578726
0.1029976,0.9248851,0.367629,0.005940653,-0.001108519,-0.002894402
0.1023813,0.9227253,0.3732363,0.003558149,-0.002740426,-0.001661878
0.1019403,0.9249082,0.3744389,0.00220723,-0.00854023,0.002224341
0.1015798,0.9248654,0.3656325,0.004151148,-0.01742268,0.006008196
0.1028927,0.9264696,0.3661116,0.004627859,-0.01426772,0.00221669
0.1050591,0.9253935,0.3659519,0.004669375,-0.00443913,-0.001033149
0.104061,0.9217991,0.3640508,0.004576799,0.003092106,-8.388075e-05
0.1027517,0.9233199,0.3680113,0.005540463,0.006269264,0.0003315277
0.1027706,0.9232969,0.3668057,0.005157195,0.0006714818,0.002648044
0.1016378,0.9230511,0.366027,0.0006072763,-0.00448462,0.0007392234
0.1011948,0.9246632,0.3683793,-0.003702858,-0.004757265,-0.0005084392
0.1014225,0.9238013,0.3680156,-0.003049212,-0.005118878,0.000659125
0.1013512,0.9246965,0.3691617,-0.0005845992,-0.004848217,-0.003055686
0.1011298,0.9253119,0.3693385,-0.002143656,-0.007827189,-0.0009060526
0.09949818,0.924491,0.3671817,-0.002124422,-0.0107899,0.0006021147
0.09828254,0.9246508,0.3643152,9.337425e-05,-0.007072876,-0.002083976
0.09934368,0.9238018,0.3618259,-0.0007212909,-0.004240286,-0.0001485487
0.1007525,0.9244498,0.3617423,-0.0003579971,-0.005185837,-0.001567921
0.1009128,0.9244444,0.3608749,-0.0006153486,-0.005913542,-0.002339006
0.1014821,0.9230511,0.3617075,-0.001606081,-0.006022959,-0.0004554564
0.1027184,0.9237975,0.3660675,-0.00031955,-0.00642411,0.002145538
0.1029245,0.9232674,0.3699426,0.0004488572,-0.008094698,0.005747841
0.1039197,0.9213426,0.3733442,0.002371214,-0.009051579,0.002905826
0.1054179,0.9187064,0.3761644,0.002855375,-0.007465328,-0.0001096618
0.1051686,0.9172375,0.3765686,0.001457511,-0.005396313,-0.003163592
0.1030049,0.9195214,0.3728132,0.002191287,-0.006699044,-0.004945988
0.1005527,0.9209254,0.3673235,0.001941927,-0.01071128,-0.001650183
0.1020139,0.921929,0.362757,0.001703594,-0.01173466,-0.004332298
0.1032785,0.9239713,0.3622971,0.001860792,-0.005418164,-0.005816997
0.0996584,0.9260252,0.3657757,-9.413185e-05,0.002683058,-0.004874892
0.09784159,0.9296813,0.3645031,-0.003543977,6.75679e-05,-0.005592449
0.09974391,0.9313168,0.3644752,-0.007020611,-0.005978268,-0.001564987
0.1018016,0.9295597,0.3672299,-0.006249815,-0.005365446,-0.003124369
0.1034116,0.9282394,0.3658895,-0.004459995,-0.005473533,-0.004844072
0.1045125,0.9273157,0.3687226,-0.004727121,-0.004019318,-0.0009293588
0.1044836,0.9246461,0.369092,-0.001723765,-0.001667222,-0.001754953
0.1037483,0.9215455,0.3664396,0.0005427661,-0.001887989,-0.001613944
0.1042897,0.920823,0.3695691,-0.0007449233,0.001067091,-0.001554655
0.1045547,0.9223557,0.369606,-0.001748627,0.005556891,-0.002393459
0.1047078,0.924415,0.3707982,-0.002895636,0.01121673,-0.001111667
0.1059209,0.9237274,0.3711225,8.734491e-05,0.01084276,-0.00313548
0.1045292,0.9219683,0.3645437,0.004773937,0.006754586,-0.005086183
0.1026485,0.9224776,0.3604955,0.00299172,0.0126823,-0.005126933
0.1022158,0.9229796,0.3587016,0.001386786,0.01394888,-0.0028038
0.0994754,0.9265233,0.3608194,0.001080646,0.00837624,-0.002099654
0.09521711,0.9309213,0.3631987,-0.003589104,0.008213497,-0.005050013
0.09400555,0.9289576,0.3617995,-0.005118464,0.01085714,-0.001890852
0.09822556,0.9265199,0.3628301,-0.0009934007,0.01509759,0.001428755
0.1015584,0.9264488,0.3615701,0.001162325,0.01127256,0.003890592
0.1000459,0.9253781,0.3612941,-6.078566e-05,0.006247296,0.008758902
0.1003388,0.9229826,0.3661324,-0.002020262,0.01012536,0.00565941
0.1021484,0.9198221,0.3690599,-0.00463829,0.009414983,0.002336043
0.1017202,0.9203695,0.3687364,-0.007819789,0.009220878,0.003640328
0.1028232,0.9232798,0.3665598,-0.008825414,0.01494906,0.004712146
0.1050302,0.9247037,0.3652647,-0.007375983,0.02158475,0.006092384
0.1037599,0.9269101,0.3618404,-0.007314488,0.02595148,0.002639563
0.1009426,0.925656,0.3597179,-0.01045998,0.01835882,0.0001185441
0.09977373,0.921016,0.3646822,-0.01382727,0.009578064,0.0002345549
0.1005008,0.9204326,0.3679863,-0.01297508,0.01056843,-0.001200506
0.1020832,0.9205474,0.3711109,-0.007996745,0.01057202,-0.0001694175
0.1014799,0.9189528,0.3757197,-0.001724207,0.006933349,-0.001286563
0.1001312,0.9181409,0.3770646,0.00227622,0.004583261,-0.0004086484
0.09831849,0.9200178,0.3737373,0.0004829382,0.006436828,0.00367957
0.09510859,0.9255363,0.3667454,-0.002830784,0.008935092,0.002532737
0.09790137,0.9274015,0.3688339,-0.004537251,0.007688419,0.001564531
0.101844,0.9247717,0.3726816,-0.006870727,0.00833324,0.001452096
0.09867282,0.9227122,0.3692621,-0.007291875,0.01041476,0.004140854
0.09878368,0.920733,0.3715352,-0.006168712,0.009672655,0.008479599
0.1046936,0.920942,0.3725409,-0.004827409,0.01234802,0.004574353
0.1077529,0.9235161,0.3723027,-0.003040789,0.01995874,0.001300377
0.1041395,0.9276166,0.3760507,-0.001827269,0.02164808,0.002948252
0.09735461,0.9302238,0.374084,-0.0004532943,0.008674567,0.00321978
0.09673683,0.9271008,0.3717756,-0.006145811,-0.002989613,0.00180063
0.1004878,0.9243945,0.3688747,-0.01521605,0.009393707,-0.005910247
0.1009284,0.924841,0.3663759,-0.01452027,0.0218336,-0.01159582
0.09638194,0.9240657,0.3692778,-0.0120715,0.01060962,-0.002496306
0.0912143,0.9218091,0.3690156,-0.00932143,0.003440246,0.005599603
0.09507759,0.9191707,0.3704155,-0.001602468,0.006866486,0.001891579
0.1015235,0.9175774,0.3734225,0.0007165359,0.008167023,0.0009725697
0.1018957,0.9188393,0.3716345,-0.0009399931,0.01452086,0.003797542
0.1033582,0.921127,0.3703241,0.0002105796,0.01399518,0.005306927
0.1046855,0.9210021,0.3686455,0.000927738,0.004550787,0.008346592
0.1036792,0.9207336,0.3689661,-0.001676513,0.005248176,0.005674303
0.1026743,0.9219825,0.3745524,-0.007412847,0.01104769,0.0009514093
0.1010038,0.9225236,0.3804207,-0.01007604,0.01285418,0.00307394
0.1003082,0.9232267,0.3799577,-0.006217733,0.007191148,0.002839956
0.09834658,0.9237978,0.374694,-0.00335476,-0.0006534266,-0.0008198025
0.09764942,0.9236398,0.3738377,-0.006311973,0.002146961,-0.0003615402
0.09957385,0.9236019,0.373631,-0.008299359,0.007219843,0.001872169
0.09814187,0.9238798,0.3728072,-0.005583123,0.008542186,0.0003653911
0.09735786,0.9255152,0.3733775,-0.004729416,0.0106252,-0.001502727
0.09740105,0.92635,0.3705301,-0.004701481,0.0099762,0.00349066
0.09571442,0.9238617,0.3702253,5.694081e-05,0.008066662,0.00655123
0.09665703,0.9211286,0.3705805,0.004679116,0.006142972,0.003423225
0.09935136,0.9219583,0.368563,0.003224619,0.004930156,0.002904906
0.1021324,0.9231939,0.3699178,-0.001058843,0.004917524,0.001655696
0.1012698,0.9227623,0.3704556,-0.001215712,0.0003545562,0.001312772
0.0985585,0.9247673,0.3707881,0.002187166,-0.001947881,0.003817658
0.1004588,0.9257865,0.3713049,0.005897397,0.003125478,0.003627704
0.1004536,0.9238759,0.369784,0.007423918,0.005095272,0.004637724
0.09918243,0.9225165,0.3684328,0.004748296,0.0002713538,0.002075344
0.1008319,0.9203287,0.3658737,0.003229156,-0.005128068,-0.004145524
0.1010333,0.9210985,0.3668127,0.003255064,-0.005661555,-0.00275697
0.1034154,0.9234323,0.3715427,0.003046281,-0.005029142,0.001358025
0.1059806,0.9218234,0.3741748,0.005380528,-0.002762618,0.0002524452
0.1039663,0.9219253,0.3745394,0.006571565,0.002790256,-0.002492381
0.1010794,0.9224244,0.3732271,0.006505516,-0.0003756334,-0.001235209
0.09822134,0.9201656,0.3748744,0.007572521,-0.00546844,-0.001363509
0.09880307,0.9199576,0.3761101,0.009270421,-0.004215747,-0.003709743
0.1028014,0.9209939,0.3730579,0.01180893,-0.008384932,-0.002404074
0.1054548,0.9211126,0.3734891,0.01288524,-0.01153124,-0.003203452
0.1072857,0.920663,0.3732185,0.01295033,-0.01120108,-0.003451764
0.1076247,0.9212466,0.3685128,0.01182775,-0.01408272,-0.00201691
0.104346,0.9237974,0.3666756,0.008746269,-0.01187364,-0.002378812
0.09975511,0.925412,0.3704595,0.006223136,-0.007515642,0.001343853
0.100264,0.9244643,0.3750884,0.006958302,-0.005548827,0.003000205
0.1015017,0.9228667,0.3704798,0.01068977,-0.004263179,0.002192508
0.09894884,0.9235708,0.3653022,0.01134346,-0.00711544,0.004561197
0.1019199,0.9241462,0.3689586,0.01044845,-0.01181004,0.005135573
0.10467,0.9230812,0.3685965,0.0109693,-0.01613678,0.005152574
0.1031486,0.9239921,0.3670163,0.009493317,-0.01514232,0.005236558
0.1048523,0.9246752,0.3687146,0.007343873,-0.01043174,0.003458341
0.1026915,0.9245292,0.3666383,0.004777916,-0.009850754,0.0006905873
0.09909454,0.9236995,0.365385,0.004701225,-0.005323995,-0.0008363629
0.09868265,0.921803,0.3652792,0.005580326,0.0001068995,-0.0009413968
0.09814103,0.9247562,0.3647785,0.003031462,-0.001853901,-0.002313995
0.1014161,0.9275246,0.3647867,0.004127692,-0.003930748,-0.00326858
0.1037699,0.9243218,0.3642656,0.00569568,-0.004012339,-0.003079267
0.1042517,0.9226818,0.3682405,0.004661918,-0.003821625,-0.00169986
0.1044612,0.9238179,0.3720753,0.005837997,-0.005619458,-0.001447885
0.1012319,0.9240275,0.3679544,0.006095934,-0.006514572,-0.001515668
0.09942073,0.9242551,0.3631968,0.007963416,-0.006366614,0.0004057903
0.09826189,0.9253153,0.3637438,0.01027147,-0.009324273,-0.001521287
0.09907565,0.9250788,0.3652466,0.008707913,-0.008073412,-0.00303454
0.101158,0.9236885,0.3657867,0.006967789,-0.006897291,-0.003440003
0.09941008,0.923578,0.3675908,0.004186378,-0.007656186,-0.00409511
0.09995271,0.9235446,0.3687539,0.002098963,-0.001605693,0.0009256543
0.1002814,0.9242989,0.3700278,0.001965124,0.002112666,0.003073417
0.09852982,0.9273511,0.3717265,0.0007748821,-0.001789294,0.002881848
0.09932126,0.9295096,0.3681763,0.0005558585,-0.005496413,0.003382177
0.1010017,0.9270492,0.3657556,0.001128662,-0.003268646,-0.0004494128
0.1035311,0.9231809,0.3685535,0.001614431,-0.0007146895,-0.001643561
0.1023876,0.9240581,0.3666264,0.002604192,-0.003205938,-0.001233324
0.1002899,0.9239614,0.3649653,0.002577473,-0.005163569,-0.002874104
0.1028624,0.92079,0.3662744,0.001431703,-0.0068201,-0.002361773
0.1029947,0.9210192,0.3629864,0.0003624492,-0.001579842,-0.0002946763
0.1009792,0.9218457,0.3644748,0.001200698,0.005590942,-0.0003422215
0.09870705,0.9235488,0.3687451,0.003114363,-0.004825496,-0.0008830831
0.09666088,0.9262269,0.3681148,0.001683908,-0.01238893,0.002675013
0.09985518,0.9263788,0.3710785,0.0006445283,-0.0003803735,0.003731259
0.1029466,0.9258161,0.373507,0.003675522,0.006112214,0.0009382718
0.1019586,0.9217707,0.3737583,0.002997084,-0.003603988,0.002035249
0.10167,0.9183851,0.3756578,0.002544734,-0.01063886,0.00259063
0.1014815,0.9222449,0.3739135,0.006343081,-0.006166723,-0.0003666712
0.1000844,0.9259272,0.3694634,0.005999692,-0.00496745,-0.001263096
0.1000291,0.9252534,0.3651907,0.006827107,-0.007865033,0.0001682724
0.1009908,0.9247779,0.3658724,0.00681494,-0.004924029,-0.0007245613
0.1008343,0.9272893,0.3681062,0.0004313266,-0.001400677,-0.005206366
0.09803012,0.9293174,0.3658404,-0.001260425,0.001674151,-0.009597732
0.09539257,0.9285565,0.3665741,0.0007069151,0.001694495,-0.008856633
0.09990348,0.9249728,0.3668059,0.002523658,-0.002296625,-0.006681706
0.1051576,0.9187367,0.3632439,0.004920017,-0.0007247935,-0.00830697
0.1026469,0.9166581,0.3621225,0.005026484,0.0005559738,-0.005986254
0.1015636,0.9185391,0.3634022,0.004769364,-0.002179776,-0.001831
0.1028584,0.9182357,0.3690913,0.00448375,-0.002098849,-0.002272131
0.1007699,0.9188268,0.373327,0.003568416,-0.001794192,-0.001530057
0.1006873,0.9240759,0.3680677,0.0001960374,-0.002015282,-0.001953732
0.1002994,0.9307643,0.3629295,-0.003438134,-0.001672708,-0.002863429
0.09826822,0.9315438,0.3655802,-0.0008165986,-0.001951035,-0.0003842323
0.1020808,0.9275343,0.3683088,0.002294973,-0.001645765,0.0006514948
0.1051818,0.9254923,0.367591,0.001450091,0.0004790336,0.000791755
0.1004684,0.9253849,0.368769,0.002428336,0.002371292,0.002156017
0.09688014,0.9283219,0.3701918,0.004248889,0.001336526,0.003421087
0.09873078,0.9320688,0.371489,0.002862531,0.0005527975,3.929878e-07
0.09932092,0.9305827,0.3720933,0.001826238,-0.001049759,-0.004369266
0.09834693,0.9280429,0.3681655,0.001693209,-0.003613006,3.297855e-05
0.100706,0.9263391,0.3674203,-0.0001363124,-0.00279671,0.003855815
0.1031159,0.9241178,0.3696118,-0.00177766,-0.003205536,0.001156204
0.1026677,0.9265402,0.3684058,-0.003668671,-0.004050696,-0.0001030574
0.101859,0.9286884,0.3652764,-0.003277767,-0.003308063,-0.001036455
0.1010821,0.9265252,0.3614975,-0.0004905821,-0.002876641,-0.002274668
0.1011031,0.9262856,0.3645156,-0.003152689,0.0003595635,-0.001651828
0.100964,0.9248824,0.3689101,-0.005422317,0.002286031,-0.001485905
0.1003845,0.9241825,0.3660331,-0.002348802,0.002968919,-0.001482799
0.101629,0.9274903,0.365771,-0.003294791,0.006243497,-0.0003445175
0.1017811,0.9289355,0.3657382,-0.004886523,0.008443302,-0.0002304301
0.1009232,0.9311361,0.3627448,-0.002924149,0.009631628,-0.003028649
0.1017785,0.931423,0.3640127,-0.003339902,0.008572463,-0.005215331
0.1023528,0.9289691,0.3657348,-0.002879142,0.005833551,-0.002715342
0.1026588,0.9294564,0.3668217,-0.001283739,0.004665095,0.0002894764
0.1021888,0.9268172,0.369063,0.0007351134,0.003539829,-0.0006974251
0.1008196,0.9242045,0.3690728,0.003808058,0.001769568,-0.001845504
0.1013541,0.9239968,0.3691677,-0.001394135,0.002164582,-0.001358971
0.1017396,0.9225707,0.3699854,-0.008336857,0.009015212,-0.00032313
0.1008851,0.9242275,0.3691448,-0.007704263,0.01440027,0.002249968
0.1006187,0.9240226,0.3695303,-0.007429528,0.01129034,0.003122471
0.09998708,0.9235081,0.3706735,-0.007784535,0.006925819,0.003215441
0.1011343,0.9250599,0.3707726,-0.006273515,0.003638323,0.004110844
0.1047266,0.9220905,0.3710945,-0.00556596,0.005148698,-0.0007513213
0.1062894,0.9217316,0.3703355,-0.005963819,0.008155107,-0.005458082
0.1050747,0.923808,0.3687558,-0.004482184,0.002206578,-0.004722327
0.1025614,0.9232417,0.3668963,-0.002063226,-0.001334989,-0.006137218
0.1007062,0.9230194,0.3659107,-0.003699596,0.004094766,-0.00556747
0.05909949,0.3251956,0.8973122,0.306525,-0.2788719,0.3217744
0.07306117,0.3242126,0.8968992,0.2830709,-0.157386,0.3112181
0.03868376,0.3235162,0.9186912,0.3168283,-0.1668772,0.3073408
0.004568666,0.3331137,0.9346018,0.3439263,-0.2641264,0.3133883
0.02452225,0.3373454,0.9284703,0.3079782,-0.3295696,0.3107075
0.0559203,0.3330621,0.9241684,0.2846913,-0.2439695,0.3046953
0.06861229,0.328512,0.9302564,0.3059736,-0.1234126,0.3016085
0.07000292,0.3303761,0.928352,0.3076365,-0.151501,0.2947699
0.05573068,0.333424,0.9304721,0.2916797,-0.1705076,0.2935555
0.05035816,0.332837,0.9387202,0.2819702,-0.1297838,0.2870806
0.05281252,0.336897,0.9380571,0.2690929,-0.1545808,0.275779
0.04052884,0.3398034,0.9379465,0.2564842,-0.151379,0.2743328
0.03530026,0.3425332,0.9406061,0.2508677,-0.1409937,0.2722325
0.03602859,0.3467822,0.9402559,0.2550372,-0.1749547,0.2714194
0.03652398,0.3376606,0.9403772,0.265841,-0.1798762,0.2759201
0.04035003,0.3294424,0.9405545,0.2805952,-0.1947908,0.2774052
0.03866169,0.3325007,0.9419965,0.2893321,-0.1820176,0.2735396
0.04478221,0.3309719,0.9438213,0.2866467,-0.1527667,0.2695461
0.0486133,0.3278306,0.9428234,0.2879889,-0.173838,0.2720938
0.04183262,0.3306582,0.9419307,0.2874186,-0.1737035,0.2724368
0.04011316,0.3351554,0.9415762,0.2821971,-0.1757745,0.2675594
0.04334234,0.3399749,0.9395459,0.2755663,-0.1828417,0.2625673
0.05097954,0.3459349,0.9320317,0.2560368,-0.160957,0.2560638
0.05109654,0.3474435,0.9232928,0.2420957,-0.1524246,0.2519016
0.04922025,0.3466258,0.9269846,0.2391894,-0.1402712,0.2487723
0.0522195,0.3495094,0.9376871,0.2334906,-0.1260368,0.246632
0.04869042,0.3486546,0.9421452,0.2320911,-0.1157086,0.2452183
0.04900631,0.3455792,0.9423952,0.2304301,-0.1092616,0.2378077
0.04917842,0.343138,0.941146,0.2262095,-0.1178899,0.2306853
0.04708786,0.3359608,0.9407585,0.2236134,-0.112747,0.2267322
0.04738599,0.329224,0.9422835,0.2254463,-0.1120675,0.2228662
0.04130666,0.3256618,0.9425085,0.2339277,-0.118003,0.2245197
0.03702985,0.3233501,0.9428652,0.2387335,-0.1181878,0.2322598
0.03579793,0.3221413,0.9412088,0.2425862,-0.1376132,0.2381528
0.037186,0.3239453,0.936777,0.2452573,-0.1466655,0.2349914
0.04330287,0.3293268,0.9335085,0.2414418,-0.126355,0.2291677
0.0447322,0.3326276,0.9311391,0.2399424,-0.1008167,0.2261067
0.04189941,0.3365394,0.9333668,0.2386189,-0.09467803,0.2213875
0.03812683,0.3413581,0.9390873,0.238809,-0.1170588,0.2217073
0.03856516,0.3424683,0.9420792,0.2451922,-0.1358498,0.2242534
0.04176541,0.3447658,0.9423282,0.2465809,-0.1394966,0.2214188
0.0419951,0.3462131,0.9398798,0.2358808,-0.1396405,0.2203283
0.04468648,0.3471881,0.9353746,0.2228164,-0.1256911,0.213594
0.0466357,0.3522344,0.9304989,0.2149619,-0.1041915,0.2018459
0.04573681,0.351968,0.9308575,0.2034474,-0.1026961,0.1987721
0.04564094,0.3473613,0.9345726,0.190805,-0.09625597,0.1961292
0.04477928,0.3470281,0.9329394,0.1817137,-0.05716058,0.1906394
0.04280558,0.3456875,0.9328629,0.1650646,-0.03793506,0.1882563
0.0356546,0.3400306,0.9339314,0.1483418,-0.05081673,0.1866089
0.02688613,0.334267,0.9306874,0.1486774,-0.06101123,0.1843042
0.02620875,0.3344687,0.9310666,0.1593434,-0.06942761,0.1815746
0.02841753,0.3348146,0.9341706,0.160658,-0.06975144,0.1792094
0.02511464,0.3248777,0.936982,0.1619055,-0.07515889,0.1763984
0.02202812,0.3191889,0.9377167,0.1742602,-0.09438423,0.1737973
0.02439879,0.3227352,0.9385417,0.1775594,-0.1051311,0.1733571
0.02577926,0.3202796,0.9443072,0.1856003,-0.1072765,0.1754675
0.02648172,0.3156352,0.9436828,0.2010967,-0.105295,0.1799217
0.02781762,0.3149648,0.9396699,0.1961108,-0.1035966,0.1803937
0.02652843,0.3178975,0.9408358,0.1942185,-0.1024947,0.1755147
0.02635993,0.3239237,0.9403703,0.1979412,-0.1035926,0.1711314
0.02676415,0.3278989,0.9423615,0.1946532,-0.1083872,0.1673668
0.02794915,0.3291366,0.9435026,0.1971111,-0.1050169,0.1637954
0.03009816,0.3301848,0.9408295,0.1935141,-0.1021714,0.1610005
0.02904381,0.3334718,0.9431906,0.1880305,-0.09957494,0.1580194
0.02832416,0.3341185,0.943727,0.1808218,-0.08849326,0.1549981
0.02649403,0.3301498,0.9403845,0.170009,-0.08320026,0.1513607
0.0221472,0.3278428,0.9396076,0.1725693,-0.08530872,0.1472148
0.02128404,0.3237834,0.938898,0.1747897,-0.089789,0.1444658
0.02191694,0.320681,0.9402057,0.1751486,-0.09432852,0.1418463
0.0215008,0.322586,0.9477635,0.1760774,-0.09505731,0.1391724
0.02232885,0.3224988,0.9541446,0.171627,-0.09633119,0.1391898
0.02360109,0.3215207,0.9515046,0.1727926,-0.09954444,0.1399239
0.02357873,0.320622,0.9492777,0.174173,-0.1009484,0.1391021
0.02345367,0.3188484,0.9522961,0.1790529,-0.099805,0.1350484
0.02284984,0.3190611,0.951331,0.1895784,-0.1005076,0.1303135
0.02136073,0.3189429,0.9492158,0.1913841,-0.1042928,0.1322994
0.02032798,0.3177941,0.9506181,0.189395,-0.1105541,0.1339186
0.01820252,0.31892,0.9531286,0.1899418,-0.1218626,0.1293975
0.01748641,0.3210219,0.9564019,0.1930103,-0.1338408,0.1271935
0.01945563,0.3209817,0.9549196,0.1935527,-0.1419356,0.1259382
0.0196368,0.3206659,0.9478241,0.1901811,-0.1441686,0.1215158
0.01969569,0.321169,0.9436449,0.1890195,-0.1398066,0.1172815
0.02131789,0.3215949,0.9439727,0.1856976,-0.1342681,0.1147248
0.02265088,0.3225618,0.9434239,0.1813521,-0.1235232,0.1119702
0.02291278,0.3223564,0.941478,0.1773523,-0.1060798,0.1061086
0.02352463,0.3222598,0.9398905,0.1727287,-0.09145627,0.09881863
0.02573446,0.323902,0.9366859,0.172382,-0.08004097,0.08908751
0.02556462,0.3242126,0.9367888,0.1713366,-0.08125141,0.0748974
0.02548089,0.3252204,0.9406677,0.1699434,-0.0916433,0.06581426
0.02895727,0.3309962,0.940065,0.16883,-0.08805357,0.06565476
0.02907716,0.3374258,0.9392032,0.1616061,-0.07868548,0.07055581
0.02366431,0.337631,0.9400074,0.1576022,-0.06029418,0.07581145
0.01458996,0.333504,0.9426195,0.162818,-0.0431651,0.06844673
0.008006204,0.3309551,0.9476629,0.1650383,-0.07519867,0.05857276
0.00850353,0.3302784,0.9453395,0.1556414,-0.1092122,0.06743875
0.002894076,0.3264723,0.942735,0.1455598,-0.09405667,0.08617692
-0.006505688,0.3194658,0.9455071,0.1463356,-0.09693661,0.1042807
-0.001720807,0.318486,0.9442895,0.1480795,-0.1316611,0.1094178
0.007573741,0.3193061,0.9439995,0.1473859,-0.1380932,0.1030079
0.0101131,0.3165154,0.9450583,0.1539909,-0.1190942,0.1084855
0.007885735,0.3187067,0.9439804,0.1618617,-0.1140145,0.1098862
-0.000846019,0.3196944,0.9442678,0.1659999,-0.1493445,0.105254
-0.00318644,0.3191476,0.9425597,0.1767246,-0.2057876,0.1107303
0.008564646,0.3243108,0.9398204,0.1874597,-0.2207433,0.1045864
0.02009568,0.3266893,0.9389681,0.1832455,-0.200799,0.09850907
0.02495749,0.3285089,0.9378603,0.1767429,-0.1889521,0.1021154
0.02787069,0.3326853,0.9371778,0.1721608,-0.1729221,0.09727685
0.03250767,0.3351315,0.9383591,0.1564833,-0.1580078,0.09350664
0.03482168,0.3334978,0.9421535,0.1473492,-0.152864,0.08746234
0.03781275,0.3275878,0.9456905,0.1528897,-0.137949,0.07713284
0.04417264,0.3274577,0.9449456,0.1501827,-0.1269654,0.0664285
0.04148953,0.3277432,0.9431863,0.1384654,-0.1220859,0.05406964
0.03657628,0.3244146,0.9430226,0.1307357,-0.1094534,0.05755442
0.03461188,0.3266924,0.9414041,0.1327667,-0.1030086,0.06782786
0.02975181,0.3270537,0.9416061,0.1387577,-0.09874975,0.06855537
0.03079431,0.3256419,0.9460734,0.1401806,-0.09338865,0.06522518
0.03066768,0.3268292,0.9478708,0.1447095,-0.09363961,0.05962748
0.02747436,0.3262562,0.9460532,0.1459818,-0.08533544,0.0572226
0.02922962,0.3265281,0.9433903,0.1392496,-0.07743002,0.05704623
0.02576139,0.3282731,0.9412253,0.1371946,-0.0791882,0.06122106
0.02237365,0.332584,0.9408265,0.1307668,-0.07538356,0.06923784
0.02675963,0.3373823,0.9399471,0.1213039,-0.07017021,0.06649316
0.03023619,0.337484,0.9395933,0.1173978,-0.07014537,0.06422896
0.0317468,0.3370443,0.9380089,0.1103412,-0.06903386,0.06836904
0.03470008,0.3377171,0.9348998,0.1052126,-0.06352494,0.06347803
0.03683642,0.3362256,0.9361631,0.0988827,-0.05754799,0.05581403
0.0334515,0.3330765,0.9376792,0.09133019,-0.05196647,0.05130848
0.03020089,0.3290386,0.9384832,0.09205328,-0.04837529,0.04942175
0.03144995,0.324785,0.9440277,0.08916671,-0.05173374,0.05028219
0.03062819,0.3238684,0.9490399,0.08726701,-0.05101514,0.04627389
0.02924208,0.3236552,0.9478651,0.09194036,-0.04945964,0.04365954
0.02750351,0.3205893,0.9456017,0.09545704,-0.05669327,0.0456638
0.02373128,0.32039,0.9459926,0.105035,-0.06211309,0.04735682
0.02445047,0.322309,0.9438966,0.1142713,-0.06665863,0.05059656
0.0260772,0.3222473,0.9416553,0.1152601,-0.06973933,0.04808101
0.02349341,0.3222848,0.9436065,0.1175962,-0.07297265,0.04211891
0.02045163,0.3223708,0.9487615,0.1344377,-0.09861676,0.0387568
0.0164782,0.3248292,0.9656986,0.1831038,-0.1547523,0.03614316
0.01343842,0.3345603,1.005811,0.3043993,-0.2230497,0.04339184
0.01572194,0.3496718,1.061754,0.5922738,-0.309076,0.06345761
0.03182846,0.3605278,1.075006,1.003552,-0.4084032,0.07885136
0.0660927,0.3606859,0.9896793,1.108472,-0.3968382,0.05867623
0.07923689,0.3530474,0.84533,0.6055751,-0.1904099,0.03168683
0.04196725,0.3486532,0.7665003,0.07790232,0.07115533,0.05169534
0.003197242,0.3628999,0.8446637,0.09662091,0.1524625,0.06781878
0.008625135,0.3843249,0.9290396,0.1527433,0.01308664,0.06035682
0.04179265,0.3942146,0.8805177,-0.02913857,-0.06425415,0.07096056
0.06449278,0.4087488,0.8808205,-0.03221474,0.01952444,0.06616788
0.05924337,0.4202691,0.9404465,-0.01455847,0.03414338,0.05233
0.05611258,0.4080749,0.9204805,-0.06411984,-0.001885191,0.05513358
0.06995643,0.3928176,0.9101713,0.005764084,0.0160383,0.03793288
0.06604109,0.3789096,0.9060808,-0.05009107,0.04558168,0.01354516
0.05432072,0.3704437,0.9001654,-0.1169137,0.1024141,0.005369466
0.05204445,0.3767926,0.9355774,-0.06956707,0.1281723,0.003606608
0.02940442,0.371228,0.9537781,-0.05896315,0.07335748,0.00493487
0.008411045,0.3622916,1.001981,0.08239109,-0.02731567,0.001853796
0.01850531,0.3641225,1.020638,0.2307014,-0.1508787,-0.003033913
0.03408021,0.3577118,0.9399084,0.2244213,-0.1631492,-0.007039264
0.04263249,0.352159,0.8826663,0.1790261,-0.02095131,-0.006315627
0.03923251,0.3522784,0.8645631,0.1031573,0.07483659,0.007682247
0.01760095,0.3606836,0.8814982,0.05584436,0.0259782,0.02835984
-0.008117262,0.3787134,0.9059763,0.01412919,-0.02374953,0.04729774
-0.01136861,0.3852035,0.8964789,-0.04338127,0.001690896,0.04918149
0.01050974,0.3895169,0.9102412,-0.094813,0.02275928,0.03115137
0.03119087,0.4020118,0.9278302,-0.1174972,0.03696289,0.01169525
0.03973583,0.40666,0.9545945,-0.009106989,0.007644572,-0.0002074473
0.03253431,0.3967553,0.999081,0.1304649,-0.1360868,-0.004215385
0.02758524,0.379373,1.008016,0.1729773,-0.2220159,-0.007979763
0.04614424,0.3625337,0.9597341,0.0999262,-0.09689788,-0.004179705
0.05562985,0.3497276,0.8766777,-0.0002513719,0.0867176,0.01047769
0.03488997,0.3496978,0.8855524,-0.01311177,0.1200655,0.01288629
0.004597586,0.3518205,0.9288871,-0.02579138,0.05022721,0.01431356
-0.007066976,0.3486237,0.8991421,-0.05499005,0.03958319,0.0226408
0.007040561,0.3544308,0.9096563,-0.0907059,0.07345371,0.01572298
0.0160949,0.3609359,0.9207994,-0.1269896,0.1003163,0.005811139
0.01159195,0.3665894,0.9345675,-0.07251383,0.07248702,0.00484382
0.01217169,0.3721008,1.00747,0.05056118,-0.07508896,0.001851231
0.01649892,0.3714838,1.011874,0.1774153,-0.203049,-0.008213048
0.02159826,0.3706933,0.9831177,0.1682514,-0.1403028,-0.01601616
0.02396879,0.3561869,0.9480711,0.08034972,-0.05637412,0.003060922
0.01058267,0.3362412,0.8751274,0.07353482,-0.1478888,0.03064581
-0.003815314,0.3301111,0.8616191,-0.00893718,-0.1807807,0.02661363
0.005835907,0.3288553,0.8766595,-0.07549481,-0.07227213,0.01574011
0.0135459,0.3435338,0.8828549,-0.04604569,-0.04433948,0.01990478
-0.0003886314,0.3645113,0.9139576,-0.0988864,-0.05783212,0.02188304
-0.004606773,0.3650936,0.9327333,-0.0840664,-0.09332724,0.02378119
0.01107224,0.3666941,0.9528472,0.007476681,-0.1346211,0.01626737
0.03810289,0.3782346,1.000871,0.1100704,-0.109579,-0.004110427
0.06597724,0.3804396,1.014154,0.2619064,-0.112096,-0.0150031
0.0632164,0.3760859,0.9695914,0.2483556,-0.1169606,-0.01867458
0.02745575,0.36895,0.9147836,0.1381908,-0.1152184,-0.006967406
