accx,accy,accz,gyrox,gyroy,gyroz
0.002045441,0.8362437,0.5841604,-0.2478405,-0.2229158,0.04647619
0.002947598,0.8382501,0.5841982,-0.2459046,-0.219922,0.04285579
0.003000057,0.8411186,0.5804649,-0.2418364,-0.2203355,0.04594685
0.001608038,0.8414331,0.5759166,-0.2451575,-0.2176441,0.04618378
0.002159049,0.8414837,0.577655,-0.2485801,-0.2137201,0.04641564
0.004036756,0.8362744,0.5790648,-0.2474699,-0.2056543,0.04388429
0.007180248,0.8292262,0.5799194,-0.237763,-0.1978017,0.0367402
0.01092741,0.8288426,0.5866362,-0.2270308,-0.2017554,0.03423973
0.009118462,0.8308144,0.5914806,-0.2264,-0.2085679,0.03665876
0.006181292,0.8331705,0.5906131,-0.2208433,-0.2082603,0.03939807
0.007112568,0.8328458,0.5879922,-0.2124268,-0.2075688,0.03693612
0.006935793,0.8334003,0.5830957,-0.2112482,-0.2073524,0.03251715
0.005757501,0.8369842,0.5795109,-0.2101151,-0.2065431,0.03150181
0.005509421,0.8377564,0.5806273,-0.2084373,-0.2045234,0.03222414
0.00503046,0.8386728,0.578469,-0.2091565,-0.1947853,0.03712239
0.003886878,0.8380601,0.5760977,-0.212064,-0.1820729,0.04249417
0.002998552,0.8369728,0.579419,-0.2117292,-0.1743108,0.04377237
0.006150754,0.8378927,0.5804107,-0.2027916,-0.169717,0.03669594
0.01088391,0.8371869,0.5814836,-0.1946619,-0.1593956,0.02393832
0.009639684,0.8373045,0.5805473,-0.1966977,-0.1412918,0.02391253
0.006156674,0.8352598,0.5761981,-0.1970844,-0.1339399,0.02749753
0.005315377,0.8311826,0.5805841,-0.1885072,-0.1373784,0.0227012
0.005345059,0.8301208,0.5836788,-0.183763,-0.1327365,0.0207474
0.006599534,0.8311977,0.5797676,-0.1848085,-0.1274119,0.01761379
0.006054884,0.832775,0.5786006,-0.1838379,-0.1285602,0.01735806
0.003198456,0.8321246,0.5773894,-0.1786313,-0.1283912,0.0249915
0.002338641,0.833704,0.5774427,-0.1694735,-0.129186,0.02962705
0.002680192,0.8379908,0.578185,-0.1604356,-0.1330272,0.03169411
0.003032416,0.8396017,0.5764503,-0.1557867,-0.1359,0.02989811
0.00271521,0.8400491,0.5767886,-0.1567201,-0.1361579,0.02761692
0.002584755,0.8368612,0.5790731,-0.1573328,-0.1327227,0.03036038
0.003259204,0.8329991,0.5808171,-0.1557997,-0.1250188,0.03413256
0.003448812,0.8332548,0.5783179,-0.1577521,-0.11698,0.0369754
0.004468144,0.831055,0.5754765,-0.157602,-0.1161415,0.02814275
0.004432767,0.8283037,0.5804598,-0.1519049,-0.1197295,0.01681293
0.002993505,0.8328242,0.5855163,-0.1465714,-0.1201464,0.02112896
0.0007383437,0.8403024,0.58498,-0.1434978,-0.1223566,0.0262179
-0.003431853,0.8417498,0.5844188,-0.1414681,-0.1245249,0.02823825
-0.003106434,0.8355199,0.5848198,-0.138748,-0.1201029,0.03142577
0.00088623,0.82945,0.5847705,-0.1364432,-0.1147563,0.02877193
0.001781027,0.8316201,0.5846494,-0.1341383,-0.1098585,0.02654093
0.001016583,0.8343566,0.5843889,-0.1313126,-0.1084103,0.02358417
-0.001471612,0.8313748,0.5829706,-0.1297997,-0.1106924,0.01969913
-0.003515315,0.8307177,0.5820508,-0.1253372,-0.1104557,0.02703728
-0.001367637,0.8299023,0.585353,-0.1134851,-0.1133377,0.03434922
0.001906943,0.828992,0.5888162,-0.1031331,-0.1175024,0.03005042
0.003485966,0.8342863,0.586805,-0.1102988,-0.1193402,0.0282407
0.00289331,0.8368747,0.5849674,-0.1204243,-0.1195848,0.03211477
0.001819461,0.8335711,0.5880318,-0.1117627,-0.1133287,0.03240308
0.0003759318,0.833881,0.5925603,-0.1060363,-0.1105595,0.03362369
-0.002211675,0.8477204,0.5944339,-0.1083093,-0.1146836,0.03991458
-0.002063268,0.8596982,0.5891303,-0.1016965,-0.1124393,0.04256056
-0.001457969,0.8419892,0.5825591,-0.0974073,-0.1052685,0.03630574
-0.002759905,0.8233598,0.5824114,-0.09327365,-0.1121143,0.03068511
0.000566292,0.8324235,0.5831702,-0.0856351,-0.1232303,0.03113038
0.004504607,0.835657,0.5851226,-0.08343864,-0.1118901,0.02924088
0.002696866,0.8287595,0.5855037,-0.08161178,-0.1100513,0.02691521
0.002076592,0.8337907,0.5818521,-0.08436049,-0.1171713,0.02614446
0.003398172,0.8346236,0.5838423,-0.08546648,-0.1044732,0.02376253
0.002584199,0.8302014,0.5854741,-0.07963581,-0.1079501,0.02625406
0.002612599,0.8311535,0.582826,-0.08246376,-0.1095587,0.02907838
0.003070233,0.8282915,0.5780611,-0.08365094,-0.09962841,0.02934447
0.002559302,0.8284761,0.573294,-0.07851415,-0.1047777,0.02964369
0.002300226,0.830934,0.584546,-0.07863443,-0.09667902,0.02787783
0.0001788723,0.8297585,0.5971235,-0.07766874,-0.09342595,0.03190057
-0.0012769,0.8329444,0.5913015,-0.07442884,-0.09461009,0.0342172
0.004124299,0.8328386,0.5874868,-0.06840086,-0.08447568,0.02729346
0.01094561,0.8325186,0.5901859,-0.0638316,-0.08751896,0.02308265
0.01021769,0.836317,0.588252,-0.07531541,-0.08011609,0.02527182
0.005599571,0.8369708,0.5875038,-0.08536376,-0.07640043,0.03142288
0.0006172997,0.846672,0.5881204,-0.06997838,-0.08762698,0.03187072
-0.004705538,0.8558521,0.5867531,-0.0546423,-0.07892947,0.02506391
-0.003631442,0.8405034,0.5879332,-0.06015658,-0.06956641,0.02051705
-0.001416502,0.8230772,0.5887671,-0.05962627,-0.07076255,0.01840855
-0.005551478,0.8282184,0.587563,-0.05087728,-0.07623106,0.02016439
-0.006272582,0.8317893,0.5851352,-0.05129211,-0.08719515,0.02275762
-0.004865121,0.8248513,0.5805273,-0.04948436,-0.08850345,0.0197428
-0.005018975,0.8286167,0.5835809,-0.0491347,-0.08218898,0.01545825
9.340675e-05,0.8324046,0.5895675,-0.0517566,-0.08195414,0.01469497
0.004432988,0.8325125,0.5885631,-0.04577754,-0.07911352,0.01601952
0.003129968,0.8369136,0.5872326,-0.04262188,-0.07066374,0.02187824
0.001768159,0.8337996,0.5828863,-0.03934823,-0.07127025,0.0273423
0.002136792,0.8320129,0.5790039,-0.03316824,-0.07302745,0.01911758
0.00153215,0.8332989,0.5825674,-0.03389828,-0.07538216,0.009664033
0.0008312909,0.8322354,0.584239,-0.03309755,-0.08314049,0.009634468
0.00285605,0.835838,0.58183,-0.03323797,-0.07755355,0.01244442
0.003047029,0.8332529,0.579597,-0.03570221,-0.06604279,0.01793068
0.002385091,0.8298929,0.5788141,-0.03394951,-0.06030614,0.01746489
0.002692094,0.8323646,0.5796696,-0.03349552,-0.05985903,0.0150052
-0.0002562697,0.8312085,0.582108,-0.03165624,-0.0663005,0.01743861
-0.002102019,0.8336705,0.5851042,-0.02909786,-0.06722663,0.01578931
-0.001523052,0.8360787,0.5848012,-0.02790755,-0.06489728,0.01568553
-0.001147963,0.8337319,0.5825342,-0.02415626,-0.06458651,0.01620638
-0.0007577676,0.8329939,0.5815214,-0.02259873,-0.06293423,0.01405948
0.0009123026,0.8315654,0.5817982,-0.02121684,-0.06275233,0.01633805
0.003963619,0.8313783,0.5824429,-0.01888818,-0.05921641,0.01922064
0.002990814,0.8317682,0.5815935,-0.01952578,-0.05573949,0.01869441
0.001943028,0.83088,0.5781989,-0.01838639,-0.05666342,0.01321036
0.003490092,0.8326478,0.5736524,-0.01642094,-0.05705993,0.01141524
0.002508539,0.8350958,0.5748513,-0.01614531,-0.05823128,0.01556832
0.002636497,0.8359239,0.5812873,-0.01593745,-0.05872561,0.01290798
0.0031303,0.8333563,0.5845124,-0.01556043,-0.05932869,0.01391931
0.002424003,0.8279865,0.585725,-0.01096035,-0.06100173,0.01838507
0.002105366,0.8275702,0.5865828,-0.005387189,-0.0615542,0.01442122
-0.001734009,0.8332088,0.5872305,-0.006070918,-0.06414261,0.01394609
-0.005624966,0.8378332,0.5867317,-0.007879563,-0.06611274,0.01473842
-0.004540194,0.8379635,0.5818262,-0.007709085,-0.06403487,0.01300142
-0.003279007,0.8351901,0.5801773,-0.008665299,-0.06049905,0.01226777
-0.004585282,0.8342531,0.5826179,-0.00856119,-0.05878612,0.007693808
-0.004391051,0.8360392,0.5820602,-0.007732094,-0.06040428,0.005850158
-0.003630436,0.8372729,0.5820618,-0.01042276,-0.06136323,0.006874741
-0.004421311,0.8374531,0.5838297,-0.01469707,-0.05920632,0.009442931
-0.003177625,0.8348112,0.5852545,-0.0131839,-0.05750288,0.01484465
-0.001202638,0.829495,0.5855263,-0.005966327,-0.05980583,0.01355391
0.002304435,0.8269943,0.5868447,-0.00241692,-0.06105867,0.006638814
0.007309966,0.830535,0.5895486,-0.00113971,-0.05606671,-0.00084576
0.00510448,0.8357496,0.5865062,0.001572516,-0.05356027,-0.001069737
-0.001114793,0.8365459,0.5830233,0.00163245,-0.06099549,0.004549669
-0.002948166,0.835692,0.5850618,0.003264594,-0.07031493,0.004851492
0.0002261059,0.8344648,0.5851952,0.003751295,-0.06912265,0.008055249
0.004036971,0.8321073,0.5838111,0.0003031182,-0.05961763,0.008978881
0.0004509034,0.8318099,0.5831926,0.002549938,-0.05110924,0.004494962
-0.003525199,0.8310876,0.5819941,0.006765347,-0.04687223,0.007579984
-0.0003496753,0.8312029,0.5841993,0.008813902,-0.05047002,0.008383787
0.001056238,0.8334434,0.5869937,0.008291736,-0.05353443,0.008645736
0.002314062,0.8336495,0.5834897,0.004749381,-0.04875779,0.01268978
0.005714947,0.8340381,0.5803509,0.005590833,-0.04627873,0.0100951
0.005581946,0.8339249,0.5824708,0.005233164,-0.04438729,0.006534924
0.005568514,0.831616,0.5832723,0.00510718,-0.03955428,0.003254012
0.005905124,0.8289109,0.5832349,0.01443177,-0.03807195,0.002764786
0.006079631,0.8281794,0.5848094,0.02178438,-0.03754004,0.007009936
0.007064071,0.834148,0.5856844,0.02227519,-0.03520211,0.007335002
0.004177137,0.8407261,0.5858779,0.02175013,-0.03063988,0.01017656
0.001676006,0.8390507,0.5835711,0.0234084,-0.0240353,0.01230724
0.003198118,0.8349486,0.5807874,0.02635615,-0.01856714,0.006060816
0.004892853,0.8344856,0.5818772,0.0262917,-0.01540352,0.0007104633
0.005560738,0.8352158,0.58253,0.02237622,-0.01113422,-0.002439927
0.003904285,0.8373293,0.5813142,0.01446532,-0.001758425,-0.003279881
0.00200721,0.8396184,0.5811386,0.01410437,0.003852665,-0.001447298
0.002653257,0.8371547,0.5804704,0.01962595,-0.0007348428,0.0009506258
0.003228015,0.835005,0.5803678,0.01582635,-0.005683016,0.004763993
0.002518825,0.8362171,0.5818253,0.01558108,-0.008006523,0.006435531
0.002696429,0.8350679,0.5822755,0.01684678,-0.009229092,0.008960027
0.003064339,0.8324047,0.5824467,0.01205056,-0.005674531,0.01286962
0.002509278,0.8313989,0.5820448,0.0156615,-0.001552968,0.01096398
0.002871851,0.8321458,0.5809083,0.01822546,-0.003863764,0.00867442
0.002885741,0.8330912,0.5818972,0.01756374,-0.007710644,0.009888064
0.002548118,0.8331912,0.582716,0.02128138,-0.007095622,0.007974916
0.002826798,0.8326375,0.582585,0.02217705,-0.005757195,0.004744535
0.001760742,0.8315089,0.5845215,0.02500347,-0.00548258,0.00429425
0.00127521,0.8320071,0.5853618,0.02742393,-0.004955101,0.002451703
0.002310254,0.8331967,0.5846832,0.02715124,-0.005980331,0.0003328906
0.003078352,0.8333192,0.5865541,0.0304134,-0.00804798,0.0020168
0.002752467,0.8335193,0.5882253,0.0318055,-0.007359789,0.004454924
0.001570251,0.8330493,0.5858772,0.03013467,-0.006443946,0.004599159
0.001303949,0.8323636,0.5791973,0.02772313,-0.008640077,0.002347362
0.001321801,0.8322209,0.5727258,0.02672401,-0.008794032,0.000790946
0.000857605,0.8338,0.574569,0.02747756,-0.007270909,0.002325007
-0.001159478,0.837339,0.5794589,0.02657219,-0.006558851,0.003943315
-0.003784029,0.8378476,0.5800347,0.02401164,-0.006931024,0.003647655
-0.002261377,0.8353422,0.5835772,0.02064599,-0.007788005,0.003913854
0.001787233,0.8342181,0.5878335,0.02065531,-0.001778533,0.005007601
0.005215695,0.8346089,0.5855845,0.02326649,0.004694064,0.003133807
0.006051875,0.8348521,0.5833004,0.02827163,0.004199236,-0.0004667027
0.002458975,0.8338695,0.5850187,0.03522844,0.003740713,-0.002509559
0.0003118193,0.8338423,0.590063,0.03433417,0.001672434,-0.002941076
0.001055264,0.8354847,0.5930515,0.03211026,-0.005043298,-0.002301381
-0.00141406,0.8368018,0.5873791,0.03218866,-0.01166185,-0.002866021
-0.00525198,0.838507,0.5797164,0.027262,-0.01215479,-0.003571691
-0.004571941,0.838636,0.5771244,0.02648867,-0.009276861,-0.002282252
-0.001769716,0.8361882,0.5809603,0.02654958,-0.00996991,0.002243333
-0.002520055,0.8335819,0.5862179,0.01206086,-0.0105652,0.008628082
-0.003509493,0.8304097,0.5842488,-0.01876738,-0.01221846,0.009346267
-0.002087259,0.8331056,0.5830552,-0.03645356,-0.01872597,0.01209391
-0.0019343,0.8491926,0.5867277,0.003205998,-0.01816437,0.02118501
-0.001414514,0.8608868,0.5863554,0.04819818,-0.004502368,0.01810994
-0.001068643,0.8449972,0.5861901,0.03097597,0.001218161,0.008184053
-0.002757318,0.8242002,0.5892066,0.02386942,-0.005809957,0.003994226
-0.002187708,0.8270103,0.5906445,0.05101063,-0.006545118,0.001334608
0.0008746503,0.8280474,0.5889097,0.04975476,-0.009262523,0.00493672
0.003728147,0.8216525,0.5835908,0.04674576,-0.007963547,0.004454482
0.002697136,0.8303752,0.5806091,0.05037986,0.004698091,-0.001367917
-0.00180546,0.8348954,0.5822986,0.04281993,-0.0004791326,0.002333629
-0.002865381,0.8346064,0.5841682,0.04640424,-0.007924338,0.001648189
-0.0002749744,0.8405674,0.5850779,0.04400978,-0.005310141,-0.0005220773
0.002395081,0.8364542,0.586034,0.03956833,-0.006236356,7.830966e-06
0.001894377,0.8353344,0.5908183,0.04080003,0.001479648,-0.004806911
0.000704114,0.8380086,0.595186,0.0312275,0.001835132,-0.0004564833
0.003807333,0.8337087,0.5880328,0.02823387,0.001914157,0.001701032
0.004639733,0.8338962,0.5769014,0.02372476,0.02140704,-0.0008103103
0.002856267,0.8296157,0.5772357,0.01727911,0.0341137,0.001597866
0.00280553,0.8261253,0.5838619,0.02189731,0.03542516,-0.005518046
0.001732744,0.8292973,0.5873606,0.02370191,0.028428,-0.009524434
-0.000513369,0.8269086,0.5884624,0.03130665,0.02000384,-0.009995438
-0.003836825,0.8277509,0.5878297,0.04219506,0.01285663,-0.01285298
-0.003549711,0.8292331,0.5901564,0.0458922,-0.0007139199,-0.009687303
-0.001484494,0.8305158,0.5921936,0.04792833,-0.006832909,-0.0101294
-0.003530912,0.8361444,0.5872155,0.04571621,-0.01293441,-0.006452513
-0.002862809,0.8348934,0.5837543,0.04227349,-0.01481697,-0.006512817
-0.002125138,0.8329334,0.580726,0.04031602,-0.008535214,-0.01610971
-0.003529473,0.8337915,0.5765344,0.03843626,-0.01112743,-0.01512869
-0.002301507,0.8330493,0.5788005,0.03276622,-0.005360263,-0.01494479
-0.00283174,0.8343019,0.5807855,0.02546566,-0.0003691008,-0.01440508
-0.003073971,0.833764,0.5813538,0.02420725,-0.002960854,-0.009725333
-0.002686779,0.8311672,0.5828794,0.02359922,0.001691607,-0.01008816
-0.004951693,0.8299708,0.5798023,0.02296458,-0.0006051448,-0.005939513
-0.005736099,0.8302499,0.5788432,0.0250145,-0.000447796,-0.002389755
-0.004116754,0.8295943,0.5819189,0.02945732,-8.753562e-05,0.000165474
0.0002380045,0.8258561,0.5842459,0.03887722,-0.008572495,0.002290414
0.004437903,0.8244792,0.5873507,0.04694245,-0.008206461,-0.002270321
0.004636245,0.8268921,0.5850827,0.04814692,-0.009008653,-0.003158126
0.003970774,0.8294214,0.5809442,0.04732535,-0.01272518,-0.003962789
0.004044563,0.8327133,0.5836217,0.04585948,-0.01232465,-0.005211495
0.004349042,0.8377189,0.5860562,0.04202342,-0.01689331,-0.0005506818
0.004125517,0.8407454,0.5866643,0.03825186,-0.01992101,0.001898866
0.003139504,0.839975,0.5852819,0.03275858,-0.01188405,-0.001454499
-8.11952e-05,0.8396067,0.580965,0.02878773,-0.001880742,-0.006327767
-0.004136967,0.8368722,0.5789178,0.0303964,-0.005169844,-0.005047508
-0.002376583,0.8320249,0.5802575,0.02814594,-0.00795795,-0.004771709
2.26491e-05,0.8323158,0.5841849,0.02356511,-0.002704876,-0.009816875
-0.001619094,0.8330587,0.5837667,0.02145076,-0.004952337,-0.008571373
0.0003397283,0.832121,0.581238,0.02133863,-0.004499203,-0.002515032
0.003409487,0.831628,0.5830245,0.02667559,-0.003097987,0.002334645
0.002612208,0.8288887,0.5838316,0.0312259,-0.008556624,-0.005231942
0.001368382,0.827811,0.5877778,0.03431041,-0.00980464,-0.01651736
-0.0005238084,0.8313972,0.5904356,0.03863595,-0.01132088,-0.009195091
-0.002145929,0.8355838,0.5861673,0.03868463,-0.01117182,-0.003052966
-0.001510873,0.8354273,0.5834581,0.03670015,-0.008620117,-0.004368772
-0.003770888,0.8337466,0.5820616,0.03696459,-0.008848837,-0.0001372771
-0.01225486,0.8348378,0.5847316,0.03889123,-0.006197707,-0.001613597
-0.01941008,0.8331039,0.5864617,0.03973604,-0.004874675,-0.003973625
-0.01568409,0.8308555,0.5833686,0.03868082,-0.002967536,-0.002014568
-0.00514982,0.8329905,0.5859874,0.03617807,0.002839825,-0.001639942
0.002529341,0.8356512,0.5870458,0.03336519,0.005860195,0.001826999
0.004636743,0.8376175,0.5851684,0.032628,0.00624477,0.004184036
0.002851484,0.8340368,0.5874276,0.0321214,0.008706753,0.0006707908
0.005616705,0.827204,0.5895321,0.03420288,0.01796272,-0.004328558
0.01005467,0.8270101,0.5925245,0.03986253,0.02357951,-0.00742839
0.005376008,0.8287972,0.5925331,0.04270267,0.02003004,-0.009589834
0.002421143,0.8292824,0.5904014,0.04005703,0.02000866,-0.01098323
0.004772373,0.8314607,0.5918058,0.03437913,0.02240447,-0.007087625
0.003233429,0.8326758,0.5889433,0.03010962,0.02321771,-0.003653798
0.002267901,0.8333318,0.5851542,0.02566836,0.02492891,-0.008793528
0.002915247,0.833662,0.5869051,0.02558916,0.02618625,-0.01423118
0.00226857,0.8320727,0.5898218,0.03319301,0.02344792,-0.01173413
-0.000225605,0.8316348,0.5921085,0.03498218,0.01554477,-0.008516545
-0.004139312,0.8321569,0.5889619,0.03310243,0.009923392,-0.004775477
-0.004500286,0.8318152,0.5830723,0.03362358,0.009968397,0.003126443
-0.001706907,0.8319988,0.5825462,0.03171357,0.01234718,0.002203363
0.001183087,0.8319749,0.5822656,0.02851598,0.01372519,5.90747e-05
0.002881592,0.8318408,0.5788923,0.02232355,0.01313017,0.006114143
0.00290244,0.8320768,0.5773984,0.02028284,0.01499357,0.005038179
0.002049885,0.8318412,0.5808659,0.02552048,0.01778149,0.00692494
-0.0008718991,0.831977,0.5859874,0.02823949,0.01758849,0.01342661
-0.003087842,0.831812,0.5867188,0.03061248,0.01746841,0.006059524
0.0005512248,0.8309533,0.5848766,0.03222192,0.0210338,-0.00249028
0.00533738,0.8300312,0.5847907,0.03243304,0.02477135,-0.004019958
0.00367513,0.8285912,0.5865072,0.03494742,0.02367451,-0.004360953
0.0008095851,0.8274544,0.5881983,0.03675182,0.02227359,-0.003095657
-0.0005588945,0.8285714,0.5874305,0.03575719,0.02040815,-0.003142558
-0.005555107,0.8334434,0.5865198,0.03199523,0.01522537,-0.002934393
-0.006819658,0.8375481,0.5876009,0.0285716,0.01275798,-0.003612352
-0.003553539,0.8352785,0.5873027,0.02635328,0.01321395,-0.005098977
-0.004175636,0.832037,0.5849433,0.02752332,0.01352672,-0.0002721898
-0.004052043,0.8335623,0.5841083,0.02999081,0.01259678,0.004017758
-0.002020013,0.8358065,0.585939,0.02522565,0.01178659,0.0009925779
-0.001542881,0.8361764,0.5862625,0.02190576,0.01438845,-0.001703555
-0.002757266,0.8358148,0.5837993,0.02332859,0.01594843,-0.0004810527
-0.005140861,0.8334874,0.582006,0.02271166,0.01422697,0.001459065
-0.003433458,0.8313429,0.5815361,0.02341365,0.01296891,0.003305455
0.001023463,0.8312382,0.5829606,0.02497072,0.01346605,0.002394054
0.002970087,0.8304816,0.5866141,0.02661291,0.01415594,-0.003877943
0.000855179,0.8311328,0.5893958,0.0268532,0.01358562,-0.008225092
-0.00306644,0.8326942,0.5864316,0.02715419,0.01422303,-0.007271832
-0.001761921,0.8317668,0.580164,0.03139616,0.01600905,-0.007909549
-0.001088626,0.8317158,0.5803023,0.0322708,0.01655825,-0.009023952
-0.004126644,0.8329974,0.5839855,0.03148074,0.01425531,-0.005011845
-0.002524163,0.8354559,0.5850763,0.03238672,0.01154541,-0.000954426
-0.002211095,0.8395494,0.5852035,0.02987145,0.01469596,-0.002432717
-0.003601244,0.8396725,0.5840247,0.02807132,0.01675284,-0.00263211
-0.002160918,0.8378323,0.5843866,0.02790956,0.01128233,0.001905013
-0.002972617,0.8381598,0.5856681,0.02626406,0.007156415,0.005079144
-0.002979278,0.8365265,0.5854542,0.02354068,0.008150819,0.005531222
-0.002357441,0.8353033,0.5866673,0.0194895,0.008579872,0.005308254
-0.003199683,0.8365686,0.5899228,0.01884971,0.005927444,0.004719706
-0.002519693,0.8360955,0.5928519,0.01977337,0.006287159,-0.0005191908
-0.002093181,0.8351434,0.5890724,0.01778077,0.01048894,-0.007052674
0.0006305395,0.8323089,0.585405,0.02042458,0.01319308,-0.002866196
0.004127743,0.8262251,0.5877509,0.02389808,0.01590931,0.001978818
0.002967533,0.823396,0.5840423,0.02270519,0.01684125,-0.002240344
0.002077395,0.8245669,0.580154,0.02552139,0.01546531,-0.003557299
0.002478065,0.8279175,0.5823153,0.02954337,0.0138193,-0.003121582
-0.0007452389,0.8327197,0.5822101,0.03381939,0.00729367,-0.004794253
-0.004168432,0.8347298,0.5813661,0.03919066,-0.00131758,-0.004370932
-0.002945765,0.8360007,0.5805205,0.03650836,-0.004235578,-0.005572754
-0.001999901,0.8372001,0.580121,0.03210485,0.0008254808,-0.005042599
-0.003512189,0.835423,0.5805164,0.02947499,0.005075428,-0.001760045
-0.003606017,0.836082,0.5790756,0.02352034,-0.0001625445,-0.00333136
-0.004152887,0.8375981,0.5785785,0.0163226,-0.00402601,-0.006033917
-0.004460457,0.836143,0.5798745,0.007492437,-0.002302091,-0.005605973
-0.002831738,0.83605,0.5814521,0.003489864,-0.001692842,-0.0008855225
-0.002635544,0.8349626,0.5838952,0.004589194,-0.000511245,0.006068525
-0.002131209,0.8331422,0.5861022,0.004966188,-0.0002979289,0.005109219
0.0008948781,0.832003,0.5863469,0.009296356,0.0003378147,-0.00554408
0.003182083,0.8286496,0.5875353,0.01544692,0.003932284,-0.01498479
0.0006594053,0.8271245,0.588726,0.02076415,0.003530775,-0.0137039
-0.002368762,0.8280542,0.5881261,0.02198096,-0.003096044,-0.01122135
0.002205677,0.8302933,0.5885015,0.01831508,-0.008996443,-0.01487285
0.005829032,0.8338706,0.5840267,0.01851365,-0.007244792,-0.01274665
0.001539621,0.8354197,0.579713,0.01813693,-0.003459533,-0.00807194
-0.001414292,0.8345954,0.5837622,0.01738839,-0.002393512,-0.004925644
-0.001516181,0.8322404,0.5852059,0.01972698,0.001133518,-0.003267401
-0.001556931,0.8307128,0.5852458,0.01730169,0.0001094029,-0.01156018
-0.001128205,0.8304939,0.5878798,0.01426483,-0.003593748,-0.01294567
-0.0009967307,0.8312676,0.587167,0.01197882,0.001538502,-0.004251313
0.001257224,0.8322848,0.5856153,0.0111538,0.00412614,-0.001765665
0.003748266,0.8299427,0.5839763,0.01570101,0.001228264,0.001476242
0.00274855,0.8291378,0.5816232,0.0190527,0.0003627965,-0.00212915
0.001372347,0.8329156,0.5775493,0.02375869,-0.002890983,-0.01009209
0.00140226,0.8367477,0.5736261,0.02528621,-0.006966341,-0.005565606
0.001349877,0.8396329,0.5774925,0.01969202,-0.009283895,-0.003380676
0.001341659,0.8420953,0.5811434,0.01938801,-0.005734291,-0.004082802
0.001149013,0.8421593,0.5785431,0.02078129,0.001172424,-0.002317778
-0.0004928182,0.8379639,0.5787737,0.02058625,-0.000878053,-0.005582225
-0.001929733,0.8356816,0.5798465,0.01923104,-0.002110377,-0.005219517
-0.0009817138,0.8361615,0.5786991,0.01527587,0.001685225,-0.00309604
0.001585758,0.8346761,0.5792679,0.01559896,0.00296232,-0.003822755
0.003480572,0.8338662,0.5793435,0.01366486,0.009495011,-0.002177058
0.002823045,0.8329391,0.5797844,0.009822251,0.01346762,-0.0009236648
0.001430897,0.8329304,0.5842052,0.01236959,0.01012393,-0.0001016164
0.001858134,0.8330476,0.5888264,0.01297475,0.01309193,-0.001070886
0.004058143,0.8310985,0.5875942,0.01153221,0.01649988,-0.003241597
0.006356109,0.8320793,0.5814719,0.01212773,0.01627983,-0.003990017
0.005585883,0.8326679,0.5773055,0.01157839,0.01808549,-0.005502221
0.003077742,0.8331995,0.5758852,0.01158912,0.01821967,-0.001495449
0.002560746,0.8357028,0.5756924,0.01318108,0.01769673,0.002764665
0.002720209,0.8350889,0.5761688,0.01244776,0.0183791,-0.001282845
0.002786495,0.8360505,0.5745334,0.009191483,0.01855845,-0.002191628
0.002926852,0.8384687,0.5749077,0.009032961,0.01908776,-8.277974e-05
0.002579899,0.8369794,0.5780991,0.01110503,0.01941478,0.001388006
0.002875061,0.8336939,0.5811788,0.01246347,0.01858873,0.00566364
0.002844537,0.8292325,0.5866083,0.01543434,0.01610338,0.006448847
0.002592613,0.8267184,0.5888385,0.01554215,0.01405599,0.004942751
0.002975343,0.8297579,0.5868358,0.01226049,0.01589916,0.004270687
0.002666127,0.8330617,0.5863752,0.01233876,0.01660664,0.002529531
0.002760186,0.833979,0.5851119,0.01228034,0.008467327,0.002667499
0.002902581,0.8372009,0.5842341,0.01111302,-0.0005807117,0.002586023
0.002611796,0.8403701,0.5848872,0.01063162,-0.001756274,0.001049029
0.003267537,0.8401648,0.5847526,0.00711295,-0.004806894,0.0007661404
0.004514507,0.8395163,0.584146,0.002931074,-0.01122153,-0.002258626
0.006058541,0.8388886,0.5818416,-0.00435309,-0.0128629,-0.01087917
0.005876172,0.8404535,0.5790797,-0.01707467,-0.01539461,-0.01746093
0.004125758,0.8426823,0.579258,-0.02512788,-0.02495942,-0.017138
0.001381747,0.841524,0.5809518,-0.02189773,-0.03582951,-0.01871062
-0.002694949,0.8413239,0.5811415,-0.01744351,-0.03436416,-0.02558609
-0.002196018,0.8411611,0.5813519,-0.02993195,-0.02118047,-0.02837574
-6.188117e-05,0.8360954,0.582585,-0.04929336,-0.001502574,-0.0257883
-0.002058936,0.8276659,0.5861511,-0.05427032,0.02664888,-0.02434143
-0.002141712,0.8189994,0.5934744,-0.0423024,0.0297344,-0.02104255
-0.003354511,0.8127925,0.5995978,-0.01691542,0.003138149,-0.01118878
-0.006695554,0.8103701,0.6037123,0.005952774,-0.009270042,-0.0001770355
-0.003259818,0.8114774,0.6010847,0.02496631,-0.01183543,0.005013774
0.001220168,0.8138092,0.5903725,0.04523783,-0.005007267,0.004929299
0.001688865,0.8167154,0.5867947,0.05461557,0.01226519,0.006445713
0.001619637,0.8199884,0.5874628,0.05743293,0.01297753,0.01145162
0.0005118919,0.8223245,0.5851953,0.05919469,0.008782634,0.01559293
-0.001198258,0.8286751,0.5836934,0.06159471,0.003495877,0.01544483
-0.002321712,0.8367114,0.5788169,0.05853049,0.001544949,0.0109204
0.001923017,0.8389849,0.5750615,0.04305849,0.01880353,0.007734433
0.007910201,0.8402701,0.5763801,0.03037783,0.03506116,0.006973821
0.004911902,0.8419909,0.5783734,0.01862467,0.03537885,0.004043626
0.002233512,0.8410505,0.5789011,0.01317728,0.01484515,-0.001274326
0.004707536,0.8394159,0.5799301,0.01831696,-0.003033057,-0.004599825
0.003867126,0.8382693,0.585166,0.01409596,0.001996467,-0.003241163
0.003812294,0.8374557,0.5866993,0.0113717,3.443005e-05,-0.006069797
0.004234328,0.8366409,0.5851446,0.01120645,-0.009046608,-0.01504693
0.003280742,0.8353053,0.5859072,0.005810781,-0.008223051,-0.01857
0.004542329,0.830792,0.5841639,0.007298682,-0.002459037,-0.0162441
0.002412146,0.8278934,0.5849766,0.006782664,0.003535105,-0.01508398
0.000177533,0.8322951,0.5880817,0.0001965279,0.003406507,-0.01779482
0.002856554,0.834627,0.5890862,-0.00702406,0.001978626,-0.02205693
0.005817458,0.8329587,0.5893431,-0.01512736,0.005953791,-0.02581486
0.009435754,0.8342624,0.5874012,-0.02079702,0.008059549,-0.02752827
0.009236356,0.8388542,0.5863812,-0.02414809,0.00280219,-0.02510271
0.006064826,0.8427708,0.583382,-0.02675529,-0.0007745417,-0.02328553
0.004586625,0.8393516,0.5796806,-0.03138518,0.004687297,-0.02237128
0.0001985103,0.8342384,0.5853429,-0.03359529,0.01148332,-0.02243206
0.0001443138,0.8338752,0.5924766,-0.03221832,0.01372556,-0.02378341
0.002808863,0.8301751,0.5923721,-0.02901485,0.01232573,-0.01803809
-0.001491595,0.8244768,0.5919275,-0.01805365,0.007272996,-0.01319151
-0.002885983,0.8231323,0.5962908,-0.006441721,-0.001319632,-0.01734213
-0.001622739,0.8236462,0.5998201,0.006409782,-0.007298132,-0.01915685
-0.00265128,0.8254546,0.5968745,0.02243901,-0.008825017,-0.01422343
-0.002436546,0.8267899,0.5926672,0.02682889,-0.009000346,-0.006309161
-0.003207351,0.8275268,0.589984,0.02408165,-0.005063459,-0.0001669436
-0.002756738,0.8321034,0.5865148,0.02030087,0.00115675,0.002411562
-0.002335998,0.8355655,0.5869446,0.01208439,0.01078941,0.006454846
-0.002682319,0.8347542,0.5904889,0.008758053,0.0191116,0.01068641
0.001241602,0.834565,0.5896804,0.01393841,0.01556234,0.002820248
0.004150687,0.8347523,0.5864861,0.01715075,0.01501628,-0.01329245
0.004712827,0.8344036,0.5841984,0.0124378,0.02101936,-0.01913192
0.005725287,0.8329513,0.5847702,0.008781415,0.01986708,-0.01988731
0.004698928,0.831284,0.5872588,0.009285808,0.01782603,-0.02057758
-3.553441e-05,0.8315401,0.5850073,0.006018173,0.01392481,-0.0168974
-0.005326602,0.8304459,0.5849805,0.002283367,0.006663303,-0.01813306
-0.004134946,0.8286174,0.5918493,0.002556973,0.008327346,-0.01834108
-0.002656774,0.830034,0.5950161,0.005568123,0.01302997,-0.01086422
-0.006726695,0.8322097,0.590693,0.01058388,0.01200857,-0.0041432
-0.007642864,0.8315368,0.5857832,0.01331482,0.007833731,0.0007120696
-0.005585751,0.8290588,0.5907281,0.01033413,0.005685839,0.003690135
-0.00496478,0.8269776,0.5959159,0.007857282,0.0185831,0.008735056
-0.003803109,0.8264381,0.5912466,0.01668486,0.03274046,0.01511747
-0.002318403,0.8267522,0.5890731,0.0243473,0.02141857,0.01800509
-0.002486191,0.8260741,0.5874537,0.01315148,0.01136424,0.02155262
-0.003386628,0.8261346,0.5871769,0.004281007,0.02277809,0.02161061
-0.003504801,0.8258896,0.5942151,0.0128891,0.02636459,0.01598435
-0.00430095,0.8250184,0.5968569,0.01643209,0.02131666,0.01212869
-0.004727704,0.8288431,0.5949053,0.007576146,0.02131299,0.01121787
-0.004629503,0.8328538,0.5929672,0.003222672,0.01861603,0.01118752
-0.005817272,0.83169,0.5917581,0.006836905,0.01784312,0.01076976
-0.004007899,0.8288474,0.5901898,0.009176827,0.01729949,0.009534553
0.001066058,0.8270581,0.5859662,0.009816782,0.00945051,0.007858222
0.003709099,0.8276345,0.5867053,0.01289066,0.004105675,0.005833605
0.002283262,0.8281844,0.5869558,0.01637776,0.001531684,0.0003829818
-0.0005452985,0.8280749,0.583187,0.01949583,-0.003285398,-0.005770797
-0.002894584,0.8306338,0.5846418,0.02405372,-0.008323064,-0.003059493
-0.006405424,0.8337758,0.5843457,0.02671467,-0.01345668,0.0001543597
-0.006758658,0.8341837,0.5814115,0.02292221,-0.0156424,-0.00446804
-0.003770893,0.8349789,0.5818092,0.01733731,-0.01617272,-0.006097355
-0.00424103,0.8385863,0.5807584,0.0156188,-0.01720636,-0.004943591
-0.002796405,0.8398217,0.5783938,0.009853318,-0.0130651,-0.005801119
-0.001541019,0.8382183,0.5772511,-0.0002029568,-0.007300935,-0.004619681
-0.004013432,0.8380041,0.5776492,-0.004445828,-0.003555157,-0.004202292
-0.002335801,0.8365647,0.5781802,-0.009815782,0.004440854,-0.004920799
-0.002348525,0.8325047,0.5774966,-0.01450561,0.01129739,-0.002057757
-0.004027636,0.8286496,0.5783282,-0.009672246,0.01075657,0.002876002
-0.003736304,0.8276959,0.5809992,-0.006714174,0.009265476,0.005856369
-0.006495327,0.8269681,0.5844938,-0.003250834,0.01039015,0.005034113
-0.005900539,0.8222895,0.5871731,0.004406193,0.01070252,0.006429611
-0.004635785,0.821231,0.5880937,0.01132262,0.00604714,0.01194501
-0.006360938,0.8255673,0.5881484,0.0252421,-0.001658102,0.01186334
-0.004843945,0.8285084,0.5849781,0.03275033,-0.01086022,0.008564474
-0.003487292,0.8335928,0.5825083,0.02638357,-0.01710076,0.009618195
-0.001719772,0.8400044,0.581431,0.02335418,-0.01096613,0.0114336
-0.0004700383,0.8427255,0.574351,0.02058294,-0.001145132,0.01163144
-0.00254165,0.8417269,0.5704764,0.01377136,0.001511708,0.009853964
-0.003968788,0.8380469,0.573529,0.006767487,0.001006244,0.007862811
-0.006099189,0.8362707,0.573868,0.002703848,0.0004894937,0.006379467
-0.005382638,0.8340563,0.5745938,0.002130206,0.00238529,-0.001048571
-0.0001492833,0.8310621,0.5731534,0.0004884848,0.007861987,-0.009939226
0.00177834,0.8339383,0.569445,0.004334129,0.01288064,-0.008585665
-0.001820588,0.8372904,0.5739756,0.006007334,0.01111193,-0.005117048
-0.008596888,0.8357212,0.581205,-0.002899479,0.006358923,-0.008157995
-0.01137774,0.8322679,0.5846186,-0.008456564,0.008124316,-0.008673165
-0.009019672,0.8312338,0.5840967,-0.01164258,0.01381918,-0.006935944
-0.008249111,0.8334299,0.5821011,-0.01534065,0.01935667,-0.004412593
-0.006666393,0.8343871,0.5840217,-0.01560458,0.01746283,0.0004833587
-0.004098156,0.83411,0.5846204,-0.01014005,0.005874125,-0.002257421
-0.002972781,0.8339389,0.5841583,-0.003965323,5.338401e-05,-0.006605218
-0.0008884425,0.8339171,0.5855364,-0.009504815,0.003674002,-0.005554135
-0.0007739611,0.8344431,0.5842767,-0.01331836,0.01045183,-0.004439647
-0.002105526,0.8345528,0.5845757,-0.00901361,0.01434123,0.002001095
-0.001152233,0.834644,0.5856391,-0.006926186,0.01193768,0.007638034
-0.00115181,0.8329312,0.5858916,-0.002101128,0.01116901,0.004242783
-0.001975519,0.831113,0.5877023,0.002398156,0.009617351,-0.0009414628
-0.001998459,0.8319119,0.5841408,0.006021596,0.002584406,-0.003401908
-0.003078972,0.8309009,0.5804893,0.01155047,-0.005925968,-0.000246146
-0.003068334,0.8282562,0.5839346,0.01206137,-0.01165858,0.004462672
-0.002313901,0.827984,0.5858326,0.01027172,-0.01022144,0.004215406
-0.003066758,0.8314722,0.5844394,0.008954389,-0.01146858,0.003531335
-0.002779012,0.8356312,0.5835348,0.00670068,-0.01707415,0.004712785
-0.002560901,0.8353762,0.580617,0.005984887,-0.01530537,0.00527985
-0.003232547,0.8350704,0.576831,0.004318992,-0.01296151,0.006336308
-0.003475278,0.8376502,0.5797678,-0.000875241,-0.0142972,0.007330462
-0.004485589,0.8368624,0.5839087,-0.00244194,-0.0130859,0.006886961
-0.004366908,0.8317581,0.5806275,-0.001329935,-0.01080852,0.004746088
-0.002899057,0.8273406,0.5795184,-0.004123326,-0.006313578,0.0007254749
3.742169e-05,0.8274702,0.5816251,-0.006180844,0.0002583586,-0.001258771
0.004011944,0.830553,0.5815942,-0.01129989,0.005336118,-0.0008407474
0.002539006,0.8323251,0.5848258,-0.0233565,0.01572673,0.0001526052
-0.0009989411,0.8321157,0.5873659,-0.03297192,0.02787891,-0.0004794697
-0.002524866,0.8298191,0.5858567,-0.03203195,0.02717256,-0.006151785
-0.006920634,0.8298125,0.5881552,-0.01714074,0.0172029,-0.00927963
-0.009483985,0.8366372,0.5981893,-0.002897673,0.006042417,-0.004468489
-0.01174835,0.8408724,0.6083345,-0.0002069711,-0.004595065,0.006764371
-0.01520094,0.831293,0.6034149,0.01092657,-0.01734444,0.02094613
-0.004207046,0.8158741,0.5870785,0.03599384,-0.02697412,0.02868257
0.00795071,0.8124516,0.5785905,0.04555579,-0.004684403,0.02798663
0.001476229,0.8178979,0.5806514,0.0340111,0.02237523,0.02251241
-0.003039486,0.8215594,0.5816643,0.03143533,-0.007489424,0.01845382
-6.59932e-05,0.8262966,0.5762873,0.04106036,-0.0372659,0.01860783
-0.001366767,0.8299193,0.5747482,0.04298606,-0.0176629,0.01530795
0.0009416733,0.8412362,0.5780791,0.03099018,-0.01348823,0.006305447
0.00436888,0.8599306,0.5767344,0.01132269,-0.01846539,-0.001302285
0.002791064,0.8562565,0.5772397,0.002022589,0.000552524,-4.347395e-05
0.004182203,0.8451647,0.5758501,0.00284007,0.02198293,0.00342109
0.006599844,0.8485116,0.5670371,-0.002788082,0.05283537,0.002427601
0.00457795,0.8441238,0.5653386,-0.01055901,0.05849625,0.004089963
0.0007222551,0.8377453,0.5731628,-0.01343175,0.01765826,0.00503563
-0.002433405,0.8366729,0.5807773,-0.01170895,-0.008285946,0.003444938
-0.002004954,0.8338176,0.5787708,-0.006331655,-0.008340128,0.005003358
0.0004405405,0.839168,0.5757985,-0.002512331,-0.006111507,0.008104144
0.002712883,0.844667,0.5821354,-0.004854462,-0.004607426,0.009692468
0.006629273,0.8495036,0.5824077,-0.01871565,0.007095457,0.004310624
0.006659551,0.8533813,0.5790479,-0.03513418,0.02750679,0.0007410106
0.004079637,0.8468753,0.5788319,-0.03309445,0.02707959,0.005073297
0.006158346,0.8393734,0.5780025,-0.01990386,0.02140249,0.00619464
0.006522799,0.8219648,0.5826931,-0.01051155,0.01878034,0.00567434
0.007291713,0.8111155,0.5838212,0.004108796,0.00917761,-0.003093684
0.008853045,0.8220844,0.5790272,0.01844973,0.01116315,-0.00836099
-0.002747545,0.822625,0.57799,0.02078895,-0.003759163,0.008457346
-0.01301111,0.8264074,0.5815621,0.02300582,-0.02358687,0.01373874
-0.003174285,0.8387002,0.5873619,0.02416844,-0.001325855,0.01113367
0.006028834,0.8395312,0.5867775,0.01734861,0.01574777,0.01588992
0.000242964,0.8424946,0.5864813,0.01449913,0.003942896,0.009877179
-0.003197891,0.8435943,0.5891404,0.01555853,-0.001306404,0.01207707
-0.0008405441,0.8433581,0.5849115,0.0138015,0.003260819,0.01413286
-0.000327691,0.8440101,0.5793629,0.01101224,0.01138548,0.007647386
0.003935267,0.8369438,0.5734063,0.004917176,0.02193333,0.008293078
0.004697556,0.8306031,0.5730166,0.0011632,0.01825279,-0.001184464
0.003345864,0.825745,0.5773718,0.00191864,0.008064527,-0.006376028
0.009026632,0.828685,0.5730651,-0.001732995,0.01448773,-0.001615498
0.006664187,0.8377773,0.5726049,-0.007522654,0.01438977,0.0002965762
0.001624513,0.8407836,0.5762087,-0.01201578,0.007862991,0.006521932
0.001975338,0.8399155,0.5779103,-0.01072543,0.01421337,0.003809494
0.0001487828,0.8356689,0.585131,-0.006296339,0.01511062,0.0005040487
0.001691776,0.8371098,0.5852925,-0.00998232,0.01747763,0.003699759
1.244944e-05,0.8384114,0.5826566,-0.01201582,0.01978631,0.002764815
-0.003066855,0.8310647,0.5864412,-0.009746763,0.01454885,0.003619329
-0.0004440675,0.8290954,0.5843769,-0.007680325,0.0146042,0.0003857527
-0.001592932,0.8287555,0.58163,-0.0009506083,0.00690724,-0.001131799
-0.001881379,0.8294677,0.5824499,0.0008783923,0.001704506,0.005877887
-0.001701523,0.8328117,0.5813661,0.002217758,0.005878703,0.01096071
-0.003658468,0.8333916,0.5782714,0.007766934,0.001234003,0.01420656
-0.001911669,0.8360781,0.5759656,0.005066366,-0.0007836111,0.01198563
-4.190621e-05,0.8361605,0.5807739,0.003636569,0.003531407,0.008709957
0.001963583,0.8353437,0.5853787,0.001991764,0.007165919,0.01379114
0.002011158,0.8341065,0.5848767,-0.01177819,0.008811869,0.01820966
0.0006630684,0.8302426,0.5905981,-0.01949478,0.009248708,0.01949886
0.002790732,0.8322498,0.5968594,-0.009319648,0.01258583,0.01445817
0.003091515,0.8325228,0.5866523,0.001580308,0.01770859,0.001296597
0.002490497,0.831284,0.5733277,-0.001027991,0.02278827,0.002258953
0.002844729,0.8335402,0.5766195,-0.00402203,0.01089282,0.007920066
0.001157012,0.8333959,0.5793841,-0.002735078,-0.006353295,-0.001183217
-0.001464208,0.8343804,0.5759575,-0.009869869,0.002788936,-0.0003115947
-0.002615517,0.8350155,0.578724,-0.01539416,0.01106311,0.001654689
0.002354513,0.8350855,0.5780471,-0.01682443,0.006443439,-0.009745187
0.00680154,0.8379842,0.57654,-0.02106427,0.007950406,-0.01102392
-3.991036e-06,0.8412012,0.5780224,-0.02030651,0.005518218,-0.00815361
-0.007391685,0.841701,0.5758129,-0.02105149,0.006571069,-0.00315814
-0.005329411,0.835302,0.5784143,-0.02406999,0.01244006,0.002865796
-0.001049697,0.828575,0.5825967,-0.01928358,0.008703453,-0.002108513
0.003236991,0.8276173,0.5838472,-0.01030306,0.008752653,-0.003892869
0.006464322,0.8287534,0.5872003,-0.001190795,0.008558085,-0.00533809
0.001287847,0.8297878,0.5898589,0.002730515,-0.002604654,-0.005805243
-0.003894857,0.8300815,0.5915874,0.003453623,-0.01071311,0.0004155539
-0.0009988863,0.8320193,0.5879056,0.006395802,-0.009287673,0.002191698
-0.0005492338,0.8342904,0.5819219,0.0008484641,-0.005049456,0.005240488
-0.002499833,0.8347639,0.5829876,-0.0102406,-0.004722441,0.002962773
-0.001841372,0.8337796,0.5832549,-0.01001503,-0.001609836,-0.002624022
-0.002962358,0.8308887,0.5842629,-0.004344469,0.001073174,0.001307858
-0.003254256,0.8307394,0.588299,-0.003546792,-0.007248157,0.001311515
-0.001666154,0.8343098,0.5820794,-0.005565035,-0.01179641,-0.001720649
-0.0002140934,0.8369936,0.5734302,-0.01006463,-0.009781232,-0.004056666
0.00304147,0.8357033,0.575126,-0.01248422,-0.009604227,-0.006822218
0.003646111,0.8331615,0.5787928,-0.01155233,-0.009467604,-0.004563665
0.00196691,0.8336603,0.5826805,-0.01287087,-0.009912734,-0.003854172
0.003044954,0.8332337,0.5901497,-0.01298441,-0.00883944,-0.005413157
0.001937853,0.8329281,0.594689,-0.009096135,-0.01027485,-0.009281227
-0.003024678,0.8343524,0.5909772,-0.003928086,-0.0139984,-0.01427433
-0.006822184,0.8342756,0.5812817,-0.0004686956,-0.01607744,-0.009490998
-0.006339175,0.8352742,0.5759223,0.002029827,-0.01725496,-0.004182931
-0.004219412,0.83498,0.5804001,0.002906365,-0.01516211,-0.00771469
-0.005050309,0.8349367,0.5857185,-0.004212775,-0.01634456,-0.008870224
-0.004376526,0.8369906,0.5851013,-0.01013669,-0.01816618,-0.005786703
-0.003218479,0.8349086,0.5834275,-0.008172046,-0.01611621,-0.004040036
-0.005000616,0.8342884,0.5825817,-0.01028539,-0.0145497,-0.0035164
-0.003063274,0.8363292,0.5798514,-0.01384379,-0.01223449,-0.003167701
0.000711157,0.8368914,0.5807782,-0.00881336,-0.01573116,-0.00155677
0.003616588,0.8368435,0.5828172,-0.001768038,-0.01877371,-0.0004363548
0.004806842,0.8307778,0.5779578,-0.001324526,-0.01536501,0.00153114
0.003157332,0.8237957,0.5731573,-0.002495046,-0.01643534,0.004951031
0.004447277,0.8250395,0.5723486,-0.0007813054,-0.01899256,0.002662998
0.003695848,0.8303372,0.5762525,0.0009132014,-0.02107264,-0.00137355
0.00155869,0.8331795,0.5814042,0.002804015,-0.02137212,-0.002484798
0.003537368,0.8320358,0.5791729,0.00249275,-0.02008762,-0.002940873
0.002635535,0.8314232,0.5783948,0.001082161,-0.02197649,-0.0003888786
0.002420634,0.8322417,0.5819971,0.002027608,-0.01707531,0.001151607
0.003382197,0.8319705,0.582437,0.001324116,-0.005376997,0.0008242169
0.001670047,0.8319654,0.5850063,-0.0009264709,0.004906156,-0.001159002
0.0004269637,0.8329306,0.5915762,-0.0079141,0.0129754,-0.005394181
-0.002387616,0.8336452,0.5954453,-0.01564173,0.01773622,-0.002764816
-0.002876781,0.8327881,0.5904306,-0.007319254,0.01921528,-9.704322e-05
-0.001308136,0.8305412,0.5837839,0.003984923,0.01792134,-0.002014027
1.642103e-05,0.8284464,0.5861264,0.0008675549,0.02044887,0.001695735
0.003970744,0.828972,0.5870708,0.001837335,0.02323819,0.005455496
0.002577699,0.8308895,0.5840769,0.01027342,0.02058774,0.005698846
-0.0002590731,0.8313942,0.584982,0.01091298,0.01861399,0.005449752
0.002362636,0.8325694,0.5847541,0.01049034,0.008583248,0.003918224
0.002424133,0.8345215,0.5840351,0.010523,-0.007143406,0.004684038
0.002416137,0.8375013,0.5830562,0.003697444,-0.01030577,0.004996713
0.003517994,0.8402226,0.5786809,-0.004965597,-0.002007429,0.002093442
0.001703593,0.838595,0.5758763,-0.009037454,0.00376446,0.001680075
0.0001695163,0.8373703,0.5750466,-0.003730006,-0.001353493,0.002209796
-0.0009987818,0.83772,0.5776204,0.001233685,-0.002921846,0.0002844688
0.002306703,0.8360022,0.5826173,-0.005232212,0.005848595,-0.001981226
0.007524427,0.8350709,0.5833312,-0.009140107,0.00994018,-0.005113639
0.003187783,0.8345596,0.5831322,-0.004178823,0.006946176,-0.004765105
-0.002644943,0.8340862,0.5836793,0.0001380915,0.003305962,0.0008187339
-0.002954785,0.8333588,0.5828893,0.002726053,0.004664397,0.003986049
-0.002968333,0.8311423,0.5825133,0.002006196,0.00753522,0.005318179
-0.001589866,0.8317006,0.5821231,-0.003143845,0.008919358,0.005187086
-0.001162302,0.8327886,0.5838133,-0.004172139,0.01033777,0.004255313
-0.002630202,0.8330379,0.5874085,0.001923687,0.00263097,0.008170268
-0.002793166,0.837313,0.5880871,0.005292701,-0.004313693,0.01255239
-0.003002144,0.8393817,0.5867091,-0.001189803,0.004262368,0.01531935
-0.002626622,0.833789,0.5847895,-0.007987708,0.01846452,0.01780977
-0.002144514,0.8274373,0.5826255,-0.004386832,0.02607768,0.01680756
-0.0003907631,0.8269395,0.5829489,0.001637387,0.0197873,0.01136239
0.002695807,0.8297535,0.5837746,0.005951841,0.009969836,0.00550478
0.002438723,0.8311182,0.5823496,0.0120899,0.01035394,0.007810307
0.002380088,0.8321166,0.5827662,0.01347353,0.01427144,0.0118742
0.003403003,0.831454,0.5856388,0.01306058,0.01814666,0.008870413
0.00243085,0.8302375,0.5866859,0.01350303,0.02005701,0.006355547
0.002728687,0.8334287,0.5860887,0.00836486,0.01715097,0.002742259
0.003065011,0.8349471,0.5844593,0.005111629,0.01616506,-0.0009251191
0.002655963,0.8301385,0.5790977,0.005868375,0.0162613,0.0001714279
0.003833129,0.8269936,0.5732407,0.003212822,0.01452963,-0.00340125
0.00373646,0.8328255,0.5761023,-0.0004365462,0.01440444,-0.007621317
0.0003939369,0.8416065,0.5822987,0.0001767681,0.01303582,-0.004374897
-0.003426131,0.8416587,0.5825865,0.00201624,0.01159031,0.002444395
-0.003305136,0.8348169,0.5850554,0.0004792515,0.01154889,0.008903201
-0.0005556836,0.8300924,0.5875634,0.002203588,0.004804895,0.007669274
0.001291544,0.8314683,0.5829134,0.004762174,-0.0007840178,0.005367343
0.003454386,0.8340647,0.5771107,0.001423524,0.006618764,0.010899
0.003358683,0.8323583,0.5710058,-0.001202404,0.01075758,0.01202232
0.002239207,0.8332536,0.5705867,-0.004432377,0.002133624,0.00532782
0.005023923,0.8358391,0.5747339,-0.006733137,-0.002976655,-0.002218281
0.006076271,0.8344298,0.5740839,-0.004758086,-0.001347287,-0.007759749
0.00434972,0.8347455,0.576535,-0.004003879,-0.002649243,-0.009175965
0.004010447,0.8360795,0.5769852,-0.002240103,-0.006292163,-0.01005439
0.003279279,0.8371767,0.5733901,-0.00265359,-0.006373874,-0.01116868
0.000820164,0.8390002,0.5774664,-0.008673783,-0.0009571923,-0.01090175
-0.002688461,0.8383788,0.5802749,-0.01245231,0.003714594,-0.01048078
-0.00291534,0.8362487,0.5840603,-0.01084602,0.0005181443,-0.01032109
-0.001726121,0.8339172,0.5909034,-0.007696027,-0.008721462,-0.01040328
-0.002650437,0.8342633,0.5855721,-0.005832511,-0.0171566,-0.005240307
-0.001003254,0.835568,0.5787426,-0.002011914,-0.02016657,0.0002007591
-0.0007979246,0.8342131,0.5806863,-0.0003750375,-0.0202471,-0.001785004
-0.001927319,0.8348685,0.5800348,-0.003850269,-0.02609593,-0.001866392
0.0009934804,0.8367271,0.5746327,-0.005125238,-0.03263112,-0.003275411
0.00151918,0.8394956,0.5710152,-0.009390352,-0.02501492,-0.00865294
-0.0005608859,0.8429764,0.572738,-0.01599139,-0.01736616,-0.007812888
-0.001813705,0.840605,0.5766522,-0.01834511,-0.02381786,-0.004766485
-0.001465144,0.8360621,0.5794804,-0.01973819,-0.02660299,0.0008753464
0.001586881,0.8313068,0.5828588,-0.01363956,-0.02312794,0.004740364
0.004299368,0.82623,0.5824629,-0.002934048,-0.0229991,-0.006142485
0.005522585,0.8297533,0.5779377,0.0009555808,-0.02163721,-0.01609872
0.001295212,0.8343898,0.578661,0.0008925809,-0.0234372,-0.01273552
-0.004731409,0.8319872,0.5842364,0.00153605,-0.03596822,-0.01115271
-0.004184564,0.8348176,0.5887137,0.00684116,-0.04959233,-0.01360073
-0.005355659,0.8396608,0.5869187,0.0107117,-0.04791103,-0.008741927
-0.008325189,0.8372303,0.5823962,0.00562033,-0.03030546,-0.002525066
-0.005595806,0.8363881,0.585212,-0.001460264,-0.01806041,0.0009065213
-0.001178893,0.8359855,0.5861364,-0.004427891,-0.02187091,0.006007682
0.002516916,0.8311098,0.5849846,-0.00290053,-0.02410763,0.001688516
0.002313765,0.8292934,0.588377,-0.004449228,-0.01676427,-0.005340797
0.0003074663,0.8298647,0.5839887,-0.01101387,-0.01186975,0.00117912
0.002749646,0.8281265,0.5798162,-0.01252188,-0.005928632,0.0076673
0.003461373,0.8271722,0.5830359,-0.006383043,0.005022346,0.008247118
0.002635847,0.8283374,0.5841891,0.002821439,0.006630526,0.004749009
0.005853006,0.8297143,0.5867682,0.006736503,0.002865927,-0.003752154
0.007550938,0.8313846,0.5889967,0.007551889,0.004094551,-0.005973756
0.006115881,0.833785,0.5898493,0.01154038,0.00322062,-0.005850699
0.005391192,0.8358419,0.5916963,0.01003025,0.003875273,-0.008976061
0.007230296,0.835896,0.5885315,0.005844751,0.01204425,-0.008238364
0.009338114,0.833808,0.5845817,0.004038826,0.02060425,-0.007976471
0.006750882,0.8325931,0.5867833,-0.001229073,0.02377963,-0.007960738
0.000808153,0.8318781,0.588097,-0.005892322,0.02472188,-0.004082951
-0.003945411,0.8300578,0.5832973,-0.006949725,0.03030261,-0.0005789137
-0.001092927,0.8285384,0.580832,-0.001554656,0.03210152,0.002793356
0.004847649,0.8254836,0.5830561,0.006055451,0.02171334,0.005729962
0.002660056,0.8242911,0.5829259,0.003965452,0.008817521,0.006997377
0.001725273,0.8279407,0.5788522,0.001513694,0.004468408,0.009010456
0.004190182,0.8312915,0.5749397,0.001137159,0.01389409,0.01254265
0.002945493,0.8344724,0.5774697,-0.003359651,0.02589699,0.01274767
0.004442596,0.8355852,0.5825567,-0.001473507,0.02642639,0.005501601
0.004812216,0.833995,0.5858239,0.002677062,0.01863221,-0.0002804879
0.003246762,0.8339668,0.5897131,0.001702116,0.01095983,0.002150401
0.004807215,0.8328372,0.5892838,0.0026603,0.01061568,0.004238969
0.004033768,0.8311913,0.5870777,0.004561059,0.009160545,0.0004576618
0.003862624,0.8306443,0.5874665,0.005757662,0.003446465,-0.001738869
0.004672296,0.8309577,0.5855231,0.005044576,0.006493196,-0.0009527029
0.003535239,0.832839,0.5837345,0.002282925,0.007316986,-0.003505192
0.003504311,0.8328933,0.5837442,0.002947023,0.001739948,-0.00451885
0.002539523,0.8330998,0.5839707,0.00196008,0.0005302413,-0.003503506
0.00261635,0.8343085,0.5833785,-0.00273759,-0.001039002,-0.00402008
0.004183614,0.8346657,0.5795481,-0.005512374,0.002354264,-0.002304663
0.003196792,0.835628,0.5787156,-0.007683622,0.009838978,-0.002137594
-0.0001246401,0.8312603,0.5814788,-0.008186188,0.01191012,-0.002231613
-0.00418857,0.8253258,0.5816702,-0.007235703,0.01158973,0.001966102
-0.003290536,0.8281603,0.5823356,-0.004910926,0.005771726,0.003961017
-3.941378e-05,0.8320847,0.5816349,-0.0005356747,-0.002825391,0.0008440991
0.0009958214,0.8335602,0.5785371,0.0008561709,-0.006501751,-0.00236472
0.004660871,0.8359646,0.5776411,0.003923996,-0.006016977,-0.001491164
0.006095772,0.8356155,0.5770758,0.008813313,-0.007383976,-0.001355454
0.004727429,0.8362334,0.5780579,0.00629051,-0.01351335,-0.00403651
0.005096693,0.8396083,0.5814519,0.0004527985,-0.01392889,-0.005158244
0.0001512861,0.8389705,0.5865642,-0.002939649,-0.01165184,-0.006458766
-0.004864376,0.8323321,0.5887742,-0.002662447,-0.01078966,-0.007042228
-0.002804989,0.8242703,0.5820442,-0.0008631717,-0.004399643,-0.008460218
-0.001971469,0.8256278,0.5796149,-0.002969773,-0.0020177,-0.01116878
-0.003298105,0.8332634,0.5857097,-0.007121951,-0.003737834,-0.005154916
-0.002795535,0.8373183,0.5886034,-0.010378,-0.002109943,0.003969532
-0.002295585,0.8419168,0.5860458,-0.01037098,0.007836771,0.007624169
-0.00213625,0.8402869,0.5794686,-0.007224208,0.03009585,0.01172928
-0.001094883,0.8323256,0.5774907,-0.004805725,0.03914556,0.01293422
-0.001096519,0.8286132,0.5833631,0.002194633,0.01768924,0.01046477
-0.001488543,0.8245345,0.5892114,0.01465341,-0.01870361,0.009322474
0.001018003,0.8254236,0.5903393,0.0229166,-0.04995257,0.002082168
0.004835566,0.8328886,0.5885735,0.02113849,-0.05608043,-0.006977525
0.01002213,0.8410754,0.5856374,0.006261463,-0.03185987,-0.007919088
0.01317361,0.8462037,0.573835,-0.01845593,0.001951703,-0.009868605
0.00665406,0.8357961,0.5667296,-0.03718382,0.01774899,-0.01365466
-0.001979936,0.8257905,0.5788052,-0.03040452,0.01367806,-0.01435278
-0.003592756,0.8286999,0.5893086,-0.01219386,0.008574246,-0.016771
-0.005920028,0.8283142,0.5919605,-0.006724995,0.0001812037,-0.0147779
-0.01150969,0.8279518,0.5949793,0.003970386,-0.02324954,-0.006742538
-0.009052429,0.8302995,0.5937777,0.02139363,-0.03678176,0.0008077788
-3.222884e-05,0.8308641,0.5883626,0.026315,-0.02096677,0.007795356
0.00363435,0.8330257,0.5849964,0.02094015,-0.009877085,0.005732949
-3.16167e-05,0.8358304,0.5810267,0.01150372,-0.01201559,0.001117882
-0.004908225,0.8382373,0.572317,0.006004058,-0.004806899,0.005268749
-0.003116848,0.8374758,0.5706749,-0.005377196,0.0004790406,0.00457948
-0.00116841,0.8337585,0.5762588,-0.01436312,0.003180145,0.003350563
-0.003047806,0.8310016,0.5768072,-0.004998234,0.01026151,0.00798108
0.00287357,0.8302128,0.5753783,-0.004588269,0.009233458,0.007123328
0.007872599,0.8324325,0.5760764,-0.01015659,0.00600295,0.003898267
0.005114244,0.8340182,0.5821829,-0.008611072,0.009321752,0.0007063848
0.005172749,0.8323254,0.5896013,-0.005067541,0.009278901,0.001573968
0.00553143,0.8317275,0.5879068,0.00447171,-0.001140178,0.004765858
0.00369541,0.833929,0.5833944,0.007822776,-0.01813189,-0.0005630267
0.002569415,0.8348343,0.5795411,0.008405485,-0.02667464,-0.002798354
0.004275366,0.8320638,0.571918,0.005809268,-0.008561724,0.0002044078
0.005834541,0.8303503,0.5696049,-0.005666032,0.01168342,-0.0002397359
0.0008543489,0.834872,0.5772189,-0.005635521,-0.0002989719,-0.0009060996
-0.003113115,0.8395231,0.5847944,-0.002644066,-0.01139185,-0.002175226
-0.001081587,0.8372212,0.587557,-0.005609256,-0.003741599,-0.0006036147
0.001280385,0.8336066,0.5870202,-0.005025423,0.002268865,0.001283478
0.002434804,0.8296524,0.5887269,-0.005679399,0.01131448,-0.0005428081
0.003105709,0.8247187,0.5934479,-0.002576913,0.004026935,0.000109184
0.003275246,0.8277724,0.5920855,0.004399367,-0.01035274,0.00270038
0.004194626,0.8321724,0.5903128,0.005740379,0.005680745,0.006532151
0.006344727,0.8289061,0.5914802,0.00495802,0.01488535,0.007851994
0.005826452,0.8249421,0.5851512,0.006852447,0.002272923,0.001259061
0.004479281,0.8225109,0.5796154,0.01276645,-0.0122757,-0.009364359
0.004335493,0.8280692,0.5813516,0.01656891,-0.02661607,-0.01481074
0.002084131,0.8399104,0.5801588,0.007292136,-0.008459699,-0.005561552
0.00233467,0.8402581,0.5764585,-0.008789213,0.0187455,0.004444564
0.00359948,0.8361378,0.5778376,-0.01500598,0.00664428,-0.000607167
0.001673294,0.8362247,0.5819101,-0.01354789,-0.004661294,-0.005830134
1.896544e-05,0.8343157,0.583532,-0.01344146,-0.002445332,-0.004784675
-0.00283513,0.8361896,0.5840436,-0.01244486,-0.006942419,-0.001310775
-0.00376567,0.8386549,0.583777,-0.01286601,9.864244e-05,0.005743521
-0.001948163,0.8359725,0.5860265,-0.01549269,0.005315259,0.005676133
-0.00299906,0.8348055,0.5893918,-0.01579395,0.004067131,0.003309305
-0.002535376,0.8344769,0.58689,-0.01297641,0.01118299,0.006115479
0.0005671121,0.8335068,0.5874061,-0.004520712,0.001312218,0.0008706056
0.002717258,0.8318583,0.5907837,0.00433382,-0.01071282,-0.00339743
0.003858435,0.8283517,0.5888828,0.007314225,-0.002161959,-0.0003876633
0.003803858,0.8253436,0.5866037,0.007418228,-0.0005172045,-0.002200314
0.004167022,0.8260522,0.5832777,0.00489965,-0.003398177,-0.002088166
0.002916426,0.8341139,0.5806053,-0.001270108,0.001729852,0.003296432
0.001877175,0.8410062,0.5793024,-0.00787633,0.008586369,0.006468319
0.004486757,0.8345672,0.5780029,-0.00710636,0.01201337,-0.001493214
0.004243474,0.8260506,0.5830824,0.001613753,0.004557559,-0.01828515
0.001876672,0.8283476,0.5875479,0.008012253,-0.001568209,-0.02370937
-0.001414846,0.8332024,0.583798,0.003912073,0.007739085,-0.01621195
-0.006004654,0.8336479,0.5818415,-0.005661584,0.01837468,-0.003317688
-0.004443836,0.8275702,0.5910273,-0.004480941,0.01108385,0.00674417
-0.00297497,0.8208417,0.599202,0.007317521,-0.01715188,-0.0005335015
-0.004238697,0.8314934,0.5917284,0.01445408,-0.0396572,-0.007940707
0.0005832774,0.8448624,0.5792535,0.00290305,-0.017788,0.004520259
0.004432765,0.8396585,0.5732923,-0.01813699,0.01224242,0.01615043
0.003146637,0.8346015,0.5774284,-0.01957528,-0.0006873444,0.01370991
0.003959665,0.8317557,0.5848222,-0.01431393,-0.002105542,0.009185978
0.006251163,0.8244966,0.5827238,-0.01567127,0.01446825,0.003821849
0.004834861,0.8248639,0.5828943,-0.009191631,0.002769483,0.0006726605
0.002222072,0.8244693,0.5885839,-0.0066965,0.003094845,0.005188304
0.003054712,0.8212829,0.5891387,-0.006874452,0.01009625,0.007332655
0.004017383,0.8220655,0.5898134,0.001331451,0.002008012,0.006272244
0.00498814,0.819233,0.5885612,0.01370888,0.005862403,0.003608269
0.006300822,0.8214343,0.5855909,0.02289191,0.003121419,-0.004552027
0.005230763,0.8303667,0.586771,0.01672989,0.001177834,-0.01007849
0.00437791,0.8360571,0.5886442,0.01040782,0.009547123,-0.007104847
0.000537726,0.8422746,0.5904437,0.007655189,0.007889763,0.0001981459
-0.004060347,0.8415949,0.5870191,-0.0008695144,0.005519522,0.003477358
0.0003800241,0.8369901,0.5803026,0.0006432317,-0.004767551,-0.001838076
0.005081524,0.8398959,0.5762161,-9.558744e-05,-0.01174918,-0.006176689
0.002643719,0.838547,0.5708079,-0.01398913,0.004829104,0.002268303
0.002795875,0.8342605,0.5732993,-0.02727568,0.0206258,0.01081183
0.004462667,0.82993,0.5844318,-0.03086768,0.01914506,0.003585641
-0.0005292244,0.8217848,0.5906415,-0.01046245,0.00969502,-0.001447419
-0.004613211,0.8214123,0.5923538,0.01279364,0.004179693,0.003064522
-0.002666733,0.8245287,0.5909795,0.01099693,-0.002054552,0.00394858
-0.001440515,0.8259664,0.5881746,0.00612181,0.002015223,0.005645257
0.0003230342,0.8296041,0.5859477,0.008975131,0.01375105,0.006590624
0.003211975,0.8304424,0.584809,0.007581427,0.005122224,0.002649202
-0.0001645614,0.8321132,0.5863285,0.005641327,0.002639618,0.002375656
-0.003838471,0.832949,0.5831009,0.004101035,0.0111542,0.009929519
0.002800034,0.8310916,0.5802562,-0.0002450334,0.005567255,0.01619202
0.00918165,0.8344833,0.5855331,-0.0002200737,-0.006690335,0.004835639
0.006822785,0.8401174,0.5889416,-0.0006174854,-0.01773905,-0.007648529
0.005981698,0.8428863,0.5907778,-0.01050371,0.002494361,9.584074e-05
0.006779681,0.835909,0.5920767,-0.01721507,0.02955589,0.004225396
0.0049823,0.8255941,0.5935613,-0.0126582,0.01159953,-0.001856443
0.005192291,0.8284632,0.5973638,-0.005890999,-0.003205147,-0.00126402
0.005115279,0.830466,0.5890793,-0.002192875,0.002316359,-0.002528125
0.003569019,0.8257769,0.578813,0.001577314,-0.001199307,-0.005416658
0.003412681,0.8286285,0.5833642,0.004721243,0.0001522657,-0.002527564
0.0009237211,0.8315082,0.5848447,0.005106899,-0.002212354,-0.001601321
-0.002752729,0.832312,0.5825237,0.008239549,-0.009947288,-0.0008374294
-0.001751448,0.8338138,0.5864175,0.008860275,-0.00526676,0.000290872
-0.0004427731,0.8310151,0.5854651,0.005756234,-0.001911205,-0.0001489459
-0.001619925,0.8310138,0.583073,0.006284801,0.002110735,0.002567725
0.0003634318,0.8308419,0.5863101,0.002783383,0.00730899,0.003719416
0.002372072,0.828717,0.5874388,0.0005750347,-0.00341565,0.00448022
0.001660417,0.8328131,0.5889157,0.002587561,-0.01310197,0.006659433
0.003906347,0.8332823,0.5890481,-8.119967e-05,-0.007611337,0.003624398
0.006621244,0.8316997,0.58167,-0.001408923,0.002122365,0.0007218203
0.005352744,0.8361664,0.5763249,-0.003229706,0.009391873,8.900517e-05
0.002672582,0.8366932,0.5777915,-0.004102669,0.007204876,0.0004525329
-0.0001367923,0.8346062,0.5836608,-0.0008631833,-0.00387688,0.003862025
-0.002327498,0.8338923,0.5870623,0.0008628442,-0.01299326,0.00441528
-0.0007157262,0.8300321,0.585149,0.004784539,-0.01527692,0.003242023
0.003951113,0.8278363,0.5863759,0.004758382,-0.009395589,0.001322768
0.007344762,0.8335215,0.5856226,0.002026296,-0.003334927,-0.003897435
0.007197697,0.8402468,0.583477,0.004293515,-0.009096439,-0.006460132
0.003706863,0.8376365,0.5857533,0.001500447,-0.01379393,-0.007014232
0.00200023,0.8338676,0.5855343,-0.00268501,-0.00767627,-0.007054595
0.003921055,0.8355152,0.5875327,-0.002797584,-0.001727587,-0.0071804
0.004181894,0.8331333,0.5911677,-0.002468768,0.003444453,-0.009650984
0.002337618,0.8280762,0.5917295,0.001060226,0.003143824,-0.008947735
0.0007556691,0.8241214,0.5917962,0.004112238,-0.001078987,-0.005223918
0.001164683,0.8247121,0.5878627,0.005936293,0.002045265,-0.001688104
0.00160626,0.8307695,0.5843683,0.008806967,0.002261451,-0.00188156
-0.0008105468,0.8321818,0.5839787,0.009437308,0.0009028757,-0.004194614
-0.001356766,0.8350694,0.5823117,0.008497775,0.003332335,0.001651634
0.001341428,0.8409125,0.5759305,0.004791705,0.003520226,0.01089571
0.003637306,0.8405767,0.5704457,-0.002080268,0.01058528,0.01485741
0.003186801,0.8371832,0.5801265,-0.004717978,0.01796442,0.005813851
0.001967525,0.8312933,0.5908378,-0.0009054066,0.01562911,-0.007014649
0.003226869,0.8319208,0.5890992,0.003007927,0.01822405,0.0004043708
0.002908973,0.8348771,0.5887494,0.004849671,0.02569024,0.005907993
0.002270071,0.8300167,0.5909874,0.004982661,0.02663701,-0.002496726
0.003311902,0.8315844,0.592034,0.005161407,0.02663413,-0.001707905
0.001952872,0.8314929,0.5920429,0.009709308,0.03025954,-0.0005023044
5.420058e-05,0.8269962,0.5910754,0.01306058,0.02931866,0.001714974
-0.001911609,0.8305742,0.5907601,0.01397854,0.02635451,0.009076073
-0.001550261,0.83224,0.585104,0.01632802,0.02642923,0.007751476
0.002202561,0.8342745,0.5779267,0.01385107,0.02645401,0.008179516
0.00318918,0.8361679,0.5784334,0.01085666,0.03398324,0.01254479
0.002880761,0.8335817,0.5810414,0.01278482,0.03935527,0.01339887
0.002540654,0.8352552,0.5805864,0.01191961,0.0284243,0.01275901
0.001649807,0.8361248,0.5804681,0.005582121,0.02011583,0.002588093
0.001149475,0.8366197,0.5817577,0.0001462434,0.01549088,-0.00825274
-0.0007862937,0.8385005,0.5818645,0.002585785,-0.003129768,-0.005156988
-0.001360916,0.8366877,0.5809365,0.002805918,-0.01605485,-0.003386798
0.0003317468,0.8356353,0.5793991,-0.01131951,0.003442593,-0.008815313
0.001946974,0.8345449,0.5786237,-0.02385619,0.02408078,-0.008028546
0.001809736,0.833388,0.5802036,-0.02051473,0.01286154,-0.008541288
0.0001445581,0.8314886,0.5828873,-0.01555239,0.002698712,-0.01396225
-0.0009193843,0.8259912,0.586532,-0.01357523,-0.0028904,-0.01088352
-0.003441708,0.8259743,0.5868877,-0.002037702,-0.02549234,-0.006737758
-0.003601456,0.8315159,0.5840929,0.00463296,-0.03213234,-0.006527132
-0.001087743,0.8353376,0.5838711,-0.001435433,-0.02181167,-0.004820778
-0.0005228822,0.8371833,0.5835952,-0.0002657005,-0.01837675,-0.003927999
0.002940564,0.8354765,0.5846775,0.001947668,-0.01335107,-0.0003688093
0.004197462,0.8323185,0.5870397,0.000121676,-0.01035879,0.0004138573
0.002453553,0.8290809,0.5851107,0.003305371,-0.00875875,-0.001946451
0.004240924,0.8267026,0.5839994,0.00246244,-0.005078375,0.0005154146
2.519099e-05,0.8299308,0.585111,-0.0002719047,-0.005572813,3.714247e-05
-0.007777374,0.8326724,0.5850146,-5.973588e-05,-0.004275167,0.002007608
-0.008141049,0.8312696,0.5864224,0.0006623879,0.003519205,0.01025383
-0.001571657,0.8301048,0.5874363,0.0056704,0.01347397,0.01210605
0.006505827,0.8277801,0.5833584,0.008869501,0.01483784,0.006662855
0.006807751,0.8270876,0.5774313,0.008996598,0.01308893,0.001637585
0.004274085,0.8283559,0.577742,0.00976578,0.01579979,0.003505109
0.006273531,0.8277361,0.5825813,0.01099014,0.01204134,0.004085172
0.006604227,0.8285814,0.5848171,0.01520799,0.01063468,0.0004580598
0.006730061,0.8302184,0.5869125,0.01707413,0.01760064,0.002647457
0.006980063,0.832064,0.5873323,0.01595342,0.02000268,0.004401877
0.003281261,0.8357058,0.5825101,0.01290621,0.01434381,0.004875558
-0.0009889554,0.8361542,0.5806017,0.005660232,0.006696246,0.00601539
-0.004269152,0.834014,0.581638,0.00325797,0.007960222,0.001490843
-0.005643529,0.8345048,0.5801952,0.004832249,0.009150433,-0.0004517766
-0.005102241,0.8348953,0.5811884,0.003863914,0.0039464,0.004996587
-0.003800087,0.8325991,0.5854509,0.004317412,0.005486322,0.009932836
-0.001198769,0.8313844,0.5885584,0.005599651,0.007113808,0.008945689
-0.0008589798,0.8323427,0.5881339,0.007036078,0.007556692,0.006561645
-0.002073248,0.8338583,0.5870566,0.00796045,0.01027643,0.008008681
-0.002052814,0.8350442,0.5905555,0.004683667,0.006105052,0.007714993
-0.003015739,0.833985,0.5926497,-0.003198631,0.003763747,0.006540582
-0.003066649,0.8350312,0.5900654,-0.0202115,0.002061935,0.006710982
-0.002365539,0.8450484,0.5881336,-0.03368438,-0.007166065,0.00952672
-0.002485928,0.8531768,0.5870081,-0.0158319,-0.004757495,0.01343209
-9.458779e-05,0.8425598,0.587377,0.006332122,0.01174373,0.00331623
0.002364022,0.8295853,0.587906,-0.004210492,0.01674569,-0.003922217
0.001697769,0.8346659,0.5862641,-0.01099708,0.006485653,0.001505342
0.00214104,0.8371572,0.5831605,-0.004111017,0.003661266,-0.004843328
0.005119236,0.8314649,0.5796275,-0.01080436,0.01446203,-0.001726201
0.005917472,0.8338391,0.5817947,-0.008376956,0.02201895,0.006694543
0.003519467,0.8341298,0.5861898,-1.584289e-06,0.01884069,-0.003643565
0.002143383,0.8330312,0.5854591,-0.001672844,0.01078692,-0.0001387472
0.002211228,0.8360928,0.5850089,0.003069615,0.003735642,0.002197665
0.0002003878,0.834489,0.5823822,0.004074997,0.000656679,-0.004884264
-0.00325227,0.8350502,0.5773483,0.002998345,0.00153752,0.004166707
-0.002732091,0.835902,0.5802437,0.005584794,0.0008815831,0.001908387
0.001508789,0.8320322,0.585154,0.002630037,-0.002889095,-0.004935175
0.003605882,0.8315148,0.5868332,0.002265236,-0.003765455,-0.007144734
0.002302672,0.8320103,0.5901179,-0.0007528384,-0.005224629,-0.01407758
-0.001229831,0.8314676,0.5909446,-0.002783612,-0.00714487,-0.00861218
-0.003801656,0.8293519,0.5896403,-9.347397e-05,-0.005885893,-0.008210533
-0.003086521,0.8279343,0.5896022,-0.003190727,-0.008294225,-0.01006989
-0.003210668,0.8340349,0.5876815,-0.003483374,-0.01068939,-0.003249585
-0.004491743,0.8394732,0.5842308,-0.004411337,-0.009948218,-0.003790817
-0.003443876,0.836143,0.5809553,-0.007298329,-0.007188414,-0.0002086432
-0.002125453,0.8324455,0.5814759,-0.005839834,-0.003311828,0.001147124
-0.002869072,0.8334919,0.5848753,-0.005919817,-0.009883553,-0.005050673
-0.003069822,0.8320551,0.5844602,-0.00411614,-0.01671292,-0.007610086
-0.002429219,0.8306917,0.5827949,-0.001058371,-0.01072539,-0.009361528
-0.002245536,0.8330632,0.5817161,0.000746842,-0.009248556,-0.0002085169
0.0007516748,0.8318497,0.5818597,0.0002682514,-0.01851012,0.009748402
0.004067494,0.8324729,0.5853241,-0.002840169,-0.02398541,0.002920242
0.002798283,0.8352174,0.5868865,-0.001859793,-0.01810266,-0.002663193
0.001201724,0.8334755,0.5870042,-0.001567153,-0.01228484,-0.00144925
0.001506997,0.8325058,0.5882699,-0.002427504,-0.01540946,-0.00672786
0.001705715,0.8297851,0.5895611,-0.0003663124,-0.01539086,-0.01090713
0.003076055,0.8264996,0.5895446,-7.387789e-05,-0.01297372,-0.008028194
0.004158977,0.8284457,0.5851371,-0.0003317739,-0.01845535,-0.01092963
0.0007079803,0.8324941,0.5833735,-0.002343338,-0.0212458,-0.01413497
-0.003098462,0.837806,0.586694,-0.006886392,-0.01511949,-0.008168291
-0.002384321,0.8397728,0.587966,-0.009586279,-0.009628186,-0.003346678
-0.002272954,0.835612,0.590988,-0.009880091,-0.009937378,-0.002429168
-0.002737103,0.831671,0.5943683,-0.008097941,-0.01169989,-0.002255779
0.001062477,0.8314901,0.5913213,-0.005527735,-0.01061636,-0.002860798
0.004063235,0.8321307,0.5862345,-0.001223287,-0.01067699,-0.00526804
0.002810114,0.830905,0.5834096,0.0020217,-0.0118582,-0.008340262
0.001715317,0.8307992,0.5825456,0.0001510204,-0.01213686,-0.006927102
8.631002e-05,0.8332441,0.5815477,-0.002379087,-0.01382451,-0.003854317
-0.003984465,0.8352358,0.5788022,-0.004178404,-0.01312489,-0.0004055598
-0.005248367,0.8333012,0.5771277,-0.005286604,-0.01194876,0.002307071
-0.003549721,0.8306375,0.5785783,-0.005278492,-0.01359924,-0.003115363
-0.004127874,0.8321722,0.583028,-0.003774381,-0.01368704,-0.007936848
-0.004567989,0.8324433,0.5890525,-0.001596956,-0.01342082,-0.002505727
-0.003759819,0.8311341,0.591934,-0.005492595,-0.01084099,0.002297777
-0.004359329,0.831432,0.5910661,-0.009940428,-0.001762549,0.002620333
-0.004227592,0.8298957,0.5890737,-0.007512523,0.008657548,0.005301637
-0.003943606,0.8280839,0.5866944,-0.003030887,0.01223851,0.003957709
-0.00369933,0.8259539,0.587045,0.001209009,0.01000144,-0.002051231
-0.0004373502,0.8242644,0.588117,0.004296711,0.009625742,-0.00266234
0.002462403,0.827569,0.5861886,0.009112278,0.008213308,-0.003840019
0.001715644,0.8313864,0.5857195,0.01357012,0.00729943,-0.006846739
0.0007120682,0.8324463,0.5850088,0.009989917,0.01163637,-0.004092715
0.00130414,0.832185,0.5787496,0.004263294,0.01267822,-9.924703e-05
-0.0001634443,0.8314872,0.5741604,0.00241643,0.01320406,0.003139318
-0.002563092,0.8319722,0.5813229,0.002881749,0.01646976,0.003339587
-0.002167316,0.8311984,0.5919176,0.003429234,0.01567331,0.001138849
-0.002845049,0.8299442,0.5895546,0.002374033,0.01318524,0.003992804
-0.004218216,0.831642,0.5836332,0.001899983,0.01072898,0.006677461
-0.003970777,0.8351171,0.5863389,0.002369902,0.009877841,0.006441961
-0.004236627,0.8384866,0.5862633,0.00212462,0.008270083,0.005407505
-0.003223273,0.8369679,0.5816791,0.001643319,0.002847614,0.004705881
-0.002315448,0.8327175,0.5803917,0.0009685621,0.002653752,0.008101682
-0.002968209,0.8323364,0.5828502,0.0005442481,0.003581386,0.01051421
-0.002749198,0.8319034,0.5857674,0.001573731,-0.002660124,0.01329083
-0.002748869,0.8314961,0.5830925,0.003374333,-0.007654195,0.01356279
-0.0022949,0.8325036,0.5804709,0.004499674,-0.006309266,0.004733466
-2.392338e-05,0.8314547,0.5825269,0.004603869,-0.0006908878,0.001323961
0.002119136,0.8309915,0.5823004,0.004414822,0.006187039,0.00287885
0.001789246,0.8307908,0.5827153,0.004938866,0.01008006,0.001091484
0.0001854705,0.8309511,0.5865224,0.005158243,0.008231859,-0.000758241
-0.0009915616,0.8334013,0.5912181,0.004800458,0.005001458,-0.00189367
-0.003416602,0.8354811,0.5980904,0.005023603,0.005212531,0.0007508486
-0.003527763,0.8381824,0.6001292,0.004474554,0.005062734,-0.0002252473
-0.002129517,0.8382283,0.5907602,0.002309621,0.004648994,-0.001551909
-0.005017189,0.8354736,0.5819222,0.0006402072,0.002881582,0.00486926
-0.006336664,0.8361166,0.5855982,0.002367283,-0.001947964,0.007700575
-0.004264478,0.8350724,0.5918487,0.004625609,-0.001978047,0.009268241
-0.001068115,0.8321679,0.5917268,0.002199031,-0.0001527776,0.01021306
0.003697215,0.8314509,0.5910612,-0.0007675397,-0.001070445,0.005415042
0.00361877,0.8293285,0.5882561,-0.001820796,4.787058e-05,-0.001263581
0.001715736,0.8262168,0.5845348,-0.00314714,0.002633568,-0.00927474
0.002386519,0.8250858,0.5860159,-0.0018802,0.005281571,-0.0127803
-0.001574682,0.8302903,0.5858254,-0.0007038113,0.005274923,-0.01149519
-0.005953419,0.8366977,0.583873,-0.002882727,0.004245608,-0.008691975
-0.004126157,0.8340975,0.5848848,-0.003243263,0.005119746,-0.002982016
-0.002413412,0.8292123,0.5845767,-0.0001494627,0.002250979,0.002184781
-0.00306983,0.8272046,0.5826971,0.00252299,-0.001000177,0.002507852
-0.00286724,0.8270239,0.5815085,0.001441016,-0.001581244,-0.0003777098
-0.003495753,0.8296797,0.5819164,0.0003377064,-0.002958562,-0.001395347
-0.004732312,0.8329753,0.5832106,0.003105644,-0.003472565,-0.006914013
-0.00335029,0.8372749,0.5827013,0.004017036,-0.005269956,-0.009083624
-0.0003993989,0.8376063,0.5798162,0.00127329,-0.004444324,0.001055237
0.002214056,0.8352982,0.5771942,-0.002027383,0.001201052,0.00322264
0.00200946,0.8379049,0.5803192,-0.003435296,0.00179365,0.0003126002
0.0006679427,0.8354659,0.5858578,0.000594543,-0.0009345861,0.0002092872
0.002645676,0.8313608,0.5868716,0.004851132,-0.002824438,-0.001942895
0.002615389,0.8349641,0.5874903,0.00350115,-0.003310679,4.463295e-05
-0.001278489,0.8349727,0.5877649,0.001193447,-0.00104821,0.0003421881
-0.00357726,0.8322932,0.5847739,0.0001415893,0.001524032,0.0004248389
-0.003274243,0.8318699,0.5821866,-0.001932681,0.004634644,0.001673177
-0.002074234,0.8316349,0.5796654,-0.002434663,0.001748005,0.0003153453
-0.002941592,0.8335151,0.5792716,-0.0008395723,-0.003407924,0.004423337
-0.003195985,0.834207,0.5841635,-0.001400003,-0.000280832,0.006679778
-0.001259261,0.8340873,0.5883846,-0.0007403761,-0.0003461245,0.004974773
0.001260718,0.8338143,0.5877639,0.001570753,-0.00322475,0.003943151
0.004665552,0.8314986,0.5841018,0.0003309044,-0.002214977,0.00200811
0.0005617176,0.8293026,0.579848,0.0003702681,-0.002616219,0.003504665
-0.005654607,0.8273939,0.5764186,0.002456813,-0.0007551248,0.005399689
-0.002418376,0.8286751,0.5760426,0.003373845,0.00121403,0.006882745
-0.001489778,0.8329465,0.5763903,0.004564514,0.001599465,0.006917668
-0.002749661,0.8373321,0.5754821,0.004452169,0.004370784,0.004797304
0.001275596,0.8383153,0.5821356,0.003489996,0.004455342,0.006189735
0.001589287,0.8329663,0.5898953,-0.0006372188,0.001526758,0.00511632
-0.001760086,0.8307316,0.5865015,-0.005096248,-0.002227039,-0.0008839983
-0.00322796,0.8323591,0.582878,-0.001414471,-0.005479265,-0.005322846
-0.002249549,0.8320303,0.5834971,0.001117489,-0.005801981,-0.004510254
-0.0001551553,0.8327671,0.5829999,-0.001397188,-0.005423957,-0.002866294
0.0002552986,0.832066,0.5824909,-0.001126697,-0.00349096,-0.006177668
0.001161566,0.8290751,0.5820933,-0.0008715088,-0.001623101,-0.009178289
0.0003571291,0.8272219,0.5835161,0.0002046318,-0.0070461,-0.01195514
-0.002861881,0.8295688,0.5859134,0.001675045,-0.01330134,-0.01302842
-0.002815609,0.8337597,0.5865916,-0.00321795,-0.01073263,-0.008401441
-0.004994566,0.8327781,0.5879373,-0.007911675,-0.008882295,-0.002045186
-0.007912766,0.8295634,0.5901926,-0.005885543,-0.01169004,0.005836317
-0.003119529,0.8273062,0.5918169,-0.003736235,-0.01048123,0.004060267
0.001022658,0.829693,0.5916641,-0.003218275,-0.008886942,-0.006785028
0.001901935,0.8367052,0.5875485,-0.0007316609,-0.00714224,-0.008421011
0.004815347,0.8381648,0.5832888,-0.0004012107,-0.004153316,-0.006372876
0.00500074,0.835595,0.5823008,-0.001044537,-0.009455827,-0.005772281
0.002902807,0.8340531,0.5816646,0.001498895,-0.01677348,-0.006982022
0.002613531,0.8343878,0.5827839,0.0001667604,-0.01710597,-0.01148929
0.001757473,0.8354902,0.5833632,-0.003274984,-0.01569063,-0.01045908
0.003300193,0.8341982,0.5793483,-0.005390855,-0.01334345,-0.007662354
0.006056665,0.8336342,0.5770945,-0.00834901,-0.00876168,-0.005727521
0.0003416584,0.8298214,0.5793369,-0.002894052,-0.006697523,-0.004666143
-0.005428687,0.8241613,0.5816231,0.002840699,-0.01176077,-0.007927589
-0.001971542,0.8272353,0.580826,-0.006015748,-0.01670412,-0.008987457
0.0008306603,0.8329153,0.5810551,-0.01275811,-0.01463709,-0.00914848
0.001324918,0.8349742,0.5846839,-0.00741084,-0.014974,-0.008243099
0.002384914,0.8326595,0.5851777,-0.002830581,-0.0178952,-0.006923254
0.002720556,0.8277356,0.5844318,-0.0006939935,-0.01529757,-0.01050693
0.004671918,0.8278911,0.58495,0.002632269,-0.01344325,-0.01184213
0.004764465,0.8284921,0.5844869,0.001856798,-0.01439942,-0.01087106
0.003337726,0.8270739,0.5850811,0.0005063289,-0.01295495,-0.009277752
0.004580917,0.8290918,0.5857632,0.003354338,-0.01161514,-0.007575866
0.003586417,0.8298011,0.5869507,0.003564332,-0.0125742,-0.009580148
0.0001382711,0.8299826,0.5870727,0.002738913,-0.01510136,-0.009337359
-0.002027206,0.8332968,0.5831525,0.003063634,-0.01660221,-0.005519523
-0.002218058,0.8356147,0.5772436,0.001086309,-0.01408642,-0.001492273
-0.001511739,0.8364444,0.5722201,-0.00236233,-0.01254132,-0.001106702
-0.00320293,0.8349629,0.5762027,-0.009685111,-0.01424934,-0.003156685
-0.003348496,0.8322257,0.5849738,-0.01471448,-0.01427041,-0.001745214
-0.001902409,0.8316812,0.5862424,-0.01144626,-0.01304529,-0.002122737
-0.002791716,0.8318045,0.5852975,-0.008315275,-0.01205266,-0.003491527
-0.0001138787,0.832132,0.5851002,-0.006633637,-0.01135685,-0.004650122
0.002661135,0.8319663,0.5831654,-0.005199924,-0.01161523,-0.008650534
0.001127218,0.8317158,0.5814082,-0.00616845,-0.01126085,-0.008238334
0.001359053,0.8320458,0.579483,-0.007146625,-0.01008331,-0.007137245
0.002494262,0.8310596,0.5790767,-0.006539651,-0.008253804,-0.009647898
0.002965495,0.8313408,0.5798725,-0.002516634,-0.006995599,-0.007806305
0.002374709,0.8331714,0.5819813,0.001582818,-0.007499269,-0.002541528
-0.0001644856,0.833695,0.5835263,-0.001354037,-0.006232688,-0.0002213137
-0.002178294,0.8331313,0.5798737,-0.005255266,-0.002713586,-0.002016613
-0.002673048,0.8322261,0.5801057,-0.00311077,0.0003452878,-0.003251244
-0.00230928,0.8311635,0.5854724,-0.0008842797,0.003837443,-0.002177897
-0.002159055,0.8282222,0.5866227,0.001847859,0.007186179,0.0006681134
-0.0006498168,0.8253766,0.5861181,0.008179534,0.007787653,0.006896225
0.001757675,0.8255321,0.5841438,0.01015296,0.01001136,0.009414853
0.002995438,0.8243274,0.5797943,0.008933713,0.01467045,0.007306772
0.003395337,0.8215278,0.5774641,0.01054786,0.01104909,0.007315284
0.002276919,0.8243745,0.5806323,0.01011229,0.005830782,0.005092584
0.002687077,0.8311753,0.5853022,0.006133114,0.01116683,0.002682311
0.003327677,0.8338834,0.5824999,0.001161411,0.01426775,0.004466376
0.002177248,0.83232,0.5809245,-0.003655367,0.01150704,0.004280519
0.003260236,0.826928,0.5864643,-0.004045969,0.007052728,0.001726398
0.003778521,0.8227619,0.5902201,0.001347045,-0.004979169,-0.004180417
0.004033472,0.8296397,0.5909011,0.006399248,-0.01080611,-0.01154836
0.00474693,0.8375505,0.5832108,0.005593528,-0.0002199346,-0.009298924
0.002387785,0.8358691,0.5753712,-4.678653e-05,0.006640387,-0.004808467
-0.001928179,0.8350223,0.5846587,-0.006843156,-0.001173774,-0.007370442
-0.007051203,0.8372006,0.5930438,-0.01230958,-0.007058043,-0.007212425
-0.005856586,0.8352773,0.5877159,-0.01518331,-0.003204668,-0.005392269
-0.002018498,0.8329715,0.584805,-0.01288285,-0.003188435,-0.002876935
-0.004995185,0.8322181,0.5853684,-0.007145885,-0.005734933,0.005215163
-0.003808449,0.8328912,0.5847694,-0.005009183,-0.004204883,0.007863792
0.001448506,0.8359555,0.5894084,-0.003160869,-0.004786212,0.006592527
0.003164371,0.8349691,0.5933446,0.0008667153,-0.003939944,0.008811497
0.003684239,0.833139,0.5905498,0.0013806,0.0001440458,0.007906768
0.001987293,0.8326501,0.589481,0.004241763,0.003492992,0.006040009
0.002683983,0.8272255,0.5901264,0.01168712,0.005430241,0.001731633
0.003777759,0.8248513,0.5874263,0.01530437,0.004571815,-0.005822371
0.002728679,0.8258656,0.5842852,0.01498779,0.005312895,-0.008257628
0.004069681,0.8265694,0.5841591,0.01177328,0.004092274,-0.009572328
-9.409166e-05,0.8314622,0.5854924,0.00637606,-0.0004755925,-0.007016659
-0.005100426,0.8330436,0.5854211,0.003953722,0.0009028937,0.0009998358
-0.003218982,0.8313825,0.5860049,0.004131396,0.003622584,0.0009551795
-0.003148079,0.8320925,0.5848172,0.002159878,0.005114666,-2.388944e-05
-0.00436993,0.8319394,0.5794383,-0.001941482,0.004010275,0.003465562
-0.005762927,0.8315699,0.5770901,-0.005908497,-0.0005642309,0.002081428
-0.007289749,0.8302008,0.5805976,-0.008542334,0.002213919,0.003418756
-0.004118942,0.8283469,0.5853394,-0.008121229,0.003511741,0.00482466
-0.0006239079,0.8282017,0.5866274,-0.007118737,-0.001874557,0.0009130823
-0.001130333,0.8277783,0.5874642,-0.005668324,-0.003071298,0.0009995166
-0.0013352,0.8280886,0.5899247,-0.001689348,-0.004079269,0.0001439191
0.001748013,0.8305855,0.5883566,-0.002065883,-0.003279906,0.0006247159
0.00450902,0.832449,0.5852676,-0.004351764,0.0005981633,0.004108576
0.004364387,0.8301874,0.5830884,-0.001533092,0.001766128,0.001682211
0.002296707,0.8271637,0.5821775,0.001789864,0.001316368,0.001114359
-0.001132511,0.8276414,0.5844176,0.005063715,0.0002799352,0.0003452126
-0.00372947,0.828632,0.5857132,0.00502258,0.003525039,-0.00522753
-0.003201584,0.8302256,0.5910205,0.001951545,0.007894168,-0.007637022
-0.002018567,0.8328336,0.5971724,0.003575748,0.008121031,-0.00403293
-0.00308545,0.8323191,0.5923822,0.00389558,0.009209981,0.003736203
-0.003047387,0.8312185,0.5891796,0.003970754,0.009109914,0.003692248
-0.002234305,0.8321553,0.5902703,0.006375373,0.003681263,0.0001966025
-0.003035624,0.831682,0.5858738,0.003935003,-0.002670225,0.005405243
-0.001778676,0.8325915,0.5842556,0.003338674,-0.00247806,0.007424687
-0.000891663,0.8357877,0.5846838,0.004224381,0.0007634249,0.006487298
-0.002210057,0.8347491,0.5840277,0.00054873,0.003614643,0.007451548
-0.003923276,0.8319361,0.5864354,-0.002717862,0.01009929,0.005850918
-0.006435501,0.8310114,0.5863043,-0.004066282,0.0122255,0.009176292
-0.005010284,0.8300639,0.585621,-0.000561429,0.00732086,0.01288195
-0.0003436079,0.8307317,0.5866957,0.003756398,0.002654091,0.01051305
0.00225974,0.8318017,0.5856937,0.00363298,0.003828247,0.00985698
0.001983948,0.8318371,0.5861896,0.006694894,0.01118221,0.00545208
0.000583212,0.8322336,0.5865423,0.01133868,0.01375931,-0.001712253
0.001063998,0.8321555,0.5869356,0.0119086,0.01463952,-0.0006887371
-0.0008829353,0.8336171,0.5899476,0.01125825,0.01656579,0.001587267
-0.00422163,0.8357191,0.5902038,0.01108147,0.008626582,0.0004483024
-0.002667643,0.835577,0.5873694,0.008610709,0.001296879,0.00106914
-0.00237495,0.8357124,0.5839719,0.003976889,0.006566306,0.002870817
-0.004269352,0.8347124,0.5817481,0.003127308,0.01010613,0.003711821
-0.003784305,0.8322951,0.5799762,0.004537752,-0.0002597378,0.004539678
-0.002474436,0.8319373,0.5791067,0.004082937,-0.00801632,0.005095378
-0.0002888464,0.8307845,0.5827294,0.003010807,-0.002836631,0.00629875
0.001618931,0.8299139,0.5832486,0.00049919,-0.0008178808,0.008998411
0.002990324,0.8325254,0.5814245,-0.001725103,-0.001118241,0.008321967
0.003647543,0.8323261,0.584437,-0.00100596,0.005331265,0.006999964
0.003059334,0.8292309,0.5849455,0.0001596615,0.01019191,0.007735145
0.004296243,0.8284838,0.5863567,0.0006522258,0.008413702,0.00500534
0.003643482,0.8264878,0.5916594,0.00405113,0.004255544,0.001581759
0.0008580387,0.824428,0.5914664,0.008285536,0.002204187,-0.0005133903
0.001433854,0.8269091,0.5871795,0.007232399,0.003084954,-0.0003853147
0.00173407,0.8299308,0.5815585,0.0057853,0.003715488,0.001015286
0.001980484,0.8317723,0.5786498,0.006902981,-0.001477448,-0.003042009
0.002487879,0.8350265,0.5803288,0.004631296,-0.006367985,-0.006077088
-0.001810968,0.8381268,0.5791483,-0.0003019533,-0.001850703,-0.003836731
-0.005512861,0.837642,0.5795292,-0.002870316,0.001165862,-0.001049984
-0.003574908,0.8356972,0.5852418,0.001604043,-0.003404248,0.004410186
-0.001653647,0.8344187,0.5888068,0.007642603,-0.007976527,0.008509557
-0.003076418,0.8326351,0.587347,0.00346234,-0.009626307,0.00678842
-0.0032189,0.833117,0.5829895,-0.002600091,-0.007110419,0.006173655
-0.002130137,0.8337778,0.5813202,-0.002047571,-0.004059442,0.008250906
-0.003171736,0.8319426,0.5828548,0.0002020796,-0.005378859,0.008034633
-0.002275425,0.8318047,0.5824686,0.003605591,-0.006932578,0.006983781
0.000442125,0.8318539,0.5772788,0.0007789946,-0.005050106,0.004901996
0.002646859,0.8309166,0.5716452,-0.00714206,0.001231959,0.001306667
0.003868511,0.8299462,0.5762792,-0.007339853,0.011106,0.003880764
0.00273263,0.8275847,0.5856983,-0.001502819,0.01411101,0.007514254
0.002218309,0.8269289,0.5887767,0.0071125,0.00963809,0.00417408
-0.0003029426,0.8315626,0.5878715,0.009921497,0.006847391,0.0006566191
-0.003491818,0.8382087,0.58523,0.004710858,0.002912792,-0.002499643
-0.003409422,0.8397019,0.5832675,0.003613561,0.003935012,-0.003029536
-0.005756909,0.8387008,0.5816426,0.001482468,0.009990019,0.00201424
-0.004790447,0.8369588,0.5810194,-0.002164321,0.008518569,0.003322939
-0.0009501253,0.831489,0.5829407,-0.002658981,0.01134529,0.000723871
-0.003204374,0.8325298,0.5818485,-0.006824916,0.01985997,-0.001771391
-0.003359972,0.8362029,0.5830444,-0.01088857,0.01722016,-0.003787599
-0.001923225,0.8334989,0.5884006,-0.01180199,0.0005645493,-0.004613131
-0.003376492,0.8340047,0.5911663,-0.01231655,-0.01670269,-0.008741968
-0.002800284,0.8337304,0.5917715,-0.01327459,-0.01090413,-0.0122739
-0.003463544,0.8321885,0.586953,-0.01417668,-0.000621027,-0.008316101
-0.004806707,0.8343782,0.5853247,-0.01345084,-0.008020927,-0.002604179
-0.003947443,0.8329493,0.5975219,-0.01376642,-0.00770865,0.0004612897
-0.004121861,0.8328138,0.6073313,-0.01202268,-0.006161254,0.002829305
-0.004290916,0.8332034,0.5997699,-0.004396476,-0.01152703,0.001560018
-0.003343307,0.8309097,0.5897627,0.002639751,-0.008390532,-0.003567826
-0.0006665738,0.8322708,0.590547,0.0004717099,-0.009153468,-0.005739116
0.002522728,0.8318108,0.5850521,-0.005525878,-0.007839347,-0.008208006
0.001975724,0.8296795,0.5778235,-0.004423994,-0.002218174,-0.01040664
0.001446874,0.8294598,0.5826018,-0.003494816,-0.006253431,-0.009839475
0.002771251,0.830415,0.5811466,-0.001250635,-0.008907319,-0.01489654
-0.0005633859,0.8331861,0.5803565,0.005682856,-0.01480419,-0.01444722
-0.003963114,0.8331299,0.5875592,0.004133379,-0.02034929,-0.00546564
-4.829023e-05,0.833765,0.5878196,0.001683135,-0.009830288,-0.003634789
0.002600645,0.8358042,0.5875674,0.003376106,0.0005723609,-0.006785172
-0.000741267,0.834299,0.587605,0.001784596,-0.001111906,-0.01041045
-0.002348032,0.8341759,0.5867767,0.002077826,-0.01161086,-0.005913205
-0.0007566455,0.8334044,0.5871966,0.001895648,-0.02016433,0.000875214
0.0006048365,0.830968,0.5841771,-0.001719845,-0.0171841,-0.003190808
0.001287497,0.8310569,0.5835801,-0.006436361,-0.01255258,-0.001771538
-0.000226839,0.8279109,0.5835087,-0.01055389,-0.01313407,0.001427332
-0.003190529,0.8236153,0.5832475,-0.01025781,-0.01216714,-0.003249784
-0.002679512,0.8263829,0.5866764,-0.009405869,-0.009359303,-0.004092971
0.0004395488,0.8296165,0.5879523,-0.009118929,-0.009417681,-0.00405186
0.001915133,0.8285815,0.5875983,-0.006601113,-0.00819271,-0.005230428
0.001695419,0.8307127,0.586342,-0.00402117,-0.006393785,-0.006378129
0.0009820793,0.8333588,0.5856743,-0.002537636,-0.008059517,-0.006205158
0.001432008,0.831477,0.5859723,-0.003027523,-0.008770536,-0.002776648
0.001695389,0.8319957,0.5834863,-0.004694215,-0.008685475,-0.002569735
0.0009986991,0.8343166,0.5830403,-0.005428288,-0.008611041,-0.004164034
0.001608006,0.8347962,0.5854006,-0.004254413,-0.008805271,-0.005660016
0.0009059689,0.835117,0.5874232,-0.002203739,-0.00980665,-0.005829558
-0.001551004,0.833512,0.5896298,-0.002935458,-0.009674505,-0.0008850343
-0.003282608,0.8302032,0.5917492,-0.005446978,-0.01040561,0.003192851
-0.002601916,0.8276612,0.5911836,-0.006232861,-0.01077205,0.001119862
0.00146079,0.8312987,0.5854119,-0.00712014,-0.008878765,-0.00229966
0.003686467,0.8373697,0.580065,-0.01093152,-0.003111376,0.0002523226
0.002332794,0.8347614,0.5805074,-0.01506302,0.00553909,0.004495023
-0.0001842753,0.8319997,0.5855971,-0.01478921,0.01058505,0.007120818
-0.002214491,0.8298641,0.5890863,-0.01047424,0.01441421,0.008616042
-0.001094408,0.8225531,0.5873873,-0.004880707,0.01443634,0.002908269
0.00095485,0.8242765,0.5866293,0.001670709,0.009407313,-0.001318309
0.002550231,0.8290242,0.5861431,0.007941901,0.01128975,0.001128593
0.003348377,0.8268672,0.5840282,0.009877823,0.01309046,0.002535544
0.002498266,0.8286114,0.5846601,0.008702125,0.01073594,0.004593233
0.002726358,0.8309217,0.5860821,0.0101843,0.01470647,0.005718599
0.0029881,0.8318755,0.5861744,0.009675331,0.01712357,0.005788824
0.002576098,0.8332322,0.5862907,0.003948364,0.01710867,0.006519372
0.002172671,0.8322469,0.5870282,0.001994161,0.0188247,0.006108612
-0.0008052946,0.8354951,0.5880837,0.003448405,0.01407348,0.008302141
-0.003920176,0.8361798,0.589047,0.002291669,0.007129347,0.0108519
-0.003138457,0.8289373,0.5892426,0.001156102,0.003228398,0.01045236
-0.00181799,0.8259035,0.5886001,0.00275622,0.002457963,0.01048471
-0.002270672,0.8311104,0.5885334,0.00444198,0.005326024,0.01265183
-0.0009255123,0.8372437,0.5869412,0.003655548,0.008943282,0.01520474
0.001137661,0.8340541,0.5832125,0.004592288,0.01306588,0.01508416
0.002936256,0.8304189,0.5817794,0.008696899,0.01215306,0.01347951
0.007070988,0.8338907,0.5843525,0.01098542,0.008029209,0.01169035
0.009304171,0.8324016,0.5867883,0.01017487,0.008324495,0.009751339
0.007808648,0.8311917,0.5837025,0.008494023,0.008394285,0.008885399
0.005386396,0.8330166,0.5802553,0.008713262,0.009953725,0.00645166
0.003397353,0.8331311,0.5822123,0.009864723,0.0140665,0.00400262
0.003306579,0.8352567,0.5825814,0.01034882,0.01339061,0.004484215
0.001032804,0.8331702,0.5801193,0.009271075,0.007495229,0.001871079
-0.002765415,0.83062,0.5780511,0.004514174,0.002054064,9.249875e-05
-0.001954516,0.8328293,0.5775678,-9.832638e-05,0.00429853,0.004123148
-0.001349635,0.8332135,0.5840205,-0.002081191,0.008024858,0.003873419
-0.003572939,0.8325697,0.5887569,-0.002541262,0.006030551,0.003813169
-0.002279517,0.831032,0.5871882,-0.00188606,0.005550707,0.006226261
0.001468881,0.8313343,0.5895129,-0.002054623,0.004244923,0.00200528
0.003334022,0.8330077,0.588488,-0.001878273,0.0013457,0.002002428
0.003316659,0.8312174,0.5851076,-0.001260956,0.002787583,0.004914515
0.002214789,0.8301661,0.5879508,0.0001187011,0.001583939,0.003076572
0.002764597,0.8272857,0.5884552,0.002784927,-0.002965493,0.004657334
0.003277793,0.8243214,0.5879624,0.002842167,-0.004072907,0.003821429
0.002030127,0.8307489,0.5851185,0.002473858,-0.0005687315,0.001527227
0.002159481,0.8375759,0.5797021,0.003370759,0.003553948,0.004124327
0.001252008,0.8365484,0.5828513,0.002701079,0.00103515,0.004675706
0.0008595213,0.83481,0.5878224,0.002935132,-0.001472134,0.004467202
0.002062642,0.8338028,0.5910362,0.005410511,0.0004455987,0.002827354
0.0009978186,0.8312137,0.5923283,0.007860342,-0.002241769,-0.0009368136
0.001891154,0.8311402,0.5864015,0.008038859,-0.004092882,0.0005614503
0.004422095,0.8319349,0.5831647,0.006571553,0.0006160996,0.005207461
0.005564377,0.8306147,0.5849177,0.005624254,0.003388454,0.007039296
0.004431668,0.8337918,0.5839805,0.001541546,0.0003288192,0.0053822
0.001494226,0.8379504,0.5792046,-0.005495212,-0.002487806,0.002217498
0.001862685,0.835967,0.574605,-0.007668201,0.0003094902,0.0006196837
-0.0008890635,0.8352233,0.5759992,-0.005790801,0.001736328,0.002046824
-0.005648721,0.8357276,0.5789392,-0.005572914,-0.001141814,0.005584178
-0.0005375562,0.8332704,0.5828283,-0.005238903,-0.000879112,0.008455541
0.004677967,0.8328654,0.5891459,-0.002064719,0.00252911,0.007277735
0.003453291,0.8335148,0.5861146,0.0009437231,0.00552707,0.003724569
0.003970253,0.832311,0.5803793,0.0005194097,0.004263736,0.001174704
0.003856429,0.8316385,0.5829963,9.359264e-09,0.000706021,-0.001859937
-0.0006885,0.8319292,0.5789829,0.002177305,0.000732469,-0.00177913
-0.004137299,0.8322558,0.572248,0.00260202,0.0008053635,0.001666532
-0.003058994,0.8327639,0.5772666,0.002098275,0.001169621,0.0005365871
-0.002014959,0.8335775,0.5802225,0.005029599,0.003452634,0.001279579
-0.003159908,0.8335254,0.5780642,0.005439265,0.003481284,0.005136991
-0.002924459,0.8328711,0.5804652,0.002023958,0.0001077869,0.002165327
-0.001666771,0.8329251,0.5829042,0.0003041495,-0.004450465,0.001184586
0.000481407,0.8331704,0.5836546,-0.00350317,-0.003384213,0.001796397
0.003925348,0.8332007,0.5860051,-0.006263018,0.000304641,-0.002696459
0.003563079,0.831622,0.5893952,-0.003372648,-0.0003280361,-0.001128164
0.002566076,0.8293595,0.5894147,-0.002733414,-0.001024381,-0.0009163676
0.00488031,0.8291641,0.586256,-0.001836298,-0.001657853,-0.006313238
0.003491813,0.8299383,0.5831637,0.001445597,-0.001367483,-0.005908525
0.001728663,0.8335292,0.579583,0.002104994,-5.240355e-05,-0.003598264
0.003193384,0.837622,0.5815412,0.002143746,0.0006176121,-4.875676e-06
0.00181516,0.8350803,0.5854977,-0.0008673374,0.003531461,-0.0001066427
0.0004913386,0.8317196,0.5835918,-0.004363375,0.001898341,-0.003146837
-0.0001299663,0.8319715,0.5852026,-0.004404923,-0.004947,-0.001105789
-0.002028737,0.8320016,0.589503,-0.005473351,-0.01077026,-0.004779063
-0.001568245,0.8328733,0.5911474,-0.005413828,-0.01248413,-0.007294195
-0.000620897,0.8335471,0.5918328,-0.005303159,-0.004793618,-0.003796455
0.0001542643,0.8321717,0.588972,-0.007039256,0.0004321542,-0.004288199
0.001940076,0.8305502,0.5871523,-0.007660604,-0.005126342,-0.002492524
0.0017204,0.8293347,0.5868291,-0.007488495,-0.00861819,-0.002599131
0.00086739,0.8293367,0.587658,-0.004981379,-0.006400346,-0.007390783
0.001796031,0.8311272,0.5917779,-0.002908138,-0.005554943,-0.008528263
0.002414831,0.8332645,0.5891838,-0.003908868,-0.006893349,-0.005945063
0.002744981,0.8327432,0.5845847,-0.00432212,-0.006057172,-0.001638757
0.003133548,0.8298755,0.5853655,-0.003517142,-0.00610559,-0.001024468
0.002509075,0.8280992,0.5864706,-0.002477546,-0.006832098,-0.004984683
0.002754423,0.8286831,0.5909423,-0.001896803,-0.003729731,-0.009124913
0.00303639,0.8321914,0.5921822,-0.001278871,-0.003661759,-0.01018137
0.002471366,0.8349618,0.585668,-0.001793991,-0.00870493,-0.009575801
0.002960053,0.8342976,0.5794793,-0.004957002,-0.01297549,-0.01068335
0.002792087,0.8337939,0.5755213,-0.006650216,-0.01054008,-0.009274866
0.002424832,0.8325476,0.5775392,-0.004436297,-0.004964401,-0.007440913
0.002116653,0.832017,0.5821058,-0.001922775,-0.00600276,-0.00636067
0.0009353061,0.8341002,0.5825341,-0.003616827,-0.007303794,-0.00557399
0.001343423,0.8334226,0.5825202,-0.006115761,-0.008138076,-0.01043923
0.001840372,0.8328004,0.5852299,-0.005411433,-0.0126995,-0.01068358
0.00203336,0.8338671,0.5887244,-0.005206002,-0.01438319,-0.005423807
0.003167356,0.8330499,0.5869921,-0.004594192,-0.01421045,-0.004069109
0.002893799,0.8333196,0.5843881,-0.003482914,-0.01349411,-0.0005095435
0.002490885,0.8333772,0.5850275,-0.003746817,-0.01346281,-0.0005495884
0.0029709,0.8321512,0.5828411,-0.002868812,-0.01419134,-0.005148298
0.003109823,0.8319003,0.5828226,-0.002796993,-0.01298807,-0.005128128
0.004477621,0.8317411,0.585165,-0.00322905,-0.01307438,-0.007571938
0.005848567,0.8321099,0.5844607,-0.003990921,-0.01080565,-0.007448157
0.003927231,0.8319796,0.584813,-0.007837887,-0.006521889,-0.001563263
0.001806489,0.831739,0.5848866,-0.009849125,-0.002830441,0.001864439
0.002998364,0.8321877,0.5847458,-0.007446762,0.001179139,0.005021408
0.004472492,0.8319692,0.5873651,-0.003035804,-0.001938529,-0.001809311
0.005816199,0.8328441,0.5905638,0.003315432,-0.005618734,-0.01207625
0.007192036,0.8337261,0.5921236,0.008399059,-0.003426685,-0.008066719
0.00439852,0.8330879,0.5890754,0.006527304,-0.005171996,-0.006899051
0.001410489,0.8325573,0.5856853,0.001531182,-0.007286934,-0.01039637
0.002892037,0.8326025,0.5859384,-0.001376689,-0.003485562,-0.007495253
0.002595353,0.8335116,0.5844762,-0.005055296,-0.000637805,-0.00621156
-0.001301616,0.8339851,0.5830883,-0.004771276,-0.001831343,-0.002156778
-0.003685985,0.8347962,0.5837282,-0.001101403,-0.002114895,0.00526603
-0.002558472,0.8364145,0.5832369,-0.002153444,-0.0005611237,0.007007608
0.0005024354,0.8342709,0.5841669,-0.001967519,0.001260764,0.00766498
0.001984229,0.8304141,0.5853076,0.0001654449,0.004580811,0.009431788
0.002375668,0.830134,0.5844914,0.002251739,0.005373316,0.008115913
0.005817096,0.8309808,0.5845109,0.006946596,0.002633114,0.004043561
0.0106043,0.8313811,0.5839757,0.01008668,-0.001914126,0.0004753322
0.009975501,0.8322177,0.5834388,0.01749623,-0.01813067,0.0004109797
-0.019628,0.7013173,0.7346188,0.03559272,0.02225792,0.2734973
-0.01886778,0.7045092,0.7369207,0.03204231,0.033467,0.2725922
-0.01942199,0.7054634,0.7391508,0.03091203,0.03392063,0.2647614
-0.01958875,0.707171,0.7403065,0.02862143,0.02968746,0.2574115
-0.01975262,0.7072463,0.7402352,0.02267501,0.03033252,0.2581247
-0.01994605,0.7034867,0.7377561,0.02391805,0.03321688,0.251906
-0.02150788,0.7020975,0.7389928,0.02682425,0.0278788,0.2487938
-0.02076987,0.7028834,0.7391814,0.02869433,0.02734462,0.2475382
-0.01976927,0.7028032,0.7362942,0.02458059,0.02856178,0.2390364
-0.01772516,0.702518,0.7360674,0.01752991,0.03055001,0.2385593
-0.01490209,0.7008201,0.7364062,0.02139215,0.03854438,0.2389607
-0.02052609,0.6999032,0.7395692,0.02829944,0.02813876,0.236736
-0.02705308,0.7016469,0.7449563,0.03179721,0.0108678,0.2348814
-0.02474777,0.7035317,0.7446302,0.03008849,0.004904734,0.227308
-0.02073353,0.7030183,0.7352954,0.02562242,0.009217745,0.2258891
-0.01801362,0.7021362,0.725814,0.02776222,0.02721533,0.2254591
-0.01572284,0.7030332,0.7314163,0.02925468,0.0362406,0.22239
-0.01739293,0.7020753,0.7395366,0.02811268,0.03030893,0.222594
-0.01915526,0.7021869,0.7356273,0.0267475,0.02614926,0.2171779
-0.01837547,0.7060691,0.7307756,0.02142338,0.03254345,0.2151495
-0.02244498,0.7070672,0.7258383,0.01859879,0.03706724,0.214418
-0.02647692,0.7034183,0.7256789,0.01808827,0.02181361,0.2095012
-0.02162088,0.6999289,0.7345686,0.01472359,0.01362881,0.2097209
-0.0129151,0.7013008,0.737477,0.01163505,0.02708569,0.205419
-0.008437713,0.7032914,0.7360588,0.01226893,0.03773483,0.1984297
-0.01415741,0.7022918,0.7358315,0.01499087,0.0304968,0.1938202
-0.02213257,0.7029989,0.7345076,0.01636779,0.01241759,0.1899963
-0.02122261,0.7027981,0.7330971,0.02036653,0.004698819,0.1908566
-0.01904922,0.7014099,0.7301783,0.02288174,0.01727131,0.1883051
-0.01975757,0.7014045,0.7314266,0.0134884,0.04382158,0.1860093
-0.01956041,0.6999778,0.7349306,0.004515299,0.05136884,0.1879546
-0.02123198,0.6991504,0.7357272,0.01050829,0.02997648,0.1908249
-0.02264516,0.6994896,0.7375189,0.01619214,0.01641891,0.1937797
-0.02033675,0.7012371,0.7368544,0.009074431,0.01800185,0.1881169
-0.01905343,0.7038478,0.7363404,0.005984779,0.02708774,0.1847897
-0.02120095,0.7034029,0.7371557,0.008654981,0.03380997,0.1857694
-0.02240065,0.702081,0.7357055,0.005262555,0.03177482,0.1821367
-0.01847519,0.6997997,0.7369115,0.001162194,0.03444548,0.1814563
-0.01419778,0.6968826,0.7420314,-0.002095899,0.03645473,0.1716903
-0.01555459,0.6970481,0.7505173,0.001838179,0.03320812,0.157631
-0.01854749,0.6983366,0.7544474,0.01056636,0.02682638,0.1537194
-0.01989754,0.6989332,0.747538,0.006494727,0.02401962,0.1499114
-0.01980202,0.6985786,0.7413331,0.0006819083,0.03609942,0.1539104
-0.01897629,0.6984443,0.7401289,0.0009081849,0.05292018,0.1638677
-0.01993416,0.6986491,0.7391444,0.00138182,0.06055994,0.1663582
-0.02179948,0.6975596,0.7411222,0.01023077,0.04877837,0.162911
-0.02421985,0.6975348,0.7453612,0.02471405,0.02748443,0.1563455
-0.02599384,0.700388,0.7440803,0.0361128,0.01016577,0.1544214
-0.02476547,0.7055023,0.7379972,0.03871549,-0.0004277896,0.1569881
-0.02393471,0.7094165,0.7310239,0.02751861,0.007228328,0.1600103
-0.0219213,0.7100872,0.7251365,0.01637876,0.01352543,0.1573091
-0.01804122,0.7091691,0.7267897,0.01725247,0.008967726,0.1475248
-0.01886189,0.7057076,0.7325848,0.01574733,0.01175542,0.1421063
-0.01958046,0.7020383,0.7380132,0.00661502,0.01265406,0.1354934
-0.01728108,0.7010419,0.7434626,0.004189358,0.01442316,0.130906
-0.01888266,0.6997599,0.7433009,0.006251686,0.01959996,0.1371282
-0.02032297,0.6979505,0.7416844,0.008652434,0.01763101,0.1402683
-0.01897071,0.6969066,0.742753,0.014151,0.01715399,0.1382466
-0.01948273,0.6920413,0.7456388,0.01880661,0.01608578,0.1373648
-0.01858542,0.6866124,0.7478701,0.03102395,0.009823282,0.1420502
-0.01381872,0.6945688,0.7366229,0.04819154,-0.001819204,0.1514794
-0.009487439,0.7050373,0.7241386,0.05107478,-0.01157453,0.1524625
-0.009508672,0.7024449,0.7299268,0.04387837,0.007927649,0.1405994
-0.01154708,0.7040195,0.7358837,0.03191449,0.03214369,0.1245548
-0.01428637,0.7117973,0.7347688,0.01510846,0.0196287,0.1179326
-0.02145094,0.7122531,0.7382376,0.009419913,0.008230782,0.1197752
-0.02380776,0.7101284,0.7377412,0.006276258,0.01531813,0.1178819
-0.01735793,0.7059721,0.7345414,-0.008706849,0.01105601,0.1133065
-0.01537305,0.7026963,0.7388884,-0.0107677,0.01013362,0.1090486
-0.01578056,0.7016142,0.7407139,-0.002413292,0.01360775,0.1055806
-0.01315741,0.6989467,0.7397477,0.0004944958,0.008427865,0.1047874
-0.01216339,0.7028584,0.7407594,0.01069909,0.01044353,0.1061513
-0.01334244,0.7054243,0.7389111,0.01580959,0.01058757,0.1063964
-0.01532802,0.7005227,0.7379521,0.01182438,0.009172972,0.1010384
-0.01352455,0.6995911,0.7353989,0.009668194,0.01638005,0.09169568
-0.007911311,0.7011338,0.7309801,0.00402493,0.02165985,0.08501488
-0.004716826,0.7036522,0.7320067,-0.0002031243,0.0267098,0.08492933
-0.007524967,0.7046342,0.7341823,-0.003308183,0.0252944,0.08536616
-0.01177094,0.701859,0.7345456,-0.003083395,0.02346968,0.08199126
-0.009876635,0.7016311,0.7317002,-0.001325582,0.03100832,0.07926544
-0.01136177,0.7038131,0.7272091,-0.004815342,0.03081925,0.07656754
-0.01908032,0.7066354,0.7283852,-0.003721374,0.0251347,0.0764482
-0.02214469,0.705626,0.7328495,-0.003095253,0.0203565,0.07940078
-0.0226422,0.702694,0.7345622,-0.002910831,0.01892812,0.07790613
-0.02074742,0.7030646,0.7344712,-0.001364232,0.01912225,0.0758921
-0.01682009,0.7027281,0.735108,-0.006397426,0.01325689,0.07687048
-0.01374162,0.7047818,0.7346837,-0.007995417,0.01518702,0.07745869
-0.01113965,0.7074216,0.7341895,-0.008689024,0.01905658,0.07610681
-0.01287973,0.7067966,0.7343057,-0.01084154,0.01509322,0.07059488
-0.01402932,0.7065934,0.7327638,-0.006667935,0.01276081,0.0653322
-0.01316522,0.7037705,0.7333775,-0.002516468,0.008387812,0.06160971
-0.01363415,0.7001241,0.7352692,0.000163517,0.01143277,0.05716284
-0.01193309,0.6993862,0.737178,-0.0002659132,0.01916176,0.05871774
-0.01293482,0.7000634,0.7397154,-0.004343676,0.01501839,0.06155764
-0.01693136,0.7007505,0.7372431,-0.003978822,0.0123457,0.05686028
-0.01944181,0.7015296,0.7348119,-0.001899278,0.01323427,0.05335999
-0.02040154,0.7042064,0.7365434,-0.004368249,0.01120164,0.05378526
-0.01828554,0.7037483,0.7348738,-0.009213968,0.01283068,0.05098038
-0.01664502,0.7003949,0.7286074,-0.01320381,0.01844894,0.04810269
-0.01597401,0.6986979,0.7244874,-0.01139616,0.02400681,0.04751608
-0.01875903,0.6973781,0.7315874,-0.00233741,0.01956422,0.04801662
-0.02420673,0.7012561,0.7416855,0.001948443,0.005883404,0.0565812
-0.01930313,0.7063102,0.7395576,-0.003386704,0.00142777,0.06467933
-0.01021103,0.7040419,0.7366962,-0.00772881,0.01844005,0.05284057
-0.008153263,0.7022448,0.7384406,-0.004630128,0.04114802,0.03879699
-0.01299416,0.7026033,0.7353135,0.00232181,0.0349029,0.04329591
-0.02308036,0.6989476,0.734576,0.006607977,0.007223148,0.04537553
-0.02510336,0.6966967,0.7336713,0.005834449,-0.005899188,0.04119503
-0.01886825,0.7007449,0.726633,-0.002920486,0.00508491,0.04321012
-0.01446033,0.7043692,0.7231957,-0.01170124,0.02512332,0.03938271
-0.01187337,0.7030812,0.7234734,-0.009488008,0.02617291,0.03594641
-0.01671252,0.7028063,0.7344538,-0.006322187,0.0176489,0.03923664
-0.0219126,0.7045176,0.7498971,-0.002988793,0.01346223,0.03821222
-0.01814124,0.7015906,0.7423276,0.004077431,-0.005309055,0.04122713
-0.01426041,0.6985371,0.7335166,0.001972464,-0.01407806,0.04393987
-0.01173012,0.7004626,0.7411768,-0.006641175,0.002945781,0.03616544
-0.01073147,0.7020029,0.7386771,-0.00719194,0.0215013,0.02558146
-0.01252602,0.7047506,0.7352162,0.003278046,0.02726682,0.01924493
-0.0142976,0.7084209,0.7402659,0.01710387,0.003621257,0.02187369
-0.0174004,0.7074798,0.7385501,0.02211885,-0.01838071,0.02258358
-0.01671762,0.7077192,0.7381296,0.01813348,-0.004289237,0.01725993
-0.01494536,0.7099666,0.7376123,0.01909163,0.004528661,0.01793727
-0.02201832,0.7075017,0.7326763,0.02468729,-0.01053717,0.02577287
-0.02724095,0.7035676,0.7315659,0.02627557,-0.01576303,0.03433901
-0.02379207,0.7006872,0.7276856,0.02688518,-0.01008581,0.0309274
-0.0213028,0.6995163,0.7223343,0.0227962,-0.01046622,0.02066546
-0.02042379,0.7045996,0.7225897,0.01602564,-0.006348037,0.01992681
-0.01810371,0.7110987,0.7275718,0.01543527,0.0002315185,0.02594118
-0.016664,0.7136509,0.7325148,0.01061696,-0.0001592926,0.03293079
-0.01489846,0.7143337,0.7298566,-0.0007042457,-0.0001743542,0.03099346
-0.01146833,0.7120811,0.7277076,-0.007439509,3.645452e-05,0.02383365
-0.01171125,0.7077048,0.7300019,-0.009428503,0.006294084,0.02236578
-0.01406416,0.7025933,0.72912,-0.01047786,0.02066407,0.01562024
-0.01370108,0.699908,0.7289605,-0.01167527,0.02928324,0.007526404
-0.0148615,0.702715,0.7304773,-0.01514344,0.02613544,-0.0006009213
-0.01264614,0.7035344,0.7304241,-0.02213099,0.02372984,-0.01154844
-0.007867553,0.7021748,0.7297747,-0.02725165,0.0343219,-0.008668223
-0.01322171,0.7037533,0.7295239,-0.02781732,0.03860315,-0.004120018
-0.02212792,0.7063623,0.7325976,-0.02616946,0.02527341,8.715386e-05
-0.02587228,0.7085541,0.736136,-0.01866976,0.009398676,0.01632302
-0.02233819,0.7053806,0.7345849,-0.004354005,0.003458816,0.0210365
-0.01566359,0.701231,0.7313845,0.004114323,0.0118001,0.01477684
-0.01705941,0.7055296,0.7283906,-0.002430906,0.01792505,0.0131588
-0.01897549,0.7087459,0.7259618,-0.008234825,0.01722705,0.01149448
-0.02145391,0.7068795,0.7304811,-0.005223511,0.01621293,0.01231649
-0.02881342,0.709322,0.7355659,-0.00706162,0.005575917,0.01814767
-0.02469435,0.7119487,0.7315346,-0.01013462,-0.005681243,0.02297171
-0.01623216,0.7083785,0.7270979,-0.01467583,-0.005896712,0.0165745
-0.01247047,0.7055689,0.726895,-0.02524838,-0.002784623,0.006594107
-0.005071767,0.7074441,0.7295216,-0.02298529,-0.002793,0.001034855
-0.004915921,0.7092561,0.7344745,-0.01391163,-0.001101031,-0.01264225
-0.01221611,0.7088812,0.7340493,-0.01516761,0.005215935,-0.02072577
-0.01690262,0.705608,0.731775,-0.01566556,0.007836533,-0.01244658
-0.02052518,0.7008263,0.7326657,-0.01393451,0.00698562,-0.008521773
-0.01960144,0.6999984,0.7319266,-0.01209184,0.001563129,-0.007245603
-0.01864772,0.6990201,0.7340881,-0.006162359,-0.003270726,-0.001404467
-0.02079599,0.6965565,0.7362375,-0.00326414,0.008094463,-0.002012877
-0.02186671,0.7024933,0.7339552,-0.003652274,0.02037598,-0.003420316
-0.02545389,0.7101935,0.7358081,-0.003841435,0.01559305,0.004322034
-0.02688272,0.7112036,0.7378943,-0.006281989,0.0003458522,0.01277042
-0.02386253,0.7113191,0.7365998,-0.01084855,-0.01107103,0.01739656
-0.01749677,0.7108205,0.7346637,-0.01476212,-0.005378834,0.01829385
-0.006994679,0.7100788,0.7296647,-0.01544418,0.009644115,0.01209106
-0.006103393,0.7094205,0.7278939,-0.01717154,0.01906949,0.0002163574
-0.01150798,0.7074843,0.7298174,-0.02068624,0.02069843,-0.009771073
-0.01197881,0.7068057,0.7291103,-0.02239683,0.01642026,-0.007146153
-0.01607409,0.7062915,0.728966,-0.02573185,0.01461951,-0.003789809
-0.01661935,0.7047924,0.7290225,-0.02597699,0.01924615,-0.0147809
-0.01148355,0.7011351,0.7272465,-0.02268472,0.02199987,-0.0205067
-0.0137067,0.6992594,0.7276856,-0.0234756,0.02125472,-0.01554252
-0.01723068,0.7040416,0.7352718,-0.02012118,0.01694869,-0.0134511
-0.02003116,0.707124,0.744131,-0.01394031,0.0105315,-0.01302324
-0.02088628,0.7064989,0.7417523,-0.014505,0.01171153,-0.01358984
-0.01817145,0.7077255,0.7370187,-0.01669251,0.01376192,-0.01176848
-0.02213317,0.7089305,0.7396072,-0.01776795,0.01047567,-0.008874284
-0.02522249,0.7081728,0.7388962,-0.01496954,0.01023307,-0.00804414
-0.02414289,0.7070576,0.7361876,-0.01180011,0.008734805,-0.004086696
-0.02391237,0.7068256,0.736038,-0.01671265,0.005760518,-0.003959334
-0.01962845,0.7058988,0.7337711,-0.0201204,0.01042853,-0.009573864
-0.01762772,0.704723,0.7333564,-0.01683256,0.01663903,-0.01355513
-0.01679162,0.7028321,0.7354125,-0.01437087,0.01709244,-0.01365062
-0.01531687,0.6997588,0.7375138,-0.01339115,0.01668398,-0.009223378
-0.0168659,0.7005577,0.7401145,-0.01013068,0.01598676,-0.007765044
-0.01504978,0.7030663,0.7430449,-0.006113928,0.01229325,-0.01100782
-0.01664767,0.7033111,0.7464326,-0.006533273,0.01020214,-0.01290267
-0.02093841,0.7044213,0.7421305,-0.007977451,0.01031887,-0.01173935
-0.02083546,0.7061169,0.7361763,-0.00737333,0.009500138,-0.0106427
-0.02277446,0.7060078,0.7402386,-0.009501164,0.007888639,-0.01597139
-0.02267969,0.7061523,0.7412101,-0.01494096,0.007210035,-0.02090942
-0.02142115,0.7083231,0.7374006,-0.02113304,0.009716711,-0.01982939
-0.02282315,0.7088471,0.7368716,-0.02286491,0.01226981,-0.01988587
-0.0220238,0.7077367,0.734335,-0.02282427,0.01166402,-0.02135847
-0.02190017,0.7076159,0.7306252,-0.03466985,0.01381712,-0.02209944
-0.02163863,0.7067102,0.7289344,-0.04861905,0.02577432,-0.02153049
-0.02008007,0.7066725,0.7304418,-0.04481566,0.03794199,-0.02030026
-0.02001841,0.7068129,0.737842,-0.03260634,0.03419155,-0.02006889
-0.01934223,0.7040124,0.7484578,-0.02124056,0.02129033,-0.0209134
-0.01933316,0.7003752,0.7519916,-0.01177676,0.009901175,-0.02450919
-0.02064188,0.6945591,0.7446728,-0.01202654,0.001715386,-0.02806761
-0.02098798,0.6891521,0.7405125,-0.005186331,0.006405667,-0.02687144
-0.02177134,0.6939668,0.7416442,0.0132438,0.01629365,-0.02000754
-0.02522598,0.7022598,0.738191,0.01368512,0.01494168,-0.01368909
-0.02895995,0.7015341,0.7362649,0.007953421,0.004747904,-0.01525073
-0.02695624,0.7016718,0.7381976,0.0118959,-0.009600844,-0.01778773
-0.02231307,0.7070016,0.7383242,0.005638001,-0.009566123,-0.01832816
-0.02220897,0.7073094,0.7374253,-0.005099256,0.007278994,-0.02223998
-0.0241143,0.7067445,0.73485,-0.01241038,0.01265133,-0.02209974
-0.02472467,0.7063581,0.7318434,-0.0189646,0.007879403,-0.01695754
-0.02185445,0.7020087,0.7317714,-0.01687907,0.003982455,-0.0180944
-0.01844081,0.6995967,0.7324835,-0.009729995,0.003891586,-0.02552275
-0.02303551,0.7023541,0.7338703,-0.001082702,0.004450326,-0.03073858
-0.02802974,0.7076066,0.7379373,0.002060906,-0.00435257,-0.02405085
-0.02584154,0.7077446,0.7411047,-0.004474438,-0.005971787,-0.01400664
-0.02415032,0.7053245,0.740749,-0.008619724,0.005293439,-0.01848196
-0.02355361,0.7050213,0.7391911,-0.01258684,0.01322979,-0.02323925
-0.02259613,0.7017771,0.739882,-0.01501437,0.006395971,-0.02167763
-0.02138446,0.7021119,0.7412523,-0.006596573,-0.004990258,-0.02567735
-0.019047,0.7040312,0.7392227,0.0007449649,0.002887881,-0.02479482
-0.02160658,0.7018636,0.7373514,-0.002191968,0.008587129,-0.02059767
-0.02572132,0.7029985,0.7358308,-0.006639178,0.004803829,-0.02077784
-0.02517869,0.7031384,0.7340327,-0.006547295,0.00526742,-0.02059447
-0.02624722,0.7021635,0.7344713,-0.005699407,-0.002553651,-0.02521581
-0.02735361,0.7038561,0.7331907,-0.005350915,-0.002351121,-0.03024101
-0.02562217,0.705183,0.7345943,-0.005440592,0.001405181,-0.03008675
-0.02614045,0.7077312,0.7369407,-0.007566254,-0.003390233,-0.02937198
-0.02503147,0.7071605,0.7319595,-0.01186276,0.001735834,-0.02826385
-0.02248323,0.7038483,0.7299681,-0.01728102,0.002271243,-0.02811218
-0.023965,0.7022314,0.7351713,-0.01422055,-0.001686979,-0.02794824
-0.02487564,0.6997363,0.7419072,-0.004831619,-0.002228847,-0.02730844
-0.02482079,0.6995465,0.7448346,0.0001819291,-0.008178862,-0.02609787
-0.02539065,0.7007366,0.7424713,0.004745513,-0.00924687,-0.024984
-0.024724,0.7003474,0.7427608,0.003787238,-0.008926606,-0.02844613
-0.02537293,0.7012109,0.7434308,-0.00237697,-0.007604512,-0.03131004
-0.02697794,0.7017682,0.7417256,-0.002336113,-0.002357337,-0.03055229
-0.02806763,0.7027503,0.7416037,-0.002302222,-0.0058397,-0.02878277
-0.02800264,0.7035398,0.7415417,-0.004938614,-0.01416756,-0.02437495
-0.02498282,0.7018166,0.7417782,-0.006298293,-0.01821971,-0.0222211
-0.01910808,0.701385,0.7415299,-0.006041092,-0.01014912,-0.02686245
-0.01427814,0.7013021,0.7405873,-0.0006337734,0.00419532,-0.03116551
-0.0203329,0.700795,0.7404144,0.005042462,0.005773897,-0.02971667
-0.03067634,0.7004202,0.740897,0.001819479,-0.001450064,-0.02966959
-0.03013141,0.6995008,0.7416543,-0.003383888,-0.006421214,-0.03403548
-0.02890363,0.7024464,0.7385373,-0.003441392,-0.005186671,-0.03639629
-0.03184903,0.7051962,0.7341336,-0.009694173,2.173037e-06,-0.03520589
-0.03121213,0.7037431,0.7354286,-0.01921563,0.002985015,-0.03027469
-0.03101131,0.7021,0.7395305,-0.01773823,0.002383173,-0.02333824
-0.02807022,0.699548,0.7406315,-0.01090669,-0.008479337,-0.01915371
-0.02302404,0.6981561,0.7397936,-0.006221713,-0.01818589,-0.01886803
-0.02477541,0.6985021,0.7405051,-0.006410098,-0.006208898,-0.01909568
-0.02608111,0.698628,0.7408242,-0.005500365,0.006656443,-0.01560683
-0.02422148,0.6988909,0.7416348,0.002144817,-0.0001819015,-0.01277695
-0.02403921,0.6986047,0.7430857,0.005398131,-0.01156079,-0.01596139
-0.01999348,0.7007337,0.7386799,0.005634655,-0.0159861,-0.02311086
-0.01584495,0.7029982,0.7341756,0.005508018,-0.008843967,-0.02796238
-0.02251423,0.7033938,0.735918,0.001305413,0.002444785,-0.02496606
-0.02940554,0.7055748,0.7353249,0.002314846,-0.002982519,-0.02066166
-0.02487612,0.7075151,0.7302874,0.001452863,-0.006856829,-0.02142009
-0.02058258,0.7074201,0.7280016,-0.008673144,0.007520861,-0.02328115
-0.0217245,0.7058576,0.7303465,-0.01425885,0.01196522,-0.02486484
-0.02395002,0.7042972,0.7349095,-0.0124041,0.003193135,-0.02474737
-0.03033698,0.7024218,0.7388173,-0.01003773,-0.003558038,-0.02174117
-0.0336823,0.7018643,0.7382136,-0.0104803,-0.004865226,-0.01857655
-0.0293231,0.7034035,0.7368872,-0.009199425,-0.004256264,-0.0144198
-0.02736803,0.7007231,0.7406644,-0.003587204,-0.009218157,-0.00990986
-0.02791835,0.699319,0.7435137,0.002858546,-0.007531936,-0.007760691
-0.02782212,0.702406,0.7448747,0.009755566,-0.007209198,-0.007866729
-0.02881535,0.7030611,0.7477122,0.01108922,-0.02238524,-0.01015365
-0.02880611,0.7030086,0.7442292,0.01084824,-0.0306928,-0.01134416
-0.02660032,0.7025352,0.7368252,0.0123079,-0.02369637,-0.01265516
-0.02388228,0.7028545,0.7347417,0.008307104,-0.01380062,-0.01580978
-0.02374591,0.7040958,0.7352129,0.00871603,-0.01034073,-0.0141885
-0.02396563,0.7041251,0.7339002,0.007712348,-0.001925001,-0.01155965
-0.02210093,0.7056401,0.7326828,-0.003993968,0.009159995,-0.01371472
-0.02214268,0.7065434,0.7344947,-0.01073528,0.004177075,-0.02034582
-0.02274897,0.7069414,0.739536,-0.01000648,0.005403563,-0.02728114
-0.02426418,0.7062311,0.7456277,-0.007960766,0.007804988,-0.02085134
-0.02851722,0.7038259,0.7462141,-0.008992104,-0.004057669,-0.01154061
-0.03003427,0.7041706,0.7387123,-0.009643582,-0.005552808,-0.01442301
-0.02850207,0.7042502,0.7341716,-0.007025785,0.0003366591,-0.01312418
-0.02626522,0.7037907,0.7370163,-0.008732679,0.006820059,-0.01034353
-0.02485273,0.7032089,0.7385453,-0.007620774,0.008433827,-0.01631376
-0.02744388,0.7004334,0.7369596,-0.004097111,0.0002133531,-0.01771305
-0.02987019,0.6998655,0.7359621,-0.0004925558,-0.01488374,-0.01683127
-0.02630128,0.7019815,0.7345072,0.004563441,-0.03380358,-0.01795188
-0.02163574,0.7043489,0.7326296,-0.006500174,-0.01450047,-0.01703807
-0.02223593,0.7046599,0.7344708,-0.01801776,0.01862049,-0.01846063
-0.02443464,0.7033162,0.7374141,-0.006222813,0.008338604,-0.01867809
-0.02542423,0.7024334,0.7375902,0.002941349,-0.0002662862,-0.01813134
-0.02589727,0.700177,0.7382205,-0.003507983,0.002991055,-0.01901976
-0.02480928,0.7003596,0.7400712,-0.00587789,-0.002228976,-0.01673946
-0.02470336,0.7031299,0.7416166,-0.004867343,0.002057095,-0.01596293
-0.0249712,0.7029668,0.73875,-0.007744004,-0.0002134494,-0.01627514
-0.02305158,0.7025568,0.7339063,-0.005216632,-0.00408241,-0.01576196
-0.02133011,0.7034582,0.7352174,-0.002788591,0.002194115,-0.01682762
-0.02081476,0.7053769,0.7353416,-0.004429775,0.0006278123,-0.01799853
-0.02175358,0.7074463,0.7326925,-0.002114114,-0.002329769,-0.02030358
-0.02369958,0.7052892,0.734413,-0.002631928,-0.00494873,-0.02058295
-0.02489256,0.7022669,0.7368763,-0.004283523,-0.004709013,-0.01986786
-0.02527974,0.7035274,0.7389301,-0.003253854,0.001771697,-0.02147912
-0.02591953,0.7048279,0.7358983,-0.003573483,0.001664676,-0.02039714
-0.02665209,0.703968,0.7292031,-0.001633742,-0.001196752,-0.01890943
-0.02643038,0.703521,0.7304987,-0.0003782103,-0.005087818,-0.01921619
-0.02609263,0.7022138,0.7336236,-0.0001767193,-0.005665,-0.01883275
-0.02556049,0.7015463,0.7354237,-0.0004192455,-0.001142414,-0.01777083
-0.02489555,0.7038136,0.7399183,-0.002932773,-0.00314081,-0.01564812
-0.02578695,0.7034833,0.7395092,-0.001913529,-0.00185779,-0.0160155
-0.02667184,0.7018474,0.7329329,-0.0007679212,0.00162356,-0.01889238
-0.02553285,0.7041327,0.7270285,-0.0007419088,-0.0008427875,-0.01901357
-0.02445648,0.7047643,0.7281767,0.001317556,-0.001190123,-0.01755828
-0.02510095,0.7035893,0.7310448,0.0009910858,-0.003487776,-0.0177265
-0.02519227,0.704679,0.729085,0.001635133,-0.006514518,-0.01804465
-0.02493245,0.7050351,0.7332913,0.003932157,-0.005280001,-0.01757096
-0.02586429,0.7052456,0.7384041,0.002066732,-0.00230122,-0.01813097
-0.02593254,0.7042093,0.7346839,-0.002539815,0.004983632,-0.02002047
-0.02582114,0.7017439,0.7338893,-0.006089477,0.01138242,-0.02289355
-0.02753754,0.7027825,0.7357039,-0.005268126,0.008419633,-0.02356334
-0.02926494,0.703308,0.7362496,-0.003538723,0.002315787,-0.02050833
-0.02896291,0.7024304,0.7380981,-0.006299032,-0.0005585977,-0.01882601
-0.0265239,0.7039257,0.7384296,-0.009989713,-0.004838125,-0.01755462
-0.02237199,0.7042911,0.7410089,-0.01100724,-0.003110116,-0.01644121
-0.01948315,0.7024714,0.7461647,-0.005250568,0.008698681,-0.01919727
-0.0216872,0.6989432,0.7468141,0.002462041,0.01366893,-0.02158943
-0.02601666,0.6963365,0.7440324,-0.001486313,0.004750656,-0.02307098
-0.0283574,0.6988716,0.7405412,-0.004811965,-0.01381457,-0.02526566
-0.02757445,0.7012067,0.7362561,0.003287409,-0.02061884,-0.02498953
-0.02566544,0.7004865,0.7363847,0.003710488,0.0009261621,-0.02390296
-0.02927233,0.7031635,0.7379461,-0.008983387,0.0188807,-0.02190994
-0.03578311,0.7071215,0.7315579,-0.01882338,0.00926264,-0.01719779
-0.03785573,0.7057801,0.7279161,-0.01243272,-0.005740681,-0.0163489
-0.03345721,0.7039025,0.7340124,-0.004552143,-0.007849773,-0.02075662
-0.02458998,0.7026626,0.7378773,-0.01537451,-0.0009576935,-0.02405999
-0.02176873,0.6988267,0.7361193,-0.02090592,0.007784105,-0.02479181
-0.02433363,0.6992091,0.7340785,-0.01209793,0.006731625,-0.01900317
-0.02364351,0.7013065,0.7341115,-0.007967034,0.001105392,-0.0121485
-0.02356205,0.6989234,0.7335329,-0.004275375,0.004631185,-0.01821546
-0.02522231,0.6980847,0.7352231,-0.001228846,0.0009787446,-0.02495029
-0.02781949,0.6973294,0.7406654,0.002493524,-0.004416581,-0.02354507
-0.03022468,0.697037,0.7411155,0.007368383,-0.00184935,-0.02608803
-0.02914368,0.7019326,0.740008,0.002976063,-0.004257699,-0.02696884
-0.02909445,0.7055056,0.7419134,-0.0002849852,0.001067252,-0.02267625
-0.03183681,0.7060924,0.7412694,-0.0007579696,0.004713501,-0.0204341
-0.03507401,0.7054218,0.7369242,-0.004203796,0.0001158183,-0.01703796
-0.03706674,0.7041459,0.7331718,-0.002164661,0.002422781,-0.01559801
-0.03611897,0.7042317,0.7347376,0.002426394,-0.001634953,-0.01689701
-0.03529679,0.7029966,0.7362812,0.002901404,-0.009957907,-0.01515228
-0.03450076,0.7024792,0.734839,0.0004090976,-0.01764078,-0.01494905
-0.03095742,0.7030319,0.7347382,-0.001507481,-0.01910868,-0.01553607
-0.02680772,0.7021503,0.7347534,-0.004278623,-0.006942165,-0.01501093
-0.02470494,0.7012201,0.7356431,-0.006057597,-0.002066287,-0.01643231
-0.02703054,0.6990236,0.7367251,-0.002249804,-0.00583084,-0.01585405
-0.03080802,0.6982231,0.7368535,-0.001682814,-0.009142059,-0.01567906
-0.02930232,0.6988096,0.7377782,-0.002831931,-0.009047494,-0.01776139
-0.02756073,0.6980275,0.7376306,-0.002236636,-0.004455047,-0.01718455
-0.02743263,0.6974308,0.7367327,-0.00401978,-0.0003433438,-0.01820378
-0.02497792,0.6965936,0.7349612,-0.00218202,0.004979359,-0.02262108
-0.03002038,0.698124,0.7328497,-0.0003100637,-0.001127357,-0.02511271
-0.03805463,0.7012173,0.7347588,0.0007827786,-0.01232203,-0.02072026
-0.03552546,0.7031871,0.7364306,0.002730992,-0.009701955,-0.01311019
-0.03070889,0.7042374,0.7315371,-0.0004911538,-0.00349682,-0.01303552
-0.02851089,0.7045595,0.7285013,-0.004936143,0.001516966,-0.01463969
-0.0287306,0.7074803,0.7354539,-0.009338279,-0.002786067,-0.01250388
-0.03245369,0.7052704,0.7416133,-0.008758534,-0.01251292,-0.01179175
-0.03486244,0.6976237,0.738624,-0.007091184,-0.01096224,-0.009664435
-0.03586403,0.6965473,0.7357753,-0.01077707,-0.00965096,-0.009548033
-0.03186627,0.6968386,0.7361977,-0.002882586,-0.0083,-0.01292707
-0.02507475,0.6954684,0.7340281,0.009547043,-0.00356793,-0.01339595
-0.02583899,0.6942653,0.7326234,0.01242634,-0.005669228,-0.01141047
-0.02732834,0.6941497,0.7332599,0.01124629,-0.008518267,-0.007889481
-0.0261054,0.6990937,0.731308,0.00720857,-0.009694668,-0.007841127
-0.02836166,0.7046904,0.7290887,0.003037388,-0.00595685,-0.01063454
-0.03075405,0.709357,0.7298469,-0.007399823,0.009813937,-0.009724302
-0.03391659,0.7087235,0.7352104,-0.01674196,0.02067979,-0.008825768
-0.0391033,0.703018,0.742001,-0.01180936,0.007072373,-0.006739869
-0.03914463,0.7016447,0.7422765,-0.006888843,-0.01300258,-0.002548672
-0.0335019,0.7003188,0.7382711,-0.004985913,-0.01020022,-0.001920997
-0.02964527,0.6985833,0.7372154,-0.003997029,0.003165145,-0.001505134
-0.02987744,0.6973526,0.7407477,-0.002677705,0.00569569,0.0001157089
-0.02924427,0.6974349,0.7454926,0.009418267,-0.006002231,-0.001057574
-0.02618643,0.702697,0.7451071,0.0192007,-0.02197072,-0.002829037
-0.02296204,0.7033071,0.7375328,0.01358077,-0.01328018,-0.004311394
-0.02151561,0.7013062,0.7313941,0.005252483,0.009648329,-0.006928202
-0.02714448,0.7016661,0.7362138,0.003146516,0.01771843,-0.007954954
-0.03503164,0.7011349,0.7413857,0.002795157,0.01179031,-0.008444461
-0.03265882,0.703665,0.7365316,-0.0002665656,-0.002450312,-0.009588489
-0.02974053,0.7050448,0.7345304,-0.006163755,-0.001359189,-0.007830324
-0.03328382,0.7057182,0.7373849,-0.009388068,0.005362414,-0.004018578
-0.03081395,0.7072062,0.7367211,-0.008373379,-4.224695e-05,0.0002785077
-0.02837143,0.7037679,0.7374592,-0.01056528,0.007442508,0.00175097
-0.03093287,0.7000595,0.7381538,-0.01092671,0.008478426,-0.001624276
-0.03295101,0.699271,0.7366462,-0.006313764,-0.003405884,-0.001819347
-0.03689812,0.6999117,0.7369228,-0.004951798,-0.010127,0.002394762
-0.03315386,0.6985056,0.7357648,-0.003405994,-0.01755883,0.005185986
