accx,accy,accz,gyrox,gyroy,gyroz
0.07001325,0.6558813,0.7746897,0.1358575,-0.1243561,0.1114988
0.08368799,0.6551307,0.7695953,0.1332186,-0.1095826,0.1220436
0.09106509,0.6549654,0.7754359,0.1271971,-0.07704006,0.124112
0.08254737,0.6556014,0.7760378,0.1211661,-0.07655082,0.1228169
0.07935098,0.652624,0.7732121,0.1222758,-0.09434392,0.1206057
0.08150955,0.6517863,0.7736079,0.1282841,-0.09466451,0.1164784
0.08459017,0.6518029,0.7661112,0.1310312,-0.1182305,0.1111193
0.08940296,0.6521547,0.7619233,0.1284919,-0.1331877,0.1029271
0.09257267,0.6555738,0.762634,0.1198001,-0.1253406,0.1010769
0.09824704,0.6555417,0.763101,0.1142795,-0.125662,0.1008651
0.1036427,0.6583599,0.7647882,0.1092068,-0.1093929,0.1026638
0.1034273,0.660967,0.7628854,0.09634008,-0.09196414,0.1052456
0.1016509,0.6600335,0.761188,0.0849962,-0.07261681,0.09917675
0.1010503,0.6617265,0.7600066,0.08217491,-0.04894373,0.09288848
0.09800087,0.6575068,0.7625972,0.08089147,-0.050552,0.08538037
0.09236015,0.6551678,0.7683916,0.07026154,-0.05475652,0.07853101
0.08571294,0.6582731,0.7667762,0.06323591,-0.05927969,0.08055731
0.0758109,0.6559198,0.7661636,0.06534039,-0.06855003,0.08529855
0.07162247,0.6539006,0.7698022,0.05971438,-0.07333526,0.09380193
0.07794999,0.6512403,0.7720649,0.0583239,-0.0782235,0.1018141
0.08639761,0.6482592,0.7737861,0.06762999,-0.07782916,0.09952126
0.09364243,0.6480975,0.7711627,0.07338104,-0.07895059,0.09592511
0.09633584,0.6464783,0.7669634,0.07239204,-0.08009963,0.0958836
0.09625079,0.6475847,0.764725,0.06839106,-0.07907658,0.09119031
0.09928259,0.650085,0.7637085,0.06948848,-0.07990561,0.08696148
0.1019334,0.652577,0.7625706,0.06758078,-0.07745702,0.08781615
0.1003216,0.6556086,0.7585273,0.06251314,-0.06802264,0.08669785
0.09808351,0.6543831,0.7594407,0.06235716,-0.04987695,0.08635389
0.09636886,0.6558211,0.7645058,0.05576168,-0.03950473,0.08646386
0.09244665,0.6609251,0.763727,0.04957867,-0.03694761,0.08316499
0.09051648,0.6617304,0.7621963,0.04601094,-0.0335035,0.08139244
0.09066246,0.6610057,0.761944,0.03846459,-0.03233646,0.08076049
0.08833605,0.6609801,0.7606418,0.03321783,-0.02666075,0.07988427
0.08710889,0.6611484,0.759804,0.02388993,-0.0285115,0.08052303
0.08960371,0.6612506,0.7599186,0.01404678,-0.03480976,0.08168282
0.0931811,0.6603619,0.7617876,0.009017567,-0.02954587,0.08138882
0.09480898,0.658043,0.7601964,0.005460472,-0.02293184,0.08132503
0.0967678,0.6534446,0.757746,0.004085746,-0.01606802,0.08356121
0.1006457,0.6513297,0.7587938,-0.001681588,-0.01377164,0.08452794
0.1019983,0.6523738,0.7585513,-0.007001794,-0.01406729,0.08330758
0.1003409,0.6512829,0.7609902,-0.008128739,-0.005701566,0.07953736
0.09848193,0.6507266,0.7636934,-0.009435486,-0.002540536,0.07243712
0.09841836,0.6509792,0.7622815,-0.007278208,-0.003964837,0.06473921
0.09883447,0.649548,0.7623247,-0.005303782,-0.001215399,0.05830604
0.09770285,0.6499568,0.7629887,-0.007006781,0.0006675163,0.05617568
0.09497976,0.6513433,0.7642738,-0.009281304,0.003654625,0.05334809
0.09088676,0.6513597,0.7658267,-0.01033034,0.004914845,0.04717961
0.08996358,0.6504535,0.7650432,-0.01168318,0.004196259,0.04736871
0.0910858,0.6470632,0.7632544,-0.01358081,0.003647985,0.04936269
0.09194111,0.6466622,0.76233,-0.0138001,-6.418164e-05,0.04750654
0.09823053,0.6527418,0.764253,-0.01085125,-0.0008796321,0.04589772
0.1030181,0.6542305,0.7660485,0.002243993,0.0008528219,0.04186482
0.0970375,0.652433,0.7653293,0.01266107,0.0009031446,0.03949334
0.08867088,0.6568131,0.7649194,0.0006623127,0.001995555,0.04061195
0.08495916,0.6581821,0.7654724,-0.01353199,0.002769156,0.040242
0.08277788,0.6556783,0.765374,-0.01470492,0.003383372,0.04107393
0.0800529,0.6563887,0.7650223,-0.01657105,0.002413429,0.04184801
0.07758871,0.6544789,0.7656688,-0.0198561,-0.00170587,0.0463951
0.07607836,0.6536456,0.766132,-0.02180041,-0.004838968,0.05509435
0.07555564,0.6566602,0.7667978,-0.02566768,-0.006367394,0.05409585
0.07566383,0.6571584,0.7670076,-0.02779611,-0.00817148,0.05121351
0.08041392,0.6571313,0.7667873,-0.0285194,-0.01090074,0.05664796
0.09000603,0.6568007,0.7695394,-0.02924348,-0.01058274,0.06079949
0.09334474,0.6567823,0.7717436,-0.03105909,-0.003988443,0.06365085
0.08859975,0.6564526,0.7717767,-0.03561731,0.002468979,0.06515702
0.08605117,0.6520774,0.7749592,-0.03827186,0.003129808,0.06397379
0.08812511,0.648648,0.7782088,-0.03930242,0.00179283,0.06362831
0.0903445,0.6483073,0.7725492,-0.03734372,0.002685891,0.05739864
0.09291107,0.647292,0.7638629,-0.03476484,0.001681911,0.04959202
0.09570825,0.6455561,0.7644545,-0.03768677,-0.0006110362,0.04557459
0.09452552,0.6480499,0.7670041,-0.03957028,0.001217764,0.03710856
0.09363379,0.6517763,0.7675516,-0.04260238,0.002558764,0.03209384
0.09519268,0.6496873,0.772394,-0.04604818,0.002785251,0.03360903
0.09328707,0.6495238,0.7740822,-0.04571465,0.006318243,0.03157183
0.08975213,0.6517575,0.7717623,-0.04814514,0.01068808,0.02952028
0.0864384,0.6507253,0.7689609,-0.04995285,0.01199011,0.03011726
0.08490622,0.6498461,0.7606641,-0.05313898,0.006901087,0.02930388
0.08353665,0.6484386,0.7544821,-0.05774154,0.002111529,0.02745504
0.07888569,0.6498919,0.7585546,-0.05777808,0.007393189,0.02760714
0.08042423,0.652407,0.7653408,-0.05772241,0.01276451,0.03102282
0.08503103,0.6492756,0.7679936,-0.05369041,0.01047035,0.03678368
0.08523223,0.6475146,0.7690352,-0.04877769,0.01214686,0.03998867
0.08727831,0.6480427,0.771376,-0.05073999,0.01846595,0.03808297
0.08780965,0.6471728,0.7729785,-0.05032676,0.02046942,0.03831112
0.08772412,0.6480929,0.771455,-0.04701667,0.02020646,0.03919719
0.08838719,0.6499907,0.7672345,-0.04970286,0.02006509,0.03574494
0.08642308,0.6503388,0.7642501,-0.05265404,0.02163257,0.03302985
0.08805299,0.6496296,0.7651774,-0.05116262,0.02315619,0.03014117
0.08887918,0.6491003,0.7677332,-0.05298269,0.02037545,0.02625432
0.08715287,0.6486423,0.767771,-0.05529611,0.02141821,0.02620413
0.0844662,0.6492481,0.764295,-0.0591198,0.03269662,0.03476157
0.07854965,0.6520109,0.7629183,-0.07210733,0.04339953,0.05002681
0.08068683,0.6571281,0.7699131,-0.08131984,0.03572717,0.05757053
0.08873543,0.6615642,0.7801209,-0.0782401,0.01486316,0.04940021
0.1039074,0.6551352,0.7799905,-0.0700449,0.007660289,0.02138807
0.12235,0.6459941,0.7721912,-0.06581771,0.02183391,-0.01829013
0.1056544,0.6495881,0.7666376,-0.06691419,0.03736641,-0.03447888
0.0769525,0.6506975,0.7619111,-0.06953051,0.03436515,-0.02708343
0.07976589,0.6465602,0.761348,-0.07732554,0.03174506,-0.01953694
0.07601917,0.6509215,0.7617359,-0.07816023,0.04200662,0.003728462
0.06220856,0.6501921,0.7592214,-0.06776271,0.03743755,0.03323053
0.06956316,0.6425034,0.7632123,-0.06927372,0.02207743,0.03831025
0.07507962,0.6391476,0.766747,-0.07612223,0.01176871,0.03309541
0.07574337,0.6369504,0.7631824,-0.07211281,0.01468409,0.02851082
0.07997487,0.6391566,0.7629522,-0.07263468,0.02648034,0.021703
0.07601528,0.6435226,0.7698174,-0.07713135,0.016555,0.01502104
0.07512237,0.6461755,0.776144,-0.07316703,0.009960649,0.01590255
0.07706654,0.6496873,0.7737585,-0.06929468,0.01889358,0.04048959
0.07961867,0.6500443,0.7695032,-0.06147919,0.01994312,0.07134745
0.09258201,0.646795,0.7677712,-0.05471245,0.02453195,0.06982437
0.1007367,0.6332115,0.7639511,-0.06369684,0.004723194,0.01886747
0.1013776,0.6195971,0.7656704,-0.07502522,0.004408557,-0.05042739
0.1074478,0.634575,0.7720269,-0.08436013,0.1277981,-0.07348803
0.1087746,0.660835,0.7782494,-0.07990601,0.2128675,-0.06828845
0.09046029,0.667105,0.7939567,-0.06961001,0.01898766,-0.1152408
0.07059213,0.6582779,0.8036231,-0.0895993,-0.1882519,-0.1796231
0.07925077,0.6490157,0.7769065,-0.1053942,-0.0681956,-0.1614503
0.08515641,0.645039,0.7467428,-0.09314945,0.04454222,-0.09305935
0.05621976,0.6408544,0.7625463,-0.07815593,-0.02662552,-0.0449504
0.03734322,0.6332881,0.7780728,-0.06100384,0.007584178,-0.02044528
0.04586532,0.6308973,0.7632616,-0.05686571,0.04309184,-0.02490582
0.04784995,0.6404735,0.769046,-0.06340637,0.0204904,-0.01240034
0.04240345,0.6539697,0.7825186,-0.05729562,0.02518928,0.0171278
0.04577706,0.6564551,0.7883719,-0.05332658,-0.04242609,0.01392105
0.05586716,0.6557266,0.805177,-0.05087535,-0.0465084,0.02457141
0.06633595,0.6597485,0.800257,-0.04153729,-0.009438408,0.02804605
0.07804896,0.6547801,0.7824721,-0.04124163,-0.02500779,0.01052059
0.08567339,0.6475268,0.7730622,-0.04571623,0.0301722,0.01760734
0.08512556,0.6470704,0.7650877,-0.05163065,0.03889816,0.009380899
0.08264733,0.6464581,0.7702879,-0.0658528,0.01273632,0.007545056
0.08115893,0.6476883,0.7685364,-0.07420912,0.03539626,0.01872961
0.0834738,0.6464772,0.7636174,-0.07556229,0.02059414,0.0110245
0.08597432,0.6445377,0.7683244,-0.08068418,0.02604758,0.01552932
0.08672664,0.6458322,0.766103,-0.08505006,0.03769925,0.01080945
0.08758495,0.6442995,0.7742121,-0.0867441,0.03383767,0.002497867
0.0842182,0.6470762,0.783806,-0.08534936,0.04312671,-0.00141547
0.07966522,0.6510452,0.7826459,-0.08092557,0.03341925,-0.01729104
0.07155774,0.6498329,0.7847017,-0.07589032,0.0376413,-0.01538701
0.06281924,0.6496177,0.7793787,-0.06875154,0.03114556,-0.01581822
0.06001331,0.6480269,0.7701711,-0.06411318,0.01311234,-0.01463453
0.05632364,0.6447108,0.765815,-0.06530581,0.01720206,0.002584761
0.05767698,0.639736,0.7651791,-0.06549343,0.01298341,0.007242507
0.06317622,0.634159,0.7670055,-0.06243275,0.01270531,0.01259635
0.06698454,0.6341681,0.7701657,-0.06081574,0.008266912,0.01585259
0.07510572,0.6380453,0.7774965,-0.05999645,0.004596557,0.01342003
0.08187471,0.6425577,0.7775318,-0.0550203,0.01175355,0.01413813
0.08465202,0.6464864,0.7738512,-0.04877743,0.006377407,0.008811773
0.08479995,0.6495678,0.7756876,-0.04892636,0.01014505,0.00612132
0.08347334,0.6533072,0.7744101,-0.05026206,0.01646058,0.002683035
0.08372927,0.6565935,0.7728209,-0.04797716,0.01925744,-0.002232614
0.08113327,0.6566497,0.7703794,-0.05210717,0.02701001,-0.002837747
0.07938112,0.6542311,0.7653633,-0.05983058,0.02352025,-0.006938757
0.07683408,0.6517826,0.7631833,-0.06261599,0.02359732,-0.008935198
0.07048978,0.6503657,0.7634386,-0.06437983,0.02587568,-0.007566105
0.07146269,0.6504464,0.7664038,-0.06683305,0.02313122,-0.007308079
0.07270374,0.650466,0.7701241,-0.07251423,0.02494598,-0.007319178
0.06932476,0.6510752,0.7759962,-0.07566861,0.02270738,-0.005674153
0.07015853,0.6493667,0.7847631,-0.0710629,0.02038054,9.276538e-05
0.07003382,0.6459021,0.7893479,-0.06943251,0.01995528,0.005284297
0.07044516,0.649125,0.7839858,-0.06916023,0.01777737,0.005624591
0.07416574,0.6510059,0.774279,-0.06472173,0.01817487,0.004817952
0.07576562,0.6471268,0.7751523,-0.06004181,0.01788594,0.007263587
0.07827203,0.6448767,0.7768398,-0.05773056,0.01678532,0.006637594
0.07933721,0.6427297,0.7718553,-0.05784306,0.01613402,0.003057527
0.07880784,0.6418828,0.7738596,-0.05594272,0.01724808,0.003391589
0.080803,0.6417226,0.7724744,-0.05509753,0.01964627,0.0007925353
0.07946247,0.6419839,0.7688457,-0.05584946,0.01916077,-0.003847742
0.07998068,0.6460195,0.7706167,-0.05352022,0.01584783,-0.00591183
0.08493837,0.6498946,0.7633687,-0.05404528,0.01220095,-0.005920397
0.08389183,0.6509022,0.7594663,-0.05613833,0.01598275,-0.003759085
0.07972581,0.6498209,0.7712837,-0.05656302,0.02161106,-0.005141398
0.07515867,0.6505816,0.7821231,-0.05727572,0.01815446,-0.005797499
0.07284831,0.6517187,0.7775405,-0.05574779,0.01555327,-0.005493251
0.07454438,0.6481829,0.7668645,-0.05385914,0.01544879,-0.009292768
0.07155339,0.6454044,0.7638324,-0.0528662,0.01469192,-0.009305656
0.0715217,0.6455731,0.7608867,-0.05402234,0.01772146,-0.006074025
0.07556555,0.6463562,0.7611385,-0.05802966,0.0179749,-0.002018601
0.07452708,0.6477565,0.7626819,-0.05985441,0.0172829,0.002125354
0.0767322,0.6486828,0.7593632,-0.06021103,0.02006088,0.002725936
0.08274155,0.6478023,0.7629503,-0.05994554,0.02032546,0.002446408
0.08935175,0.6447243,0.7632485,-0.05948729,0.02308501,0.001120866
0.09058713,0.6441751,0.7611491,-0.0601139,0.02843313,-0.0005154531
0.08422972,0.6465804,0.7640617,-0.05917008,0.02995721,-0.004570337
0.08343563,0.6476178,0.7628749,-0.05866302,0.03257382,-0.01006636
0.08071911,0.6471324,0.7667355,-0.05837368,0.03355693,-0.009702612
0.07466892,0.6446893,0.7715554,-0.05769274,0.03109038,-0.01135784
0.07639884,0.6422028,0.7722762,-0.05848166,0.03251028,-0.01376874
0.0768795,0.6418812,0.7727637,-0.05695352,0.0321159,-0.008840445
0.07579711,0.64521,0.7680785,-0.05654086,0.02887996,-0.005894683
0.07575575,0.649731,0.7657695,-0.06091912,0.02839843,-0.006283068
0.07452864,0.6487785,0.7655113,-0.06163482,0.02638124,-0.00556289
0.07525714,0.6469631,0.7673392,-0.05543967,0.02572838,-0.005635582
0.07632236,0.6474911,0.7711314,-0.05120998,0.02656594,-0.00657153
0.07836421,0.6469564,0.7680894,-0.05282895,0.02526425,-0.006550421
0.07990723,0.6473018,0.7671122,-0.05342574,0.025346,-0.005097452
0.07904972,0.647183,0.7685644,-0.05261782,0.02444597,-0.006007077
0.07936493,0.6460749,0.7695077,-0.05376786,0.02472886,-0.009349616
0.08105757,0.6459696,0.7734621,-0.05583014,0.02729259,-0.01007499
0.0821698,0.6466845,0.7724216,-0.05803674,0.02740399,-0.00696915
0.08027628,0.6485734,0.7685266,-0.0563856,0.02793347,-0.008367051
0.07860256,0.6490072,0.7659039,-0.05343009,0.02964272,-0.01420139
0.08101076,0.6483225,0.7653991,-0.05435718,0.03200187,-0.01155792
0.08266449,0.6487328,0.7703648,-0.0537655,0.03217156,-0.009918825
0.08026492,0.6487897,0.7720147,-0.05244087,0.02961535,-0.01234698
0.07597436,0.6492574,0.7721669,-0.05363677,0.02945806,-0.008690876
0.07236613,0.6492956,0.776952,-0.05360177,0.02894891,-0.009590712
0.07136742,0.64693,0.7710746,-0.05342736,0.0281862,-0.008336711
0.07258242,0.6441874,0.7611261,-0.05363121,0.02645104,-0.003782545
0.0729784,0.6429673,0.7654949,-0.0543516,0.02259407,-0.0066137
0.07444566,0.6430822,0.7682545,-0.0553037,0.02202942,-0.00427016
0.07754951,0.6432583,0.7668112,-0.05059826,0.01997825,-0.002298346
0.07664933,0.6436606,0.7723239,-0.04573852,0.01816324,-0.004377449
0.07628333,0.6443105,0.7734692,-0.04716957,0.02092788,-0.003416879
0.08057633,0.6446144,0.7712912,-0.04779535,0.02300232,-0.004216534
0.0829013,0.6463797,0.7725163,-0.04644907,0.02763468,-0.004333694
0.08159491,0.6479013,0.7721518,-0.04612384,0.02907168,-0.007423936
0.07844278,0.6473067,0.7711256,-0.04582288,0.02537556,-0.0130067
0.07530589,0.6479429,0.7708627,-0.04562254,0.02580145,-0.0162746
0.07456442,0.649063,0.7716009,-0.04557055,0.02370231,-0.01829106
0.0759248,0.6486167,0.7724964,-0.04506491,0.02238529,-0.01654629
0.07682656,0.6479052,0.7706302,-0.0443233,0.02455413,-0.01525958
0.07530111,0.6460289,0.7667731,-0.04497547,0.02133046,-0.01017816
0.07454862,0.6440119,0.7642324,-0.04646046,0.019245,-0.00250033
0.07521863,0.645822,0.7655916,-0.04699066,0.01800225,-0.003114915
0.07494024,0.6484517,0.7685887,-0.04603066,0.01725138,-0.003847154
0.07535554,0.6471429,0.7700918,-0.04331906,0.02028451,-0.002071153
0.07681766,0.6466053,0.7705763,-0.0407654,0.0190304,-0.001734696
0.07808056,0.6478683,0.7707946,-0.03974381,0.01846198,-0.001869572
0.07719237,0.6465839,0.770973,-0.0400523,0.01975585,-0.003613459
0.07577989,0.6456595,0.7710071,-0.03949746,0.01778745,-0.00488044
0.07744689,0.6460595,0.7717762,-0.03628318,0.01721778,-0.006492651
0.07833283,0.6475304,0.7735245,-0.03465554,0.01533823,-0.007570408
0.07749794,0.6498534,0.7741295,-0.03779742,0.01428548,-0.00789349
0.07710817,0.6499328,0.7743306,-0.04136861,0.01512532,-0.009117133
0.0742638,0.6501545,0.7747603,-0.0402845,0.01389541,-0.007869953
0.0714128,0.6501456,0.7724649,-0.03911607,0.01581887,-0.007747135
0.07399634,0.6495675,0.769941,-0.04027154,0.01729092,-0.007212589
0.07812631,0.6502622,0.7715446,-0.03728777,0.01559551,-0.002521394
0.07779345,0.6485646,0.773131,-0.03495391,0.01558983,-0.00170618
0.07561291,0.6464008,0.7719289,-0.03663957,0.01709658,-0.005130521
0.0752414,0.6455596,0.7719795,-0.03660634,0.01812674,-0.007903016
0.07753838,0.6454247,0.7724577,-0.03718212,0.0140119,-0.007767013
0.08125834,0.6463917,0.7712251,-0.03752888,0.01050682,-0.007442855
0.08055343,0.6459411,0.7714861,-0.03560923,0.01581715,-0.01083561
0.07691114,0.6474476,0.7725585,-0.0351598,0.02021255,-0.01287744
0.07515954,0.6492317,0.7722954,-0.03560237,0.01679126,-0.01348653
0.07436938,0.6466055,0.7724523,-0.03502387,0.01328007,-0.01070775
0.07559064,0.6452831,0.7740161,-0.03288845,0.01503103,-0.004783906
0.07706987,0.6469307,0.7765192,-0.03041641,0.01820071,-0.006358605
0.07745052,0.6486464,0.7796144,-0.02984468,0.01906773,-0.008114282
0.07661163,0.6483313,0.7826952,-0.03001526,0.01748757,-0.007212304
0.07375665,0.6457025,0.7808206,-0.02924528,0.01562526,-0.009931334
0.07390095,0.6437842,0.7734819,-0.02936825,0.01417363,-0.008182237
0.07436955,0.6440513,0.7694149,-0.02991874,0.01244626,-0.008693224
0.07398823,0.6452196,0.7701214,-0.02997415,0.01337634,-0.01228619
0.07755767,0.6453258,0.7704771,-0.03137782,0.01459101,-0.008183111
0.0787034,0.6470705,0.7686545,-0.03035098,0.01440998,-0.008828162
0.07817041,0.649703,0.7685166,-0.02911519,0.01566751,-0.01165798
0.07934564,0.6491719,0.7706272,-0.03116015,0.01675918,-0.009793279
0.07737054,0.6485302,0.7691166,-0.0317509,0.01714982,-0.01280623
0.07545558,0.6482585,0.7690145,-0.0333253,0.01425414,-0.01214146
0.07549707,0.647704,0.7718544,-0.03243537,0.01324843,-0.01022695
0.07499301,0.6472349,0.773068,-0.02931332,0.01896266,-0.0123325
0.07495404,0.6467528,0.7760406,-0.03226192,0.02053449,-0.008982224
0.07615762,0.6476352,0.7743097,-0.03283915,0.01911736,-0.006896363
0.0776829,0.6475394,0.7675185,-0.02945651,0.01718097,-0.004167484
0.07759725,0.6483319,0.766465,-0.0272002,0.01259098,-0.0007138664
0.07600139,0.649395,0.7749976,-0.02495811,0.01262664,-0.003473102
0.0747616,0.647261,0.7850357,-0.02473351,0.01322003,-0.00407102
0.0768881,0.6476225,0.7765979,-0.02335163,0.01185503,-0.008187581
0.08066142,0.6485708,0.7651034,-0.02190925,0.01288472,-0.01420047
0.08025116,0.6472271,0.7705215,-0.0224452,0.0145029,-0.01126786
0.07676357,0.647191,0.7706941,-0.02168768,0.01598065,-0.009544553
0.07397984,0.6463846,0.7690892,-0.02229268,0.01312451,-0.01024368
0.07487352,0.6463323,0.7752016,-0.02362821,0.008793495,-0.008254981
0.07769951,0.6478757,0.7744805,-0.02320254,0.009537476,-0.00709512
0.07748747,0.6483114,0.7700109,-0.02128137,0.01090622,-0.005759978
0.07604959,0.6495922,0.7651428,-0.02037977,0.01159557,-0.004545233
0.07492425,0.6501662,0.763737,-0.02221565,0.01185056,-0.005242978
0.0766145,0.6480562,0.7666417,-0.02269734,0.01119455,-0.004153992
0.08085636,0.6465753,0.764824,-0.02323278,0.01248419,-0.002706692
0.08096072,0.6471578,0.7655949,-0.02238692,0.01335555,-0.004743708
0.08017,0.6475656,0.7698386,-0.01893639,0.01218005,-0.006520386
0.08085338,0.6469985,0.7720687,-0.02054115,0.01211728,-0.005571152
0.08033648,0.6472024,0.773309,-0.02269053,0.0117937,-0.003012496
0.08084221,0.6474038,0.7715432,-0.02275504,0.01104446,-0.003377544
0.08148407,0.6470267,0.7720636,-0.02335667,0.01409243,-0.007000992
0.08169708,0.6473225,0.7729542,-0.02122991,0.01713926,-0.009797846
0.08030906,0.6465343,0.7723223,-0.01956757,0.01571128,-0.01240505
0.07732852,0.6435347,0.7771343,-0.01684832,0.01453796,-0.010672
0.07730353,0.6414233,0.7805703,-0.01496416,0.01466752,-0.007644619
0.07709439,0.6447205,0.7785771,-0.01810822,0.01221903,-0.006491908
0.07479697,0.648986,0.7752626,-0.018352,0.00916797,-0.003520936
0.07381144,0.6463963,0.7733415,-0.01750328,0.009248026,-0.005047681
0.07364163,0.6442975,0.7741171,-0.01709959,0.008844396,-0.005286668
0.07532425,0.645614,0.7722284,-0.0150546,0.003391958,-0.001956504
0.07988044,0.6431943,0.7676704,-0.01560664,-0.0007108318,-0.002292806
0.08279079,0.6426024,0.7648858,-0.01548277,0.004726482,-0.002150751
0.07942479,0.6454993,0.7647768,-0.01438296,0.01277744,-0.006052767
0.07515999,0.6461013,0.7657646,-0.01336053,0.01342407,-0.01024373
0.07631406,0.6461706,0.7653269,-0.01135499,0.008659367,-0.008789146
0.07701304,0.6465514,0.7659965,-0.01215401,0.002878104,-0.00949324
0.07563399,0.6474259,0.767042,-0.01242162,0.001599176,-0.009475793
0.07555785,0.647787,0.7656635,-0.01031762,0.007466264,-0.008411101
0.07375912,0.6474273,0.7648742,-0.009564045,0.01133135,-0.007624892
0.07204441,0.647889,0.7667497,-0.01033767,0.008776251,-0.005223046
0.07234527,0.6453685,0.7725601,-0.01285409,0.005659405,-0.004472081
0.07205843,0.643611,0.7777504,-0.01420157,0.003489001,-0.003046411
0.07299013,0.6466819,0.773666,-0.01383995,0.001756492,-0.002885916
0.07608727,0.6477341,0.7687019,-0.01638501,0.007048729,-0.005894851
0.07954838,0.646003,0.7738034,-0.01857144,0.01565346,-0.006513064
0.07952908,0.644556,0.7766808,-0.01778359,0.01473771,-0.006043358
0.07567005,0.6441272,0.7720257,-0.01870268,0.012975,-0.005561044
0.07452308,0.644443,0.7707493,-0.01813968,0.01407324,-0.004361101
0.07614952,0.644407,0.7707439,-0.01430506,0.007868702,-0.004732852
0.07742457,0.6472031,0.7696122,-0.01246726,0.004620282,-0.007259703
0.07735693,0.6513409,0.7695839,-0.01008019,0.007397933,-0.01048527
0.07547158,0.6506525,0.7694183,-0.00826881,0.007218808,-0.009062616
0.07468405,0.6489287,0.7714597,-0.0104402,0.007259851,-0.003700753
0.07436738,0.6500797,0.7732341,-0.01202396,0.00907493,-0.001749856
0.07467495,0.6479921,0.7738608,-0.01251495,0.01099044,-0.003942575
0.07642701,0.6431796,0.7757037,-0.01174841,0.01015564,-0.008153945
0.07853804,0.641435,0.776079,-0.008304423,0.007968362,-0.01024179
0.08329139,0.6405164,0.77685,-0.00351914,0.007941098,-0.009069892
0.08442827,0.6402065,0.7797232,0.0006681087,0.006644834,-0.008918939
0.08026519,0.6423965,0.7829382,0.000646174,0.007852003,-0.00946374
0.07900014,0.6471575,0.7833591,-0.003426064,0.01335314,-0.01177839
0.07750011,0.6518611,0.7770922,-0.006757362,0.01661527,-0.0140631
0.07621134,0.6500527,0.7676825,-0.005953893,0.01732096,-0.01124778
0.07709244,0.647317,0.7633033,-0.005806736,0.01824915,-0.01004536
0.07450302,0.6493224,0.767143,-0.008846999,0.01866701,-0.0123251
0.07186688,0.6502531,0.7707223,-0.007835625,0.01281146,-0.01015736
0.06993801,0.6501616,0.7697139,-0.005462866,0.004419945,-0.006454736
0.06540543,0.6501394,0.7727967,-0.005303426,0.001161365,-0.003861212
0.06439209,0.6515421,0.7764617,-0.003022251,-0.0004387164,-0.0005120868
0.06848157,0.6564811,0.7738449,-0.00288061,-0.000356402,0.0009406148
0.07245256,0.6590463,0.7718493,-0.006615061,-0.0004145328,0.007669576
0.07528833,0.6554177,0.7721569,-0.01049565,-0.001324455,0.01909249
0.07575695,0.6496081,0.7711242,-0.0147582,-0.0001191274,0.01986075
0.07503703,0.6473276,0.7698146,-0.0184274,-0.001693645,0.01462041
0.07904167,0.6476456,0.7696511,-0.02067421,-0.002148642,0.00910442
0.08398936,0.6485813,0.7693904,-0.02377893,-6.190921e-05,-5.972794e-05
0.08467042,0.6505374,0.7677207,-0.02819761,0.001070022,-0.003152447
0.08473616,0.6484431,0.7682231,-0.02654176,0.005785281,-0.001957781
0.0844278,0.6453779,0.7723877,-0.02096637,0.01176011,-0.004407542
0.08231807,0.6449818,0.7756155,-0.02036716,0.01639842,-0.003797321
0.07862758,0.6422524,0.7763575,-0.01704161,0.01699435,-0.003901436
0.07576102,0.6414373,0.7763043,-0.01200275,0.01656707,-0.006984168
0.07593447,0.6427138,0.7762691,-0.01027305,0.01850366,-0.006976251
0.07487556,0.6428653,0.7755789,-0.005052428,0.01079936,-0.008714696
0.07286116,0.644738,0.7745701,-0.0005134679,0.002731718,-0.007702658
0.07330497,0.6431943,0.7749953,0.001228634,0.005288673,-0.002752622
0.07312968,0.6407776,0.7752319,0.00328705,0.003723917,-0.00193514
0.07171678,0.6448448,0.7747689,0.005236915,-0.001580325,-0.0009297868
0.07241827,0.6479751,0.7751125,0.005355113,-0.003883874,-0.000407886
0.0746067,0.6472206,0.7750194,0.003340856,-0.006250594,0.001348712
0.07632796,0.6470828,0.7748965,0.005091981,-0.007514477,0.00414188
0.07777795,0.647268,0.7747661,0.006080457,-0.005785012,0.002317879
0.07794966,0.6472636,0.7729451,0.006480667,-0.00255508,0.002159349
0.0776151,0.6475352,0.7708145,0.009455503,0.0003560515,-0.0004586159
0.07811214,0.6489967,0.7707291,0.005777047,0.003031691,-0.004468763
0.07855953,0.6500797,0.7728688,0.001156749,0.002792515,-0.002208358
0.07945266,0.6474474,0.7745828,-0.002133988,0.0004572718,-0.001004144
0.0790152,0.6453688,0.7746667,-0.007305241,-0.001818027,-0.000965239
0.07700568,0.6501827,0.7731481,-0.008824595,-0.01097977,-0.001243586
0.076104,0.6576023,0.7700954,-0.01126233,-0.0209765,-0.002130042
0.07649001,0.6584117,0.7699943,-0.01560467,-0.02041083,-0.003744905
0.07899097,0.6509041,0.7717941,-0.0225594,-0.0161974,-0.007627235
0.08257178,0.640668,0.771097,-0.02838005,-0.005233513,-0.009490061
0.08500419,0.6327165,0.7733028,-0.01576277,0.02005912,-0.01559381
0.08396107,0.6260879,0.7782121,0.005614547,0.03882921,-0.0215256
0.07672715,0.6212716,0.7812206,0.01702124,0.03660036,-0.01532241
0.06699533,0.6230432,0.7850975,0.02785366,0.02697467,-0.00550146
0.06297751,0.6289453,0.785918,0.03958989,0.01586504,0.007243052
0.066718,0.6374968,0.7827286,0.04438823,-0.0005336078,0.01790611
0.070297,0.6509865,0.7794728,0.04608808,-0.02221474,0.01423363
0.07445016,0.6641091,0.7714815,0.04051207,-0.04223207,0.01080343
0.08187922,0.6711236,0.7665906,0.02854317,-0.04577277,0.01114449
0.08164838,0.6712685,0.7696378,0.01174562,-0.04371606,0.001249366
0.08128118,0.6704515,0.7664796,-0.01336381,-0.0483305,-0.009854076
0.08776517,0.6692947,0.7619365,-0.02494777,-0.03501663,-0.01379901
0.08841717,0.6599102,0.767211,-0.02145471,-0.007733546,-0.01540996
0.08987052,0.6491156,0.7769526,-0.02213054,0.007043117,-0.01362262
0.09060039,0.645273,0.7828445,-0.02000379,0.01562128,-0.006815983
0.08052408,0.6374596,0.7743677,-0.01282577,0.02212779,-0.0002824753
0.0746414,0.6225886,0.7630383,-0.003582006,0.02308635,0.001624391
0.07606385,0.6217828,0.768526,0.0021018,0.02231612,0.006592839
0.0770643,0.6321073,0.7734143,0.001985018,0.02080545,0.01095309
0.07747028,0.634191,0.7706521,0.01272202,0.01888656,0.005402592
0.07703499,0.6422284,0.7732553,0.0234155,0.01105173,0.00381304
0.07628228,0.6552531,0.7722603,0.0168106,-0.006238232,0.006213742
0.0724305,0.6659203,0.7701424,0.004722147,-0.02902513,0.005773944
0.07179602,0.6764895,0.7718984,-0.01044966,-0.04801734,0.006253298
0.0778087,0.6688314,0.7699654,-0.02475885,-0.0492912,-0.00110217
0.08395455,0.661532,0.770234,-0.03086362,-0.03636704,-0.0100945
0.08903872,0.6621489,0.7679143,-0.04061453,-0.02355912,-0.01116371
0.08813739,0.6518168,0.7638963,-0.04583835,-0.01195686,-0.0104079
0.08713652,0.6436832,0.769608,-0.03411396,0.004838343,-0.008210294
0.09002063,0.6293641,0.7745995,-0.01975433,0.02321492,-0.007818561
0.08773766,0.6190367,0.7760393,0.00102276,0.03051375,-0.008134021
0.0854992,0.624545,0.7785888,0.0198755,0.03101251,-0.00423376
0.08184977,0.6227378,0.7796854,0.01931812,0.03119898,0.001644351
0.07551626,0.6276716,0.7790297,0.02584007,0.02428241,0.006482738
0.07716671,0.6366969,0.7766664,0.03550005,0.01621772,0.005341785
0.0792648,0.6435044,0.7752876,0.02781644,0.01056476,0.0001309576
0.07708853,0.6563388,0.7745951,0.01925154,-0.001512639,-0.002810585
0.07859301,0.6551687,0.7740033,0.00969734,-0.01765517,-0.001406243
0.08022791,0.6537538,0.7710334,0.0001574707,-0.02233515,0.0006755459
0.07941049,0.6594041,0.766528,-0.001152588,-0.01138434,-0.001920436
0.07993065,0.6559831,0.7695456,-0.001457939,-0.00333204,-0.003534246
0.0793,0.6542182,0.7723758,-0.003515736,-0.002938993,-0.002156554
0.07920261,0.6526905,0.7692446,-0.008934574,-0.002690282,-0.002382593
0.0834744,0.6500461,0.7689963,-0.01382168,-0.004447475,-0.0006926585
0.08659979,0.6517836,0.7700007,-0.01318995,-0.003479649,0.001704586
0.08651834,0.650239,0.7698159,-0.01216699,0.004810914,0.0009235366
0.08583312,0.6438175,0.7695099,-0.01340069,0.01999191,-0.0008260069
0.0857835,0.6385115,0.7685561,-0.01296199,0.03347405,-0.002886267
0.08453068,0.6405091,0.769971,-0.0116267,0.03587076,-0.003984939
0.07807313,0.6445198,0.7736502,-0.01271101,0.03340166,-0.003045039
0.07110514,0.6436536,0.7757352,-0.01125362,0.0272508,-0.002032702
0.06971629,0.6437154,0.7753137,-0.008593202,0.0169479,-0.001344646
0.07210087,0.6426099,0.7745454,-0.007897641,0.007256038,-0.001015352
0.07330894,0.6387286,0.7750742,-0.007321449,7.637478e-05,-0.002735752
0.07347583,0.6401249,0.7752668,-0.007633739,-0.00142942,-0.004843691
0.0756647,0.6416371,0.7746809,-0.005029963,-0.001877089,-0.004356499
0.0761512,0.6411458,0.7751328,-0.001951715,-0.002878211,-0.004122912
0.07795855,0.6439633,0.7743988,0.001463353,-0.0004104721,-0.004650333
0.08307877,0.6434748,0.7711675,0.008685078,0.002329563,-0.002800918
0.08274579,0.6422997,0.7686008,0.01088895,0.00452513,-0.0007488484
0.08165387,0.6450305,0.7689039,0.008362142,0.004854918,-0.0001426716
0.08367639,0.6464646,0.7702193,0.005540153,0.0039548,-0.0008400864
0.08315746,0.648543,0.7693923,0.00227733,0.005595913,-0.002796715
0.08286336,0.6496753,0.7701439,0.00195425,0.005965667,-0.00364452
0.08157938,0.6501581,0.7724302,0.0006283989,0.005312204,-0.002739963
0.07744489,0.653961,0.771091,-0.005048579,0.005821392,-0.00197037
0.07562057,0.6546541,0.769624,-0.008245832,0.005927441,-0.003424385
0.07563207,0.651917,0.7701409,-0.006226325,0.006918573,-0.005015553
0.07637614,0.6509086,0.7737141,-0.006334585,0.005232043,-0.003860949
0.07693344,0.6507466,0.777973,-0.009598034,0.001363884,-0.002716979
0.0759435,0.6486623,0.7750152,-0.0103751,-0.00069842,-0.0018337
0.07642845,0.644279,0.7701475,-0.008922862,-0.003238359,2.192461e-05
0.07704936,0.6424245,0.7686239,-0.006638774,-0.002526223,0.001741644
0.077772,0.6421667,0.7673032,-0.005726589,0.001708768,0.00327797
0.08052053,0.639398,0.7665646,-0.00470543,0.00496646,0.002864887
0.08166968,0.6383867,0.7670939,-0.0007181263,0.004808488,0.001409682
0.08212784,0.6405218,0.770733,0.003582274,0.001524515,0.001066547
0.08188378,0.6436498,0.7749149,0.008195191,0.001964613,0.0006524315
0.07913081,0.6470733,0.7733333,0.008138184,0.0009163186,-0.001009315
0.07625759,0.6475397,0.7686116,0.003112723,-0.003784858,-0.005234061
0.07399699,0.6451514,0.7669945,0.002828355,-0.005382786,-0.005357883
0.07478636,0.6443566,0.7683529,0.004218253,-0.006355175,0.001588253
0.07616725,0.6470941,0.7683375,0.004938447,-0.00515438,0.002594797
0.07612128,0.6497377,0.7681827,0.006604403,-0.004871034,-0.001010929
0.07848557,0.6487157,0.7709753,0.006215331,-0.004045132,-0.0001040695
0.07829247,0.6472722,0.7730408,0.006992985,-0.0006338839,-0.00119695
0.07667841,0.6454983,0.7722011,0.007321234,-0.00399193,-0.001593109
0.07733829,0.6419141,0.7712623,0.006056441,-0.004846455,0.002071065
0.07530731,0.6425525,0.7732307,0.006722849,-0.0028897,0.001100434
0.07571808,0.6449252,0.7777784,0.004962145,-0.004361687,-0.001040175
0.07992489,0.6432145,0.7793227,0.002579505,-0.0001287575,-0.00185897
0.08085029,0.6427311,0.7737341,0.002978582,0.002100808,-0.002716461
0.07887871,0.6433491,0.7676353,0.003186874,-0.001873835,0.0004061641
0.07688305,0.6425868,0.7689687,0.003732312,-0.005246131,0.001626014
0.07768531,0.6423821,0.771003,0.004372208,-0.005772681,-0.000527593
0.07892724,0.641699,0.7704278,0.004784816,-0.003334631,-0.001686894
0.07990626,0.6432045,0.7733691,0.005957255,-0.003197005,-0.003432983
0.0829493,0.6458177,0.7757558,0.008358133,-0.00247773,-0.005188554
0.08226221,0.6464425,0.7772738,0.01038203,-0.001692079,-0.006414228
0.08006881,0.6492358,0.7798624,0.00916568,-0.002899197,-0.005761796
0.08038662,0.65075,0.7785828,0.007541149,1.833679e-05,-0.005009554
0.07772607,0.6476517,0.7769643,0.007432112,0.0007386337,-0.004583419
0.07557725,0.6454102,0.7755045,0.007031039,-0.002410204,-0.002140077
0.07733731,0.6448059,0.7744877,0.005216986,-0.003177346,-0.002981479
0.07831702,0.64444,0.7782825,0.003571389,-0.004393891,-0.004461494
0.07756728,0.6452443,0.7800602,0.005978176,-0.006275905,-0.003384148
0.07661688,0.6462548,0.7787779,0.007822098,-0.007035427,-0.001437118
0.07670012,0.6458864,0.7779058,0.006352872,-0.00878382,0.002733397
0.07805923,0.6457464,0.7756332,0.007119652,-0.01108151,0.00104585
0.07955617,0.6469351,0.7741604,0.007794644,-0.01039496,-0.001882333
0.07863007,0.6474541,0.7718597,0.006939355,-0.00947589,0.002461877
0.07688209,0.6472314,0.7656591,0.006730746,-0.01085183,0.002884464
0.07854044,0.6471595,0.760902,0.005887867,-0.01089659,0.001754208
0.08077242,0.6470377,0.7651366,0.006094831,-0.01146506,0.001779886
0.08209226,0.6464007,0.7722745,0.006827562,-0.01158517,-0.002334814
0.08173837,0.6453084,0.7745498,0.006123002,-0.007762904,-0.001547762
0.07973181,0.6448547,0.7789994,0.004042325,-0.00512123,0.000374543
0.0815144,0.6444221,0.7802163,0.001277748,-0.005735788,-0.001336907
0.08227472,0.6441557,0.7757193,0.001986741,-0.007063746,9.612496e-05
0.07866782,0.6446853,0.7790254,0.0047054,-0.009757338,-0.0007072593
0.07769757,0.6446016,0.780279,0.005545241,-0.01421295,-0.001230834
0.08024762,0.6453582,0.7731292,0.006691206,-0.01541368,0.0007280263
0.08310642,0.6472017,0.7711095,0.008288931,-0.01179213,-0.001855063
0.08172806,0.6472959,0.7729668,0.01042724,-0.008470994,-0.002941007
0.07829723,0.646233,0.7749742,0.01094787,-0.006586616,-0.002771122
0.07769144,0.6457267,0.7758515,0.006976274,-0.007915748,-0.004660992
0.07733959,0.6469914,0.7693585,0.005611423,-0.01075117,-0.003462217
0.07800049,0.6495157,0.763513,0.005315731,-0.01059158,-0.004240785
0.07877498,0.6497871,0.7692274,0.001338756,-0.009603958,-0.008410088
0.08077133,0.6464255,0.7751817,0.003633394,-0.004034747,-0.005683919
0.08509518,0.643518,0.7714699,0.00653528,0.005008288,0.0007502941
0.08504965,0.6459043,0.7692126,0.0001271186,0.008062253,0.0004541332
0.08660076,0.6486603,0.7702495,-0.003197509,0.007886763,-0.001137561
0.09032523,0.6470634,0.7686337,-0.0004274393,0.009837022,-0.001634518
0.08694371,0.6476443,0.7704847,0.0003320272,0.01133819,-0.004461389
0.08480655,0.6495392,0.7744612,-0.00146581,0.01033452,-0.004294726
0.08670001,0.648316,0.7769264,-0.003121637,0.01029414,-0.004205188
0.08524748,0.6484233,0.7775377,-0.002077697,0.01070071,-0.004961609
0.08102299,0.6491495,0.7752201,-0.0002145308,0.009504745,-0.004551598
0.07624004,0.6492087,0.7765628,0.0007733161,0.009870201,-0.006631741
0.07522454,0.6503998,0.7771706,0.0009363125,0.008671715,-0.005779009
0.0771864,0.650144,0.7752856,0.000626275,0.00538717,-0.005284221
0.07618492,0.6494784,0.7769775,0.0003123443,0.004748191,-0.006973191
0.07503228,0.6488266,0.7753961,-0.00210789,0.005453744,-0.004777196
0.07523387,0.6455916,0.7742241,-0.003242928,0.005711363,-0.002973175
0.07482167,0.6436165,0.7760272,-0.001527235,0.00426331,-0.0009681234
0.07602947,0.6453599,0.7763273,-0.000737972,0.002667773,0.001189919
0.07701621,0.6465211,0.778515,0.0005496047,0.003517724,0.002552835
0.07740145,0.6454537,0.7777331,0.00140845,0.006675846,0.002975363
0.07992582,0.6447454,0.7748863,0.0003337837,0.009355717,0.0009680371
0.08156507,0.644824,0.7733024,-0.0004451469,0.008067134,0.002293638
0.08245534,0.6459471,0.7711827,-0.001930311,0.006498151,0.0008925262
0.08440518,0.6479682,0.7727184,-0.004183642,0.006376085,-0.005500557
0.08388615,0.6474733,0.7744891,-0.003718748,0.00630682,-0.006055805
0.07960707,0.6464159,0.7740505,-0.001199665,0.00631947,-0.004231036
0.075041,0.6467636,0.7711383,-0.0004844696,0.007305924,-0.003968972
0.07258528,0.6457027,0.7661964,-0.001339237,0.009552461,-0.001940533
0.07204622,0.64671,0.7675633,-0.002002298,0.003254888,-6.676568e-05
0.07404219,0.6498396,0.7699771,-0.0007174972,-0.00566524,-0.0007050593
0.07602009,0.6501304,0.7697594,0.0007947472,-0.006136946,-0.0001717166
0.07579214,0.6484038,0.7738718,-0.001288131,-0.005427081,0.001454659
0.07656628,0.6446924,0.7768139,-0.002668953,0.000846204,0.0005090396
0.0780126,0.6423325,0.7784553,-0.001683423,0.007023308,-0.0003624572
0.07952271,0.6456981,0.7802721,-0.001645243,0.004104457,-0.002422112
0.081282,0.6485885,0.7761754,-0.0009768583,0.002530104,-0.004400918
0.08049917,0.6468079,0.7722283,-0.0002941852,0.002104074,-0.00313871
0.07917991,0.6448287,0.7694673,-0.001070756,0.003112568,-0.002973592
0.07925031,0.6444109,0.7670255,-0.001405206,0.005758431,-0.001858926
0.07919073,0.6441467,0.7716781,-0.0009647718,0.007415721,-0.001276782
0.07972345,0.6445864,0.7765796,-0.001663204,0.006290222,-0.003474753
0.07918489,0.6446172,0.7783333,-0.003245987,0.001631454,-0.0034379
0.07714395,0.6441147,0.7793166,-0.003175785,0.003583767,-0.00322689
0.07783203,0.6446901,0.77807,-0.00196853,0.005687896,-0.001796464
0.08009861,0.6447817,0.7791922,-0.001705946,0.005703255,0.0009155637
0.08063458,0.6460383,0.7789486,-0.002786608,0.009679234,0.0001328996
0.0792987,0.6480493,0.7740244,-0.004530158,0.00754269,-0.0007043424
0.07584338,0.6472128,0.7713435,-0.005194995,0.005741497,-0.001227612
0.07316884,0.6461624,0.7726582,-0.002520585,0.004217032,-0.002314202
0.07394013,0.6437694,0.7748149,0.001448817,-0.001107442,-0.001427661
0.07651221,0.6395696,0.773866,0.00260402,0.001873772,-0.001017564
0.07854107,0.6400812,0.7719883,0.001471437,0.004279538,-0.001475462
0.0778636,0.6437636,0.7708479,-0.0002522799,0.001998463,-0.001556433
0.07614418,0.6450002,0.7704424,0.0001512956,-0.0002837221,-0.001996815
0.07570119,0.6441625,0.7741739,0.0006383577,-0.006389097,-0.0009393075
0.07576977,0.6424595,0.7752353,-0.001241646,-0.005951909,0.002447162
0.07754735,0.6416685,0.7710332,-0.0004599787,-0.001262039,0.00387384
0.07942627,0.6442831,0.7688616,-0.0005504796,-0.001223706,-0.0001387917
0.07872691,0.6469191,0.7715963,-0.00216333,0.001159925,-0.001683841
0.0773904,0.6457966,0.7780872,-0.0004201892,0.001105327,0.001967848
0.07596268,0.6443395,0.7797491,0.001200335,-0.0007647982,0.0008494955
0.07578533,0.6445496,0.7751034,0.003242511,0.001007078,0.0008725418
0.07646163,0.6443782,0.7711968,0.003914448,-0.0003548845,0.004156745
0.07623041,0.6443528,0.7693653,0.003706722,-0.0007352149,0.001288537
0.07807073,0.6446393,0.7683251,0.006554041,-0.0006376299,0.0002712532
0.07859203,0.6441082,0.7679558,0.00692577,-0.003823294,0.0022454
0.07670268,0.6432166,0.772666,0.006440399,-0.00608836,0.003857011
0.07722808,0.6411115,0.776812,0.005717022,-0.01057546,0.004434584
0.07655621,0.6398045,0.7757155,0.002734274,-0.01145144,-0.002965718
0.07660991,0.6425587,0.7762379,0.00390383,-0.007528628,-0.007265033
0.07858655,0.6456585,0.7732986,0.005466744,-0.005683557,-0.004777353
0.07649283,0.6462802,0.7704264,0.004610445,-0.002503902,-0.00412831
0.07486685,0.6457988,0.7729975,0.005675318,-0.00466125,-0.003064976
0.07551016,0.6457935,0.771343,0.0050302,-0.008319993,-0.003673728
0.07666078,0.6469287,0.7698186,0.003078745,-0.004544704,-0.003691233
0.07982221,0.6476243,0.7706586,0.003562994,-0.003765888,-0.001651916
0.08139874,0.6481265,0.7689515,0.004588097,-0.003101959,0.0001791329
0.08183522,0.6488329,0.7669015,0.003840456,-0.004465212,0.003703743
0.08117237,0.6486919,0.76473,0.002923351,-0.0109762,0.005146428
0.07820944,0.6483144,0.7669237,0.005329839,-0.008407016,0.003481783
0.07814076,0.6477392,0.7717214,0.006586181,-0.007044317,0.0005124144
0.08017774,0.6468281,0.7724065,0.004591821,-0.01041046,0.0003332222
0.08192598,0.6461632,0.7725054,0.00459184,-0.006309032,0.001487458
0.08378611,0.6454178,0.7721879,0.005289069,-0.00350019,-0.0003370539
0.08210072,0.6438879,0.7718301,0.006422835,-0.003358458,0.0006857444
0.07754851,0.6431391,0.7723918,0.007379434,-0.007387303,0.0004461802
0.07594119,0.6455882,0.7701348,0.005400605,-0.01405071,-0.000561804
0.07899456,0.6479504,0.7691734,0.003797908,-0.009606896,0.002574185
0.08128645,0.6456623,0.7713933,0.002513093,-0.006033298,0.002021744
0.07794039,0.64319,0.7725645,0.001399094,-0.01012569,0.001074533
0.07488605,0.6446722,0.7712665,0.003218183,-0.01065366,0.0009341279
0.07713521,0.6452736,0.7677191,0.005369628,-0.01139649,-0.001109379
0.07980571,0.6456436,0.7649449,0.004307709,-0.01249334,-0.0006613088
0.08183532,0.6477319,0.7645181,0.00223736,-0.01138562,-0.0001970612
0.08388331,0.6456856,0.7696873,0.003303845,-0.01260016,0.001373264
0.08407835,0.6433842,0.7757728,0.005420759,-0.01344348,0.003825851
0.08454672,0.645655,0.7712387,0.005816256,-0.01278385,0.00195698
0.08335433,0.646745,0.7677668,0.005222716,-0.01261278,-0.0003137333
0.08118997,0.647149,0.7744458,0.005407706,-0.009970508,-0.0002424342
0.08382917,0.6482952,0.7786019,0.006409267,-0.005657615,-0.001148583
0.08575425,0.6472358,0.7767607,0.005687806,-0.003146684,-0.001706926
0.0842131,0.6468174,0.7731877,0.005295408,-0.003328425,-0.0002259592
0.0838981,0.648539,0.7706824,0.004939443,-0.005928205,-0.0004333436
0.08414314,0.6487083,0.7673896,0.004904586,-0.008175856,-0.0007738416
0.08478794,0.6471714,0.763094,0.008719075,-0.008266838,0.0004372102
0.08469157,0.6452754,0.7683997,0.009769729,-0.006638521,0.0007381055
0.08263745,0.6437484,0.7755618,0.007216893,-0.004690881,0.001414768
0.08093925,0.6449395,0.7714921,0.004646979,-0.003371291,0.0002352376
0.07916054,0.6475398,0.7687224,0.001197448,-0.002879977,-0.002159556
0.07721168,0.6490566,0.7685707,0.002846189,-0.004009827,-0.002443428
0.07789551,0.6487056,0.7648739,0.004639258,-0.00350794,-0.002051939
0.08134337,0.6463026,0.7647168,0.00132776,-0.001224269,0.001316953
0.08441532,0.6453784,0.7633332,0.001176654,-0.001007748,0.004633957
0.08533976,0.6459444,0.761931,0.0009212037,-0.001735901,0.004398463
0.08467562,0.6456203,0.7681647,-6.736207e-05,-0.002550278,0.006120861
0.08438764,0.6450262,0.7726376,-8.199617e-05,-0.002373324,0.00737096
0.08468019,0.6440851,0.7726808,-0.003395891,-0.001521724,0.002450821
0.08287075,0.6446913,0.7721242,-0.002473368,-8.93377e-05,-0.002617747
0.08157531,0.647094,0.7718474,-0.001137861,0.00303415,-0.001845104
0.08379535,0.649984,0.7730613,-0.00373071,0.004738734,-0.002072536
0.08529486,0.651642,0.7737743,-0.002533051,0.008347738,-0.004824034
0.08388645,0.6489791,0.775053,-0.003224058,0.01291407,-0.002227399
0.08267278,0.6457334,0.7738231,-0.003243076,0.01077833,-8.577579e-05
0.08275443,0.6443138,0.7704725,0.0006190787,0.008060111,-0.00224659
0.08002908,0.64564,0.7706895,0.00111312,0.008226045,-0.002194617
0.07632642,0.6521538,0.7693969,-0.0002765617,0.007051746,-0.001892995
0.07810052,0.6555398,0.7685674,-0.002254381,0.005225122,-0.00173731
0.08129993,0.6519194,0.7706665,-0.001782064,0.003306484,-0.001226298
0.0819925,0.6483726,0.7709072,-0.001266443,0.005184648,-0.002078808
0.08144314,0.6472559,0.7728972,-0.003311726,0.009179169,-0.001519294
0.08012389,0.646513,0.7747214,-0.002009112,0.007408403,-0.001554847
0.08129711,0.6435224,0.7746741,-0.001387512,0.006043659,-0.001886435
0.08275337,0.6409886,0.7758157,-0.001689655,0.007645104,-0.0009787221
0.08160526,0.6433138,0.7741829,-0.001035011,0.00618386,-0.001829409
0.08184931,0.646322,0.7689008,-0.002205729,0.005504449,-0.002503955
0.08188858,0.6453834,0.761975,-0.00271268,0.006814069,-0.003666806
0.07986534,0.6445341,0.7612844,-0.00477502,0.008964042,-0.004677925
0.07913676,0.6463631,0.7690719,-0.006328021,0.0106017,-0.003120081
0.0807422,0.6461209,0.7723775,-0.003992312,0.008329943,-0.003264574
0.08278554,0.6456275,0.7726537,-0.002496197,0.004963283,-0.003469449
0.0821157,0.6480322,0.7744984,-0.001331752,0.001122576,-0.002684527
0.08149203,0.6490514,0.7744472,-0.0003907973,-2.217797e-05,-0.003481052
0.08333304,0.648673,0.7738787,-0.0002709436,0.002599887,-0.003170274
0.08332967,0.6482838,0.7710148,0.001834589,0.003943729,-0.002633026
0.08176736,0.6475028,0.770211,0.00352324,0.006115605,-0.001790812
0.07915796,0.6462672,0.7718873,0.0009949507,0.00532813,0.00109905
0.07719713,0.6454045,0.771626,-0.002100063,0.001999195,0.002958331
0.08048251,0.6469272,0.7734182,-0.001111381,0.003381976,0.002099592
0.08309063,0.6473198,0.7734932,-0.001550539,0.005640382,0.0004072932
0.08091142,0.6452007,0.7739875,-0.004364533,0.006924441,0.0009888256
0.0794753,0.6441595,0.7764847,-0.003192608,0.006721575,0.0004472542
0.07904923,0.6451043,0.7746515,-0.002603669,0.005415573,-0.001935638
0.07755596,0.6465065,0.7722031,-0.003446708,0.00273086,-0.0007610059
0.07816595,0.6459705,0.7712856,-0.000959522,-0.0005772662,-0.000621584
0.08023054,0.6463416,0.7747,0.000249933,0.003527841,-0.002540779
0.07977747,0.6482922,0.7772551,-0.001547915,0.007045855,-0.0036841
0.07949701,0.6485188,0.7749118,-0.003317926,0.003782351,-0.004390217
0.07935369,0.6485222,0.7742601,-0.00334635,0.003083851,-0.001519449
0.07765262,0.6472139,0.7702502,-0.001563078,0.003171944,-0.001592912
0.07780181,0.6467164,0.7687161,-0.0001759231,0.0009352082,-0.003706121
0.07785711,0.6497153,0.770697,0.0005962821,-0.0009833583,0.0003469798
0.0775133,0.6501059,0.7688845,0.0007671228,-0.0009468145,0.002184422
0.07812471,0.647648,0.7724921,0.001123416,-3.227465e-05,0.003285045
0.07753252,0.6450274,0.7748608,0.001741622,0.0008019013,0.006608361
0.07780068,0.6437107,0.7721389,0.001058012,0.005231029,0.004025486
0.07797028,0.6456525,0.7694209,0.0009970056,0.009112523,0.002394493
0.07819362,0.6463223,0.7663305,0.0004921287,0.006942386,0.003561561
0.0816117,0.6455198,0.7725209,-0.001580888,0.005208451,0.001595777
0.0841272,0.6465074,0.7790513,-0.0023606,0.007848146,0.0009459211
0.08263793,0.6484776,0.7743549,-0.00205413,0.009035918,0.001012388
0.08012154,0.6502533,0.7709449,-0.001227606,0.008990176,-0.0005528464
0.08019535,0.6477219,0.7726462,-0.0007152661,0.01529285,-0.00185451
0.07991139,0.6440995,0.7726742,-0.0006932741,0.02439959,-0.001807937
0.07740615,0.6452153,0.7725525,-0.0002257593,0.02643601,-0.001701918
0.07653747,0.6455655,0.7746689,-0.0002190819,0.02132415,-0.004289835
0.07503203,0.644811,0.7754443,-0.0002443129,0.01556626,-0.006061657
0.07248512,0.646514,0.7764355,-0.0004667721,0.01075191,-0.005181452
0.07107794,0.647501,0.7760861,-0.0007376506,0.005847728,-0.003434127
0.07046025,0.6473829,0.7702761,-0.001377615,0.001186301,0.001058974
0.07286135,0.6469521,0.7671867,-0.003362854,-0.006596048,0.005445242
0.07709293,0.6461795,0.7704013,-0.003802629,-0.009861994,0.003914832
0.07977049,0.6459945,0.773541,-0.003091104,-0.001062704,0.0004362003
0.07660031,0.6464608,0.771361,-0.00180599,0.004613937,0.002208517
0.07039047,0.647486,0.7687448,0.002003106,0.0004668381,0.003771595
0.070412,0.6461754,0.7706986,0.006139047,-0.005466071,0.002263724
0.07245497,0.6432867,0.7708391,0.008929462,-0.008998324,0.004653012
0.07355299,0.6429548,0.7724646,0.009765438,-0.006256044,0.006368561
0.07688674,0.643874,0.7767673,0.009791143,-0.001837616,0.00458501
0.0786116,0.6450037,0.7769728,0.009638521,-0.004045977,0.005579838
0.07861705,0.6457012,0.7776561,0.007217823,-0.008731617,0.006708901
0.07844402,0.6465536,0.7771515,0.004738198,-0.009870913,0.005817691
0.07833299,0.6484793,0.7710722,0.002845754,-0.009482512,0.00411941
0.07868332,0.6497429,0.7664007,0.0006209843,-0.009267993,0.001333354
0.07831085,0.6517216,0.7690735,0.000833384,-0.009431776,-6.133881e-05
0.07850692,0.651276,0.7747478,0.00310635,-0.01012163,-0.001801062
0.07839176,0.6484048,0.7764457,0.004230333,-0.01089017,-0.003257989
0.07740242,0.6485105,0.7766276,0.003751725,-0.01284924,-0.001629403
0.07716347,0.6471407,0.7759721,0.004357579,-0.01435613,-0.002546983
0.07758799,0.6461241,0.7739872,0.006367614,-0.01565236,-0.005134536
0.07823867,0.6470808,0.7746877,0.007517093,-0.01570562,-0.005661495
0.07762001,0.6445067,0.7746474,0.007493039,-0.01046216,-0.004107061
0.07718115,0.6443157,0.7711129,0.007421249,-0.008524711,0.0008586262
0.07639848,0.6450179,0.7695404,0.008375188,-0.01399779,0.002329564
0.07486974,0.6421859,0.7723809,0.00937895,-0.01720302,-0.0004647965
0.07840291,0.6434415,0.7729929,0.01027405,-0.01565058,-0.0005672073
0.08225208,0.6473238,0.7713299,0.01071699,-0.01233899,0.001814178
0.08084509,0.6490504,0.772736,0.007998389,-0.009334893,0.005281528
0.08166696,0.648243,0.7722778,0.005602695,-0.006958098,0.005244762
0.08442877,0.6459191,0.7715347,0.008429988,-0.004239296,0.003246075
0.08326178,0.6458707,0.7723426,0.01112543,-0.003217218,0.003728532
0.08179921,0.6462141,0.771685,0.008887077,-0.004900929,0.002003513
0.08199261,0.6473008,0.7732756,0.007163142,-0.00772136,0.00163607
0.08086477,0.6503198,0.7719075,0.007217143,-0.0114138,0.003940578
0.07987132,0.6517633,0.7673777,0.005210723,-0.01443858,0.002734461
0.07892494,0.6533541,0.7657,0.003069828,-0.01376322,0.002876102
0.07732916,0.6532439,0.7656403,0.0002911754,-0.007989134,0.004034477
0.07867906,0.6518996,0.7692699,-0.001912387,-0.001030882,0.002139202
0.0813021,0.6523018,0.7713631,-0.0006980926,-0.002044442,0.002008671
0.08331753,0.6474073,0.770371,-0.002283932,-0.004536519,0.001470569
0.08549441,0.6425225,0.7710725,-0.004558691,8.625799e-05,-0.0009768132
0.08504696,0.6453091,0.7694087,-0.00144116,-0.0008282256,-0.001288256
0.08337786,0.6469134,0.7672349,0.0009615658,-0.003468919,0.0005912153
0.08148509,0.6452466,0.7669273,0.001164998,-0.0002009622,0.00400229
0.07815606,0.6447094,0.7691088,0.002084493,-0.0001547019,0.003836064
0.07842957,0.6445733,0.7731223,0.001198515,0.001367503,0.001573727
0.08010746,0.6450358,0.7721829,-0.001046912,0.001100158,0.001781238
0.07775485,0.6490017,0.7690592,-0.001484079,-0.004952311,0.001070723
0.07725476,0.6529548,0.765838,-0.0001651098,-0.007457707,0.003296063
0.07868487,0.6512415,0.7630956,0.001405865,-0.008881729,0.004972737
0.07936029,0.6486065,0.7673874,0.001938198,-0.008246559,0.002754586
0.08229449,0.647691,0.7713653,0.001029054,-0.007932619,0.005928927
0.0834626,0.6467257,0.7686285,0.0005918249,-0.01103188,0.008219663
0.08281553,0.6472523,0.7654325,0.001725403,-0.0102985,0.006104074
0.08286426,0.6474963,0.7615093,0.002163635,-0.009252755,0.00433798
0.08144417,0.6471218,0.7588114,0.0004260596,-0.007355906,-0.0002195922
0.08176993,0.6482217,0.7633245,-0.0005401352,-0.002018917,-0.00023673
0.08242783,0.6489582,0.7672061,0.0001427511,0.001139276,0.006015456
0.0817045,0.648561,0.7649418,-0.0004103654,0.001196538,0.005591736
0.08283018,0.6485304,0.764312,-0.00104588,0.001797645,0.0004220117
0.08278651,0.6488593,0.7638318,-0.001414877,0.005583644,-0.0003985945
0.08156781,0.6493064,0.7598293,-0.001777409,0.004804059,-0.001749563
0.08131508,0.6491918,0.760153,-0.001007994,0.0007482671,-0.005040426
0.07943417,0.6475615,0.7664561,-0.001160138,0.001803668,-0.004572237
0.07692743,0.6464577,0.7712766,-0.00130677,0.00350715,-0.004288022
0.07736257,0.6465255,0.77007,-0.00246832,0.007016455,-0.003654129
0.07851316,0.6457091,0.7681289,-0.004917909,0.009019247,-0.001160545
0.0779694,0.6454763,0.7704434,-0.0044029,0.006687433,-0.001994397
0.08063014,0.6463783,0.7715261,-0.005394139,0.007275396,-0.001431414
0.0850147,0.6466228,0.7719835,-0.007742454,0.006002947,0.001779603
0.08499684,0.6473392,0.7731214,-0.005126026,0.00493926,0.00234845
0.08303265,0.6472318,0.7717542,-0.001930073,0.008247005,0.001140349
0.08023223,0.6450305,0.7728947,-0.001104934,0.009030451,-0.0002877196
0.07736946,0.6440473,0.773759,-0.0003119362,0.008473549,-0.00139948
0.07743212,0.6447263,0.7722382,-0.001192812,0.005359965,-0.002222799
0.07863105,0.6460065,0.7740116,-0.003025588,0.0006549196,-0.00141466
0.08040477,0.6463837,0.7734894,-0.002442985,0.002670345,-0.0006149401
0.08245582,0.6455377,0.7702987,-0.001705839,0.005379231,-0.002269776
0.08079849,0.6465863,0.7690797,-0.001703605,0.003284314,-0.002742902
0.07604541,0.6470854,0.7702184,-0.0006602947,0.004007432,-0.001547644
0.07403591,0.6458301,0.7762341,-0.0007476051,0.005208587,-0.0002009866
0.07521031,0.6459671,0.7800852,-0.001663448,0.001819566,0.0001620858
0.07634972,0.6459415,0.7751079,-0.003054989,0.0005391517,-0.0007470884
0.0781499,0.6465568,0.7699028,-0.005038933,0.00211861,0.0008279575
0.08163594,0.6478064,0.7722159,-0.005423341,0.002970749,0.003335724
0.08411214,0.6470836,0.7739924,-0.006153079,0.003416549,0.003614764
0.08164798,0.6470582,0.7705955,-0.006475742,0.005521282,0.003208197
0.07832803,0.6474792,0.7716069,-0.005045139,0.009913018,0.003513637
0.07918991,0.6470178,0.7745276,-0.004863928,0.01009661,0.003174433
0.07948364,0.6471325,0.7735689,-0.005033459,0.008863616,-0.001681661
0.07880811,0.6463551,0.7724942,-0.005098718,0.01215282,-0.005666838
0.07922421,0.6456378,0.7718679,-0.005292597,0.01325766,-0.002602135
0.07803185,0.6467415,0.7723516,-0.004833877,0.01073011,-0.0002709225
0.07653391,0.6472524,0.7723278,-0.003901364,0.008134888,-0.001403953
0.07597659,0.6454778,0.7719514,-0.0005568232,0.006708788,-0.001777144
0.07563599,0.6436712,0.7725425,0.00225379,0.005540915,-0.001469896
0.07563055,0.6447427,0.7716259,-0.0001099023,0.004181417,0.0006141764
0.07568467,0.6466631,0.770857,-0.003811761,0.004340051,0.003204483
0.07632197,0.6477763,0.7706357,-0.004801706,0.002386776,0.002414315
0.07811616,0.6493071,0.7714004,-0.00398934,-0.0002002903,0.0003718626
0.08013399,0.6499047,0.7714726,-0.003222409,-0.0004149173,-0.0001840919
0.08058584,0.6480685,0.7699102,-0.002849594,0.0004335173,-0.00111244
0.08200054,0.6447122,0.7715641,-0.001136006,0.003898542,-0.0006892716
0.08445504,0.6436114,0.7729409,0.0005937991,0.003684328,0.002250451
0.08256685,0.6455933,0.7734756,-0.0008817225,0.001448766,0.003217058
0.07915595,0.6480324,0.7742485,-0.002765375,0.004166469,0.001762241
0.07787795,0.6504788,0.7711679,-0.002914246,0.004513608,0.0003574141
0.07969489,0.6487483,0.7673526,-0.003546915,0.003951885,0.0003575104
0.08353739,0.644766,0.7635792,-0.003972995,0.004584641,0.0004813126
0.08217183,0.6452622,0.7638778,-0.004231937,0.002317056,-0.0004884459
0.08078545,0.6437084,0.768644,-0.005357068,0.001421931,-0.001077571
0.08296956,0.6402448,0.7682601,-0.005709653,0.0007082094,-0.001905564
0.08106719,0.6420618,0.7694054,-0.004614949,-0.001583317,-0.000729794
0.07893349,0.6444081,0.7775404,-0.001696606,-0.003625195,0.001342347
0.07762681,0.6462403,0.783625,0.001369582,-0.005841998,0.0005117416
0.07702348,0.6483597,0.7806211,0.001128179,-0.005604487,0.0005366935
0.07959307,0.6478227,0.7747322,0.001102304,-0.003868777,0.0006913071
0.07902865,0.6472208,0.7767496,0.004833763,-0.001744198,-0.0002525066
0.07756156,0.6457221,0.7747139,0.006885375,0.0008555627,-0.000490032
0.07609085,0.6433735,0.7687617,0.005130758,-0.001207839,0.0001224619
0.07294552,0.645014,0.7725686,0.002382197,-0.005894986,0.002925447
0.0739337,0.6476938,0.7738872,-0.000131509,-0.006212039,0.003598631
0.07623951,0.6490322,0.7720398,0.0001497564,-0.002755463,0.002518139
0.07939705,0.6495353,0.7700796,0.0007843916,-0.0003242607,0.004012393
0.08284134,0.646904,0.7651217,-7.57926e-05,-0.00373692,0.003482871
0.08154117,0.6442242,0.7689985,0.001749171,-0.007851311,0.001466047
0.07987842,0.6442508,0.7726853,0.002913132,-0.004924868,0.001666405
0.07894696,0.6454512,0.7682014,0.002080342,-0.003531943,0.002443973
0.07887881,0.6463263,0.7673194,0.003288865,-0.006562876,0.00235425
0.08079763,0.6453004,0.7688912,0.004250806,-0.006518611,0.002092718
0.08148079,0.6439361,0.7707743,0.004655236,-0.005690769,0.002571572
0.08183437,0.6429431,0.772777,0.00300512,-0.003786441,-0.0008144513
0.0798584,0.6434793,0.77144,-0.0007485394,-0.001520507,-0.003881521
0.07551091,0.6452881,0.769189,0.0003073248,-0.004540578,0.002459818
0.07445824,0.6443363,0.769202,0.001847036,-0.007050696,0.006541674
0.07611333,0.6438581,0.7688785,0.0009553642,-0.004268946,0.0005058002
0.07780637,0.6440691,0.7647474,0.003374415,-0.001794483,-0.003411152
0.07802595,0.6428056,0.7611884,0.004755056,-0.002664794,0.001673612
0.07757193,0.6447849,0.7620881,0.003602909,-0.003993595,0.006804906
0.07790362,0.6465869,0.7633194,0.002534562,-0.004378518,0.004177273
0.07773208,0.6447789,0.7625563,0.001285847,-0.003360634,0.0007672044
0.07792252,0.6439476,0.7655711,0.002268309,-0.0007727482,-0.001164522
0.07876742,0.6449035,0.7751409,0.002527647,3.761067e-05,-0.00413635
0.07931884,0.6463958,0.7836346,0.002096385,-9.356141e-05,-0.004440436
0.07972805,0.6475874,0.7840814,0.003684924,-0.0009763127,-0.004034276
0.08070611,0.6474852,0.7768797,0.003330219,-0.004092497,-0.002740552
0.0820285,0.6467187,0.7685084,0.002499363,-0.005588229,0.0003100867
0.07959784,0.6467358,0.7631821,0.002888958,-0.00873407,0.0002703684
0.07633498,0.6477356,0.7643954,0.003250534,-0.01285211,-0.001378603
0.07818947,0.6496679,0.7726928,0.004169233,-0.01065236,-0.001710699
0.08021587,0.6504945,0.7750273,0.004802344,-0.01022903,-0.00118565
0.08067379,0.6474789,0.7723591,0.008168189,-0.0168291,0.001120807
0.08205874,0.6446658,0.7739776,0.01382424,-0.0232651,0.002866787
0.08301398,0.6443817,0.7727196,0.01776379,-0.02687631,-0.0005458524
0.08451517,0.6450988,0.7704768,0.02302916,-0.02716438,-0.005266045
0.0850468,0.6466415,0.7712226,0.02549086,-0.02506257,-0.006885318
0.0833254,0.6474229,0.771486,0.01875757,-0.02435802,-0.006953143
0.08224568,0.6506734,0.7726222,0.01129271,-0.02273618,-0.00392575
0.0816707,0.6540773,0.7725825,0.006558712,-0.01284482,0.001095708
0.08221063,0.6509383,0.7726747,0.001601434,0.004101799,0.005334547
0.08401943,0.6487299,0.7733624,-2.928498e-05,0.01669042,0.007319676
0.0853739,0.6509749,0.7691086,-0.002194476,0.01633394,0.001327987
0.08680386,0.6534009,0.766088,-0.00525548,0.00782449,-0.007951736
0.08789955,0.6573242,0.7717919,-0.003994778,0.004750548,-0.01210546
0.08898404,0.659133,0.7768037,-0.003305369,0.01236963,-0.01795504
0.09186132,0.6551822,0.7715633,-0.00433841,0.02890611,-0.02338911
0.09773669,0.6518299,0.7680505,-0.01111269,0.05356377,-0.02142001
0.102809,0.6518488,0.7758321,-0.02255895,0.07995439,-0.0225912
0.1001798,0.6511871,0.7814797,-0.02512372,0.09439652,-0.02205049
0.08906561,0.6494823,0.7786444,-0.02411689,0.08835926,-0.01124647
0.06966381,0.6453721,0.7737752,-0.01727634,0.07241147,-0.004653197
0.05453052,0.6365335,0.7679235,0.003574625,0.06162531,-0.0001121261
0.05872373,0.6279281,0.7630064,0.01851566,0.06174273,0.007516657
0.06324751,0.6265069,0.7652073,0.02403804,0.06283526,0.006297499
0.05939024,0.6366613,0.7738238,0.02411184,0.04723238,0.001935285
0.06277013,0.6531485,0.7784161,0.01128352,0.02690962,0.001553942
0.06171702,0.6647767,0.7768449,0.003331284,0.01100556,0.0005227852
0.05451696,0.668638,0.7774118,0.007903146,-0.005170725,0.007795961
0.05670419,0.6620112,0.779702,0.01184739,-0.005374304,0.01894913
0.06292366,0.6526446,0.7772733,0.0123404,0.003102841,0.01252856
0.07460442,0.6549469,0.7719833,0.004866165,0.006420942,-0.0001160208
0.08567167,0.6559532,0.7698257,-0.008324857,0.008818923,-0.008874992
0.08484458,0.6510152,0.7681201,-0.01623942,0.008104227,-0.02191714
0.0859872,0.6487487,0.7637182,-0.015577,0.01749819,-0.02692956
0.08757921,0.6365839,0.760051,-0.01216258,0.03423927,-0.02640551
0.08063791,0.6277002,0.760137,-0.01117186,0.04286445,-0.02661257
0.07488874,0.6370794,0.7631641,-0.01053591,0.05468202,-0.0221573
0.07430981,0.6415487,0.7655459,-0.010961,0.06726388,-0.02616165
0.07029063,0.6400079,0.7708357,-0.0098638,0.06458457,-0.03199017
0.05895739,0.6420614,0.7775248,-0.004863613,0.05496492,-0.0316447
0.0551226,0.641454,0.7798357,0.002720988,0.05407654,-0.03551775
0.05824641,0.6390958,0.7816575,0.01154508,0.05174022,-0.03995625
0.05482484,0.6389521,0.7808148,0.01163788,0.03867313,-0.04885537
0.05411081,0.6438878,0.7811202,0.007891206,0.0197419,-0.05785585
0.05398683,0.6501603,0.782521,0.007583037,0.0002953498,-0.0521757
0.04886579,0.656542,0.7751975,0.003625812,-0.009217225,-0.03755559
0.05218865,0.6643043,0.7690094,0.00101024,-0.02322308,-0.02642771
0.06431632,0.6638017,0.7659376,-0.001435319,-0.03305162,-0.02966785
0.07408879,0.6590355,0.7638231,-0.005672997,-0.007996824,-0.03576445
0.07032271,0.6577638,0.768136,-0.008920462,0.01891749,-0.03061799
0.05814667,0.6539754,0.7724232,-0.01951845,0.02544878,-0.02808501
0.05249129,0.6528926,0.7765665,-0.02602417,0.02038786,-0.02712743
0.04807926,0.656371,0.7788687,-0.02102315,0.01099793,-0.02193146
0.04528283,0.6558472,0.7778559,-0.01671373,0.01399507,-0.01596445
0.04515898,0.6568945,0.7775161,-0.01319135,0.01334577,-0.002285154
0.03964533,0.6595697,0.7739272,-0.01440426,0.007279032,0.005355976
0.038238,0.6574325,0.7745798,-0.02017945,0.00771262,0.00471569
0.04114888,0.6554435,0.7792983,-0.02562671,0.005635868,0.01331308
0.04182977,0.6537682,0.7787623,-0.03401236,0.003312956,0.01308965
0.04376202,0.6516633,0.7786189,-0.03981182,-0.01647211,0.006270146
0.04967014,0.6454088,0.7776286,-0.04052257,-0.03819992,0.006189467
0.06371743,0.6335783,0.7759453,-0.03626907,-0.02253072,-0.004803686
0.07248061,0.6328994,0.7734229,-0.02976336,-0.004560579,-0.01137465
0.07227573,0.6399521,0.768643,-0.02569101,-0.0005800104,-0.004282255
0.07450374,0.6407633,0.7781894,-0.01905797,0.02365896,0.0003255796
0.06771198,0.6420046,0.7962021,-0.01586738,0.04336593,0.009237628
0.05535325,0.6381711,0.7980743,-0.00975219,0.02144594,0.01424594
0.04544282,0.620195,0.7807639,0.01440653,0.004623833,0.0103757
0.03262584,0.604062,0.7640625,0.03132006,0.02223891,0.01105493
0.03282286,0.6095288,0.7701814,0.02857737,0.02359456,0.00999124
0.03965924,0.6275185,0.7788923,0.03184262,-0.01058892,0.007620585
0.03213822,0.6384307,0.7744476,0.03952018,-0.05993775,0.01358455
0.03207926,0.6447973,0.7769015,0.03705092,-0.08145023,0.02569706
0.04813269,0.6462074,0.7791479,0.03155777,-0.02888235,0.04078118
0.06119226,0.6500934,0.7824861,0.02084452,0.03851914,0.04973105
0.06603503,0.6629039,0.7916484,0.005375192,0.04947787,0.0411042
0.06188582,0.663795,0.7831626,-0.0009093908,0.04455224,0.02364182
0.06305091,0.6664095,0.7737954,-0.001334317,0.04899944,0.005792785
0.07000076,0.6777808,0.7742131,-0.009152513,0.03188466,-0.0202547
0.06672705,0.679951,0.761471,-0.03876294,0.009923181,-0.03505723
0.06430398,0.6839026,0.7513577,-0.07618167,0.01811902,-0.01887496
0.05838375,0.6747227,0.7571789,-0.08864009,0.04163413,0.002041199
0.04688738,0.6522646,0.7645147,-0.08509297,0.05697549,0.01938182
0.04298507,0.6339902,0.7730563,-0.07372695,0.06082588,0.03887239
0.04011499,0.6083887,0.7846979,-0.04159239,0.06195327,0.03875264
0.04169298,0.5941219,0.7948087,0.002060813,0.07510921,0.03118582
0.04231655,0.5889458,0.8030413,0.03848862,0.08142502,0.03631762
0.03519783,0.5832772,0.8045664,0.06670704,0.06126688,0.03138204
0.02604698,0.5908014,0.8013774,0.09281409,0.02920169,0.02403376
0.01560149,0.5930545,0.8001308,0.1150184,-0.01595228,0.03241902
0.02096522,0.6026612,0.7916099,0.1360165,-0.05121411,0.03918369
0.036219,0.6287679,0.7849524,0.1336478,-0.04708674,0.041088
0.04851515,0.6510721,0.7847346,0.09938946,-0.03533042,0.03053054
0.06475958,0.6785433,0.7716675,0.06857946,-0.03150244,0.008125102
0.06910126,0.6977979,0.7612266,0.0401066,-0.03035382,-0.002465558
0.06454761,0.7027289,0.7576462,0.01754779,-0.0310194,-0.01407861
0.06300627,0.7061566,0.7482707,-0.003831126,-0.02311005,-0.02851568
0.05538834,0.700249,0.7489425,-0.03952171,-0.01978838,-0.02813938
0.04922436,0.6912833,0.7548226,-0.05457294,-0.02343483,-0.02726459
0.04718404,0.6753381,0.7586668,-0.06237956,-0.02513001,-0.02376598
0.04629218,0.6532302,0.7651669,-0.06942682,-0.02937886,-0.00745975
0.04823274,0.6438203,0.7664562,-0.05961968,-0.02706732,0.005199996
0.0478741,0.6383,0.7694303,-0.05793442,-0.018999,0.008877346
0.04856704,0.6338884,0.7780959,-0.04486827,-0.01293193,0.01328611
0.04929478,0.6354984,0.7827,-0.02934217,-0.009447102,0.01781016
0.04788795,0.6350349,0.7848152,-0.0292242,-0.01175208,0.01317465
0.0486099,0.6341119,0.7858618,-0.01736325,-0.01153024,0.003371529
0.04691314,0.634292,0.7868874,-0.0073139,-0.007050747,0.003506919
0.04491281,0.6309139,0.7935393,-0.0009897829,-0.003580986,0.008797582
0.04604415,0.6251157,0.7971805,0.01006518,0.0003041833,0.009220872
0.04560846,0.6211218,0.7904671,0.02892106,-0.003016587,0.01281718
0.04390394,0.6198225,0.783886,0.05287153,-0.01618513,0.01907572
0.04256041,0.624407,0.7820077,0.05671274,-0.03652235,0.02035162
0.04319784,0.6331952,0.7808159,0.05834125,-0.05597311,0.02003307
0.04652566,0.638614,0.7783294,0.06552642,-0.05847562,0.01809862
0.05307936,0.648546,0.7743683,0.06093105,-0.05690208,0.01317177
0.06125043,0.6606069,0.7709622,0.05261519,-0.05551969,0.008770323
0.06199749,0.6623381,0.7706238,0.037189,-0.03788182,0.004145774
0.05650744,0.6657551,0.770919,0.01923109,-0.02709482,0.0007593516
0.05474081,0.670822,0.7662157,0.008509527,-0.0295212,-0.0002451207
0.05664554,0.6680258,0.7611227,0.001627782,-0.0213713,-0.002455976
0.05843501,0.6658629,0.7596706,-0.001605317,-0.01023698,9.070801e-05
0.05857908,0.66345,0.7599781,-0.005652944,-0.00344586,0.005850117
0.05772712,0.6616817,0.7637092,-0.01433832,0.003399461,0.007062235
0.05633834,0.6605488,0.76736,-0.0261867,0.01546972,0.01162809
0.05303138,0.6525257,0.7706122,-0.03135028,0.02872425,0.01645369
0.05030771,0.6490069,0.7741547,-0.03161783,0.02350041,0.01602822
0.04772712,0.6501166,0.7734974,-0.03333391,0.007831216,0.01346083
0.0438133,0.6507102,0.7733929,-0.02925561,-0.006981051,0.008061304
0.0439039,0.6559093,0.7768701,-0.02952462,-0.02376489,0.009730398
0.04721589,0.6522203,0.7782733,-0.03030008,-0.0261595,0.01369817
0.05132582,0.6407773,0.7758963,-0.01949552,-0.02043496,0.01310414
0.05735043,0.6308103,0.7750876,-0.01113189,-0.02169417,0.01752573
0.06021474,0.6176419,0.7795088,0.0003368726,-0.01499545,0.01845933
0.06013218,0.6109011,0.7835958,0.02222492,-0.008567417,0.02108365
0.05763279,0.6120436,0.7822885,0.0455885,-0.01952663,0.03183637
0.04948996,0.6145976,0.7808736,0.06376926,-0.03824267,0.03045776
0.04772834,0.6223919,0.7815369,0.07202671,-0.05611337,0.02444584
0.05668805,0.6365672,0.7766761,0.07393687,-0.06171585,0.02477332
0.0637475,0.6514904,0.7708491,0.06495387,-0.05063768,0.01839401
0.06543862,0.6604965,0.7700287,0.05242167,-0.03824987,0.01239816
0.06414029,0.6711577,0.7647268,0.04454041,-0.0324425,0.01270729
0.06412982,0.6814467,0.7583286,0.02416687,-0.03130227,0.003064591
0.06405687,0.6837319,0.7593979,4.851991e-06,-0.02932194,-0.007301645
0.06030008,0.6888976,0.7604894,-0.01380654,-0.02322429,-0.005536958
0.05961885,0.6914582,0.7590248,-0.02809427,-0.01947855,-0.01029262
0.06190088,0.6843717,0.7587235,-0.04489477,-0.01853126,-0.0147262
0.06434373,0.674592,0.7575984,-0.05581917,-0.01419132,-0.007670838
0.06499643,0.6644803,0.7572989,-0.06175127,-0.009241753,-0.006071092
0.06310612,0.6589417,0.7598187,-0.06833618,-0.007417231,-0.004736422
0.06576826,0.653887,0.7605536,-0.06636181,-0.003314379,-0.001754959
0.06726069,0.6457121,0.7612789,-0.06010246,0.004995766,-0.00398444
0.06554761,0.6378735,0.7661008,-0.05933932,0.01147928,-0.003460777
0.06557112,0.6270537,0.7752501,-0.04656727,0.01513521,-0.002934301
0.06046685,0.6205545,0.7871324,-0.02669707,0.01631875,-0.001880359
0.05605359,0.6229173,0.7899057,-0.01565758,0.01557691,0.001366442
0.05649541,0.6235755,0.7830497,0.001510652,0.01651005,0.003558418
0.05386248,0.6245685,0.7814016,0.02453217,0.008627347,0.008780046
0.05250795,0.6295016,0.7824726,0.03360209,-0.009376295,0.01280381
0.05471444,0.6343703,0.7807286,0.03488481,-0.02087038,0.01417116
0.0548074,0.6435483,0.7782957,0.03776632,-0.03014433,0.01622428
0.0544209,0.6544787,0.7730214,0.03281992,-0.03807818,0.01204185
0.05608937,0.6600241,0.7696514,0.02457499,-0.03909137,0.005089527
0.05746386,0.6611474,0.7689188,0.01819586,-0.04017231,0.007010775
0.06296447,0.6607613,0.7652742,0.006905094,-0.0348642,0.00847533
0.07114768,0.6623105,0.763301,-0.002230233,-0.02833777,0.002721452
0.06984726,0.6593537,0.7656365,-0.005565846,-0.03070308,0.001866549
0.06738711,0.6529698,0.7711911,-0.009665246,-0.02935278,0.003627371
0.06999682,0.6540074,0.7744012,-0.01355265,-0.02257748,0.004469193
0.06761035,0.6557317,0.7682885,-0.01491582,-0.01324162,0.00703871
0.06712745,0.655113,0.7628323,-0.01567015,0.0006478176,0.005392587
0.06932842,0.6550629,0.766319,-0.01696365,0.01264287,0.00488756
0.06710037,0.6536035,0.7717595,-0.01971851,0.012293,0.007372827
0.06698282,0.6542778,0.7744332,-0.02593094,0.004556333,0.006658401
0.06572268,0.6550966,0.7744396,-0.0285509,0.006690892,0.005113013
0.06237276,0.6536533,0.7745282,-0.02446862,0.007896962,0.003105288
0.06257604,0.6516573,0.7788392,-0.01986921,0.002897755,0.003765289
0.06263187,0.647341,0.7817642,-0.01324684,0.002107413,0.006031404
0.06430482,0.6421937,0.7768176,-0.01006926,-0.005702802,0.00554973
0.0663159,0.6403016,0.7714541,-0.009393324,-0.01324874,0.005459749
0.06590252,0.6422463,0.7703107,-0.001664168,-0.01274783,0.002815167
0.06690895,0.6430635,0.7718247,0.001641227,-0.01179131,-0.0005085557
0.06687162,0.6427577,0.7748985,0.002213056,-0.009368892,0.001744227
0.06617255,0.644325,0.7754837,0.008758576,-0.01528732,0.003366979
0.06583048,0.6438341,0.7757742,0.009811676,-0.02179834,0.00164902
0.06417387,0.6433094,0.7767907,0.01147006,-0.01934845,0.0006035798
0.06478382,0.6443892,0.776271,0.0183398,-0.01877102,-0.001939744
0.06782826,0.6449065,0.775343,0.01752866,-0.01635417,-0.005777681
0.07017559,0.6481139,0.7710237,0.01451203,-0.01210777,-0.004906502
0.06936212,0.6505851,0.7663806,0.01341703,-0.009616608,-0.002677878
0.06632685,0.6498705,0.7682367,0.007706376,-0.007651269,-0.003730126
0.06519612,0.6501412,0.7727198,0.002356179,-0.008438115,-0.003389978
0.06557049,0.6509763,0.7740538,0.001633994,-0.01046125,-0.002679725
0.06607082,0.6517684,0.7724716,0.001792258,-0.01244366,-0.002592206
0.06709556,0.6524329,0.7699924,-0.0004741453,-0.01289498,-0.0010486
0.06760137,0.6528187,0.7687117,-0.004763955,-0.01399392,-0.001654421
0.06730395,0.6526492,0.7709024,-0.008536987,-0.01520638,-0.001627468
0.06769075,0.6504459,0.7758959,-0.00820655,-0.0136307,0.001154868
0.06955678,0.6474971,0.7800159,-0.004692529,-0.01260284,0.001963561
0.07258718,0.6455233,0.776458,-0.003377223,-0.0111636,0.001547227
0.07427413,0.6447119,0.7696762,-0.0006246615,-0.007874977,0.002009806
0.07254893,0.6443678,0.7696985,0.001869907,-0.003287651,0.002578317
0.07069935,0.6442612,0.7665126,0.0004986842,-0.003522065,0.001703375
0.07090046,0.6446283,0.7638433,0.002567974,-0.009607274,0.0006193353
0.07177423,0.6444182,0.7770182,0.004249646,-0.009754378,-0.0005474744
0.07233416,0.6443226,0.7860886,0.006584682,-0.008159783,-0.00293274
0.0712248,0.6446131,0.7748308,0.01047347,-0.01045496,-0.003009289
0.06965193,0.6445096,0.7643674,0.008487788,-0.01084366,-0.002833981
0.07060892,0.6451693,0.7687126,0.01073516,-0.01099297,-0.003318838
0.07425142,0.6452921,0.7696819,0.0161115,-0.009574509,-0.002257104
0.07774171,0.6441632,0.7630276,0.01852244,-0.002487634,-0.004121951
0.07836245,0.645114,0.763924,0.02151935,0.01036482,-0.008777417
0.07663131,0.6495464,0.76595,0.02202337,0.02308584,-0.01314941
0.07251602,0.6544453,0.7709809,0.02254357,0.0248954,-0.01357087
0.06555676,0.6551642,0.7793623,0.01777661,0.01622339,-0.01106878
0.06048106,0.6529425,0.7738507,0.0114356,0.003384149,-0.008556352
0.05913122,0.6514995,0.7678698,0.01630243,-0.01160926,-0.003131587
0.05822443,0.6495831,0.7682504,0.01817556,-0.02224128,-0.00416357
0.06016391,0.6496142,0.7641718,0.01198579,-0.02157765,-0.007813416
0.06422083,0.652781,0.7649628,0.006918308,-0.01965155,-0.001463066
0.06551017,0.6543455,0.7695798,0.002509425,-0.0227416,0.002222316
0.06712383,0.6560754,0.7713896,-0.0005090986,-0.02009088,0.00257814
0.06881063,0.6570609,0.7729888,0.0003417004,-0.01716502,0.00305116
0.06849399,0.652787,0.7732003,0.00394713,-0.01320475,-0.0007252536
0.07053345,0.6483641,0.7761289,0.00438859,-0.002601452,-0.001740006
0.07304247,0.6482506,0.7802974,0.003453451,-0.004901085,-0.002447597
0.07123464,0.6509733,0.7754826,0.003423615,-0.008695604,-0.002307663
0.06812913,0.6527933,0.7676752,-0.0001479389,0.0002447774,0.002266636
0.06773509,0.6519539,0.7646065,-0.002629683,0.004019367,0.00488189
0.06871948,0.6511564,0.7624803,-0.002242993,0.00705773,0.004577222
0.07066242,0.6511935,0.7661123,-0.003288559,0.008825367,0.001795259
0.07313402,0.6517787,0.7718688,-0.005327903,0.006399072,-0.0005334867
0.07229448,0.6523062,0.768482,-0.005004413,0.008577809,-0.002769745
0.0706862,0.6528118,0.7668765,-0.003391585,0.006672181,-0.004465322
0.07098547,0.6529884,0.770938,-0.005375561,0.005962253,-0.00264571
0.07086499,0.6513416,0.7707682,-0.005630769,0.008518566,-0.003783516
0.07171715,0.6502839,0.7688955,-0.002745719,0.006163156,-0.00331168
0.07265914,0.6498613,0.7674837,-0.002113721,0.006769962,0.0015329
0.07212137,0.6497354,0.7667211,-0.003043559,0.006363065,0.003898724
0.07215153,0.6503931,0.767036,-0.005976427,0.005169489,0.004197489
0.07230913,0.6499482,0.7674934,-0.006673621,0.006764956,0.001362029
0.07217654,0.6508471,0.77299,-0.004766229,0.00419101,0.0003547716
0.07223444,0.6517416,0.7784306,-0.004456035,0.003134432,0.003368122
0.07168386,0.6502879,0.7757895,-0.003239212,0.003089385,0.00508132
0.06955004,0.6497404,0.7732394,-0.001958432,0.00120199,0.00371079
0.06722646,0.6503033,0.7734172,-0.0006200337,0.001390171,-0.001108404
0.06773944,0.6519218,0.7701815,-0.00144298,-0.0007170277,-0.003162191
0.06868823,0.6531306,0.7677376,-0.00434308,-0.001834451,-0.002590412
0.06772781,0.65196,0.7682506,-0.003726234,0.003785297,-0.002854728
0.06813399,0.6505433,0.7663362,-0.004618169,0.00897956,-0.002518908
0.06963704,0.6499116,0.7660385,-0.005407478,0.007147075,-0.002210242
0.07120187,0.6505216,0.768681,-0.001653269,0.003894575,-0.0005254362
0.0729869,0.6532712,0.7688078,-7.624026e-05,0.004591228,-0.0007093473
0.07232069,0.6549869,0.7696085,-0.001025796,0.00439047,-0.002088521
0.07170067,0.6516327,0.7702724,-0.002045346,0.001903289,-0.003469085
0.07142134,0.6476178,0.7705655,-7.88638e-05,-0.001765655,-0.01045534
0.0644032,0.6468803,0.7724849,0.006472768,-0.004859018,-0.01438719
0.0532931,0.6490846,0.7683103,0.009512417,0.000493969,-0.005777546
0.04909983,0.658287,0.7621569,0.00182754,0.02142954,0.01009479
0.05655738,0.6662657,0.7622649,-0.01820294,0.05383236,0.02546094
0.07185781,0.6600127,0.7645251,-0.03430779,0.07009499,0.03562644
0.1133971,0.8037856,0.6289314,0.2253647,0.04198596,0.06527621
0.122134,0.8289571,0.6211218,0.1632827,0.02861376,0.07267743
0.1263596,0.8441659,0.6251393,0.07329229,0.007059451,0.07809561
0.1293856,0.8387102,0.6289731,0.06522382,-0.02006055,0.06091492
0.1411471,0.8224943,0.6352062,0.07113093,-0.02656213,0.02441379
0.1361729,0.8053187,0.6365667,0.0576056,-0.03722189,-0.0008388752
0.1356451,0.7920213,0.6283096,0.05002406,-0.03911277,-0.002973645
0.1325294,0.7972581,0.6184167,0.02116451,-0.02313687,0.02136701
0.1189963,0.7984739,0.6156928,-0.01115754,-0.01820875,0.05550842
0.1177083,0.7844131,0.6177262,-0.03366952,0.004354555,0.08360124
0.1188492,0.7740999,0.6225408,-0.04174653,0.03221025,0.1053647
0.1366626,0.7638765,0.6400931,-0.05082313,0.05443492,0.1013029
0.1595382,0.7608569,0.6695333,-0.06938466,0.1045766,0.06908302
0.146142,0.7516021,0.6879839,-0.06333615,0.1187283,0.04967854
0.1125293,0.7227721,0.6896734,-0.03511505,0.03610123,0.06178637
0.08908646,0.7058644,0.6891229,0.0002122041,-0.07388343,0.08419349
0.09677471,0.7071371,0.6815108,0.03098654,-0.1216185,0.1016561
0.1311792,0.7262811,0.6640308,0.05632542,-0.1167657,0.1036512
0.1651757,0.7475035,0.6469515,0.05721039,-0.0961625,0.07245939
0.1931428,0.7324275,0.6409903,0.01995397,-0.05821222,0.002095122
0.2067291,0.7143292,0.6474775,0.0146197,-0.02695564,-0.08395142
0.2002909,0.7224693,0.6528607,0.03291269,-0.02658513,-0.1367855
0.1857238,0.7245769,0.669608,0.03247507,-0.09424213,-0.145412
0.1598767,0.7283808,0.686507,0.05527388,-0.171918,-0.1432156
0.1284199,0.7401933,0.6679971,0.09624166,-0.08279932,-0.09571997
0.1064793,0.7342511,0.6549,0.1270784,0.04893303,0.01929838
0.09455036,0.7322065,0.671608,0.1177375,0.03755986,0.09498038
0.1001259,0.7436588,0.6794552,0.09811637,0.03117592,0.105351
0.1172912,0.7471508,0.6757354,0.1188878,0.04905825,0.1160022
0.1358417,0.7507153,0.6739706,0.1147898,0.02172502,0.108716
0.1561883,0.748844,0.667844,0.1014424,0.01831256,0.08029821
0.1613325,0.7431429,0.6577488,0.1038517,0.005068423,0.03696582
0.1522983,0.7498848,0.6583212,0.08128289,-0.03072942,-0.01177446
0.1415235,0.7527085,0.6650418,0.08344509,-0.07467687,-0.006872597
0.1324404,0.7530075,0.66466,0.09394995,-0.1243668,0.01514019
0.1365172,0.7591292,0.6663366,0.08997102,-0.1126068,0.02415675
0.1455322,0.759715,0.6676751,0.09740789,-0.0842106,0.05641485
0.1543094,0.7554295,0.6651374,0.09017002,-0.05941723,0.06246748
0.1664047,0.7482754,0.6642356,0.08644488,-0.009013459,0.04321387
0.166988,0.7469483,0.6582198,0.08327344,0.01319262,0.04608791
0.161655,0.7560978,0.6500692,0.07052242,0.02868211,0.03878764
0.1594187,0.7621522,0.6443607,0.06513642,0.03901521,0.0306773
0.1525909,0.7604136,0.6453466,0.04984281,0.0159654,0.03339421
0.1492092,0.7575957,0.6549293,0.0439593,-0.0006424106,0.02435538
0.1507119,0.7577414,0.6584536,0.04713903,-0.01504102,0.0264766
0.1500415,0.7549305,0.6582824,0.04213642,-0.0260039,0.03592865
0.153407,0.7520855,0.6605911,0.04137544,-0.02519304,0.03801923
0.1598568,0.7518858,0.6595877,0.03681143,-0.02232142,0.03402528
0.1654178,0.7445859,0.6597047,0.03435258,-0.00307682,0.02230482
0.1699999,0.7393781,0.6619559,0.03696618,0.01712157,0.02541376
0.1695739,0.740285,0.6657686,0.038412,0.02500374,0.0269865
0.1669717,0.7402013,0.6678433,0.0404343,0.02914732,0.0179997
0.1654916,0.7416819,0.6630709,0.04124546,0.0316645,0.02260135
0.1636623,0.741589,0.6620072,0.0478861,0.0322606,0.02129572
0.1598237,0.7416669,0.6636714,0.05163932,0.02803484,0.0172941
0.1536058,0.7419978,0.6601066,0.04881486,0.02826886,0.01845367
0.1527088,0.7416077,0.6599914,0.04839001,0.02676948,0.01202383
0.1554716,0.7449097,0.6606203,0.04849517,0.01592276,0.01272955
0.1538172,0.7469382,0.6577055,0.05026296,0.00718569,0.01522651
0.1547852,0.7486643,0.6620136,0.05137107,0.001014825,0.01376647
0.1602531,0.7504985,0.6683411,0.05354839,-0.0003625125,0.01415971
0.1636022,0.7489948,0.6688473,0.05509672,0.002246989,0.01095032
0.1630957,0.7471678,0.6683564,0.05257187,0.005820942,0.0108441
0.1605807,0.7458074,0.6646143,0.05281578,0.007949125,0.01108201
0.161069,0.745891,0.6625526,0.05195321,0.004996278,0.009110297
0.1615872,0.745587,0.6665823,0.0504977,0.007567847,0.008969964
0.160649,0.7446234,0.6672979,0.05117371,0.009889356,0.005920278
0.162635,0.7436354,0.6646556,0.04926475,0.006441439,0.004806492
0.1639759,0.7435257,0.6588364,0.04609964,0.008708109,0.005757254
0.1653616,0.7498192,0.6523104,0.04313453,0.0103463,0.006066493
0.1661948,0.7562684,0.6571797,0.04265223,0.01161447,0.006973022
0.1648062,0.7574364,0.6645085,0.0425247,0.01646786,0.002309171
0.166895,0.7579036,0.6624423,0.04086829,0.01604901,-0.003918355
0.1673806,0.7570809,0.6614714,0.03901659,0.01570636,-0.005590339
0.1648821,0.7541161,0.6623524,0.03331162,0.0182482,-0.006663212
0.1644503,0.7509322,0.6594466,0.02983594,0.01757337,-0.007039067
0.1607088,0.7470873,0.6585817,0.03277169,0.01722252,-0.005388996
0.1558826,0.7445259,0.6575654,0.03363532,0.01779563,-0.003319867
0.1570809,0.7480724,0.657497,0.03303057,0.01809287,-0.001444365
0.1612859,0.7509069,0.6640283,0.03411327,0.01896443,-0.0003696699
0.1633316,0.7493865,0.6658273,0.03372401,0.01734787,-0.0006673405
0.1625058,0.7497871,0.6622794,0.03546489,0.01412253,-0.002604271
0.1611941,0.7473967,0.6633696,0.03896301,0.01195474,-0.005018684
0.1609645,0.7447646,0.6639499,0.03684868,0.01195925,-0.004066663
0.1610037,0.7469771,0.6643271,0.03423915,0.0129357,-0.001100796
0.1601716,0.7476626,0.6670296,0.03501424,0.01163777,-0.0007370078
0.1594691,0.7473643,0.665701,0.03415486,0.01136317,-0.00187305
0.1598268,0.7479434,0.66281,0.0337886,0.01329059,-0.004588167
0.1607395,0.7489563,0.6593491,0.03586524,0.01416086,-0.008173661
0.1613781,0.748339,0.6546213,0.03703353,0.01454154,-0.01071901
0.1618305,0.7454129,0.6563585,0.03553015,0.01305671,-0.01551609
0.1645857,0.7431286,0.6608749,0.03328267,0.009007932,-0.02121438
0.1678269,0.7395725,0.6614751,0.03297252,0.005391768,-0.02647439
0.1674302,0.7365551,0.6612413,0.03406152,0.003782954,-0.03599368
0.1694052,0.7377206,0.660719,0.03811246,-0.002156517,-0.04754443
0.1795089,0.7420276,0.6594996,0.04752727,-0.01359541,-0.06030613
0.1873402,0.7468271,0.6560989,0.05282536,-0.01034062,-0.07942676
0.1821532,0.7507871,0.6523369,0.0387293,0.01085621,-0.08995845
0.1665436,0.7527828,0.6526815,0.01962252,0.02597858,-0.08371873
0.1487085,0.7468859,0.6530178,0.01798477,0.02840463,-0.08251389
0.1420967,0.7420107,0.6526372,0.0121228,0.03998956,-0.07864101
0.1470572,0.7525722,0.6543125,-0.003072118,0.07101221,-0.06568022
0.1457964,0.7655224,0.6568105,-0.007286539,0.08637375,-0.06728241
0.138988,0.7681048,0.6616383,-0.01396177,0.0766952,-0.06377071
0.1337048,0.7690793,0.6661252,-0.01508673,0.0658693,-0.0463569
0.1293817,0.7692917,0.6659394,0.0007065392,0.05158659,-0.03927513
0.1344686,0.7640564,0.664657,0.01027832,0.06273982,-0.03136025
0.1399243,0.7612089,0.6649454,0.00917782,0.09536791,-0.02102402
0.134009,0.7583257,0.6636835,0.002564692,0.09183377,-0.01691661
0.1302432,0.7496534,0.6594623,0.0009731099,0.06085351,-0.01339835
0.1297493,0.7450469,0.6542601,0.002195263,0.02029464,-0.01018709
0.1274029,0.745196,0.6491171,-0.001102601,-0.008187557,-0.002090597
0.1316708,0.7440976,0.649889,0.008421012,-0.009521279,0.00348461
0.142243,0.7408737,0.6580359,0.01723299,-0.01246147,0.002226353
0.1504048,0.7359788,0.6642902,0.01574725,-0.006671214,0.001956389
0.1513607,0.7314869,0.6694235,0.02146995,-0.002997786,-0.002582277
0.1486347,0.7272287,0.6738807,0.03368523,-0.01315608,-0.005894264
0.1470822,0.7266227,0.6723693,0.05030993,-0.01698863,-0.004286456
0.1444575,0.732487,0.669615,0.06331972,-0.02724344,-0.004746787
0.1424961,0.7438098,0.666293,0.06698655,-0.01955237,-0.007718964
0.1436226,0.7551154,0.6616592,0.06415817,-0.004588536,-0.01386341
0.1439081,0.7595493,0.6616026,0.05896476,-0.01565747,-0.01664726
0.1443928,0.7630533,0.6624061,0.0522616,-0.01637785,-0.01503404
0.145012,0.7660966,0.656894,0.03844403,-0.01205354,-0.01488888
0.1439163,0.7650574,0.6520986,0.03021205,-0.009906035,-0.01453964
0.1445751,0.76402,0.6550563,0.02681594,-0.001902368,-0.01386992
0.1445446,0.7591346,0.6594842,0.01756794,-0.0008882665,-0.01302193
0.1418349,0.7534728,0.6609323,0.009943002,0.003337838,-0.01045254
0.1363834,0.75519,0.6571371,0.00591614,-0.006833902,-0.005630079
0.1284987,0.7577208,0.6510773,0.006534807,-0.02945256,-0.0001826035
0.1287426,0.7558981,0.6523948,0.005637807,-0.03489919,0.01116036
0.1365831,0.7530024,0.65531,0.007502018,-0.04129727,0.02663971
0.1433185,0.7497427,0.6562439,0.0141892,-0.05839565,0.03037733
0.1498785,0.74794,0.662172,0.005726045,-0.07582176,0.03026509
0.1541886,0.7509829,0.6646396,-0.003470135,-0.0833183,0.0328106
0.1593899,0.7574747,0.6581534,-0.002882134,-0.08326832,0.02969421
0.1687423,0.7647193,0.6535231,-0.007180784,-0.09005147,0.02620084
0.1720078,0.7628801,0.655332,-0.01041597,-0.08747929,0.02021118
0.1697303,0.7523844,0.6568394,-0.009366941,-0.06307206,0.01626838
0.1724091,0.7485165,0.6557551,-0.006252861,-0.03291128,0.01888582
0.1754047,0.7479893,0.6571016,-0.00425494,-0.01724394,0.01368539
0.1738922,0.7488578,0.6573302,-0.006064519,-0.01126946,0.006166636
0.1749404,0.7524123,0.6543027,-0.007297544,0.002413712,-0.0003623116
0.1753063,0.7524907,0.6545495,-0.01067616,0.001712099,-0.01449324
0.1709537,0.7538311,0.6568254,-0.0160021,-0.006530683,-0.02483739
0.1676747,0.7546316,0.6588336,-0.02058888,0.005001625,-0.0220085
0.1662668,0.7560722,0.6579522,-0.02407249,0.008812193,-0.01614835
0.1691341,0.7573302,0.6545704,-0.02685034,0.009951247,-0.01843011
0.1724874,0.7514088,0.654795,-0.02979176,0.02494241,-0.01977322
0.1702522,0.7469489,0.6542196,-0.02605693,0.03759055,-0.01640008
0.1684581,0.7405401,0.6538337,-0.01545259,0.05068185,-0.0178463
0.1644125,0.735285,0.6572619,-0.003504506,0.05065946,-0.01681096
0.158946,0.7375634,0.6601129,0.005079797,0.03628592,-0.0127133
0.1608226,0.7330551,0.6640294,0.007489526,0.02557404,-0.01003262
0.1623284,0.7293373,0.6654906,0.01558004,0.01319953,-0.006484325
0.1601016,0.7350411,0.6635618,0.0269507,0.00911489,-0.004090171
0.1602663,0.7419085,0.6622976,0.02705457,0.008694013,0.001743255
0.1602761,0.7469521,0.6604135,0.02919602,2.996415e-05,0.004789337
0.1608752,0.7496348,0.6618824,0.03504766,-0.003469317,0.0029902
0.1642234,0.7525098,0.6627354,0.02710173,-0.005399299,0.003178976
0.1664547,0.7550499,0.6576587,0.01908989,-0.004077234,-0.004725535
0.1692677,0.7574643,0.6520348,0.0167863,0.005725726,-0.01252353
0.1706223,0.756655,0.6482535,0.007205412,0.0135263,-0.01040185
0.1676171,0.751859,0.6481953,0.002104289,0.01998949,-0.01195455
0.1683015,0.7509261,0.6490721,0.001767274,0.02740009,-0.01785932
0.1713249,0.7497606,0.6484714,-0.001975911,0.03656099,-0.02044742
0.1724319,0.7487206,0.6501794,0.0004764931,0.04680612,-0.02081062
0.1715015,0.748331,0.6533374,0.002481918,0.04878882,-0.02175438
0.1644126,0.7447545,0.6567269,-0.00283351,0.03450059,-0.02166138
0.1589665,0.7474589,0.658164,-0.006252673,0.01612888,-0.02206167
0.160796,0.7517208,0.6582439,-0.007294399,0.01515734,-0.02225221
0.1620611,0.75219,0.6602944,-0.01115034,0.0182654,-0.01721823
0.1607712,0.7548786,0.6598051,-0.01505559,0.01257774,-0.01399516
0.1607358,0.7534199,0.6572543,-0.01345303,0.008419013,-0.01483342
0.1617007,0.7492596,0.6567834,-0.01247023,0.001546895,-0.01436591
0.1608059,0.7472696,0.6567546,-0.01487826,-0.003231879,-0.01174304
0.1613066,0.7449319,0.657624,-0.01343383,-0.001640342,-0.01028431
0.1633839,0.7453665,0.6597141,-0.00995574,-0.001671182,-0.01338103
0.163922,0.7456821,0.6616827,-0.007153208,0.004826441,-0.0114297
0.1643789,0.7436584,0.6616597,-0.006912449,0.01176743,-0.008274183
0.1635381,0.7442088,0.6614742,-0.007779146,0.007330555,-0.01148878
0.164112,0.7440486,0.667055,-0.00400495,0.002327668,-0.009425784
0.1663699,0.7426699,0.6731665,-0.002365799,-0.000172805,-0.01023593
0.167537,0.7451038,0.6723563,-0.002693591,-0.002390372,-0.01767728
0.1686838,0.7479393,0.6671165,-0.0007791089,-0.0007300153,-0.01882528
0.1669046,0.7491323,0.6584184,-0.002112999,0.001286925,-0.01969724
0.1660398,0.7504479,0.6522562,-0.00102023,0.002900855,-0.02065035
0.1672023,0.7498406,0.6588099,0.002273946,0.004713305,-0.01771559
0.1659685,0.7476765,0.6687971,0.001332849,0.002341675,-0.01552407
0.1646376,0.7459694,0.6675046,-0.0005731696,-0.001781197,-0.01304964
0.1616658,0.7453827,0.6601156,-0.003080389,-0.004903884,-0.01402016
0.1604364,0.7470666,0.6552697,-0.002351058,-0.004868055,-0.01726025
0.1634244,0.7513238,0.6558432,-0.0005862377,-0.001638003,-0.01520203
0.1645693,0.7553996,0.6585973,-0.003570258,-0.0007807345,-0.01283919
0.164631,0.7537075,0.6565417,-0.006193414,0.001592576,-0.01260754
0.1644612,0.7489226,0.6575028,-0.009184122,0.002656908,-0.01344009
0.1637633,0.7471899,0.6616555,-0.01021586,-0.001243198,-0.01692173
0.1641059,0.7457358,0.6607749,-0.007116851,-0.0003854168,-0.01838311
0.1657208,0.7468315,0.6613479,-0.006544144,0.0005089753,-0.01749538
0.1689487,0.7492704,0.6609545,-0.006086792,0.002646663,-0.01771051
0.17474,0.743924,0.6586788,-0.004576469,0.01750075,-0.01887671
0.1784294,0.7397784,0.6590945,0.0003544926,0.04067237,-0.01713253
0.1661242,0.743279,0.660287,0.0128956,0.062184,-0.003544116
0.1505934,0.7468368,0.6630563,0.02056383,0.08290581,0.0148363
0.155767,0.7522888,0.6594516,0.01651126,0.1288444,0.01977952
0.1589599,0.7576006,0.654519,0.0005146891,0.1704452,0.01556087
0.1508323,0.755547,0.6576152,-0.01782479,0.1351676,0.01187825
0.153923,0.751733,0.6583154,-0.00511143,0.08875595,0.005264802
0.1527154,0.752154,0.6613541,0.01724492,0.09562116,4.799016e-05
0.140626,0.754946,0.6690364,0.01251501,0.04809565,0.002405002
0.1386402,0.7625764,0.6690448,0.0160772,-0.0657393,0.01133955
0.1481348,0.7697733,0.6633561,0.01976235,-0.1077867,0.02486835
0.1693519,0.7590228,0.6555441,0.005855579,-0.0521305,0.02672442
0.187439,0.737189,0.6481441,-0.003547707,0.01772253,0.0002159091
0.1862171,0.7254186,0.6508957,-0.02704944,0.04406911,-0.03452064
0.1814477,0.7284146,0.6566559,-0.03556086,0.03493793,-0.04599492
0.1740447,0.7458762,0.6501898,-0.02541891,0.03856628,-0.04680113
0.1576785,0.76343,0.6458694,-0.03108964,0.07259074,-0.04343624
0.1480901,0.7607519,0.6524827,-0.01635685,0.09114957,-0.02035881
0.1477817,0.7487418,0.6607329,-0.01387688,0.0598405,-0.01227976
0.1426853,0.7439559,0.6731219,-0.02620896,0.01556207,-0.02149894
0.141065,0.7420184,0.6754987,-0.01166169,-0.009583546,-0.01736465
0.1502111,0.7429884,0.6682187,-0.01310092,-0.00970491,-0.02008928
0.1519388,0.7460457,0.6714817,-0.01169455,-0.004177281,-0.01673927
0.1515163,0.7454723,0.672087,-0.001684355,-0.01936,-0.003369275
0.1579344,0.7459226,0.6714148,-0.000321554,-0.02463503,-0.004784101
0.1630629,0.7452156,0.6772753,0.01576511,-0.02515495,-0.004963656
0.166712,0.7434351,0.67462,0.01360613,-0.02878093,-0.008216931
0.1607477,0.7447377,0.6652063,0.007410229,-0.01474083,-0.01318531
0.1557558,0.7425082,0.6542213,0.01402087,-0.01614064,-0.01094917
0.1614168,0.7417174,0.6515752,0.005357276,-0.01633424,-0.01330222
0.16092,0.7466548,0.659041,0.002907355,-0.009946171,-0.01235739
0.1571936,0.7507143,0.6589063,0.001700598,-0.02157273,-0.01128072
0.1556355,0.750966,0.6575347,-0.003309416,-0.02045667,-0.01101722
0.1591798,0.74894,0.659153,0.000503485,-0.02348176,-0.01001175
0.1655739,0.7502839,0.6583891,0.0009456493,-0.02803324,-0.01664285
0.1641645,0.7505218,0.6622078,0.001755043,-0.01557895,-0.01807986
0.1656419,0.7493031,0.6642174,0.001457999,-0.01172885,-0.01372671
0.1676431,0.7517823,0.6593933,-0.001159601,-0.005651588,-0.01209414
0.162102,0.7521425,0.6558415,-0.003831449,-0.001752186,-0.01578998
0.1606357,0.7516426,0.6590763,-0.008826944,-0.004176489,-0.02198588
0.1638393,0.7496127,0.6632777,-0.008011551,-0.002640318,-0.01827008
0.1658137,0.746384,0.6606058,-0.01095405,-0.004152161,-0.01369576
0.1628919,0.7472633,0.660346,-0.0175041,-0.002391535,-0.01371416
0.1590481,0.74643,0.6622372,-0.01401269,-0.005311013,-0.01411728
0.1596571,0.7457933,0.6594258,-0.01087653,-0.008722621,-0.01852523
0.1585118,0.7487943,0.6568325,-0.01014181,-0.006068768,-0.01808579
0.158497,0.7506855,0.6522447,-0.007123773,-0.004891596,-0.01686976
0.1620728,0.7498697,0.6494736,-0.008077266,0.001594009,-0.01959712
0.1630324,0.7466642,0.6522633,-0.007607369,0.002388784,-0.01728481
0.1640415,0.7452657,0.6565062,-0.002972189,-0.000223166,-0.01575461
0.1641484,0.745962,0.6615374,-0.002235373,-0.001539183,-0.01452854
0.1614257,0.7471692,0.6603376,-0.00417781,-0.009450745,-0.01468483
0.1608281,0.7494399,0.6551145,-0.006618336,-0.009013867,-0.01989634
0.1610968,0.7503565,0.6521551,-0.008435326,-0.004503623,-0.02022854
0.1610916,0.7502033,0.6536029,-0.008739844,-0.001100818,-0.02001407
0.1612984,0.7497307,0.6621308,-0.01045925,0.007505489,-0.02178165
0.1608597,0.7499838,0.6652921,-0.009959842,0.009878179,-0.02121796
0.1614378,0.750303,0.6613484,-0.008505658,0.006983506,-0.01935476
0.1622256,0.749624,0.6586159,-0.009643921,0.006480321,-0.01444188
0.1632861,0.7498662,0.6566431,-0.01017413,0.00686608,-0.01380113
0.1634457,0.7477142,0.6579061,-0.01343197,0.004488234,-0.0136303
0.1610564,0.7437438,0.6577282,-0.01764344,-0.001847472,-0.008540989
0.16066,0.7423544,0.656396,-0.01738369,-0.006612955,-0.0075892
0.1618178,0.7432514,0.6572558,-0.01645067,-0.006702094,-0.007159009
0.1627465,0.7453469,0.6566738,-0.0149576,-0.004294861,-0.008730317
0.1648076,0.7460855,0.6576861,-0.009669574,-0.001975882,-0.01150326
0.1659343,0.7457629,0.6596166,-0.004195852,0.002866503,-0.01168724
0.1665539,0.744009,0.6607831,-0.002378083,0.006856047,-0.0176572
0.1662572,0.7395123,0.6573998,0.004073117,-0.0002454878,-0.01898188
0.1642567,0.7363279,0.6517466,0.01742895,-0.01552429,-0.01578497
0.1633988,0.7371553,0.6554342,0.02334027,-0.03114487,-0.01771826
0.1624318,0.7393069,0.6626883,0.02738454,-0.04315681,-0.01615375
0.16098,0.7397221,0.670195,0.04374505,-0.06053218,-0.0181347
0.1583938,0.7437902,0.6759968,0.05890287,-0.08881915,-0.02138061
0.1532485,0.7518023,0.6724852,0.06378299,-0.1004212,-0.01370108
0.1546009,0.7554358,0.6668478,0.06725881,-0.08831086,-0.002795306
0.1641478,0.7567973,0.6557735,0.06723981,-0.06513369,0.004532555
0.1711978,0.7577789,0.639964,0.05631849,-0.02386094,0.001922862
0.1717774,0.7591222,0.6339282,0.03769,0.003309568,-0.002408788
0.1671938,0.7643041,0.6304627,0.02195943,-0.004506535,0.00176095
0.1645413,0.7691164,0.6302234,0.01702207,-0.006974723,0.004605904
0.1669274,0.7722696,0.6366178,0.01359343,-0.001560911,0.006310109
0.1712663,0.7756488,0.6330221,-0.004489928,0.008426666,0.006246276
0.1767656,0.7771042,0.6257525,-0.02749467,0.03915039,0.003015723
0.1747531,0.7751362,0.6234739,-0.04033518,0.05582892,0.001198002
0.1696485,0.7696475,0.6247001,-0.05389706,0.04668884,-0.00355471
0.171332,0.7633972,0.6400246,-0.06452568,0.04568009,-0.005431115
0.1708878,0.7602719,0.6554053,-0.05871072,0.05047585,-0.003666227
0.1697391,0.7573878,0.6561248,-0.05499356,0.04553551,-0.005267383
0.1689164,0.7513162,0.655199,-0.05593981,0.03565519,-0.005120472
0.1650793,0.7463058,0.6579943,-0.04541964,0.02535601,-0.005876993
0.1654561,0.7424595,0.6626621,-0.03664651,0.01903115,-0.008022862
0.1649717,0.7399424,0.6667369,-0.03261835,0.01687586,-0.007839112
0.1627227,0.7408076,0.6693632,-0.02168902,0.006954271,-0.009288714
0.164346,0.7396432,0.6690735,-0.008091163,-0.0004709286,-0.01066336
0.164771,0.7379871,0.6642442,0.005175739,0.003984646,-0.01234241
0.1670255,0.7367868,0.6606719,0.01147817,0.001669052,-0.01564976
0.1705718,0.7358521,0.6584004,0.01249924,-0.0001917479,-0.01728642
0.1678907,0.7411358,0.6528423,0.01947461,0.000667105,-0.01820128
0.165278,0.7446616,0.6447378,0.02360866,-0.008393471,-0.01855375
0.167,0.7441088,0.6450862,0.02175209,-0.01055837,-0.01822732
0.1670843,0.7504455,0.6493104,0.02136554,-0.003049723,-0.01824411
0.1661127,0.7619324,0.6441374,0.01784084,0.003541223,-0.01750719
0.1664194,0.7684097,0.6447007,0.007996691,0.003270278,-0.0162752
0.1640506,0.770253,0.6461299,-0.001273906,-0.002087508,-0.01461796
0.1613988,0.7760357,0.6409521,-0.00389784,-0.002236996,-0.01169341
0.1623009,0.7761503,0.6456272,-0.007389552,-0.007757225,-0.007938525
0.1620662,0.7686861,0.6479277,-0.01441363,-0.01617015,-0.006673361
0.1605106,0.7659346,0.6457625,-0.0150251,-0.02202975,-0.00788054
0.1610404,0.7585048,0.6480888,-0.01563371,-0.03153407,-0.003178522
0.1618204,0.7534459,0.6475351,-0.02029655,-0.02974913,0.00188879
0.162644,0.7573712,0.6474857,-0.02029088,-0.02620821,0.0006509412
0.1653361,0.754839,0.6475109,-0.02141191,-0.02948312,0.00583934
0.1694568,0.7546041,0.6496116,-0.02358616,-0.02338152,0.01028943
0.1753226,0.7547807,0.6533145,-0.02124391,-0.01248368,0.006336984
0.179412,0.7485819,0.6527194,-0.01909427,0.00370438,0.001821199
0.1784305,0.7472367,0.6544792,-0.01631353,0.01933764,-0.01164529
0.1777993,0.7453726,0.6546611,-0.01586717,0.02571616,-0.02146037
0.1736128,0.7451398,0.6524138,-0.01728299,0.02799947,-0.01786964
0.1625969,0.7483556,0.6530482,-0.01571037,0.018778,-0.01916958
0.157685,0.7495023,0.652911,-0.01673992,0.008864632,-0.01751869
0.1588505,0.7561313,0.6545837,-0.01608723,0.003259425,-0.009460196
0.1605603,0.7597389,0.6568439,-0.009687032,-0.005226807,-0.005539474
0.1654673,0.754368,0.6581256,-0.004892048,-0.008410656,-0.002487204
0.1686565,0.7512947,0.6598799,-0.004673853,-0.01543814,0.0002770893
0.1704206,0.7530021,0.6572384,-0.005530513,-0.01664507,0.003053586
0.1747587,0.7550837,0.6529279,-0.003903189,-0.00710131,-2.362675e-05
0.1762254,0.7531677,0.6516496,-0.005033489,-0.004209736,-0.00552263
0.1740581,0.7495262,0.6497089,-0.006177166,0.003125217,-0.007291188
0.172999,0.7470251,0.6474976,-0.003308978,0.007061247,-0.01670362
0.1724103,0.7476406,0.649452,-0.004931988,0.006888435,-0.01947635
0.1724844,0.7505903,0.6514923,-0.005779487,0.01566036,-0.01356108
0.1731059,0.7499669,0.6495991,-0.005018362,0.02029447,-0.01808266
0.1675209,0.7504699,0.6501003,-0.01098413,0.0269894,-0.01676576
0.1613128,0.7543544,0.6572325,-0.01922942,0.03336869,-0.01265566
0.1637556,0.7581518,0.661253,-0.02497957,0.03185689,-0.01566709
0.1651181,0.7605216,0.656146,-0.02174922,0.03194682,-0.0151055
0.1611933,0.7593089,0.6566355,-0.01362909,0.03167362,-0.01681136
0.1551013,0.7585633,0.663177,-0.004162077,0.02526295,-0.009930691
0.1476596,0.7548673,0.664057,0.006012223,-0.001441258,0.001770916
0.1486232,0.7501986,0.6632948,-0.003585529,-0.03171049,0.001255357
0.1543191,0.7565368,0.6568644,-0.01516211,-0.03253046,0.00626161
0.1560163,0.762541,0.6489145,-0.007392934,-0.02554227,0.01054907
0.1613708,0.7585874,0.6508284,-0.007837338,-0.02540642,0.004651303
0.165854,0.7533039,0.6564848,-0.01123439,-0.01406965,0.002436802
0.170431,0.7478635,0.6617127,-0.005708423,-0.005240921,-0.0001932864
0.180338,0.743595,0.6604568,-0.005933629,-0.005608978,-0.003030916
0.1782478,0.7449916,0.657969,-0.005935636,0.00424052,-0.002456155
0.1749627,0.7454887,0.660975,-0.003486508,0.01067863,-0.00347101
0.1799973,0.7441465,0.659507,-0.002439369,0.01762278,-0.005638794
0.1735619,0.7471876,0.6584082,-0.001694929,0.03861513,-0.009884807
0.1644102,0.74894,0.6570403,-0.002568273,0.04222052,-0.01501773
0.1562539,0.7497848,0.6523632,-0.000429326,0.02458631,-0.01857525
0.1502296,0.7519278,0.6540295,0.001491143,0.008813713,-0.02025599
0.1549946,0.7528034,0.6553104,0.001686554,0.01258397,-0.01392648
0.1530526,0.7586412,0.6542547,0.00293826,0.02167778,-0.004464318
0.1509472,0.7637576,0.6552147,-0.001173293,0.01147998,-0.002291717
0.1548623,0.7650213,0.6511656,-0.006226669,0.007058297,-0.0006706873
0.1537188,0.764848,0.645843,-0.007455557,-0.0002834953,0.00079704
0.1600764,0.756616,0.6471053,-0.01423129,-0.01533966,-0.0009839375
0.1668854,0.7507505,0.6502743,-0.02444621,-0.01302196,-0.0004283874
0.1651765,0.7504339,0.6518409,-0.02563305,-0.01312583,-0.001043135
0.1655186,0.7488733,0.6534512,-0.02170542,-0.009196127,-0.001436998
0.167012,0.7484497,0.6526364,-0.01941851,-0.006514299,-0.001682109
0.168709,0.7445966,0.6503624,-0.01381287,-0.01534488,-0.007463854
0.1683091,0.7425786,0.650476,-0.01035761,-0.009928888,-0.0101208
0.1675596,0.7447401,0.6527378,-0.009327556,-0.007978955,-0.009009923
0.1695372,0.7452422,0.6569219,-0.002724118,-0.007726322,-0.01055958
0.1682171,0.7473762,0.6580078,0.001105,-0.001361093,-0.01280571
0.1632028,0.7475001,0.6570265,0.004159484,-0.003261485,-0.01325696
0.1572028,0.7468196,0.6616406,0.01065628,-0.0004301866,-0.010943
0.1551433,0.7483768,0.6654861,0.01258919,-0.002501343,-0.008097893
0.155023,0.750427,0.6639918,0.01309765,-0.014393,-0.002179179
0.1536878,0.7554727,0.662342,0.01199029,-0.02815949,0.00555275
0.1564224,0.7604232,0.6597397,0.009405884,-0.03975896,0.008668285
0.1570862,0.7644279,0.6546935,0.008328404,-0.03720004,0.006428825
0.15888,0.7624763,0.6501121,0.002616641,-0.03520992,0.00135423
0.1657966,0.7553177,0.6456163,-0.005391774,-0.03421673,0.003107056
0.1651586,0.7565697,0.6431952,-0.01051254,-0.02736504,0.005290727
0.1667478,0.7576155,0.6497295,-0.01020104,-0.02456967,0.001680628
0.1756167,0.7529232,0.6582739,-0.008704702,-0.0173937,0.003087215
0.1775194,0.7514853,0.6605744,-0.01132679,-0.01022109,-0.0005916526
0.1759143,0.7492724,0.6593542,-0.01051077,-0.006928918,-0.007926904
0.1746165,0.7461129,0.6551192,-0.01031476,0.000941872,-0.006929906
0.173144,0.7443621,0.6520721,-0.01058687,0.005380059,-0.007387276
0.1722093,0.7461942,0.6513897,-0.005665021,0.008104015,-0.007907031
0.1695912,0.7505933,0.6536661,-0.005918091,0.01080567,-0.006535402
0.1686447,0.7486823,0.6564202,-0.006963659,0.006592697,-0.006792471
0.1661156,0.7484289,0.6527459,-0.005398747,0.003768272,-0.006505288
0.1592981,0.7514862,0.6536059,-0.005141334,0.0003536008,-0.007285077
0.1557266,0.7499648,0.6554276,-0.00158371,-0.009842835,-0.00607138
0.1574619,0.7528043,0.6534906,0.002224532,-0.0152524,-0.0003380774
0.1609306,0.7573968,0.6590443,0.006251577,-0.01815372,0.005190683
0.1629474,0.7571838,0.6600652,0.007239915,-0.02313274,0.003502906
0.1658594,0.7567413,0.6583387,0.004672116,-0.02344564,-0.0006468711
0.1681638,0.7558718,0.6591109,0.005916553,-0.02282889,0.0005154271
0.1665047,0.7556045,0.6534534,0.002569835,-0.02130092,-0.0008149251
0.1692631,0.7563872,0.649712,-0.002273261,-0.0183042,-0.003341859
0.1733266,0.7572014,0.6452363,-0.0001663677,-0.01447036,-0.002486891
0.1720548,0.7566981,0.6424994,-0.001396392,-0.005760581,-0.002661823
0.1720842,0.7538061,0.6468849,-0.005948039,-0.001098185,-0.002840435
0.1722347,0.7524076,0.6495738,-0.007387354,-0.001319638,-0.004263339
0.1711289,0.7533983,0.6554607,-0.007430819,0.0001568315,-0.005673933
0.1702353,0.7547784,0.6585579,-0.00810556,-0.002479448,-0.00416836
0.1676773,0.7543104,0.657195,-0.01088946,-0.005745972,-0.003456556
0.16528,0.7535963,0.6599526,-0.01239002,-0.004584532,-0.006189172
0.1645815,0.7544892,0.6588335,-0.00630495,-0.00445903,-0.01181733
0.1656374,0.752778,0.6565835,0.0009291767,-0.006035562,-0.01318988
0.1651248,0.750662,0.6541121,-0.0008129342,-0.005682163,-0.004754832
0.1629776,0.7506672,0.6522776,-0.002443938,-0.002477533,0.003349212
0.1625907,0.7512697,0.6557858,0.0008293482,-0.0005060824,-0.0004784027
0.163371,0.7516348,0.6537978,0.0009182858,-0.0004135318,-0.005035623
0.1663841,0.7492125,0.6522132,0.001795699,0.003200247,-0.002228178
0.16854,0.7483153,0.6537764,0.001513614,0.007415957,-0.004683121
0.1686064,0.7506501,0.6505933,-0.004079877,0.004998295,-0.006799636
0.1688832,0.7520213,0.6505936,-0.007053467,-0.0001538415,-0.003522508
0.166829,0.7525743,0.6501057,-0.008856706,-0.001325574,-0.004139599
0.1660415,0.75259,0.6484158,-0.01092247,0.0003377012,-0.002586086
0.1679996,0.7530345,0.6469207,-0.01250677,0.00783769,-0.001791921
0.1709642,0.7528184,0.640594,-0.01377919,0.01946769,-0.005079459
0.1746026,0.7524322,0.6432843,-0.01317237,0.02405006,-0.005440023
0.1715715,0.7535506,0.6545514,-0.0198744,0.02725583,-0.004313756
0.164649,0.7543269,0.6598953,-0.02885191,0.0291471,0.002457824
0.1629475,0.7556919,0.6585378,-0.02884301,0.02127728,0.004835495
0.1638833,0.753914,0.6574628,-0.02663937,0.01798782,-0.003003774
0.1641916,0.7491295,0.6625632,-0.02321312,0.01732663,-0.003189531
0.1636289,0.7470374,0.6638549,-0.0195473,0.00765951,-0.002378234
0.1624449,0.7452242,0.6607207,-0.01667613,0.002372793,-0.004440112
0.1607088,0.7455443,0.6604315,-0.01252232,0.001016557,-0.0009874256
0.1596417,0.7478733,0.6575504,-0.01143234,-0.002240414,0.0005680158
0.1634128,0.7487978,0.6575551,-0.007749768,-0.0005027392,0.001941032
0.1675895,0.7506493,0.6593643,-0.002531603,0.002216259,0.000618098
0.1661993,0.7501666,0.655779,-0.004537414,0.002716112,-0.004857614
0.1649657,0.7483816,0.6522775,-0.006013987,0.003803461,-0.004530439
0.1653937,0.7493929,0.6489616,-0.006382174,0.008397295,-0.005161742
0.1634588,0.7510993,0.6499828,-0.01014822,0.01478546,-0.007203361
0.1623059,0.7535388,0.6558409,-0.01255895,0.01406524,-0.005317195
0.1628794,0.7533846,0.6567124,-0.01650869,0.01138151,-0.004971884
0.1620875,0.7518133,0.6528044,-0.01983574,0.01116946,-0.003120831
0.1614865,0.7532999,0.6483431,-0.01568299,0.003037637,0.002951623
0.161547,0.7528963,0.6502949,-0.01278486,-0.01048591,0.007760783
0.1624675,0.751722,0.6577089,-0.01614048,-0.0191775,0.006951166
0.1647484,0.7502902,0.6628755,-0.0194769,-0.02089738,0.006015404
0.1644968,0.7453494,0.6669673,-0.01961695,-0.01817966,0.01092251
0.1651176,0.7431456,0.6658357,-0.01728531,-0.01492586,0.01254399
0.1690454,0.7432037,0.6637502,-0.01549187,-0.009364462,0.007839026
0.170185,0.7425926,0.6664342,-0.01617851,-0.003911177,0.00442304
0.1708206,0.7430533,0.6650637,-0.01685858,-0.002836693,0.004909364
0.1720004,0.7410679,0.664332,-0.01359584,0.0004374414,0.005729716
0.1729223,0.7384051,0.6645724,-0.007705245,0.004759909,0.001615039
0.1759873,0.7380279,0.6614073,-0.00261649,0.007662329,-0.001790054
0.1755625,0.7385433,0.661359,-0.0003030549,0.01074808,-0.001934235
0.1737755,0.741081,0.6611855,-0.0008795586,0.007725693,-0.004400983
0.1744097,0.7435246,0.6622094,0.0009692021,0.005990827,-0.005748671
0.1711809,0.7442994,0.6638171,0.007283661,0.01221715,-0.00685437
0.1672456,0.746347,0.6610982,0.01511567,0.01748752,-0.01029018
0.1635672,0.7507056,0.6608504,0.01907968,0.01855121,-0.01093745
0.1567042,0.7541031,0.6598197,0.01848754,0.01170101,-0.008851156
0.1539738,0.7527761,0.659494,0.02001791,-0.0005149572,-0.007756184
0.1558841,0.7501243,0.6652708,0.02020429,-0.009966213,-0.00737977
0.156115,0.7504551,0.6664091,0.01822367,-0.01883668,-0.002331865
0.1560774,0.753485,0.660566,0.01524038,-0.03121882,0.007201964
0.1576344,0.7594226,0.6547681,0.009546618,-0.04648751,0.01210306
0.1593794,0.762811,0.6556394,0.01267606,-0.05502966,0.01341411
0.1618017,0.7599123,0.6571646,0.01729452,-0.05748477,0.01912566
0.1657805,0.7579131,0.6524198,0.0131848,-0.06351277,0.02120926
0.1712176,0.7558682,0.653765,0.01280457,-0.06556909,0.01262108
0.1767833,0.7509325,0.6551838,0.01238104,-0.06316991,0.00656092
0.176932,0.7502632,0.6487695,0.008348008,-0.05860573,0.00583452
0.1776206,0.7511327,0.6428644,0.00316379,-0.03739785,0.002546697
0.1868909,0.7513868,0.6347445,-0.01104647,0.00452197,0.001713887
0.1887584,0.7566463,0.6330184,-0.03072221,0.05237965,0.002410081
0.1788705,0.7601794,0.6408274,-0.04570304,0.07778389,-0.0002765113
0.168441,0.7591206,0.6512032,-0.04812993,0.06946495,0.000504747
0.1595724,0.7578831,0.6643362,-0.0424611,0.04872737,0.005905922
0.1601974,0.7544963,0.6647978,-0.03926394,0.02726296,0.008410524
0.1648174,0.7512536,0.6607717,-0.03381118,0.01425533,0.005316588
0.1644872,0.7447497,0.6658267,-0.02756416,0.01233248,0.0008179394
0.16725,0.7348475,0.6620698,-0.0213249,-0.002924503,0.000326312
0.170622,0.7355614,0.6580074,-0.01125566,-0.01881527,0.0005133105
0.1745474,0.7381448,0.6587507,-0.006821411,-0.01116581,-0.002205559
0.1783587,0.7330108,0.6537072,-0.003018796,-0.005696942,-0.005099953
0.1760826,0.7346567,0.6561116,0.004405392,-0.005759863,-0.009136551
0.1765454,0.7389978,0.6588878,0.008401587,0.004273293,-0.01010136
0.1776248,0.7391583,0.6554039,0.01314588,0.01057866,-0.008698976
0.1722495,0.7434583,0.6575255,0.01435065,0.01095673,-0.01188998
0.1647101,0.7482904,0.6572608,0.01452175,0.007939462,-0.01085207
0.1572951,0.7529893,0.6564775,0.01777996,-0.002098544,-0.006028912
0.1549648,0.7572316,0.6595974,0.01535031,-0.01229919,-0.001612742
0.1553098,0.7545179,0.6595342,0.01541478,-0.0209596,0.00725039
0.1561916,0.7522023,0.6582477,0.01662711,-0.02601303,0.01171233
0.1630406,0.7530387,0.6534797,0.01289948,-0.03197269,0.01138117
0.1687474,0.7523116,0.6503308,0.01126027,-0.04445205,0.01204045
0.1738149,0.750651,0.655377,0.008338281,-0.04730997,0.01022774
0.1817283,0.7476928,0.6593543,0.007106822,-0.04087336,0.007022999
0.1823332,0.7458896,0.6586972,0.007519617,-0.03791889,0.001261835
0.1812857,0.744793,0.6571246,0.004810113,-0.03126673,-0.006480732
0.1833265,0.7423842,0.6559421,0.003197754,-0.01774189,-0.01132676
0.1804725,0.7425236,0.6541189,0.001151719,-0.002880684,-0.01166348
0.1752416,0.7439385,0.6560017,0.002164532,0.0038879,-0.01028321
0.1704588,0.7442437,0.6602496,0.005121917,0.001959503,-0.008970742
0.169743,0.7471465,0.6581612,0.004783346,0.005485215,-0.004830871
0.1718935,0.7505071,0.6568981,0.005781364,0.007702609,-0.004340506
0.1704058,0.7521735,0.6566828,0.007298653,0.001911757,-0.008238092
0.1706235,0.7584482,0.6527644,0.009151603,-0.0008306259,-0.007583905
0.1712123,0.7636485,0.6538582,0.009349097,-0.005412956,-0.003654221
0.1693756,0.7604614,0.6551767,0.007145764,-0.01199034,0.004358569
0.1700388,0.7580152,0.6533557,0.007902428,-0.0142044,0.01137435
0.1719981,0.7569572,0.6544262,0.006713317,-0.01490979,0.01068482
0.1744064,0.7535393,0.6540153,0.002551567,-0.008931803,0.01032943
0.1741689,0.7509102,0.6516252,-0.0009746173,-0.003571819,0.009968817
0.1726481,0.7470151,0.6493949,-0.005278354,-0.006083217,0.006650026
0.1745441,0.7457526,0.6477049,-0.01180665,-0.005015701,0.003660583
0.175976,0.7486148,0.6485884,-0.01813055,0.0004951499,-0.000442395
0.1791452,0.7479484,0.6480894,-0.01481864,0.01036636,-0.00274523
0.1817813,0.7483843,0.6472029,-0.01091253,0.01758672,-0.001224433
0.1777851,0.7505124,0.6509479,-0.01386934,0.01067811,-0.001827818
0.1741777,0.7494857,0.6540875,-0.007882673,0.004805341,-0.003873534
0.1728246,0.7502421,0.6532671,-0.0004972989,0.006925523,-0.003214691
0.1714871,0.7500695,0.6539231,-0.001090539,0.005886967,-0.003792992
0.1706649,0.7483343,0.6564711,0.0002934195,0.003768879,-0.00461726
0.1696169,0.7480429,0.6555066,0.0004567742,0.003143273,-0.001462739
0.1703805,0.7468939,0.6535341,-0.002123154,0.001264094,0.0004322603
0.1714902,0.7491968,0.6554353,-0.001951944,0.002413803,-0.0002614373
0.1725061,0.7521147,0.6575324,0.0001552789,0.004964164,0.0001352903
0.1742634,0.7523248,0.6578518,0.0001903737,0.002642982,0.001760542
0.1735289,0.7540613,0.6592526,-0.0007924795,0.001149935,0.002619101
0.1723489,0.7544569,0.6618559,-0.0005688568,0.00120284,0.001884804
0.1725902,0.753852,0.6618185,-0.003492136,-0.0002259335,0.002425997
0.1738041,0.7533542,0.6601318,-0.005091657,0.0018804,0.003032671
0.1758958,0.7522014,0.6600716,-0.002906391,0.005300156,0.002483793
0.1759101,0.7519388,0.6543057,-0.003171772,0.007646901,0.002829264
0.1752373,0.7506679,0.6476403,-0.00615608,0.01003981,0.00288418
0.1750219,0.7485118,0.6527955,-0.01049556,0.01129622,0.003016576
0.1733933,0.7466804,0.6578684,-0.01011596,0.0111401,0.002658976
0.171674,0.7467305,0.6549759,-0.007368597,0.008532643,0.001036806
0.170714,0.7478844,0.6533709,-0.008668661,0.007026457,0.0007572882
0.1724878,0.7471369,0.6542803,-0.007426907,0.008010712,0.000476743
0.1754137,0.7479247,0.6542032,-0.005731139,0.009486159,-0.002077589
0.1743045,0.7492891,0.6530827,-0.00555151,0.01229813,-0.002414498
0.1725775,0.7481961,0.6525404,-0.001661867,0.01343485,0.001468995
0.1724043,0.7469213,0.6527602,-0.000677396,0.01225947,0.003069641
0.1721317,0.743576,0.6530372,-0.004920635,0.009224126,0.002295843
0.1738134,0.7404682,0.6536624,-0.006175916,0.00359375,0.001324965
0.1743433,0.7424397,0.6549029,-0.002820691,-0.001447636,-0.001049079
0.1729297,0.7443995,0.6575787,0.002060887,-0.004717344,-0.001536203
0.173767,0.745703,0.661935,0.006588941,-0.006751052,-0.001554428
0.1739083,0.752445,0.6655043,0.009636033,-0.006512012,-0.0003688642
0.1726417,0.7577212,0.6651022,0.009269675,0.0009789607,0.002444654
0.1712204,0.7534549,0.6622898,0.004246972,0.009560798,0.002024559
0.1685976,0.7492379,0.6595802,-0.0001738204,0.005034363,0.00248081
0.1698318,0.750202,0.6562548,-0.0009583003,-0.001922192,0.003235163
0.1747957,0.7500239,0.6528653,-0.002512603,-0.001242019,0.003077144
0.1772448,0.7501355,0.6505664,-0.00604121,-0.0004418861,0.003711648
0.1768635,0.7520983,0.6490733,-0.008812085,0.002161827,0.001798979
0.1757699,0.7530785,0.6485001,-0.01014725,0.005624303,0.0008406306
0.1760863,0.7523517,0.6523169,-0.009890488,0.007911267,0.001517933
0.1748868,0.7483543,0.6598728,-0.004692825,0.0123931,0.004086491
0.1714307,0.7434584,0.6643095,0.0006448911,0.01391274,0.007206265
0.1711313,0.7420805,0.6646062,0.001492438,0.01215658,0.005672613
0.1713382,0.7437714,0.6630871,0.005194286,0.008873943,0.005243087
0.1721214,0.7461377,0.6619167,0.007052926,0.00277295,0.004177863
0.1742641,0.7477809,0.6604014,0.00438066,0.001186596,0.0003883863
0.171853,0.7485722,0.6568375,0.005394852,0.005939488,-8.346307e-06
0.1697511,0.7480954,0.6552019,0.004920915,0.00866146,0.0004999086
0.1711281,0.7468921,0.6562267,0.0009223294,0.004231102,0.003020224
0.1713713,0.7454913,0.6584184,-0.001102931,-0.0003595962,0.007340623
0.1723821,0.745457,0.6589535,0.001343705,0.00221338,0.008325723
0.1742505,0.7472003,0.6574723,0.005348889,0.004298289,0.007964606
0.1738693,0.7465907,0.6578124,0.003655154,0.003230594,0.007109158
0.1731095,0.74659,0.6571005,0.001255413,0.001644361,0.003483019
0.1738557,0.7495296,0.6582005,0.0008394056,-0.001043626,-0.0003553296
0.1737292,0.7505105,0.6610161,-0.001889695,0.002221368,0.0008611981
0.1729372,0.7500746,0.6588923,-0.001734504,0.008860199,0.003280691
0.1721108,0.7497332,0.6565224,-0.0007115074,0.01092298,0.00260549
0.1701832,0.7495348,0.6545291,-0.002722808,0.01136478,0.002797621
0.1705203,0.7475339,0.6542517,-0.002971239,0.009266006,0.001962195
0.171472,0.7448472,0.6574311,-0.002526541,0.006499515,-0.0002599744
0.170403,0.7466691,0.6568552,-0.002010634,0.007683983,0.0004940349
0.1708808,0.7480765,0.6547258,-0.0002957541,0.007153729,0.001956018
0.1710706,0.7468409,0.6548711,4.886329e-05,0.003944837,0.001501547
0.1705128,0.7471897,0.65822,-0.001248323,0.003310173,-0.0009137289
0.171066,0.747399,0.6629285,-0.002418962,0.005942031,-0.002065815
0.1707667,0.7469166,0.6615231,-0.000856989,0.009346734,0.001285373
0.1707493,0.7463525,0.6589574,0.001502449,0.009170333,0.006688781
0.1711738,0.7455995,0.6575218,0.001716334,0.005871114,0.009834827
0.1717493,0.745512,0.6527232,0.002413883,0.004224029,0.008274184
0.1734774,0.7453195,0.6533123,0.002881954,0.005163489,0.005806812
0.1739883,0.7451905,0.6567277,0.002646164,0.005890008,0.00514315
0.173622,0.7467884,0.6549211,0.004235263,0.003618749,0.003895911
0.1748511,0.7483238,0.6553049,0.005968265,0.00254729,9.201492e-05
0.177121,0.7481711,0.6552995,0.005450006,0.007226421,-0.006582088
0.1776826,0.7477065,0.6534746,0.003110875,0.0104154,-0.00805639
0.1736682,0.7455954,0.6567019,0.002120867,0.005727831,-0.003551354
0.1681614,0.7449577,0.6594561,0.002904564,0.0007055677,-0.001841781
0.1672203,0.7476829,0.6600075,0.002831592,0.002707631,-1.394505e-05
0.1694186,0.7473432,0.6592997,0.002484473,0.005577213,0.001601602
0.1698268,0.7469573,0.655973,0.00111256,0.006720277,0.0004137693
0.1695766,0.7486667,0.6548643,-0.001079552,0.01027034,0.000713654
0.1712761,0.7484792,0.6549197,-0.001041508,0.0104893,0.001263906
0.1728134,0.7486315,0.6522231,-0.001232605,0.004452192,0.001738496
0.1718361,0.7477298,0.6484236,-0.002776494,-0.001347887,0.001682177
0.1695325,0.7468409,0.6488855,-0.002628258,-0.001303814,-2.15594e-05
0.1692032,0.7484143,0.6547986,-0.002350454,0.001591734,-0.001713685
0.1711444,0.7486091,0.6620552,-0.001946917,0.000800219,-0.005184501
0.171452,0.747785,0.6669959,0.0008932594,0.003440292,-0.007308742
0.170469,0.7467039,0.6654363,0.002642512,0.008488519,-0.003468679
0.1717647,0.7459449,0.6638386,0.00121343,0.006763384,0.0007934953
0.1728326,0.7451154,0.6646934,-6.51138e-05,0.004986546,1.854254e-05
0.1723068,0.7437174,0.6624172,0.001013116,0.002326965,-0.0009662778
0.1739701,0.7446225,0.6637311,0.003220499,-0.00175584,7.449885e-05
0.1753889,0.7447269,0.6650191,0.004246788,3.295712e-05,-0.001414731
0.1728509,0.744357,0.6631881,0.00359919,0.001519064,-0.003069721
0.1696173,0.7465784,0.6661003,0.001780852,0.0006527942,-0.003819149
0.1690399,0.7478218,0.6667223,0.0004155428,0.000868751,-0.002466481
0.1705487,0.7484154,0.6623752,0.0009034095,0.001169573,0.00288283
0.1712143,0.7495798,0.6583912,0.00275908,0.003694432,0.002260498
0.1709086,0.7499974,0.6566979,0.003654794,0.006989633,-0.002694178
0.1716764,0.7481683,0.6563733,0.001871151,0.007154197,-0.002057464
0.1723684,0.7454116,0.6538804,0.001365608,0.005592647,-0.0007232643
0.1714349,0.7456222,0.6560398,0.0023699,0.003195978,-0.002023323
0.1703263,0.746665,0.6598276,0.002171988,0.0004056952,-0.002231285
0.1713741,0.7482991,0.6552835,0.002709865,0.0009885468,-0.001610082
0.1737907,0.7509326,0.6526584,0.002483016,0.002085725,-0.002821133
0.1753647,0.750288,0.6547176,0.002586542,0.0004344267,-0.002930352
0.1741877,0.748989,0.6542706,0.004259303,0.00140698,-0.001256292
0.1709809,0.7485944,0.6539106,0.005394584,0.002797511,-0.00107078
0.1705159,0.7467078,0.6537771,0.008356637,5.572021e-05,-0.0001599475
0.1719999,0.7465644,0.6514762,0.01026452,-0.003711127,0.0002216197
0.172368,0.7470028,0.6500314,0.009140092,-0.004910493,-0.0004468654
0.1722168,0.745433,0.6546976,0.00790108,-0.003498386,-0.0004222462
0.1711138,0.7468234,0.6616479,0.005563262,-0.004599357,-0.002615261
0.1705923,0.7498854,0.6624493,0.003124059,-0.005886102,-0.004503121
0.1709017,0.7501945,0.6621052,0.001369892,-0.00527917,-0.003793953
0.1709585,0.7495645,0.6646634,0.002072303,-0.006805933,-0.00372692
0.1719998,0.7472304,0.6642718,0.006628876,-0.004794592,-0.005036917
0.1733048,0.7449069,0.6628266,0.007863644,-0.0009912219,-0.005622602
0.1739942,0.7457672,0.6619824,0.004515437,-0.001454032,-0.005451563
0.1732486,0.746222,0.6579103,0.004381067,-0.004569255,-0.007103556
0.1715663,0.7456079,0.6566806,0.006141102,-0.01115991,-0.01000236
0.1705697,0.7458115,0.6627293,0.00579719,-0.01334552,-0.0111388
0.1708376,0.7461419,0.666621,0.005837046,-0.006307609,-0.007762248
0.1729906,0.746643,0.6628255,0.005169529,2.147918e-05,-0.00256543
0.1739455,0.7474682,0.6593184,0.005260117,-0.001405942,-0.001261559
0.1726503,0.7479695,0.6613499,0.007953696,-0.008016573,-0.00174696
0.1719023,0.7495882,0.6618848,0.007554808,-0.01181358,-0.002253448
0.1720859,0.7523502,0.6590031,0.005675221,-0.01080666,-0.00375254
0.1725125,0.7517967,0.6552349,0.005469497,-0.008634177,-0.004941715
0.1720848,0.7503643,0.6496664,0.00497452,-0.008185916,-0.006178371
0.1722904,0.7508395,0.6499513,0.003911909,-0.008211958,-0.007529315
0.1733806,0.7484973,0.6524594,0.002156473,-0.007106519,-0.008149843
0.1736291,0.7464158,0.6503492,0.002331786,-0.007629713,-0.006344814
0.1740122,0.7479774,0.6575994,0.00293135,-0.006894892,-0.003789991
0.1741792,0.7505663,0.6658944,0.001318178,-0.006030597,-0.003197071
0.1742938,0.7522537,0.6605149,0.001703601,-0.007414539,-0.002492922
0.1737043,0.7499953,0.6577596,0.003244814,-0.006019345,-0.002100118
0.1730262,0.7473998,0.6605446,0.003314089,-0.004229153,-0.0009189165
0.174061,0.7474078,0.6587149,0.003047884,-0.00263254,-0.0002826137
0.1735925,0.7479257,0.6557566,0.002160624,-0.000969582,-0.001582325
0.1734503,0.750217,0.6519759,0.001464014,0.0007676344,0.0008752887
0.1749462,0.7513712,0.6459819,0.001611345,0.0046578,0.002661574
0.1751482,0.7510044,0.6451013,0.001054941,0.004686032,0.002676775
0.1760492,0.7505511,0.6515036,-0.001792806,0.00504338,0.003374899
0.1766317,0.7474727,0.6589347,-0.005893479,0.007706389,-0.0002547127
0.1763127,0.7456599,0.6638203,-0.007028048,0.005433207,-0.001653715
0.176476,0.7458352,0.6632491,-0.005246023,0.004768051,1.082931e-05
0.1762503,0.7460292,0.6608955,-0.004514471,0.00604396,-0.0004200449
0.1757883,0.7478529,0.6606582,-0.005064477,0.005598436,0.001101211
0.1728104,0.7490171,0.6564909,-0.004817364,0.006858626,0.001296273
0.170159,0.7484314,0.6550415,-0.002349644,0.008214104,-0.001282598
0.1732717,0.7471266,0.6586392,-0.001252873,0.009631518,-0.0024097
0.17595,0.7475866,0.6562742,-0.003321168,0.01003373,-0.002731844
0.1723049,0.7490692,0.6550476,-0.001988318,0.008067775,-0.001272761
0.169622,0.7471371,0.659036,-0.0002629707,0.006908056,0.001760751
0.1729467,0.7466572,0.6630922,-0.001806141,0.005955882,0.00229197
0.1741128,0.7497412,0.6661915,-0.0008141536,0.00355915,-0.0002140257
0.1705095,0.7504594,0.6641457,-0.0007061975,0.0006967674,-0.001317395
0.1694728,0.7494774,0.6622334,-0.0009422617,-0.00215717,0.003277376
0.1737799,0.7482462,0.6612541,0.002177911,-0.004587634,0.007638549
0.1782306,0.7466543,0.6584206,0.002982432,-0.002973869,0.003111715
0.1763251,0.7470262,0.6587075,0.0009207025,0.0009516067,-0.00146657
0.1730604,0.7472993,0.6566002,-0.001988246,0.0003365502,0.0001791838
0.1723322,0.7451717,0.6569246,-0.002347477,-0.0003464857,-0.001177585
0.1704927,0.7438883,0.6611076,-0.001054591,0.002040779,-0.003655901
0.1704433,0.7444172,0.6592387,-0.002571437,0.002781679,-0.002814881
0.16985,0.7444751,0.6608835,-0.002783769,0.003664582,-0.001871465
0.168476,0.7434627,0.6635469,-0.003020808,0.004816405,0.0001426915
0.1714481,0.7432416,0.6621062,-0.00392943,0.004082654,0.0001573049
0.1729776,0.745766,0.662823,-0.002315001,0.002343603,-0.0008223548
