accx,accy,accz,gyrox,gyroy,gyroz
0.07815351,0.8699775,0.4717409,0.05477806,-0.001607778,0.3074251
0.09271287,0.8810138,0.4419717,0.05592739,-0.04592322,0.3532555
0.09968984,0.9187061,0.4121042,0.08689095,-0.05336099,0.3753739
0.1078656,0.9220691,0.4111509,0.09544117,-0.06544383,0.3776176
0.1392801,0.9218799,0.4245886,0.09169541,-0.08158676,0.3297596
0.1695512,0.9444294,0.4061332,0.05646515,-0.060068,0.3200794
0.1733243,0.9374729,0.3984946,-0.01130867,0.01710145,0.3259761
0.1451101,0.9030057,0.4106937,-0.008501693,0.07553419,0.3555717
0.1050124,0.8643378,0.4102032,0.04420743,0.08583079,0.4109142
0.08400051,0.8320042,0.4232022,0.1092808,0.03821418,0.4181446
0.102221,0.8468689,0.4290316,0.1567964,-0.02609178,0.4108386
0.1558352,0.871683,0.4320187,0.1547774,-0.03830607,0.3886012
0.1881671,0.8591667,0.4412439,0.1655187,-0.06205582,0.3465901
0.1780232,0.8716866,0.4289829,0.1955396,-0.1200209,0.3088818
0.1683126,0.8984112,0.4248318,0.1959224,-0.1695199,0.2868099
0.1652078,0.9159366,0.4167999,0.1719962,-0.1734386,0.2966725
0.1517775,0.9381584,0.3894377,0.1470039,-0.1121859,0.3027535
0.1467518,0.9190993,0.3730051,0.1268851,-0.03355298,0.3073846
0.1627521,0.8966787,0.3706563,0.1090687,0.02555881,0.2942456
0.1644224,0.8947292,0.3815376,0.08994821,0.02836071,0.2564301
0.1558765,0.8828137,0.3901784,0.07595587,-0.0004647457,0.2532425
0.1585976,0.8936644,0.4014309,0.08157014,-0.009948607,0.2568489
0.154942,0.9088408,0.418947,0.08800919,-0.02470051,0.2532587
0.1587955,0.9125417,0.4171372,0.08937362,-0.02738704,0.2536755
0.1646952,0.9154498,0.4102882,0.09654265,-0.02030877,0.2399609
0.1650046,0.908044,0.4031364,0.09154904,-0.01827166,0.2256882
0.1657005,0.907891,0.3916741,0.08559714,0.003688781,0.2105556
0.1511209,0.9056771,0.3867305,0.07981237,0.0265809,0.2063403
0.1436681,0.9020533,0.383106,0.0649929,0.04051112,0.2131864
0.1372858,0.9065844,0.3897706,0.06575195,0.03166923,0.2201452
0.1310124,0.9031976,0.401111,0.07042731,0.0007918591,0.2386301
0.1447966,0.9061735,0.4020029,0.07114083,-0.02066815,0.2438433
0.1486497,0.9116698,0.4037701,0.0769922,-0.03072187,0.2373121
0.1494873,0.9103901,0.4037386,0.07357998,-0.02108862,0.2368772
0.1516441,0.9121952,0.3987523,0.0705541,-0.01320225,0.2282053
0.1479647,0.9090433,0.3987056,0.07500923,-0.0110857,0.2204974
0.15158,0.9031866,0.396043,0.07526225,0.01235667,0.2208511
0.1494736,0.8960884,0.3881668,0.07351913,0.02096674,0.2211405
0.1493752,0.8935684,0.3897228,0.0722303,0.01178165,0.220869
0.1506773,0.9006324,0.3998062,0.07472422,0.004757627,0.2192561
0.1449083,0.9004758,0.4066239,0.08256602,-0.01049178,0.2120423
0.144404,0.9003127,0.4053972,0.0880811,-0.01877753,0.2018296
0.1441156,0.9066525,0.4021027,0.09142568,-0.02309665,0.2003878
0.1465545,0.9108783,0.4035517,0.09575177,-0.02629807,0.2006053
0.1483265,0.9128007,0.397753,0.09291454,-0.01385297,0.1968918
0.1462694,0.9092346,0.3894207,0.0872638,-0.001282589,0.1969594
0.1477576,0.9063122,0.3939039,0.09067116,-0.00237902,0.193622
0.1459834,0.9039981,0.3970937,0.09085189,-0.005419202,0.1890538
0.1456114,0.902386,0.3963132,0.08420765,-0.0008121638,0.1897927
0.1471674,0.9065879,0.39624,0.08127809,-0.002659977,0.1915944
0.1471383,0.9075238,0.3916915,0.07942331,-0.01174058,0.1990184
0.1491189,0.9106113,0.3889252,0.0780547,-0.01307952,0.2045438
0.1504712,0.9125746,0.3870744,0.0721329,-0.006223537,0.1932319
0.1539389,0.9084256,0.385745,0.06199142,0.005020083,0.1787972
0.1549111,0.9118793,0.3877755,0.0590401,0.006362721,0.1773289
0.1521803,0.9121148,0.3888056,0.05457481,0.009662368,0.1796827
0.1504292,0.9100022,0.3955829,0.04469934,0.02241418,0.179865
0.1456319,0.9150757,0.4065828,0.04180199,0.01358853,0.1781948
0.1444973,0.9151117,0.4085728,0.04441893,0.004619194,0.1712655
0.1508633,0.9118545,0.4035556,0.04409859,0.01145612,0.1679224
0.1563021,0.9067177,0.39874,0.04379006,0.008071773,0.1671706
0.154324,0.9027345,0.3959455,0.05041378,0.003926879,0.1603192
0.1494581,0.904736,0.3950199,0.05713558,0.002931319,0.1567587
0.1484026,0.9041479,0.3943822,0.05756905,0.004302078,0.1563295
0.1457957,0.9038611,0.3931671,0.06026391,0.009436887,0.1565491
0.1431291,0.905335,0.3930277,0.06448487,0.002794258,0.1611066
0.1418836,0.9072944,0.3941446,0.059409,-0.003970635,0.1621194
0.141759,0.9111168,0.3940072,0.05381345,-0.002036356,0.1595033
0.1470675,0.9098866,0.3919428,0.0557831,-0.001888969,0.1564828
0.1479967,0.9078647,0.3898778,0.05127248,-0.002779476,0.1521876
0.1455088,0.908744,0.392519,0.04434472,-0.007676012,0.1489631
0.1461935,0.9079132,0.3959912,0.0457943,-0.01246901,0.1481737
0.1458739,0.9074004,0.3931254,0.04592885,-0.00641197,0.1505957
0.1491184,0.9069076,0.3912274,0.0459323,0.0020931,0.1470508
0.15282,0.9072916,0.392782,0.04828904,0.003831261,0.1359015
0.1528876,0.9108767,0.3948991,0.04594101,0.005072521,0.1305386
0.1515821,0.913305,0.3982574,0.04015162,0.006299985,0.1305824
0.1479169,0.9117183,0.3961662,0.03511142,0.002397273,0.1293585
0.1466514,0.9091709,0.3908856,0.03415169,-0.0004315347,0.1292113
0.1471656,0.9084986,0.3890488,0.03473493,-0.0007436276,0.1317732
0.1473253,0.9074809,0.3864837,0.03233838,-0.00132127,0.1300865
0.1474184,0.9064634,0.3846295,0.02963636,-0.001245415,0.126832
0.1464498,0.9080628,0.3879259,0.02977357,-0.00426741,0.130235
0.1457923,0.9085948,0.3920364,0.03317532,-0.006072828,0.1311351
0.1445361,0.9072163,0.3915489,0.0361215,-0.00419809,0.1286104
0.1477412,0.9069226,0.3907856,0.03611495,-0.003558613,0.1280071
0.1528259,0.9077195,0.3925457,0.03601118,0.0005962687,0.1275829
0.1514823,0.9086145,0.3913057,0.03585295,0.005314286,0.1295322
0.1507885,0.9075017,0.3902697,0.03484788,0.001428573,0.1282156
0.1518743,0.906334,0.3907601,0.03312197,-0.00708202,0.1242444
0.1510166,0.9071495,0.3901638,0.03158126,-0.01297822,0.1207036
0.1504759,0.9070291,0.3932544,0.03312075,-0.0108066,0.1130804
0.1498193,0.9067673,0.3954888,0.03336041,-0.003035507,0.1099401
0.150359,0.9067346,0.3947374,0.03036533,-0.0007812302,0.1098545
0.1529106,0.9050807,0.3970666,0.02864752,-0.001268209,0.1055711
0.1548841,0.9036371,0.3994376,0.02577336,-1.495e-05,0.103677
0.1537394,0.9036177,0.3993505,0.0250854,-0.002866064,0.1015866
0.1495187,0.902758,0.3997644,0.02793566,-0.00579773,0.09842454
0.1454504,0.9017492,0.4006904,0.0263673,-0.006980995,0.09836055
0.1449227,0.9064188,0.3948076,0.02324671,-0.007358855,0.09827857
0.1472669,0.9113154,0.3883553,0.0205001,-0.004309471,0.09999873
0.1469579,0.9063752,0.3962988,0.01949896,-0.002866165,0.1018672
0.1456987,0.9018037,0.4023564,0.02358994,-0.0008084796,0.1007676
0.1477679,0.9048582,0.3931467,0.02597995,0.002820017,0.0995141
0.1499482,0.9057639,0.3874233,0.02698914,0.001635628,0.09629407
0.1520287,0.9047681,0.3917834,0.03000808,7.273292e-05,0.09283033
0.1524388,0.9052149,0.3940415,0.03230599,0.0004440239,0.08877475
0.1526951,0.9037702,0.3933088,0.03139376,0.0001099101,0.08266046
0.1578865,0.903236,0.3961671,0.02822783,0.001621221,0.07954499
0.1594232,0.9021371,0.4010725,0.03021677,0.003367011,0.07393891
0.1559484,0.8996471,0.4044792,0.03441485,0.002923057,0.06773767
0.1533596,0.9041699,0.4009714,0.03601763,0.004131394,0.06830367
0.1493483,0.909222,0.3937589,0.0352838,0.005633137,0.06594195
0.1464943,0.9067855,0.3939284,0.03104508,0.008594175,0.06207552
0.1440869,0.9060593,0.3913129,0.03066156,0.01518023,0.06308188
0.1431884,0.9073811,0.3869483,0.02881201,0.01555975,0.06330975
0.1456291,0.9049263,0.3945109,0.02356034,0.01199815,0.064825
0.1445877,0.9037373,0.3988127,0.02465128,0.008687,0.06780995
0.1457537,0.9061337,0.3966079,0.02280699,0.002222649,0.06701
0.1499492,0.9076354,0.3981867,0.02104398,0.002044446,0.06658996
0.1511328,0.9071661,0.4011762,0.02424417,0.00474683,0.06739493
0.1561916,0.9074965,0.4065812,0.02367222,0.005501968,0.06470668
0.159743,0.9088206,0.4071104,0.02412723,0.01027914,0.06213068
0.1548518,0.9084833,0.3994726,0.02509196,0.007591681,0.06022474
0.1499391,0.9079216,0.3940693,0.02752517,0.003144025,0.05436909
0.148454,0.9084549,0.39548,0.03157887,0.01092753,0.0502681
0.1487174,0.9074062,0.400519,0.02638913,0.01570733,0.05047229
0.1497218,0.9064879,0.4006862,0.02045809,0.01494104,0.04848553
0.1515006,0.9070919,0.398626,0.02251803,0.01476635,0.04547215
0.1536149,0.9071469,0.3984428,0.02488645,0.00603931,0.0439055
0.1541559,0.907955,0.3973122,0.02470426,-0.006171824,0.04288265
0.1525794,0.9099078,0.3994539,0.02511155,-0.006513189,0.04372006
0.1505382,0.9118428,0.3996534,0.02509829,0.001357776,0.04368824
0.1507233,0.912993,0.3957373,0.02094004,0.004796731,0.0419584
0.1492996,0.9116716,0.3921415,0.01806808,0.006502738,0.04308302
0.1459161,0.907784,0.3856123,0.01795708,0.01029111,0.04392996
0.1466755,0.9043338,0.386176,0.01413596,0.01398148,0.04223979
0.1462494,0.9052215,0.3920881,0.01179153,0.01637973,0.04167367
0.1436217,0.9073891,0.3914295,0.01525114,0.01081979,0.03997915
0.1461683,0.9067798,0.3933602,0.01943108,0.002014564,0.03769462
0.148954,0.9068449,0.3942205,0.02210289,-0.002129274,0.03688068
0.1495485,0.9072555,0.3922546,0.02284185,-0.001245358,0.03575194
0.1519736,0.9066131,0.3975083,0.02182155,0.005655047,0.03545413
0.1517239,0.9071127,0.3989033,0.02112134,0.009313672,0.03295445
0.1483903,0.9073601,0.3937599,0.02063238,0.009492756,0.02847573
0.1466118,0.9085107,0.390468,0.0190942,0.009911706,0.02645796
0.1453107,0.9110518,0.3910268,0.01759968,0.006504419,0.02656556
0.1460762,0.9128174,0.3939113,0.01547556,0.003129521,0.03185345
0.1491301,0.916083,0.3927126,0.01148525,0.001679842,0.03743715
0.1500491,0.9171498,0.3922016,0.008411261,0.005358664,0.03514559
0.1481744,0.9122247,0.3912044,0.007263412,0.007334906,0.03212216
0.1449471,0.9078716,0.3878998,0.006279873,0.003817011,0.03212558
0.1453705,0.9069278,0.3926376,0.005378057,0.006247481,0.03019666
0.1487253,0.9063916,0.3962444,0.005667852,0.004767385,0.0290273
0.1490489,0.9042663,0.3934742,0.006635897,0.0007839603,0.03002755
0.1499721,0.9021026,0.3920645,0.006812879,0.002704299,0.02811691
0.1505631,0.9034063,0.3918041,0.006843106,0.001239398,0.02573941
0.1484477,0.9046762,0.392845,0.00683759,0.003112216,0.02488148
0.1485184,0.9021576,0.3925714,0.007363604,0.005214225,0.02319106
0.1487555,0.9009326,0.3922775,0.008697117,0.00203116,0.02245661
0.1483978,0.9042327,0.3922174,0.00848563,0.002002127,0.02179576
0.1484895,0.9097317,0.3898101,0.008069687,0.00158694,0.0208673
0.14666,0.9142575,0.3902388,0.007888662,0.002221389,0.02043435
0.1463881,0.9132161,0.3910556,0.006978152,0.003516357,0.01935983
0.1510811,0.9057914,0.3923815,0.008965263,0.001984979,0.01722837
0.1553335,0.8989149,0.3977776,0.01256899,0.000559589,0.01245133
0.1511923,0.8997236,0.3979186,0.01256647,-0.001345003,0.008781598
0.1459208,0.9061507,0.3927028,0.008663455,0.0002414249,0.01034966
0.1481309,0.910765,0.3908836,0.004439847,0.004074791,0.01355559
0.147911,0.9126399,0.3905625,0.002595627,0.007186156,0.01465182
0.1461352,0.9145082,0.3900063,-0.0001886765,0.008396639,0.01429238
0.1491261,0.9163266,0.3922375,-0.004113652,0.007437924,0.01458245
0.1495548,0.9151963,0.3937879,-0.004030437,0.01124788,0.01542125
0.1485876,0.9099738,0.3918537,-0.00209731,0.009591771,0.015666
0.1471469,0.9051941,0.3916197,0.0006306769,-0.001516984,0.01397652
0.1449539,0.9022663,0.3936533,0.003866376,-0.008724228,0.01177079
0.1483862,0.9018901,0.3949018,0.00256812,-0.009830884,0.01054078
0.1523213,0.9027978,0.3943825,0.002888639,-0.004137703,0.009356997
0.1531433,0.9010495,0.3916311,0.006775131,6.804702e-05,0.009295808
0.1529693,0.9028343,0.3886628,0.005598176,0.0006458674,0.009002631
0.1509856,0.9061056,0.3866266,0.003856272,0.003673059,0.007951029
0.1493727,0.9062918,0.3872136,0.004252162,0.001610648,0.007063094
0.1474453,0.9088753,0.3882837,0.002767214,-0.001736684,0.006497397
0.1472205,0.9081472,0.3871177,0.002021084,-0.002104066,0.008796423
0.1486039,0.9058078,0.3884317,0.001799967,0.001724659,0.01091355
0.1468321,0.9083544,0.3906174,0.00028174,0.00825241,0.009797457
0.1467601,0.9087767,0.3938373,-0.003223705,0.003894849,0.008046787
0.1480608,0.9079917,0.3990251,-0.007179152,-0.0005388162,0.007260813
0.148057,0.9085152,0.3975222,-0.005928535,0.002697944,0.006896834
0.1507273,0.9082535,0.3944005,-0.003452113,0.002557104,0.005556575
0.1520605,0.9083599,0.3965139,-0.004342819,0.005303069,0.004461063
0.1502247,0.9081606,0.397589,-0.0008702029,0.00899258,0.003314286
0.1494481,0.9074092,0.3972985,0.003903056,0.005748238,0.0009296528
0.1493409,0.9065429,0.39718,0.001920334,0.003656549,-0.002026818
0.1493677,0.905709,0.3972408,0.002001555,0.004188719,-0.003618471
0.1500415,0.9041119,0.3983567,0.005302844,0.0004082932,-0.0003668014
0.1503271,0.9009746,0.3983855,0.004468726,-0.004397135,0.002269838
0.1495999,0.9004943,0.3965321,0.002550184,-0.001991068,-0.001612262
0.1490466,0.9063533,0.392408,-0.001955745,0.004127733,-0.006509348
0.1489377,0.9128675,0.3868228,-0.007521886,0.009311392,-0.007103807
0.1500585,0.9119732,0.3834675,-0.005589344,0.01188818,-0.006050408
0.1516927,0.9087661,0.3861283,-0.000314243,0.006837752,-0.009117107
0.1489054,0.9073721,0.3955114,0.002702863,0.002036471,-0.01245719
0.1457602,0.9030384,0.4022915,0.002360627,0.003068991,-0.0116655
0.147405,0.90322,0.399012,-0.0003266017,0.002651017,-0.01064777
0.1477319,0.9077222,0.3950713,-0.00118586,0.005510409,-0.007844948
0.1468738,0.9071972,0.3972748,-0.003591788,0.0118334,-0.005383416
0.1483438,0.9094721,0.3969123,-0.00582352,0.01104618,-0.007125808
0.1491253,0.9125516,0.3955988,-0.004011992,0.006455676,-0.007205468
0.1499484,0.9106412,0.4006529,-0.00426685,0.004347748,-0.006429792
0.1529222,0.9110345,0.4012738,-0.003666006,0.004033689,-0.00520248
0.1547623,0.9113583,0.3979807,-0.001876287,0.002005565,-0.002531304
0.152506,0.9108387,0.3979252,-0.003458164,-0.001568484,-0.006751722
0.1501099,0.9110184,0.3941917,-0.003548961,0.001222629,-0.0140304
0.1506515,0.9085647,0.3932264,-0.003352872,0.005639238,-0.01594765
0.1501584,0.9052403,0.3962418,-0.001129406,0.003294907,-0.01513505
0.149411,0.9033166,0.3965072,0.005769547,0.002588414,-0.01411257
0.150255,0.9055505,0.3991595,0.008496209,0.003120501,-0.01504895
0.1487166,0.9093301,0.3983818,0.005909968,-0.0004908259,-0.01526822
0.1462732,0.9109281,0.3948372,0.001882505,-0.0006328071,-0.01192512
0.1457163,0.9117453,0.3961638,-0.001540062,0.003888376,-0.009408346
0.1468455,0.9111836,0.3961322,-0.001963263,0.007355523,-0.008915504
0.1496176,0.9126966,0.3961509,-0.002209755,0.006305022,-0.01106321
0.1507371,0.9140006,0.3972302,-0.00445477,0.004210184,-0.01451937
0.1507105,0.9092209,0.3962532,-0.005475873,0.006175244,-0.01302622
0.1516591,0.9053438,0.3972525,-0.003818952,0.005589629,-0.01006859
0.1509676,0.9068807,0.3977775,-0.003310836,0.002191301,-0.01135705
0.1485213,0.9090585,0.395817,-0.004428067,0.0005656421,-0.01309455
0.1466833,0.9099343,0.3934626,-0.005268458,-0.0007134963,-0.01463924
0.1477811,0.9115694,0.391555,-0.006004715,0.000854561,-0.01547484
0.1493159,0.9111351,0.3937454,-0.004606553,0.002853669,-0.01533912
0.147337,0.9070941,0.3950798,-0.00083762,0.0045826,-0.01810779
0.145567,0.9038453,0.3923175,0.001987503,0.005761701,-0.01900784
0.1449923,0.9019904,0.3920782,0.0003169832,0.001313675,-0.0187186
0.1440034,0.9045084,0.3905529,-0.002035993,-0.001054239,-0.02040282
0.1446419,0.9108493,0.3874005,-0.00134731,0.001541406,-0.01653432
0.1457429,0.9142255,0.3876574,-0.004706098,0.003966096,-0.01133768
0.1472908,0.9129908,0.3875689,-0.008895369,0.007023175,-0.01130703
0.1504123,0.9065373,0.3894531,-0.006417621,0.008154549,-0.01387453
0.1515749,0.9012531,0.392492,-0.001587722,0.00486584,-0.01753767
0.1488325,0.9017106,0.3929963,0.00178033,-0.003110339,-0.01974727
0.1460351,0.9048039,0.3934939,3.224638e-05,-0.007475644,-0.02142066
0.1470544,0.9088079,0.3921739,-0.004172434,0.001887844,-0.02137876
0.1479811,0.9089681,0.3925745,-0.005509344,0.01311249,-0.01580551
0.1466584,0.9092118,0.3949736,-0.006733467,0.01196621,-0.01033702
0.1472815,0.9104918,0.3968455,-0.007535204,0.005427234,-0.01205119
0.1480945,0.9070117,0.4012086,-0.007345254,0.001251808,-0.01560267
0.1494573,0.9051308,0.3999161,-0.005912317,-0.002003521,-0.01437558
0.1528606,0.9040485,0.3951181,-0.002494446,-0.001492959,-0.01389587
0.1531049,0.9027111,0.3941779,-0.0008049505,-0.001377299,-0.01413904
0.1521102,0.9047154,0.3907903,-0.00253167,-0.004351489,-0.01410549
0.151475,0.9047745,0.3904131,-0.007103236,0.0009275373,-0.01831123
0.1497446,0.9054721,0.3912035,-0.009744559,0.006609463,-0.02088629
0.1502853,0.9078433,0.3838577,-0.007474105,0.003984845,-0.02153664
0.1510199,0.9070213,0.3816271,-0.004586653,0.003321976,-0.02192155
0.1511137,0.906508,0.3903263,-0.001795849,0.00325544,-0.01956263
0.151015,0.9068801,0.39723,0.0001309838,0.001029546,-0.01800738
0.1489338,0.9055048,0.3946649,-0.001159344,0.0009766661,-0.0158711
0.1483323,0.9052474,0.3897973,-0.003285121,0.003087984,-0.01608679
0.1480972,0.9076089,0.390581,-0.004494792,0.003297804,-0.01808393
0.1481092,0.9084311,0.3902557,-0.005661163,0.0002081497,-0.01591763
0.1496185,0.907896,0.3897213,-0.006706934,-0.001267819,-0.01539345
0.1491166,0.9087101,0.3911523,-0.007650934,-0.002516285,-0.0145129
0.1502048,0.9083209,0.3896049,-0.007961294,-0.002934805,-0.01487913
0.1516158,0.9078543,0.3905675,-0.007226695,0.0009905821,-0.02104856
0.1506924,0.9078139,0.3916309,-0.007513031,0.003798207,-0.02010623
0.1509709,0.9064438,0.3911893,-0.005970341,0.005572356,-0.01624211
0.149676,0.9064761,0.3922585,-0.002030569,0.006323706,-0.0195667
0.1496839,0.9055537,0.3902691,-0.001850515,0.004018196,-0.01898311
0.1518465,0.9032716,0.3904943,-0.002603795,0.003378353,-0.01708773
0.1520153,0.9042735,0.3933639,-0.001519109,0.001708148,-0.01955962
0.1532388,0.9057192,0.3940805,-0.0009613793,-0.003217211,-0.01631795
0.1528103,0.9063365,0.3912508,0.0007104036,-0.005031611,-0.01267512
0.1509424,0.9083196,0.3850011,0.00137093,-0.001687656,-0.01429725
0.1498792,0.9114295,0.3844699,-0.003083777,0.0044856,-0.01549709
0.1478834,0.9142411,0.3867649,-0.01141563,0.009496958,-0.01781622
0.1499435,0.9109552,0.3901089,-0.01655381,0.009804802,-0.02020388
0.1535871,0.9051987,0.3973685,-0.01124473,0.005625792,-0.02181937
0.1541187,0.9065095,0.3979195,-0.002054828,-0.0003019078,-0.02169304
0.1527876,0.907143,0.3975435,-0.0003638032,-0.005122129,-0.02069239
0.1503801,0.9043518,0.3992994,-0.004433772,-0.005216795,-0.02212037
0.1514234,0.905581,0.3928643,-0.007546465,0.002187264,-0.02132604
0.1530267,0.9051478,0.3872624,-0.006933496,0.00893352,-0.02249082
0.1520185,0.9032282,0.3871017,-0.006964846,0.006189535,-0.02367172
0.150818,0.9047063,0.3873531,-0.01018672,0.000773304,-0.01794249
0.1467363,0.9051479,0.3883195,-0.009288201,-0.0007873357,-0.015046
0.144508,0.9055432,0.3889867,-0.007550945,-0.0008474308,-0.01793891
0.1468879,0.9057749,0.3907341,-0.007939115,-0.001713553,-0.02112848
0.1489677,0.9039015,0.3915978,-0.005008116,-0.005336873,-0.01852741
0.1523,0.9022812,0.3929884,-0.005140751,-0.007103262,-0.01428874
0.1537224,0.9015278,0.3972186,-0.005971672,-0.00111806,-0.01528067
0.1509866,0.9049146,0.3947518,-0.004040632,0.003915716,-0.01659352
0.1492462,0.9098248,0.3892809,-0.005764552,0.001897246,-0.02098517
0.1483197,0.9100836,0.3891869,-0.004780201,0.0005273414,-0.02386266
0.1481084,0.9091891,0.3913432,-0.003201383,0.001056329,-0.02128231
0.148158,0.9082418,0.3948901,-0.005708528,-9.108816e-05,-0.02064329
0.1471163,0.9062456,0.3939756,-0.004947763,0.0007216453,-0.01907951
0.1487894,0.9044044,0.3899399,-0.004943809,0.003425551,-0.01891816
0.1510192,0.9019656,0.3907869,-0.007486379,0.003476812,-0.01889279
0.1498791,0.9031174,0.3929505,-0.008038785,0.002293203,-0.01509599
0.1496277,0.9081871,0.3938783,-0.007567909,-0.0003778967,-0.0134338
0.1503924,0.9107489,0.3888417,-0.006219814,-0.002809144,-0.01396407
0.1498204,0.9108418,0.3823409,-0.006236143,0.0007878764,-0.01619131
0.1499587,0.9096308,0.3872056,-0.005485836,0.003790517,-0.01740474
0.1501569,0.9077244,0.3911115,-0.00274624,0.002319318,-0.0183785
0.1498442,0.9065788,0.3870263,-0.003559132,0.002972603,-0.01975855
0.1504398,0.9063475,0.3871198,-0.004163035,0.005270704,-0.01776285
0.1517911,0.9065954,0.3895698,-0.002917987,0.007446864,-0.01964969
0.1525456,0.9054916,0.3914645,-0.003491802,0.00932808,-0.02413121
0.149498,0.9069142,0.3940572,-0.002720885,0.005715979,-0.02746244
0.1456575,0.9096244,0.3925775,-0.0008413866,-0.005047312,-0.02842948
0.1475507,0.9074844,0.3887717,-0.00161282,-0.01062431,-0.0215665
0.1515545,0.9056578,0.3877993,-0.005880318,-0.002421007,-0.0166678
0.1550923,0.905327,0.3914872,-0.0083632,0.005511248,-0.0172813
0.1580836,0.9049474,0.3965433,-0.006178159,0.00406968,-0.01887349
0.1549745,0.904304,0.39546,-0.005058971,0.003556078,-0.01946559
0.1508275,0.9014634,0.3932403,-0.002268137,0.002135744,-0.01725179
0.1511167,0.9018869,0.3950513,0.002167426,-0.005427494,-0.01868654
0.1494158,0.9051955,0.3941067,0.002663875,-0.005414854,-0.01788093
0.1470223,0.9079936,0.3925966,0.003421303,-0.0005946413,-0.01529871
0.1470409,0.9092514,0.3927247,0.0002160572,-0.0003461123,-0.01866319
0.1479207,0.9073846,0.3911582,-0.0066179,0.003088865,-0.01817763
0.1509867,0.9069623,0.3899973,-0.006320824,0.002440793,-0.01609784
0.1535283,0.9069981,0.3900384,-0.004752121,-0.00097736,-0.01580183
0.1523046,0.9075552,0.3915412,-0.005592277,0.001940136,-0.01402459
0.1504607,0.9090462,0.3923927,-0.004022929,0.0004636383,-0.01369298
0.1516266,0.9069979,0.393256,-0.002023537,-0.001155986,-0.01587768
0.152841,0.9066046,0.3962043,-0.001921651,0.0006107324,-0.0214589
0.1526139,0.9069115,0.3959801,-0.004800516,0.001264252,-0.02146453
0.1542277,0.9048082,0.3945553,-0.007038142,0.004417069,-0.01770319
0.1551068,0.9043219,0.3944543,-0.004609718,0.003684296,-0.01992509
0.1543561,0.9056993,0.3941534,-0.002263553,0.001503021,-0.01932937
0.1523147,0.9091484,0.3947539,-0.003244879,0.001578673,-0.01855315
0.1493696,0.910638,0.3934381,-0.003874985,-0.001133457,-0.02113169
0.1499449,0.9109024,0.3898525,-0.003133904,-0.001235995,-0.01910783
0.1505196,0.9118901,0.3864124,-0.002245451,-0.0009245652,-0.01654199
0.1504746,0.9104966,0.3870344,-0.001495393,-0.0006324167,-0.01488326
0.1520052,0.9108057,0.3905104,-0.004354373,0.004536725,-0.01371313
0.1513311,0.9092393,0.3902851,-0.006046666,0.004290402,-0.01452496
0.1511361,0.9044756,0.3901704,-0.003468262,-0.0007800854,-0.01360243
0.1516982,0.9045084,0.3906321,-0.006428473,-0.0003342295,-0.01255146
0.150626,0.908584,0.38979,-0.008021128,0.00280822,-0.01199631
0.148815,0.9127033,0.390643,-0.003688034,0.005543925,-0.01213765
0.1467626,0.9116419,0.3902169,-0.004686044,0.005168821,-0.01343794
0.1486128,0.9090741,0.3898534,-0.005354489,0.002840758,-0.01356115
0.1512796,0.9084372,0.3897887,-0.005027182,0.004399142,-0.01662007
0.149799,0.9044078,0.3882538,-0.008713869,0.004114842,-0.02044929
0.1495358,0.9047373,0.3894872,-0.00674197,0.0001974559,-0.01981168
0.1505257,0.9080124,0.3918436,0.0001137436,-0.005032511,-0.01691359
0.1497562,0.9070202,0.3926378,0.00357099,-0.009816259,-0.01245151
0.1497466,0.9105603,0.3891623,0.0005197477,-0.002323053,-0.009943091
0.1493543,0.9140938,0.3840168,-0.005722293,0.007494471,-0.01143411
0.1481004,0.9118592,0.3865697,-0.006753706,0.004661972,-0.01281764
0.1489696,0.910063,0.3909653,-0.005232795,0.002894195,-0.01240197
0.1506505,0.907475,0.3919259,-0.004003009,0.002917473,-0.01426141
0.1515088,0.9052196,0.3932178,0.0001304715,-0.003055488,-0.01894943
0.1508277,0.9054642,0.3927194,0.002195351,-0.004229521,-0.01718704
0.1489691,0.906716,0.3920675,-0.0009076152,0.003081433,-0.008149183
0.1482189,0.9109285,0.3917976,-0.005285689,0.008240221,-0.004501315
0.1472518,0.9154468,0.3910863,-0.006685564,0.004607037,-0.009212827
0.1476703,0.9140667,0.3919588,-0.005724803,0.0001993545,-0.01007778
0.1503826,0.909057,0.3907424,-0.007438441,0.002210436,-0.007333213
0.1502394,0.9049927,0.3898116,-0.009552296,0.002316613,-0.009141687
0.1495984,0.9018002,0.3915775,-0.008314067,-0.001409819,-0.009955582
0.1503578,0.9040359,0.3910605,-0.004848723,-0.002661243,-0.01168356
0.1503365,0.9085735,0.3881745,-0.002492198,-0.002087297,-0.01441704
0.1526816,0.9076684,0.3855149,-0.004090113,0.002642662,-0.01212993
0.1551406,0.9090493,0.3884009,-0.004406244,0.007608222,-0.01218728
0.1542668,0.9105568,0.3930967,-0.002967564,0.001193969,-0.01317603
0.1533708,0.9071092,0.3912344,-0.002860881,-0.006265152,-0.01226553
0.1522486,0.9066341,0.3891289,-0.001127908,-0.00222969,-0.01244602
0.148788,0.9071654,0.3880978,-0.0009005818,0.001776843,-0.0117554
0.1456575,0.907746,0.3869646,-0.001746589,0.002194589,-0.01166562
0.1447599,0.9089049,0.3896808,-0.00187122,0.004348595,-0.009213473
0.1447095,0.9078671,0.3909848,-0.006711593,0.003519815,-0.006362228
0.1469984,0.9075091,0.3900461,-0.01164312,0.001891118,-0.007248428
0.1499499,0.906579,0.3908193,-0.01090367,-0.00103946,-0.006879231
0.1495428,0.9059237,0.3933084,-0.009078197,-0.005890481,-0.007695905
0.1502458,0.9064604,0.3979887,-0.007946688,-0.003435903,-0.009647429
0.1527173,0.9060629,0.4016339,-0.00501848,-0.00119532,-0.009005566
0.1521315,0.9065786,0.399897,-0.003701279,-0.001426432,-0.008688627
0.1502096,0.9069275,0.392646,-0.005837995,0.001869645,-0.009092212
0.1500595,0.9074387,0.3877659,-0.005651487,0.001481866,-0.009588204
0.1505057,0.9088131,0.3882781,-0.00473699,0.004199766,-0.0100115
0.1496451,0.9097834,0.3857738,-0.003475566,0.01000887,-0.009708745
0.149666,0.9091887,0.3850102,0.001809628,0.007373618,-0.009211715
0.1495926,0.9066079,0.3882132,0.004752213,0.004870194,-0.008980766
0.1482577,0.9063078,0.3874217,0.005193802,0.006859937,-0.008806506
0.1504166,0.9054423,0.3912404,0.007636381,0.01387643,-0.009539285
0.1521775,0.9024745,0.3984566,0.01155448,0.02789598,-0.01347171
0.1502136,0.9032594,0.3984471,0.01834948,0.0336843,-0.01842001
0.1498029,0.9043822,0.3991449,0.026532,0.02483359,-0.01870924
0.1509509,0.9052705,0.4006553,0.03361145,0.01267106,-0.01370247
0.1524815,0.9093501,0.3902426,0.03657375,0.00492571,-0.009686398
0.1550202,0.9136294,0.3705683,0.03297728,0.01433679,-0.009002377
0.1568432,0.9161041,0.3627182,0.01764723,0.04331294,-0.008492403
0.1524751,0.9161167,0.3726029,-0.01005126,0.06155658,-0.01180014
0.1435768,0.916765,0.3802793,-0.02510953,0.04991781,-0.01588668
0.1403064,0.9205573,0.3806772,-0.02348401,0.02642581,-0.008040486
0.1395225,0.9218798,0.3833913,-0.02570311,0.01325114,0.004391336
0.1390247,0.9186304,0.3873644,-0.02381884,0.01402366,0.00738838
0.1448709,0.9124255,0.3929247,-0.01896607,0.01730892,0.00781425
0.1498966,0.904466,0.4001452,-0.01748349,0.01424848,0.009821812
0.14905,0.9034456,0.3996483,-0.01140891,0.01241474,0.006838249
0.1481279,0.9062172,0.3940988,-0.006963079,0.01823292,0.002913025
0.1496486,0.9015962,0.3942015,-0.0007624459,0.02094374,0.003461552
0.1506077,0.8999664,0.3946156,0.006684739,0.01775717,0.005215199
0.1494924,0.9033314,0.3930345,0.01459376,0.01391561,0.007342966
0.1491074,0.9043685,0.3933085,0.02524053,0.009478926,0.01082859
0.1485613,0.9083393,0.3926744,0.01965586,0.01086138,0.01076818
0.1483831,0.9096513,0.392262,0.01463315,0.0148878,0.006409679
0.1499532,0.9088,0.3889004,0.0194135,0.01566708,0.005652724
0.150074,0.9113851,0.3834979,0.0127222,0.0164073,0.005705738
0.1498229,0.9124808,0.38246,0.006622218,0.01738491,0.001291514
0.1491921,0.9170109,0.3803491,-0.001870038,0.02507691,0.001664787
0.1481321,0.9193103,0.3799633,-0.01292268,0.03994035,0.01267254
0.1487333,0.9134125,0.3842692,-0.01368009,0.04790521,0.02774636
0.1481549,0.9110903,0.38689,-0.01326897,0.02765628,0.03477908
0.1457966,0.9108427,0.3926772,-0.005289137,-0.01964655,0.03702145
0.1460703,0.9093368,0.3984129,0.001087397,-0.03218939,0.04896799
0.1577797,0.9111725,0.3887939,-0.005632615,0.05075907,0.05498284
0.177455,0.9178677,0.3687108,-0.02055771,0.1843244,0.04167302
0.1797552,0.9221253,0.3614466,-0.05990717,0.2522237,0.02128087
0.1550852,0.9095806,0.3776322,-0.0933453,0.2317573,-0.004407034
0.1247645,0.895503,0.4009335,-0.07863816,0.1652664,-0.01788547
0.1167328,0.9010131,0.4087898,-0.05281378,0.06097652,-0.009830666
0.1346262,0.905513,0.4034232,-0.03928516,0.01166748,-0.007116816
0.1463176,0.901254,0.4041846,-0.02633582,0.05924388,-0.007335862
0.1393037,0.9057477,0.4126692,-0.02886265,0.06587622,-0.007284281
0.1391917,0.9089259,0.4172639,-0.03102458,0.01534562,-0.0162733
0.1468571,0.9041014,0.4165807,-0.01582052,-0.005937221,-0.01781551
0.1477384,0.8992696,0.415959,-0.006993383,-0.008052823,-0.01886995
0.1473337,0.8931728,0.416796,0.007488272,-0.01183055,-0.02623153
0.147189,0.8972983,0.4150269,0.03033131,-0.02582152,-0.02544306
0.1468649,0.9058592,0.4113782,0.03855746,-0.03691478,-0.02803027
0.1468714,0.9042691,0.4066535,0.03490078,-0.02941958,-0.03739251
0.1423885,0.9104407,0.3990925,0.02406904,-0.03209118,-0.04144105
0.1389035,0.9176427,0.3965528,0.01771486,-0.05048343,-0.039162
0.141871,0.9118476,0.3930354,0.008888816,-0.06255061,-0.03182191
0.1497873,0.9086756,0.380935,-0.008833827,-0.03880067,-0.02731526
0.1560163,0.9073955,0.3810786,-0.02191501,0.002763853,-0.03340948
0.1508326,0.9081843,0.3933535,-0.03273038,0.005768807,-0.04011333
0.1426299,0.912689,0.3976745,-0.03043033,-0.006409552,-0.03208723
0.14136,0.9075949,0.3965317,-0.01767572,-0.01222543,-0.02122815
0.1402346,0.8994949,0.3958224,0.00398071,-0.0385133,-0.01964747
0.1393781,0.8951064,0.3975055,0.0302987,-0.068948,-0.01381748
0.14197,0.891948,0.3979827,0.02526809,-0.06824338,-0.006038478
0.145161,0.8976719,0.3937352,0.01144797,-0.03838212,-0.004708494
0.1507753,0.9061301,0.388959,0.00594726,-0.01408743,-0.007611395
0.1525259,0.907969,0.3839953,-0.004854289,-0.006996225,-0.01167119
0.1452224,0.9073681,0.3894579,-0.0007683471,-0.01151994,-0.01010847
0.1403078,0.9073776,0.3984623,0.003104397,-0.01967239,-0.00905271
0.1397845,0.9102641,0.3918662,-0.002730015,-0.01596956,-0.009954572
0.1402304,0.912581,0.3884879,-0.005771417,-0.01156737,-0.009311461
0.1418318,0.9109699,0.3927509,-0.01470936,-0.00379384,-0.01528018
0.1407145,0.9074485,0.393875,-0.0171375,0.001495531,-0.01884027
0.1380511,0.9036974,0.3986274,-0.01524942,-0.01529697,-0.01092841
0.1345181,0.9040189,0.397949,-0.01903046,-0.03094727,-0.001765501
0.1354845,0.9046039,0.3936451,-0.0141954,-0.0390514,0.001412479
0.1431676,0.9030407,0.3957282,-0.00963278,-0.03437614,0.0002402056
0.1466042,0.9019794,0.3995296,-0.006714501,-0.01981481,-0.002011624
0.1461929,0.8993723,0.4097728,0.004597916,-0.02152589,-0.005907552
0.1457568,0.9026738,0.4164202,0.01129834,-0.02764232,-0.009410616
0.1466069,0.9115685,0.4067041,0.01688483,-0.03358951,-0.01597255
0.1490057,0.9154809,0.3980619,0.02189876,-0.0277332,-0.02512704
0.1476098,0.9143323,0.3982584,0.0119207,-0.006929676,-0.02063073
0.1441112,0.9118694,0.3963883,-0.003182281,-0.0008581686,-0.0144528
0.1409127,0.9118672,0.3931042,-0.01096305,0.0002588641,-0.02424278
0.1424942,0.9093889,0.3951991,-0.008200195,-0.004332967,-0.02924009
0.1459148,0.9052917,0.3997189,-0.003146353,-0.0141862,-0.02352634
0.1412372,0.9081823,0.4021017,-0.003778661,-0.01292218,-0.02019303
0.1387863,0.9103614,0.4020659,-0.002368159,-0.01380419,-0.0167587
0.1410286,0.910263,0.4004622,-0.005064168,-0.01144844,-0.0155734
0.1400948,0.9111681,0.4001981,-0.009613602,-0.008024177,-0.01751207
0.1398642,0.9083447,0.3988531,-0.01109484,-0.006980079,-0.01674455
0.1386241,0.9057615,0.3982042,-0.01978855,0.001169578,-0.01539355
0.1367835,0.9059559,0.4035997,-0.01951449,-0.000909269,-0.009690444
0.1374834,0.90575,0.4050673,-0.01224064,-0.008280243,0.000953005
0.138085,0.9045075,0.4007039,-0.01284255,-0.01155544,0.004645822
0.1392066,0.9020347,0.3993213,-0.005482645,-0.01531287,0.001431553
0.141255,0.8998762,0.4007353,0.001439385,-0.01476243,0.000920776
0.1433183,0.9029866,0.4048709,0.001033849,-0.01567295,0.0009761896
0.1447965,0.9087397,0.4072867,0.003638673,-0.01228104,-0.003516844
0.1448787,0.9081873,0.4027647,0.0008648662,-0.005823842,-0.00646524
0.1437268,0.9074617,0.3982023,-0.002729134,-0.008368797,-0.00580605
0.1422036,0.9095903,0.4005277,-0.0009979429,-0.007104199,-0.00712304
0.139387,0.908846,0.4030023,-0.0009741824,-0.00319311,-0.007233876
0.135965,0.9114529,0.4003895,-0.003993714,-0.007924761,-0.003560998
0.136047,0.9156781,0.4002779,-0.00860813,-0.01397392,-0.002207021
0.1375666,0.916265,0.400545,-0.01097815,-0.0162701,-0.002957259
0.1393152,0.9132997,0.399067,-0.01028945,-0.0151026,-0.001513194
0.1412094,0.9066178,0.4006315,-0.008751196,-0.01341843,0.0002701577
0.1402636,0.9055689,0.400879,-0.008332623,-0.01356586,0.0007242676
0.1406892,0.9071383,0.4039682,-0.007670252,-0.01266072,0.0001431541
0.1418377,0.9045563,0.4080894,-0.006463047,-0.01222593,-0.0001991284
0.1419251,0.9044142,0.4025044,-0.00702813,-0.01278018,0.0007597768
0.1453891,0.903146,0.3981046,-0.004466513,-0.01024788,0.001852533
0.1478377,0.9000907,0.4019668,-0.00154484,-0.007822299,0.002634831
0.1467195,0.9005934,0.4038046,-0.002473689,-0.008361195,0.0004173527
0.1453634,0.9037379,0.4005264,-0.001945212,-0.009154056,-0.001734024
0.1440409,0.9086055,0.399084,0.0006562935,-0.01055905,8.854592e-05
0.1435914,0.9097249,0.3997173,0.002848498,-0.01152596,-0.0001051166
0.1421974,0.9094168,0.396401,0.0003776071,-0.009289249,-0.0005698637
0.1393123,0.9128438,0.3931922,-0.003337756,-0.005168398,-0.002576915
0.1397924,0.9124626,0.3952927,-0.001541156,-0.00379189,-0.008218332
0.1411885,0.9073376,0.4006341,0.001236603,-0.007469562,-0.007802763
0.1397686,0.9017174,0.4050206,0.003102131,-0.013176,-0.007798973
0.140525,0.8982436,0.4036229,0.005140322,-0.01757787,-0.0100344
0.142564,0.9006014,0.3971968,0.004950882,-0.01506129,-0.007038075
0.1427237,0.9039134,0.3926405,0.001132707,-0.005361568,-0.009087767
0.1417513,0.9059487,0.3945822,-0.002938358,0.0003129277,-0.01006392
0.1393786,0.9077271,0.3983707,-0.001957543,-0.002177213,-0.001926863
0.140503,0.9050019,0.3997349,0.0009526644,-0.008205069,0.0007164281
0.1432847,0.9033802,0.4008344,0.001993246,-0.01234639,-0.0009617617
0.1424194,0.9064797,0.4017572,0.002685935,-0.0117025,-0.0005662472
0.1426528,0.9074856,0.4028036,0.003242528,-0.01109069,-0.001058165
0.144594,0.9065575,0.4024823,0.003827357,-0.01056832,-0.0009927611
0.1452012,0.9050291,0.4005208,0.004198391,-0.005029582,-0.002073272
0.1435408,0.9036056,0.4014073,0.004749284,-9.438824e-05,-0.004661327
0.1413926,0.9041449,0.4017395,0.007026048,-0.002642464,-0.006511959
0.1401777,0.9043539,0.3995606,0.009158264,-0.005437475,-0.00641736
0.1390887,0.9042542,0.3973419,0.008809055,-0.002894004,-0.005273927
0.139118,0.9048629,0.3919918,0.008461842,-0.00253657,-0.007779761
0.1369231,0.9051462,0.3877087,0.008973325,-0.004273376,-0.009646721
0.1356437,0.9047425,0.3896343,0.005394193,-0.004138773,-0.008696042
0.1374342,0.9048879,0.3939999,0.0009267518,-0.004851922,-0.008103615
0.1373325,0.9061984,0.3987342,0.002118915,-0.004103096,-0.005043403
0.1403239,0.907061,0.4024682,0.00203759,-0.004262328,-0.00138784
0.1418052,0.9072868,0.4047348,-0.001181427,-0.006463132,0.001298411
0.1406618,0.9067754,0.4043898,-0.0003133354,-0.006174023,0.001610845
0.1433671,0.9063859,0.4003585,0.0007090165,-0.006886836,-0.0003849661
0.1412958,0.9057207,0.3974888,-0.0003350951,-0.002928076,0.000108187
0.1388015,0.9040536,0.3968386,0.000864206,0.003132909,5.880961e-05
0.13948,0.9049149,0.3973834,0.001756889,-0.003722999,-0.0001646706
0.1387988,0.905723,0.3994596,0.003650859,-0.008382145,0.0007847584
0.1428323,0.9058638,0.3999127,0.007154444,0.000847647,0.0002931242
0.1456065,0.9074648,0.3981764,0.004630005,0.005610046,-0.000820247
0.1433491,0.905139,0.3955164,0.001282303,-0.001826661,-0.003469036
0.1425778,0.9030483,0.3942934,0.003407353,-0.009880533,-0.002591022
0.1424848,0.9053252,0.394775,0.003099228,-0.009004279,-0.0001570649
0.1407126,0.9077792,0.3934144,0.0006138943,-0.0035117,-0.002098454
0.1381757,0.9102369,0.3921395,0.0003659074,-0.0002943575,0.0005049123
0.1403144,0.9082271,0.3943491,0.0009942295,-0.002214564,0.003810124
0.1434896,0.9036213,0.3996672,0.003650242,-0.009695078,0.001572091
0.1429904,0.903906,0.400335,0.00656834,-0.01438113,0.0007373403
0.1446995,0.9048647,0.3955955,0.006736905,-0.01219568,-0.002257567
0.145186,0.9056734,0.3960833,0.003769782,-0.007803566,-0.007122082
0.1432657,0.9076751,0.3947266,-0.000759973,-0.003668881,-0.004628508
0.1426622,0.9076246,0.3914515,-0.00238417,-0.0002247255,0.004186808
0.1394736,0.9091636,0.3959288,-0.002132176,0.0007326359,0.0098039
0.1377335,0.9122543,0.3974633,-0.002126781,-0.0007787262,0.007499009
0.1398196,0.9104887,0.3968636,-0.001394368,-6.846725e-05,0.005241819
0.1407112,0.9058778,0.3978731,-0.002070953,-0.0005899343,0.005483427
0.1418792,0.9036548,0.3972742,-0.00425715,-0.003799137,0.004448183
0.1422156,0.905422,0.4011448,-0.006524421,-0.002969495,0.004952814
0.1410722,0.9083753,0.4034355,-0.007541628,-0.0003968557,0.003302003
0.1418691,0.9079121,0.3991706,-0.00536955,0.00217768,-0.001534639
0.1418717,0.9077847,0.3930802,-0.0006884784,0.001057356,-0.003888442
0.141102,0.9093694,0.3904716,0.003871527,-0.002523517,-0.005093079
0.1410897,0.9084338,0.3960124,0.003209063,-0.0003020235,-0.004448882
0.1399011,0.9080138,0.4035051,0.0008834391,-0.0007464115,-0.0008759027
0.1402383,0.9070939,0.4079068,0.00302344,-0.004652628,0.004146449
0.1416092,0.9053995,0.4059712,0.002346399,-0.005193898,0.006732631
0.1416135,0.9056074,0.3996047,-0.0004929581,-0.004275426,0.004093508
0.1418549,0.9045726,0.3968688,-0.001120024,-0.001046645,0.003723942
0.1414068,0.9072259,0.3939702,-0.003028733,-0.0005546339,0.003653805
0.1406586,0.9104537,0.3913448,-0.002992838,-0.002633439,0.0009320608
0.1402363,0.9087832,0.3954996,-0.002585158,-0.004391631,0.001203959
0.1399628,0.9098727,0.4024792,-0.003499588,-0.006134762,-0.001655179
0.1403912,0.9082921,0.4035462,-0.003646528,-0.002029693,-0.003237395
0.1391641,0.9054437,0.3982091,-0.005694623,-0.0005390892,0.0005442551
0.1375274,0.9075057,0.3954237,-0.005136689,-0.003191004,0.0001108473
0.137759,0.9058268,0.396839,-0.002613495,8.582498e-05,0.001557375
0.13918,0.9040091,0.3994624,-0.001084454,0.0006393118,0.003232294
0.1409759,0.904511,0.4008304,0.003603775,-0.001285707,0.00174785
0.1404551,0.9046656,0.3996288,0.008133226,-0.002941518,0.00578501
0.1395704,0.9062297,0.3999701,0.008222907,-0.01121268,0.008088533
0.1397788,0.9058423,0.3998831,0.005227659,-0.0132597,0.007617899
0.1387167,0.9071892,0.3980934,0.002766318,-0.003282599,0.006809864
0.1398572,0.910571,0.3978247,-0.003514516,0.003425287,0.001806858
0.1429864,0.9116506,0.3985239,-0.01214509,0.001466256,0.0006864638
0.1442966,0.9112855,0.3991444,-0.009970966,-0.002119436,-0.0001311701
0.1442158,0.9047051,0.3990233,-0.002474262,-0.004413622,-0.00370545
0.1417307,0.8971507,0.4020222,0.003918476,-0.009302552,-0.001807453
0.1394483,0.8996154,0.404466,0.006324185,-0.009135263,0.0005963605
0.141079,0.9038367,0.3971857,-1.139665e-05,-0.00104927,0.001576666
0.1424369,0.9035383,0.3883248,-0.004874495,0.002822626,0.002492327
0.1412719,0.9061753,0.3879232,-0.008014271,0.002649481,0.002119336
0.1402013,0.9081864,0.392629,-0.008231574,-0.001176643,0.003150642
0.1385288,0.906215,0.3981036,-0.001285137,-0.005645509,0.00263334
0.1370365,0.9067087,0.404009,-0.0004696376,-0.005459363,0.0008032447
0.1392467,0.9054764,0.4048714,-0.002142103,-0.007772356,0.002578235
0.1413009,0.9032846,0.3981764,0.00228,-0.007378608,0.005225345
0.1402487,0.9053184,0.3931607,0.00493429,-0.00252568,0.003731363
0.140883,0.9058095,0.3928871,0.00408788,6.231336e-05,0.003396488
0.1421133,0.9043627,0.3967903,0.003332752,0.004287741,0.00563677
0.1405142,0.9029623,0.4039469,0.005127053,0.006392826,-0.001329121
0.1387229,0.9023798,0.4059192,0.008409515,0.001734381,-0.007381874
0.1378292,0.9032014,0.4003517,0.0106998,-0.005100697,-0.001855293
0.1372472,0.9035769,0.3950986,0.01075809,-0.00608926,0.001410621
0.137455,0.9044339,0.3977265,0.01044095,-0.003640968,0.002164872
0.1380149,0.9043504,0.4004624,0.01187993,-0.005211715,-0.0004045156
0.1391883,0.9040092,0.3978807,0.0075323,-0.002571356,-0.006256441
0.1408088,0.9053091,0.4007087,0.0009140288,0.002117107,-0.003328244
0.1405798,0.9064615,0.4045061,0.002059205,0.002632154,0.001292049
0.1397694,0.9091778,0.404011,0.002700631,0.005003403,0.003160126
0.1410618,0.9119391,0.404187,0.0001437012,0.005757387,0.004254938
0.1430595,0.9097349,0.4019229,-0.001673247,0.005509842,0.0003020985
0.1447888,0.9040911,0.3995268,-0.003542832,0.006064301,-0.002084277
0.1436128,0.9006844,0.3981112,-0.001094149,0.001989226,-0.0005491794
0.1391824,0.9010347,0.3968549,0.002234661,-0.002599572,-0.0002240542
0.1373141,0.90159,0.4000427,0.0006866031,-0.00387631,-0.001876758
0.1377726,0.900826,0.4051644,0.0006868737,-0.003643189,-0.003171683
0.139165,0.9012997,0.4083186,0.003942633,-0.003424746,-0.0020939
0.1403897,0.903951,0.406877,0.007157729,-0.002676326,-0.0009801877
0.1366988,0.9058565,0.4032948,0.01102741,-0.0008005424,-0.000165547
0.1332259,0.9070906,0.3994946,0.01213617,-0.001013051,-6.767215e-05
0.1350499,0.9076493,0.3937798,0.01037661,-0.001395496,-0.0009515444
0.1371439,0.9063604,0.3937424,0.01001425,0.0001775202,-2.907474e-05
0.1378033,0.9069382,0.3975618,0.007794652,-3.420783e-06,0.001983425
0.1387555,0.907242,0.3981055,0.00466821,-0.0002829419,0.002819397
0.1399403,0.905488,0.3993695,0.005339657,-0.0005425108,-0.001653018
0.1405778,0.905605,0.4005406,0.008924927,-0.004856967,-0.008073986
0.1406985,0.9058432,0.4017969,0.01276147,-0.009277173,-0.007923393
0.1418623,0.9072385,0.4038781,0.01236806,-0.007861547,-0.008081668
0.1433457,0.9098816,0.4040627,0.007498033,-0.002378184,-0.01003598
0.141375,0.9117964,0.4027255,0.002008424,0.0005509017,-0.007155004
0.1377182,0.9147508,0.3951809,0.002177807,0.0004658207,-0.005567912
0.1360732,0.9145551,0.3873844,0.006191039,0.001070672,-0.003196329
0.1344375,0.9125636,0.3909523,0.003887717,0.001352657,-2.027691e-06
0.1351597,0.9118534,0.3967245,0.00219406,0.003910587,-0.003807646
0.138252,0.9071358,0.4003312,0.004161059,0.005911976,-0.002999763
0.1382662,0.9039752,0.4059494,0.004003211,-0.00120692,0.001624679
0.1381308,0.9068499,0.4053712,0.005561596,-0.007832209,0.0003793012
0.1386129,0.9078547,0.4024226,0.005856611,-0.005602546,0.003077216
0.1385503,0.9071855,0.4058073,0.005842543,-0.003209465,0.003995977
0.139239,0.9078018,0.4044509,0.007487459,-0.003808744,-0.001048065
0.1376291,0.906918,0.3980371,0.008263606,-0.004318046,-0.002408277
0.1358978,0.9064455,0.3940903,0.01030538,-0.005136518,-0.004645716
0.1351385,0.9073722,0.3896879,0.009722349,-0.005269927,-0.003800025
0.1332598,0.9068615,0.3887972,0.008346127,-0.003857547,0.0001635215
0.1337208,0.9072741,0.3916243,0.007000963,-0.003476824,-0.001223017
0.1361295,0.9099156,0.393401,0.002863611,-0.003705157,-0.0001290989
0.1381771,0.9117336,0.3919786,0.0004067203,-0.004163405,0.001276279
0.1380065,0.9107429,0.3884994,-0.00212977,-0.006467016,0.001125334
0.1367065,0.9070303,0.3896349,-0.004772697,-0.008129492,0.0038367
0.1378808,0.9047803,0.3899331,-0.006634237,-0.007073298,0.003096323
0.1382165,0.9062785,0.3903891,-0.005965259,-0.003900099,0.002364338
0.1396728,0.9076568,0.3946619,0.001192495,-0.001194758,0.002523411
0.1424417,0.9069005,0.3922059,0.005880215,0.0003805552,-0.0005790716
0.1390703,0.9071044,0.3910872,0.003446206,0.00161555,-0.001859882
0.1359817,0.9099791,0.3963637,0.0002081058,-0.0004725839,-0.0005898378
0.1383134,0.9118493,0.3988378,0.0011561,-0.001724531,0.00257011
0.1405898,0.9103475,0.3987029,0.003887503,0.001146601,0.005671658
0.1418843,0.9063227,0.3955009,0.0027303,0.002986875,0.006635543
0.1412236,0.9032389,0.3934953,0.003249116,0.004587938,0.008206879
0.1391532,0.9055892,0.3942912,0.004478019,0.002683649,0.00921956
0.1383064,0.9083148,0.3936172,0.001165688,-0.003972032,0.00785515
0.1363387,0.9072598,0.3954056,-0.0008579147,-0.006357693,0.005549503
0.1342998,0.9091079,0.3991428,-0.005166889,-0.007374487,0.004229351
0.1352527,0.9125004,0.399735,-0.01016807,-0.007906587,0.005986305
0.1376394,0.9104896,0.3992663,-0.009128005,-0.003019475,0.007920736
0.1431227,0.9056975,0.4008474,-0.006717435,-0.0002332527,0.002883658
0.1473172,0.8997408,0.401019,0.001990721,-0.00159472,-0.003845769
0.1422656,0.8960692,0.4009108,0.009630035,-0.002439872,-0.002814033
0.1377771,0.9025207,0.4017365,0.006470312,-0.00135345,-0.0009445405
0.1393258,0.9084401,0.3990825,0.005164931,0.001769264,-0.001541603
0.1391263,0.9054543,0.3996278,0.001254217,0.004971224,0.001358143
0.1390335,0.9071232,0.4007097,-0.003946727,0.007257234,0.005944909
0.1393787,0.9134742,0.3954928,-0.004954034,0.006550432,0.007101647
0.1373584,0.9143725,0.396123,-0.01187684,0.004588308,0.004010969
0.1369196,0.911466,0.3999043,-0.0108774,0.002721007,0.002076928
0.1365938,0.9076568,0.398352,-0.0049773,0.000548056,0.003095971
0.137051,0.9060317,0.399172,-0.008197935,-0.001311617,0.004097485
0.1423643,0.9071432,0.400585,-0.007988293,-0.006347226,0.005329771
0.1442919,0.9069739,0.3978137,-0.00803769,-0.005514546,0.005095058
0.1403558,0.9058209,0.397085,-0.008301452,0.0002408958,0.003327916
0.1387249,0.9053711,0.4000881,-0.002880922,-0.0003428647,0.001959253
0.1383273,0.9056632,0.4020522,0.0005440735,0.002780353,7.947623e-05
0.1359493,0.90676,0.4006291,0.002043043,0.003526623,-0.001411513
0.1331643,0.9080541,0.3980032,0.000827748,-0.001820805,-0.001856424
0.1331515,0.9084983,0.397461,0.0004062875,-0.0007050169,-0.002870708
0.1370998,0.9074164,0.3961894,0.001242596,-0.001984741,-0.002591582
0.1409523,0.9065045,0.3941732,-0.001521154,-0.005013321,0.003364805
0.1424804,0.9075326,0.3951014,-0.002690127,-0.005795952,0.009824205
0.141765,0.9097841,0.3972239,-0.003985962,-0.006957064,0.008571939
0.1411051,0.911588,0.4002334,-0.004916217,-0.004827634,0.006448414
0.1422812,0.9104272,0.4008623,-0.003972501,-0.005711781,0.008483491
0.1425165,0.9079586,0.3996914,-0.006392877,-0.00523982,0.00776536
0.1430417,0.9081907,0.4030072,-0.007942406,-0.001712208,0.006351616
0.1431962,0.9086212,0.4051779,-0.006956289,-0.001594508,0.006990792
0.140428,0.9080633,0.4040235,-0.005919035,0.001220658,0.004893815
0.1381005,0.9083067,0.4039916,-0.00501498,0.000746794,0.00340856
0.1369346,0.9074446,0.403516,-0.00519451,-0.003487132,0.004222913
0.1373327,0.906542,0.4007061,-0.004407355,-0.003878714,0.0038936
0.1382208,0.9071929,0.3971958,-0.00209732,-0.004213825,0.003700608
0.1379567,0.9079058,0.3973232,-8.23897e-05,-0.003583482,0.003557492
0.1392485,0.9089096,0.3975472,-0.0004780055,-0.005103016,0.003167743
0.1390547,0.9102345,0.3952398,-0.001445879,-0.01150844,0.002690962
0.1372309,0.9114519,0.3968174,-0.0008656368,-0.01522735,0.00288208
0.1367517,0.9114482,0.3994911,-0.003284339,-0.008350925,0.005270913
0.1361827,0.9090822,0.3988484,-0.00710092,0.001283052,0.007607076
0.138694,0.9032116,0.3981867,-0.007705876,-0.002153442,0.007000576
0.1415205,0.8964951,0.3987019,-0.005309712,-0.003909672,0.002470031
0.140003,0.8982551,0.3988334,0.002290842,0.0005187222,8.711057e-05
0.1389604,0.9023717,0.398337,0.01040858,-0.00829875,0.002256321
0.1389778,0.8996541,0.3987175,0.008382058,-0.01349458,0.001688653
0.1385056,0.9021896,0.3985493,0.001334463,-0.002016767,0.0006688355
0.1381108,0.9079083,0.3972904,-0.001097653,0.008054434,0.001419876
0.1372537,0.9086915,0.3962905,-0.005053294,0.007101813,0.0006569617
0.1372939,0.9114164,0.3955269,-0.008386005,-0.0008517793,0.001021916
0.1379694,0.9092344,0.3967701,-0.002799949,-0.004341157,0.002425238
0.1382701,0.903825,0.397597,0.0007394096,-0.002162624,0.003424131
0.1390859,0.905773,0.39609,-0.001575166,-0.0009347283,0.003303219
0.1395216,0.9061103,0.3957477,-0.001548416,-0.001522476,0.002281497
0.1408664,0.9046745,0.3968821,0.0001016475,-0.001834403,0.002262899
0.1446705,0.9051529,0.3984961,0.00127677,0.001358579,-0.0007972499
0.1451885,0.9037247,0.3986231,0.001279336,0.002635215,-0.005105385
0.1414693,0.9039645,0.3966066,0.001101246,0.001059283,-0.003235557
0.1386909,0.9046052,0.3958837,0.002313969,0.001484229,0.001517519
0.135361,0.9041837,0.3983271,0.005124908,0.001839508,0.003154349
0.1335398,0.9060706,0.401168,0.007254065,0.001496564,0.0008492327
0.1361646,0.9077355,0.4001959,0.005185048,-0.001181519,-0.002596659
0.1367029,0.9082615,0.3993942,0.003771307,-0.003102638,-0.003274079
0.1360916,0.9101078,0.4014912,0.003336375,-0.0001670064,-0.001540322
0.1390799,0.9115467,0.401379,-0.0001571281,0.002102851,-0.0006299749
0.1412749,0.9094085,0.3999502,-0.001028216,-0.0001598694,-0.0005056251
0.1412914,0.9069319,0.398159,-0.001096594,-0.002704011,0.00106141
0.1419349,0.9067275,0.3963594,-0.002714723,-0.0008545081,0.001255941
0.1436684,0.9053632,0.397874,6.287657e-05,-0.0003185196,-0.0008795711
0.1444352,0.9049203,0.4004109,0.0007989901,-0.002595113,-0.0008576591
0.1418035,0.9061987,0.402715,-0.001169444,-0.003504816,-0.0009167531
0.1390585,0.9051808,0.4032394,0.00252473,-0.0038818,-0.001848634
0.1392091,0.9044239,0.4004462,0.00440565,-0.00198292,0.0005773634
0.1395717,0.9044872,0.3998053,0.003719263,-0.001383761,0.00254635
0.1402303,0.9046281,0.4019466,0.007458692,-0.001814549,0.001898659
0.1421425,0.9064878,0.4031351,0.01095339,0.001344907,0.001130671
0.1412353,0.9074739,0.4019608,0.0117648,0.002416327,-0.0003830499
0.1392286,0.9083874,0.3997295,0.01062456,-0.0006007724,-0.001417394
0.140416,0.9088137,0.3986179,0.008587633,-0.004060348,-0.00214806
0.1397087,0.9070241,0.3939726,0.006984507,-0.002777831,-0.002629924
0.1385828,0.9076695,0.3886644,0.004062619,0.0005255513,-0.001693369
0.1424478,0.9088413,0.3932863,-0.0009961892,0.0005530765,-0.00247788
0.1466138,0.9079729,0.4002264,-0.003962845,0.002884249,-0.00403007
0.1472175,0.9074891,0.398356,-0.0002524439,0.004168507,-0.004590101
0.1427269,0.9066582,0.3955481,0.002073665,0.001499228,-0.004664258
0.1382191,0.9068071,0.3987869,0.0003990474,-0.0001485055,-0.003253989
0.1393655,0.9074283,0.3998512,0.002009319,-0.001094172,-0.00202757
0.1394602,0.9075886,0.3966419,0.001807665,-0.000227859,0.002147591
0.1379404,0.9087051,0.3969699,-0.001574615,0.0004748303,0.008716716
0.1383391,0.9083042,0.3978272,-0.002226271,0.0001865075,0.009155597
0.1373741,0.9065726,0.3968297,0.0008407122,6.25859e-05,0.00531606
0.1370198,0.904054,0.3985564,0.005225646,-0.001003017,0.001708198
0.1380141,0.9007213,0.4007835,0.007170994,-0.001903978,-0.001741995
0.1373119,0.9000324,0.4044815,0.008558978,-0.003265582,-0.005077185
0.1376941,0.9009802,0.4086038,0.00876128,-0.0007428134,-0.006218778
0.1396162,0.9034076,0.405887,0.005033137,0.004157995,-0.003490877
0.1403671,0.9074954,0.399789,0.001387627,0.00452283,-0.002954307
0.1395135,0.9074084,0.396318,0.001696597,0.004570101,-0.004685997
0.1374069,0.9071728,0.3981556,0.004920668,0.004638945,-0.004944657
0.1371143,0.9117259,0.4013808,0.006135779,0.003939881,-0.004800539
0.1377122,0.9121267,0.3978635,0.005706412,0.003922029,-0.0003349214
0.1361886,0.9101568,0.3941752,0.006649078,0.00235202,0.004052615
0.1349913,0.9123375,0.3929644,0.00762014,0.0001352316,0.002478543
0.1351774,0.9120425,0.3897143,0.007036136,-0.002010943,0.002018659
0.1381845,0.9102412,0.3906514,0.003359191,-0.002281737,0.003637729
0.1416809,0.9102414,0.3925633,-0.001258904,-5.211762e-05,0.002927021
0.1404414,0.9086009,0.393134,-0.003182472,0.002287044,0.001171507
0.1395187,0.9083862,0.3983601,-0.001769962,0.002477072,0.0004437213
0.1409868,0.9112137,0.4005241,0.0007518874,0.0003930695,0.000414653
0.1411126,0.9126152,0.3979323,0.003873843,0.001107047,0.00223908
0.1413279,0.9090167,0.3947663,0.008096811,0.002431409,0.003550065
0.1402839,0.9043409,0.3899019,0.005982346,0.001225033,0.0005535581
0.1378047,0.9052002,0.3894288,0.002009894,-0.0003794945,-0.001155598
0.1374931,0.906907,0.3916137,0.004424629,-0.0010583,-0.0008719313
0.1360492,0.907676,0.3931138,0.002565206,0.004719127,0.0001786653
0.1334111,0.9109905,0.3979411,-0.000957468,0.008036867,0.002622073
0.1339254,0.912077,0.3999616,0.0008227495,0.00010853,0.003823743
0.1341285,0.9120744,0.3980503,0.0003104375,-0.004883506,0.008512729
0.1353222,0.91327,0.3983123,-0.001198773,-0.0008790738,0.01080404
0.1388199,0.9116075,0.3980581,-0.002334917,0.004256831,0.0084354
0.1381284,0.9095793,0.3963579,-0.003733894,0.004834254,0.007160836
0.1383497,0.9080789,0.3953635,-0.002707892,0.004843011,0.0007012461
0.1413737,0.9073387,0.3949223,-0.001783073,0.005127623,-0.001089537
0.1390675,0.9082407,0.3975762,-0.0002763421,-0.0005128091,0.0001956437
0.1361281,0.9067111,0.4011742,0.001546278,-0.004531671,-0.003099773
0.136118,0.9074185,0.3985721,0.0001949744,-0.002685419,0.0007853376
0.1356552,0.9105948,0.3955815,-0.002841391,0.001303027,0.001762911
0.1354171,0.9103919,0.3977714,-0.005592133,0.004528015,0.00144346
0.1345165,0.9113181,0.397586,-0.006241002,0.003143733,0.006971714
0.1347041,0.9115381,0.3970755,-0.006407657,0.002668087,0.006338259
0.1373604,0.9101004,0.4004243,-0.008274016,0.003572087,0.006223367
0.139578,0.9098077,0.4009763,-0.007347388,0.002820646,0.006258667
0.1409618,0.9074866,0.3961868,-0.005042604,0.002396901,0.002765534
0.140184,0.9071934,0.3920072,-0.005305515,0.001461205,0.001513391
0.139221,0.9081876,0.3968894,-0.005026272,0.001592262,0.001514462
0.1408724,0.9070336,0.4023603,-0.004850551,0.00277107,0.00431373
0.1419546,0.9071137,0.3961892,-0.004296335,0.005176451,0.004248458
0.1413819,0.9069352,0.3901404,-0.001500757,0.007187271,0.00296037
0.1388011,0.9080942,0.389268,0.0004719475,0.003531889,0.005909343
0.1363654,0.9109356,0.3883209,0.003003222,-0.0005782255,0.005287334
0.1366248,0.9120788,0.3915451,0.003956649,0.0004471431,0.003205209
0.1361789,0.9122789,0.3979198,-0.001449481,0.001047559,0.003349052
0.1357509,0.9113992,0.4031416,-0.005804491,-0.001348647,0.00431707
0.1362032,0.9117315,0.402011,-0.00212529,-0.001102088,0.00588152
0.1351565,0.9122539,0.3968963,0.0008308677,0.0003940664,0.00650901
0.1347275,0.9109631,0.3980924,-0.005978999,-0.002123361,0.007691746
0.1365076,0.9100825,0.4018677,-0.01156929,-0.005939093,0.008435696
0.1385476,0.9073216,0.4040928,-0.00985941,-0.007170189,0.007863816
0.1397653,0.9050409,0.4009579,-0.01030726,-0.002186859,0.006982959
0.1421678,0.9046412,0.3943088,-0.009111934,0.004423736,0.003338149
0.1437685,0.9027921,0.3965193,-0.00497682,0.003065085,-0.0021743
0.1408612,0.9028824,0.3953205,-0.006007281,0.00107926,-0.003490352
0.13845,0.9047379,0.3888462,-0.005508649,0.003256087,-0.001184821
0.1389127,0.9059542,0.39279,-0.0001132575,0.00150085,0.0001464277
0.1392636,0.9057535,0.3966294,0.001008788,-0.0004204734,0.002791166
0.1406651,0.9041049,0.3990124,-0.003381097,3.271145e-06,0.004288965
0.1417121,0.9041535,0.4030219,-0.009084871,-0.0017228,0.003138731
0.1391293,0.9049195,0.4023013,-0.01328325,-0.001504957,0.004244108
0.1363488,0.9075601,0.4030981,-0.01418313,0.0006617638,0.003991009
0.1376821,0.9110937,0.4025789,-0.01435267,0.002913485,0.003614186
0.1400047,0.909378,0.3998164,-0.01230445,0.003541422,0.004846292
0.1403196,0.9062804,0.4021424,-0.004488628,-0.004387989,0.002629116
0.1401528,0.9054466,0.4070598,0.003368666,-0.01486025,0.0008163939
0.138414,0.9060522,0.4094915,0.005220116,-0.01643191,0.001215815
0.1367479,0.9077988,0.4029942,-3.287916e-06,-0.01069992,0.003870916
0.1379739,0.9079016,0.3961851,-0.00828582,-0.004302188,0.007579479
0.1394749,0.9079566,0.3971598,-0.01267717,-0.0006164939,0.007187311
0.1406177,0.9079783,0.3966126,-0.0109645,-0.001982439,0.01013044
0.140793,0.9063144,0.3970842,-0.006179789,-0.004287458,0.01640584
0.1405245,0.9068072,0.3985381,-0.005208565,0.00311793,0.01450438
0.1409102,0.9065717,0.3968012,-0.007549034,0.01798977,0.01058071
0.1253664,0.9239355,0.3803759,0.1289458,-0.2015135,0.1184415
0.1364348,0.9177211,0.3661646,0.1371185,-0.1863898,0.1297954
0.1557809,0.9157333,0.3550559,0.1306048,-0.1481611,0.1582577
0.1730089,0.9099699,0.3654174,0.1306557,-0.1045922,0.1580787
0.1785818,0.8948413,0.3821866,0.1499689,-0.09364387,0.1395265
0.1794025,0.8866409,0.3907217,0.1662011,-0.1362927,0.1195537
0.1838543,0.8882309,0.3885425,0.1978636,-0.1607444,0.09872106
0.1830709,0.8883192,0.3833642,0.2258119,-0.1665421,0.09323364
0.1857939,0.8871877,0.3849857,0.2436222,-0.1855411,0.0886343
0.1874234,0.8881487,0.3848806,0.3005868,-0.1735139,0.09402577
0.1778733,0.8938203,0.3803877,0.3875553,-0.1499634,0.1295776
0.1752941,0.9083123,0.373608,0.4262672,-0.1354192,0.1616809
0.1952375,0.9209781,0.352976,0.3344156,-0.1316427,0.1268306
0.2224897,0.9176195,0.3307302,0.2073917,-0.1149591,0.06504969
0.2242257,0.9119209,0.3251616,0.2034117,-0.01218938,0.06520118
0.2200781,0.9174074,0.3227031,0.2340514,0.1241702,0.06819699
0.2225476,0.9211227,0.3198337,0.2232751,0.170064,0.05173932
0.1942777,0.9310108,0.3223814,0.2246043,0.0977364,0.05420527
0.165825,0.9514638,0.3143567,0.1858733,0.01169286,0.03571601
0.1730317,0.9515191,0.2945312,0.1064312,-0.01844884,0.02852782
0.1734334,0.9421191,0.2861849,0.0727425,-0.05088265,0.05555201
0.1523952,0.9460441,0.2961212,0.07323399,-0.05901399,0.09579187
0.1519483,0.9490237,0.3054016,0.07019841,-0.03657748,0.1405714
0.1939672,0.9546661,0.2979019,0.05997303,-0.02458133,0.1237512
0.2331742,0.9591894,0.2967474,0.04733169,0.0488581,0.08707465
0.2140657,0.9486192,0.3224691,0.03811901,0.1025597,0.08628872
0.1818213,0.9318976,0.3425609,0.0293844,0.0006525389,0.06678587
0.1917472,0.917847,0.3369934,0.02813965,-0.1242586,0.05601689
0.2014381,0.9207672,0.3262065,0.044925,-0.1274764,0.05522075
0.2090486,0.9317507,0.3228623,0.05856314,-0.06971541,0.03570163
0.2238738,0.9294192,0.320538,0.03944482,-0.0241203,0.04189183
0.2098821,0.9259886,0.3203653,0.01670067,0.02213724,0.04686329
0.2056262,0.9195862,0.3263676,0.0188128,0.04244922,0.03593812
0.2139841,0.910266,0.3260349,0.01639502,0.03447116,0.03587431
0.2067263,0.9119353,0.3244875,0.01270504,0.04267469,0.02612225
0.2108862,0.9147202,0.3223686,0.02127223,0.04916997,0.02019317
0.2103837,0.9183055,0.3130895,0.02125907,0.06263523,0.01926784
0.2056284,0.922016,0.3166249,0.01918604,0.07572891,0.01071441
0.2008274,0.927842,0.3267352,0.02189134,0.06186163,0.01136849
0.185246,0.9405548,0.3319887,0.02527679,0.05570938,0.01575388
0.1882433,0.9354778,0.3327334,0.03100175,0.04949637,0.02702311
0.1951323,0.9201505,0.3286742,0.03112816,0.04594264,0.03607293
0.1935502,0.9144281,0.3349598,0.03871782,0.05127759,0.03274761
0.1953527,0.9133225,0.3385095,0.05166153,0.03705367,0.03296372
0.1918257,0.9247635,0.3355585,0.05511237,0.02822342,0.02987807
0.1911532,0.9332379,0.3395693,0.06073683,0.02470458,0.02878128
0.1931306,0.9275521,0.3372358,0.05959226,0.01948977,0.03065927
0.1965977,0.9249709,0.3295232,0.05494547,0.02750995,0.0248798
0.2021394,0.922847,0.3232661,0.05426988,0.02710446,0.01942566
0.2005559,0.9210875,0.3249917,0.05031478,0.02336235,0.01051815
0.2007553,0.9212211,0.3310118,0.05432993,0.02328081,0.007658816
0.2033053,0.920432,0.3270369,0.05401806,0.01835557,0.01210788
0.1993435,0.9231042,0.3286161,0.05272916,0.01552402,0.01089702
0.1954358,0.9238321,0.3318468,0.05604756,0.01275797,0.01214516
0.1958344,0.921624,0.3238914,0.04939441,0.01896321,0.008969145
0.1909523,0.9207423,0.3214757,0.04678538,0.03022858,0.002638213
0.1836476,0.9222389,0.3258894,0.03560286,0.03285478,0.0009836983
0.1892851,0.9249528,0.3301855,0.02210599,0.03533907,-0.0009198253
0.1983705,0.9243973,0.3299728,0.02585867,0.03265542,0.00173462
0.1990609,0.9247269,0.3290434,0.02394335,0.02286793,0.002861397
0.1975153,0.9250261,0.3363435,0.02994734,0.01521067,0.003681376
0.1949185,0.9208429,0.3396531,0.04132651,0.007410584,0.00470544
0.1938501,0.9201008,0.3329397,0.03057561,0.00295713,0.0002546584
0.1961004,0.9274788,0.3244179,0.01805625,0.008213327,0.003158693
0.1985253,0.9355439,0.3214943,0.01507122,0.01340612,0.007220243
0.2027294,0.9337813,0.3234033,0.01012976,0.01296846,0.009100894
0.2049196,0.9304873,0.3235837,0.005914947,0.02204101,0.0103994
0.2006911,0.9367633,0.3294388,0.005184355,0.03671888,0.006445417
0.1951596,0.9446222,0.3427063,0.003968366,0.04043084,0.01444866
0.1940815,0.9504504,0.3498846,0.009179986,0.04189415,0.03041813
0.1990842,0.9445919,0.3337152,0.01515375,0.0669864,0.04457909
0.2059093,0.9279146,0.3087778,0.01222196,0.1298346,0.04964945
0.2078368,0.9204708,0.3156707,0.01682471,0.1836334,0.03041737
0.2026809,0.9133318,0.3337266,0.02898421,0.1673885,0.007581828
0.1942485,0.9122458,0.3342958,0.03150844,0.0876093,-0.00271346
0.1896886,0.9281026,0.3267783,0.01146646,0.01610542,0.0005785579
0.1934438,0.9330721,0.3122995,-0.0192795,0.02608326,0.009328834
0.2035273,0.9300625,0.3121798,-0.03030013,0.06578681,0.005741454
0.2104668,0.9307662,0.3177214,-0.04033529,0.07189583,-0.002529323
0.2059961,0.929772,0.3136826,-0.06332712,0.09485788,-0.01983578
0.1975913,0.9311715,0.3237396,-0.07476433,0.1090089,-0.03321799
0.1957039,0.9283409,0.3242278,-0.08252963,0.1015613,-0.01859777
0.192404,0.9271223,0.3240786,-0.09041973,0.1238441,-0.006869162
0.1818479,0.9304841,0.3495999,-0.08617526,0.09296634,-0.004801201
0.1755634,0.9303006,0.3590224,-0.08347991,0.01817997,0.003651963
0.1802138,0.9309373,0.3536453,-0.08609612,0.0003134699,0.01296415
0.1899668,0.9274147,0.3533547,-0.0862892,0.006102592,0.02295903
0.1944733,0.9205344,0.3536165,-0.08486735,0.01076084,0.02541176
0.1930377,0.9103138,0.3540793,-0.07035599,0.01703172,0.027208
0.1891025,0.9042622,0.3524622,-0.05102934,0.0579305,0.04457389
0.1742698,0.9201893,0.3613944,-0.05432033,0.105682,0.06920336
0.1636322,0.9319846,0.3681018,-0.06300472,0.04876842,0.08493531
0.1906249,0.9159202,0.3630398,-0.06281465,-0.01086799,0.07886507
0.2285525,0.8931783,0.357202,-0.07021117,0.02121861,0.05820048
0.2269347,0.8856111,0.3401191,-0.07721906,0.06161096,0.03932734
0.2161109,0.8897615,0.3280209,-0.09474139,0.1306628,0.02735374
0.2252742,0.890667,0.3398324,-0.1196029,0.2214483,0.009202136
0.2165405,0.8879945,0.3699472,-0.0863072,0.22067,-0.01654014
0.1882843,0.8871444,0.4072135,-0.01058621,0.1338203,-0.003635308
0.1668947,0.8861838,0.4159069,0.04403215,0.006731871,0.04227488
0.1703929,0.8829338,0.3824793,0.06870316,-0.11301,0.06894286
0.194981,0.8786107,0.3462862,0.04418287,-0.1136553,0.07339452
0.2101768,0.8711726,0.338867,0.01373036,-0.07228779,0.04049948
0.229787,0.8648096,0.3506003,0.02835309,-0.09340823,-0.02366313
0.2345796,0.8670741,0.3636286,0.04162587,-0.09561328,-0.07588191
0.1994603,0.8623217,0.3795996,0.080883,-0.1792585,-0.09575295
0.1831346,0.8582466,0.4005226,0.17369,-0.4055471,-0.07101297
0.1912027,0.8850978,0.4017873,0.2457607,-0.5583176,-0.0476788
0.2030407,0.9196599,0.3875873,0.288192,-0.5399842,-0.04145807
0.2254031,0.9294916,0.3803808,0.3290702,-0.4389939,-0.02869592
0.2506793,0.9274622,0.3479617,0.3481873,-0.2711273,-0.05495381
0.2639596,0.9218876,0.3172308,0.347119,0.003997063,-0.09540458
0.2420953,0.9108399,0.3270037,0.3949675,0.09349848,-0.1148168
0.2138128,0.9187323,0.3255148,0.5152573,-0.09300804,-0.1588056
0.1995915,0.9409378,0.3163417,0.6324662,-0.1405588,-0.2191319
0.1940119,0.9452035,0.299661,0.706408,-0.106149,-0.2657113
0.202087,0.9373781,0.2594098,0.768154,-0.1033136,-0.2850446
0.1896043,0.913919,0.2419783,0.8947303,-0.01232892,-0.2823384
0.1704651,0.8834175,0.2267695,1.076806,-0.008853874,-0.2895112
0.1582763,0.8843627,0.1892668,1.172969,-0.03040292,-0.3212906
0.1418878,0.9050679,0.1600491,1.155672,-0.003617338,-0.3645325
0.1484294,0.9222321,0.1340515,1.092325,-0.01356057,-0.3756676
0.1581841,0.9290535,0.1038674,1.017695,0.008961187,-0.3394002
0.1743906,0.9244291,0.08549622,0.9949397,0.0206916,-0.2696285
0.2074783,0.9274909,0.07713443,1.048398,0.118316,-0.1613038
0.2306362,0.9467009,0.05108281,1.055227,0.3876586,-0.05612169
0.2398526,0.9810885,0.03778534,0.8546771,0.6242719,0.004964116
0.2020799,1.024147,0.09269117,0.4840305,0.6460859,0.07500195
0.1435527,1.05236,0.1574883,0.1700837,0.4241022,0.1546137
0.1156563,1.051146,0.1577697,0.03447102,0.1521721,0.1833958
0.1025405,1.028266,0.1350992,-0.01379467,0.009592054,0.2200204
0.1347665,0.989866,0.1206596,-0.03167468,0.02591762,0.2929478
0.2051355,0.9481303,0.08156969,-0.02761309,0.1442373,0.3410965
0.2320931,0.9402863,0.06567477,-0.05485314,0.2566016,0.3673607
0.2039776,0.9677107,0.08945831,-0.06823366,0.2919735,0.342994
0.1738022,1.002902,0.08458862,-0.07182823,0.1691907,0.2690544
0.1771623,1.041923,0.078222,-0.07964401,0.01471459,0.1926207
0.2047433,1.078972,0.05575382,-0.0295813,-0.03356946,0.07937491
0.2283302,1.123282,9.828559e-05,-0.009279243,-0.1038794,-0.003871941
0.2180984,1.13903,-0.00483218,-0.02490462,-0.1890432,0.0128427
0.2011817,1.068202,-0.004077918,-0.04936593,-0.1625074,0.04789006
0.2207498,0.9972307,-0.0236679,-0.1689631,0.03870184,0.0611691
0.2267714,0.9878085,-0.01011085,-0.3673279,0.3145053,0.04461771
0.2022231,0.9864785,3.435723e-05,-0.5679774,0.3585532,0.02498481
0.1710239,0.9938228,0.03204635,-0.6098098,0.09124297,0.06169853
0.1379443,1.010023,0.08790852,-0.5320339,-0.1950861,0.1203217
0.1559483,1.021514,0.09151565,-0.5101028,-0.289393,0.1627599
0.186424,1.021457,0.08898345,-0.4606191,-0.3479282,0.1983829
0.1828512,0.9995569,0.1047565,-0.453559,-0.4250489,0.2314373
0.2237049,0.977215,0.09370699,-0.545644,-0.3094715,0.2397552
0.2725872,0.9537431,0.09335058,-0.5898483,-0.1317778,0.2021719
0.2644693,0.9492642,0.1156518,-0.6130412,-0.1307078,0.1652715
0.2514892,0.9615626,0.1305434,-0.6109733,-0.1752175,0.1532195
0.2493688,0.9486985,0.1468416,-0.5991166,-0.1697325,0.151687
0.252872,0.9378762,0.1645182,-0.6172641,-0.1749885,0.1626767
0.2639666,0.9249029,0.1935901,-0.5777405,-0.1954258,0.1583275
0.2708776,0.9069796,0.2199146,-0.5217011,-0.241283,0.1427169
0.2771765,0.9073392,0.2190867,-0.468822,-0.2753717,0.1305293
0.2856685,0.9022536,0.2262412,-0.3997012,-0.251042,0.1100043
0.3025566,0.9101424,0.2316866,-0.3594263,-0.206885,0.09241959
0.3186388,0.9179001,0.2304892,-0.3075893,-0.1307966,0.06708456
0.3161481,0.8862328,0.2491395,-0.2544944,-0.0354112,0.03612141
0.3092268,0.8524292,0.2553242,-0.2049037,0.02337824,0.00776922
0.3024538,0.8447989,0.2521194,-0.1304424,0.04605009,-0.01741122
0.2908994,0.8575754,0.2511737,-0.06191283,0.008771508,-0.02257018
0.2871243,0.8727674,0.2386238,0.000239971,-0.04400654,-0.02770601
0.2870318,0.8888922,0.2272184,0.02406181,-0.043361,-0.03509985
0.2892807,0.9071441,0.2210265,0.0318212,-0.04016269,-0.04980402
0.2983048,0.9204907,0.2201472,0.05978899,-0.04546161,-0.07067396
0.2913522,0.9427258,0.2070625,0.06690431,-0.03283719,-0.06445614
0.2786934,0.9481867,0.1901326,0.0737942,-0.01890447,-0.0537447
0.2832888,0.9357429,0.1899016,0.06239636,0.01171351,-0.0428935
0.2851899,0.9336645,0.1800586,0.02968368,0.06590005,-0.04684449
0.2841364,0.9249256,0.1771332,0.01648696,0.08998682,-0.07336317
0.2807995,0.9320092,0.187398,-0.00610297,0.04852496,-0.07121255
0.2713276,0.9526358,0.1857397,-0.03018666,0.001325956,-0.06067553
0.276644,0.9579492,0.1862259,-0.05373074,0.004621472,-0.05313387
0.2843637,0.9685574,0.1804509,-0.07497399,0.03049868,-0.05018089
0.2834139,0.968868,0.1700102,-0.08280316,0.0641603,-0.05891637
0.2796707,0.958789,0.1757007,-0.1059187,0.08553182,-0.04796847
0.2656972,0.9541788,0.185763,-0.121279,0.07086015,-0.04739128
0.2590679,0.9373901,0.1926137,-0.129554,0.04934815,-0.04555662
0.2670214,0.9255247,0.1927332,-0.1446745,0.02844621,-0.02737044
0.275343,0.9264477,0.19028,-0.1431736,0.02251179,-0.03349883
0.28182,0.9326652,0.1961644,-0.1407775,0.03510626,-0.03583003
0.2817643,0.9427817,0.2015974,-0.1296538,0.02998911,-0.03743622
0.2809687,0.9380413,0.2032682,-0.1088545,0.03229278,-0.04653057
0.2839957,0.9290331,0.2047586,-0.1027322,0.05175987,-0.0454607
0.284383,0.922068,0.2076602,-0.09134739,0.06013978,-0.0685107
0.2883087,0.9047653,0.2163428,-0.08093168,0.06101201,-0.1107008
0.2931118,0.9003364,0.2209493,-0.08044275,0.05682524,-0.1497369
0.2869368,0.9147971,0.2189745,-0.06614043,0.06598485,-0.1802926
0.2754421,0.926706,0.2160348,-0.05565307,0.08572802,-0.1870605
0.2669557,0.9329636,0.2078145,-0.05931841,0.1009419,-0.1788204
0.2613189,0.9356884,0.2059017,-0.05527151,0.1175871,-0.1714412
0.2555015,0.9411744,0.2086058,-0.0509896,0.1117775,-0.1680115
0.2448116,0.9483511,0.2063715,-0.05149387,0.0949302,-0.15195
0.231829,0.9467814,0.2167437,-0.04961816,0.06845617,-0.1175232
0.2228057,0.9463487,0.225102,-0.04920626,-0.003283032,-0.0896267
0.2240857,0.9547452,0.2067893,-0.0487254,-0.07141837,-0.07235762
0.2338405,0.9600838,0.1899468,-0.05731074,-0.08811273,-0.05316869
0.2346794,0.9580749,0.1985519,-0.07896347,-0.0648583,-0.03347852
0.2320317,0.9546107,0.2113937,-0.09042871,-0.04148437,-0.01914895
0.236824,0.9492174,0.2146167,-0.08122728,-0.04730526,-8.636305e-05
0.2387924,0.9466941,0.2201224,-0.06441332,-0.05468942,0.03931375
0.2436888,0.9604862,0.227518,-0.04938957,-0.088808,0.07930728
0.2481042,0.971818,0.2317185,-0.04118157,-0.1569639,0.0949031
0.2472559,0.9515741,0.2176707,-0.04957941,-0.1684324,0.09968956
0.2574694,0.9309603,0.1893182,-0.06337336,-0.1150626,0.09828759
0.2689988,0.937419,0.1905095,-0.07481921,-0.05859121,0.07650178
0.271101,0.9281962,0.2039582,-0.09971522,-0.03714751,0.03873745
0.2732961,0.9019986,0.2018836,-0.1147663,-0.05497328,-0.001458485
0.2759486,0.9066891,0.2040172,-0.1012509,-0.06710811,-0.02105335
0.2765796,0.9249504,0.2021495,-0.08337779,-0.05955881,-0.01990742
0.2793962,0.933835,0.1998486,-0.06744939,-0.04919132,-0.02625432
0.2810062,0.9396678,0.2019125,-0.05740901,-0.02040187,-0.02909573
0.2765788,0.9321636,0.2018645,-0.05154265,0.01827586,-0.02427778
0.2749105,0.9220098,0.2114298,-0.03997499,0.03138459,-0.03002239
0.271721,0.9172083,0.2165265,-0.03698394,0.02116372,-0.03292979
0.2681646,0.9159834,0.2201058,-0.03159888,0.01218131,-0.03550992
0.2711906,0.9265434,0.2285467,-0.007288765,0.01568142,-0.04060997
0.2686875,0.9362879,0.2204522,0.003768726,0.01905732,-0.02925276
0.2697599,0.9445863,0.210322,-0.007845245,0.01793679,-0.01596602
0.272777,0.9459186,0.2104262,-0.01269544,0.02282993,-0.01742902
0.2698843,0.9363209,0.2092499,-0.006428933,0.02128018,-0.0230318
0.2755482,0.9385781,0.208806,0.002008704,0.01749528,-0.02884623
0.279499,0.9386831,0.21006,0.006855799,0.01969931,-0.03581722
0.2786178,0.9372934,0.2068943,-0.005056415,0.01650135,-0.03732877
0.2767494,0.9450688,0.2025441,-0.02810565,0.01610023,-0.03692018
0.2712376,0.9430422,0.2017247,-0.03843837,0.01631642,-0.03987327
0.2712085,0.9452315,0.1995441,-0.03787328,0.02282148,-0.04111032
0.2706836,0.9491829,0.2008639,-0.04286461,0.03606124,-0.04687907
0.269396,0.9448537,0.2063809,-0.04864743,0.02945345,-0.05262923
0.27013,0.9435282,0.2068472,-0.04966089,0.01764712,-0.04916148
0.2695572,0.9349788,0.2045859,-0.05033432,0.01510012,-0.05256497
0.2711071,0.9276207,0.2021889,-0.05169764,0.02147804,-0.05933062
0.2675319,0.9318883,0.2051297,-0.0564002,0.03339835,-0.06156174
0.261258,0.9396785,0.209875,-0.06030585,0.02406952,-0.06866278
0.2586708,0.9450992,0.2079884,-0.05203547,0.007035968,-0.07161606
0.2580015,0.9422188,0.2065928,-0.0446152,-0.001105157,-0.06975504
0.2614689,0.9395705,0.2017355,-0.05917553,-0.00921686,-0.07135123
0.2635663,0.9407603,0.1945328,-0.07267889,-0.007683502,-0.07120631
0.2633201,0.942164,0.197576,-0.0659284,-0.01592618,-0.07067377
0.2647118,0.9430475,0.2032718,-0.06482484,-0.04279262,-0.07019809
0.2679004,0.9403954,0.204057,-0.06985163,-0.05895768,-0.06562693
0.2723529,0.9381569,0.2019245,-0.06472819,-0.05936051,-0.06095039
0.2725081,0.9394086,0.199358,-0.06291195,-0.0303142,-0.05967773
0.2679759,0.9411069,0.2027689,-0.06776668,0.01878662,-0.05865569
0.2615454,0.9391897,0.2092422,-0.06917162,0.0316178,-0.05724858
0.2556215,0.9380857,0.2116849,-0.0678289,0.01400577,-0.05614774
0.2535758,0.939734,0.2143544,-0.06378197,0.0004875138,-0.04908818
0.2526687,0.9396123,0.2174444,-0.05629806,-0.02032329,-0.03822597
0.2524246,0.9421611,0.2181272,-0.04910574,-0.04137913,-0.03219365
0.2540895,0.9458975,0.2186086,-0.04506564,-0.04692062,-0.02504973
0.2544569,0.9477873,0.217687,-0.04287482,-0.05517387,-0.01677077
0.255202,0.9463451,0.2164363,-0.04150763,-0.05748236,-0.01780704
0.2607192,0.9382453,0.211317,-0.04161455,-0.03689018,-0.02199491
0.2668449,0.9326257,0.2032872,-0.03842271,-0.021061,-0.02576807
0.267126,0.9344472,0.2046833,-0.03556189,-0.02104493,-0.03422311
0.2657111,0.9376957,0.2070952,-0.04232195,-0.01778201,-0.03592369
0.2669878,0.9377399,0.2034267,-0.04980081,-0.00625817,-0.03113453
0.2658359,0.9370717,0.20288,-0.0511462,-0.0005353205,-0.03324609
0.2632876,0.9380068,0.202254,-0.05298423,-0.003888588,-0.03416234
0.263344,0.9371688,0.2019834,-0.05775735,0.002922816,-0.03260894
0.2629013,0.9374615,0.2064738,-0.06093416,0.01359283,-0.03430708
0.2628126,0.9370011,0.2102389,-0.0607558,0.0155674,-0.03261369
0.2616324,0.9323121,0.2138599,-0.05905829,0.01490878,-0.0314125
0.2573951,0.9289069,0.2202221,-0.04776718,0.006812523,-0.03071535
0.2536685,0.9296526,0.2248361,-0.03015601,-0.006522038,-0.02681399
0.2510196,0.9342543,0.2227077,-0.0240901,-0.01967545,-0.02502667
0.256019,0.9352046,0.2155546,-0.02572256,-0.02296664,-0.02153317
0.2655282,0.9314256,0.2100472,-0.02395483,-0.01171185,-0.0148581
0.2661725,0.9300304,0.2089503,-0.01994535,0.001282126,-0.01050156
0.2638091,0.930504,0.2106048,-0.01596372,0.02092197,-0.01430991
0.2637734,0.9328697,0.2127826,-0.01308569,0.03056403,-0.02188071
0.2638853,0.9347281,0.2132671,-0.01186341,0.01392229,-0.02082899
0.2651109,0.9375379,0.2116923,-0.01158521,0.005255494,-0.02007023
0.2653368,0.9418837,0.2100968,-0.01751682,0.01293873,-0.0239112
0.2653521,0.9405626,0.2083436,-0.03021581,0.02819942,-0.0263201
0.2649546,0.9390046,0.2077377,-0.03610246,0.05227214,-0.03176101
0.2631036,0.9389347,0.211507,-0.03693344,0.06169489,-0.03271989
0.2611579,0.9357707,0.2131099,-0.03879062,0.05276312,-0.02835103
0.2593675,0.9345361,0.2116696,-0.0363421,0.04520331,-0.02695707
0.2588695,0.9353443,0.2139725,-0.0330822,0.03903174,-0.02405448
0.2579435,0.936298,0.2169658,-0.02895621,0.03793667,-0.01939903
0.2571123,0.9380458,0.2203037,-0.02523138,0.04197433,-0.0135038
0.257535,0.9378793,0.2206585,-0.02169884,0.03721153,-0.01005791
0.258299,0.936728,0.2173636,-0.01403642,0.03299012,-0.01324647
0.2604727,0.9370536,0.2170527,-0.01148638,0.03036211,-0.01318738
0.2602802,0.9368938,0.2131154,-0.01082722,0.02290463,-0.009714192
0.2599777,0.937449,0.2114977,-0.01098429,0.03188562,-0.009425796
0.2630508,0.9388848,0.2183308,-0.0175291,0.04126908,-0.0103411
0.2636656,0.9372912,0.2204795,-0.01701869,0.0276677,-0.0123297
0.263761,0.9345941,0.2185906,-0.01091233,0.01778279,-0.01260115
0.2645262,0.9333484,0.2147763,-0.007413815,0.02046103,-0.01167155
0.2643471,0.9374633,0.2111009,-0.00568328,0.02556814,-0.01459847
0.2657231,0.9462096,0.21341,-0.006269568,0.03138628,-0.01857228
0.2653234,0.948465,0.2143449,-0.004616299,0.03779461,-0.02105167
0.2637122,0.945086,0.2118307,-0.007693825,0.04994436,-0.01988605
0.263116,0.9436251,0.210442,-0.01689902,0.06101373,-0.01662762
0.2619894,0.9426315,0.2119334,-0.02070512,0.06210067,-0.01767681
0.2624946,0.9360386,0.21604,-0.02002581,0.05959081,-0.02297801
0.2628297,0.927376,0.2190012,-0.01772623,0.05669672,-0.02907549
0.2621432,0.9299054,0.2187345,-0.0165711,0.0493743,-0.0270515
0.2626935,0.9358041,0.2173327,-0.01376227,0.04256422,-0.01798102
0.2625119,0.9377525,0.2191618,-0.008422727,0.04215511,-0.01321463
0.2623471,0.9436431,0.2202255,-0.01130893,0.04299711,-0.01061942
0.2623329,0.9438425,0.2194997,-0.01816533,0.04120599,-0.01145719
0.2605752,0.9411038,0.2233386,-0.01791224,0.03889957,-0.01307613
0.2588638,0.9436303,0.2250748,-0.0137485,0.0370756,-0.009130847
0.257766,0.9380829,0.2197307,-0.01463893,0.03078616,-0.008979987
0.257078,0.9320171,0.2141059,-0.01504722,0.02356418,-0.01052859
0.2587647,0.9335283,0.2139277,-0.0109665,0.02397687,-0.009622239
0.2625063,0.9332735,0.2159309,-0.009449243,0.02457248,-0.007480226
0.264368,0.9342834,0.2161638,-0.001156829,0.02224211,-0.001830167
0.2649568,0.938066,0.2173453,0.006374462,0.02290927,0.000932498
0.267478,0.9420536,0.2151654,0.003974321,0.03204949,0.002643518
0.2683531,0.9418264,0.2115186,0.006409744,0.05084774,0.0006255327
0.2657576,0.9378183,0.2112532,0.002860377,0.05967287,-0.007194841
0.2625045,0.9387739,0.2099892,-0.005050332,0.04884902,-0.008068456
0.2600223,0.9385354,0.2095951,-0.001936176,0.03777309,-0.01034427
0.2593924,0.9364701,0.2072149,-0.001256131,0.0322509,-0.016
0.2596788,0.9385454,0.2066529,-0.006283665,0.02575964,-0.01629571
0.2598512,0.9408466,0.2135078,-0.009225624,0.02939032,-0.01728348
0.2597288,0.9458181,0.2159316,-0.01161134,0.03614162,-0.01416655
0.2595735,0.9484577,0.2128984,-0.01677303,0.02419127,-0.01015677
0.2602524,0.9434705,0.2098485,-0.01798649,0.01178219,-0.01012073
0.2614279,0.9388984,0.2105746,-0.01382049,0.01194478,-0.007712389
0.2629905,0.9364383,0.2126727,-0.01380313,0.01163822,-0.008430127
0.2626893,0.9355904,0.2109529,-0.01004676,0.01274353,-0.007002555
0.2610194,0.9362478,0.2132645,-0.003517761,0.01421894,-0.003340886
0.2613316,0.9360138,0.2150861,-0.002520282,0.01527593,-0.006281795
0.2623282,0.9351422,0.2145828,-0.001454611,0.01662954,-0.007618503
0.264095,0.934615,0.2160729,-0.003888711,0.01482063,-0.007444763
0.2645526,0.9361104,0.2133455,-0.007080243,0.01683318,-0.006454648
0.2624486,0.9390456,0.2144615,-0.00895792,0.01908706,-0.005958995
0.2628429,0.9401914,0.2180807,-0.01298706,0.0185492,-0.01242163
0.2630587,0.938408,0.2164606,-0.0114295,0.02103402,-0.01687743
0.2617674,0.9364897,0.2164583,-0.007203452,0.02436015,-0.01550542
0.2624423,0.9362744,0.2168048,-0.002888742,0.02599457,-0.01274238
0.2609195,0.9368891,0.2161017,0.002679732,0.01954729,-0.01164512
0.2587323,0.9387911,0.2140493,0.003114792,0.01130564,-0.01063258
0.2598782,0.9394542,0.211498,-0.002631212,0.01288125,-0.005320076
0.2600191,0.9384536,0.2124435,-0.00890547,0.01431432,-0.002720227
0.2592089,0.9392107,0.2129012,-0.007987357,0.01301494,-0.002959747
0.2590049,0.9398964,0.2122625,-0.007261863,0.01435364,-0.0008295443
0.25859,0.9403002,0.2124948,-0.00983226,0.01416505,0.00128391
0.2611733,0.9402783,0.2124174,-0.007269887,0.01370697,0.001315917
0.265417,0.9374209,0.2115773,-0.007770681,0.016337,-0.001348145
0.2659739,0.9334909,0.2107517,-0.009197744,0.01836742,-0.002883317
0.264844,0.9309708,0.211152,-0.006112237,0.01677022,-0.007265891
0.2653047,0.9330783,0.2119194,-0.003972329,0.01282372,-0.01352235
0.2654699,0.937166,0.2149489,-0.0008000068,0.01105985,-0.0111536
0.2650768,0.9378179,0.2196037,-0.001118344,0.0172089,-0.008995201
0.2650148,0.9376357,0.2194801,-0.002063994,0.02438203,-0.01125364
0.2631617,0.9373925,0.2144053,0.0004515744,0.02047364,-0.01027006
0.2600688,0.9373298,0.2110916,-0.0006075215,0.01218426,-0.007916526
0.2590673,0.9382045,0.2123456,-0.001418988,0.006584764,-0.004708597
0.2596853,0.9389987,0.2131899,-0.004154271,0.003240432,-0.000765323
0.2590409,0.9408842,0.2120958,-0.00892533,0.006699193,0.0001299926
0.2579979,0.9406716,0.2129744,-0.007538387,0.009027974,-0.001853166
0.2595613,0.9395546,0.2156649,-0.006975438,0.006027423,-0.00260679
0.2622509,0.9405816,0.2181123,-0.009188281,0.006943301,-0.002206089
0.2639614,0.9388033,0.2187174,-0.01094322,0.009266816,-0.002718598
0.2653312,0.9360055,0.2165889,-0.01525847,0.0191715,-0.00289288
0.2663093,0.9356223,0.2125946,-0.01696462,0.03991309,-0.003926219
0.2662199,0.9358452,0.2095383,-0.01254637,0.05013086,-0.004552406
0.263019,0.9350169,0.2140945,-0.007930406,0.0457588,-0.003696755
0.2585118,0.9338295,0.2208734,-0.006101506,0.03809753,-0.0035084
0.257412,0.9351387,0.2173312,-0.005651266,0.03065859,-0.001380792
0.2578372,0.9350533,0.2146172,-0.00477274,0.02619333,0.001166832
0.259965,0.9339996,0.2175976,-0.002099474,0.02154264,0.0009005241
0.2635573,0.9362189,0.2137065,-0.0005288138,0.01617275,0.0008611536
0.261241,0.93902,0.2113966,-0.001817522,0.01843859,0.0004997358
0.2587011,0.9425696,0.2154655,-0.002170018,0.02197552,-0.002378117
0.2638322,0.9418318,0.2183806,-3.546717e-05,0.02050152,-0.003201627
0.2668111,0.9381225,0.2188162,0.003212044,0.02998456,-0.0007255083
0.2649446,0.9391352,0.2114156,0.003733574,0.05427925,0.001675684
0.2657115,0.9377972,0.2030211,0.0009871362,0.09555668,0.007704117
0.2691302,0.9384429,0.2021121,-0.0062061,0.1546405,0.01246977
0.2698975,0.9435148,0.2016202,-0.02533612,0.1743235,0.009318838
0.2606425,0.9414789,0.2076417,-0.04006203,0.1218689,0.01013109
0.2482257,0.9390866,0.2249104,-0.03106575,0.06139814,0.01626964
0.2483293,0.9395157,0.2349504,-0.01730261,0.03209858,0.01930442
0.2539065,0.9375069,0.2327806,-0.00995051,0.01165081,0.01927952
0.2565382,0.9362855,0.2294338,-0.003119438,0.003473239,0.01780945
0.2623869,0.9358469,0.2231988,-0.003029023,0.01054136,0.0177038
0.2658094,0.9361309,0.2192392,-0.003344554,0.0134865,0.01222616
0.2662952,0.9359365,0.2248052,0.0001550168,0.02281739,0.002421333
0.2702608,0.9337142,0.2277647,0.0004309057,0.0373565,-0.0003194493
0.2686166,0.931208,0.2243321,0.004468387,0.04003559,-0.006038262
0.2645281,0.9297076,0.2225633,0.009144917,0.04437237,-0.0162847
0.2635426,0.9317834,0.2238154,0.01412711,0.04308458,-0.01630175
0.2596561,0.9366284,0.2238675,0.02216384,0.03717396,-0.01243002
0.2591018,0.941844,0.2221678,0.01437191,0.06149925,-0.01344797
0.2597915,0.943152,0.2229526,0.001133343,0.09445739,-0.01308273
0.2561783,0.9407697,0.2259434,-0.001929621,0.094187,-0.01115087
0.2533103,0.9425992,0.2299932,-0.004639438,0.06504051,-0.008211161
0.2517851,0.9440191,0.2319422,-0.002622527,0.03223565,0.001038466
0.2532212,0.9416334,0.2305629,-0.001026782,0.01830723,0.009503423
0.2548472,0.9397479,0.2277082,-0.002191016,0.009963749,0.01171633
0.2572698,0.9363558,0.2217434,0.003105205,-0.00537349,0.01112808
0.2620315,0.93618,0.2205241,0.006394014,-0.007706649,0.007782597
0.262452,0.9381409,0.2226394,0.007159131,-0.007521771,0.006479265
0.2637436,0.9350629,0.2190753,0.006377507,-0.01651438,0.005856613
0.2651251,0.9324055,0.2201869,0.002531539,-0.01569439,0.003559474
0.2628482,0.9320635,0.2274626,0.0004472019,-0.01002919,0.003720936
0.2641166,0.9322181,0.2319198,-0.0008484386,-0.003136692,-0.0004829763
0.2638279,0.9328896,0.2304155,-8.230115e-05,0.006876982,-0.007106321
0.2603075,0.9333041,0.2255462,0.001138134,0.000238362,-0.005597598
0.258378,0.9337782,0.2262294,0.004933898,-0.008621668,-0.001344765
0.2568626,0.9337149,0.2267337,0.01244079,3.812651e-05,-0.001618728
0.258069,0.9371907,0.22335,0.01350404,0.002702251,-0.001671138
0.2603773,0.9421783,0.2219501,0.01129825,-0.001343693,0.001399069
0.2633111,0.9414446,0.2206245,0.010023,0.00167791,0.001400741
0.2659403,0.9377631,0.2242527,0.007200533,0.001934215,-0.001336141
0.2618164,0.9350398,0.2270905,0.007891261,-0.001075879,-0.003674395
0.2580668,0.9359408,0.2196576,0.013342,-0.005908485,-0.003671136
0.2607862,0.9380285,0.2151191,0.01593776,-0.01093496,0.0006456633
0.2620406,0.9381129,0.2199808,0.007080127,-0.006086012,0.001376479
0.2604711,0.9392925,0.2251583,-0.007395382,0.0008878158,-0.001452735
0.2601193,0.939312,0.2258349,-0.01219729,0.002150369,-0.004375194
0.2598049,0.9392493,0.2285802,-0.009673158,0.005645243,-0.007811543
0.2593226,0.9404442,0.2304059,-0.01104134,0.01183943,-0.004893694
0.2599972,0.9375718,0.2243161,-0.01148899,0.01393509,-0.002610314
0.2597668,0.9349415,0.2224534,-0.00546539,0.01054212,-0.003245842
0.2594388,0.9363497,0.2245705,0.0005746292,0.006928768,0.0006815841
0.2598605,0.9374149,0.2250152,0.005026296,0.003521321,-0.001201141
0.2586556,0.9374779,0.2272785,0.007711709,-0.006211184,-0.005652948
0.258025,0.9376055,0.2267577,0.008187985,-0.01517948,-0.005098399
0.259314,0.9369454,0.2276725,0.01101787,-0.01328585,-0.005670558
0.2627657,0.9347359,0.2302961,0.01350783,-0.0108695,-0.002469315
0.2663583,0.9326171,0.2289513,0.0130143,-0.01198544,0.001265342
0.2639398,0.9331542,0.228224,0.01261409,-0.01060497,0.0005828161
0.2607658,0.9348009,0.2253103,0.01150411,-0.01511914,0.0009161229
0.2619658,0.9347879,0.2191725,0.00925879,-0.02118096,-0.0005797066
0.2613322,0.9349716,0.2155712,0.007202838,-0.0154916,-0.001708013
0.2603546,0.9361495,0.2156338,0.005365495,-0.008966896,-0.0009154346
0.2616636,0.9351932,0.2190038,0.004036702,-0.00910479,-0.0008948521
0.2614246,0.9327978,0.2228843,0.00245303,-0.009994721,0.0008535332
0.2625474,0.9326704,0.222641,-0.0004558449,-0.01135703,0.001789005
0.2646998,0.9345251,0.2192033,-0.002328413,-0.01311333,0.0009492703
0.2627553,0.9359686,0.2173912,-0.00114178,-0.01553304,0.0002975208
0.2609189,0.9375027,0.216786,0.001344159,-0.01606397,0.00180404
0.2613357,0.9362174,0.2194638,0.002825524,-0.008575075,0.00236774
0.2618889,0.9313224,0.2250478,0.00357231,0.002791341,-0.004981762
0.2628753,0.9303006,0.225694,0.005605949,0.006098193,-0.01163108
0.2629525,0.9302787,0.2241092,0.005631866,-0.003707858,-0.009521657
0.2639943,0.9293024,0.2224394,0.003320686,-0.01247671,-0.0058541
0.2656993,0.932805,0.2197303,0.002542966,-0.008932802,-0.003308147
0.2636319,0.9360592,0.2203001,-0.0008534829,-0.007983212,0.001226342
0.2614776,0.9375006,0.2223678,-0.002020906,-0.01132034,0.001456646
0.2631417,0.9356287,0.2243572,0.003264407,-0.005901341,-0.004597326
0.2655814,0.9315004,0.2259563,0.005732555,-0.003164065,-0.00694918
0.2661984,0.9334259,0.2257913,0.007524688,-0.01122302,-0.006631499
0.2626531,0.9349727,0.2240885,0.009663942,-0.01942953,-0.006059604
0.2578571,0.9362763,0.2210554,0.008247197,-0.02160444,-0.005101725
0.2594378,0.9422688,0.2199379,0.005756537,-0.01906017,-0.005938157
0.2619762,0.9425225,0.217068,0.001304757,-0.01718741,-0.002205363
0.2606312,0.9397429,0.2118335,-0.001017981,-0.01497534,7.631652e-05
0.26215,0.9404703,0.2152863,0.001210383,-0.01092073,-0.003320741
0.2631804,0.9395166,0.2242523,0.00331416,-0.00692968,-0.001840315
0.26195,0.9371299,0.2286889,0.003808951,-0.003369906,0.0006189624
0.2631681,0.9363507,0.2249641,0.002170559,-0.01154569,-0.0006581741
0.2642447,0.9381668,0.216864,0.0009321455,-0.023535,-0.005021437
0.2656279,0.9385084,0.2170925,0.0006768994,-0.02012779,-0.01078691
0.2652864,0.9361785,0.2200701,0.0007961454,-0.02126351,-0.01177626
0.2616801,0.9368599,0.2196358,0.003914994,-0.03104142,-0.01177605
0.2599754,0.9364595,0.2231843,0.007341606,-0.02916869,-0.0128849
0.2599223,0.9350969,0.2220689,0.007877559,-0.03010677,-0.01307597
0.2606135,0.9365669,0.2191131,0.008249044,-0.04095642,-0.01296069
0.2599054,0.9341885,0.2216497,0.009589807,-0.04872491,-0.01045835
0.2585321,0.9322997,0.2196613,0.009980479,-0.05052388,-0.009359991
0.2584235,0.934573,0.2175996,0.01181326,-0.04566318,-0.00675655
0.2554158,0.9367409,0.2174797,0.01405692,-0.04427137,-0.001349821
0.2548281,0.9397767,0.2159271,0.01202821,-0.04720155,-0.001489605
0.2580756,0.9382178,0.2165749,0.01106301,-0.04583005,-0.0009872549
0.2603375,0.9343626,0.2149967,0.01250448,-0.04481517,-0.0003775478
0.2636394,0.9358282,0.2130408,0.01185145,-0.03783514,-0.002848983
0.2631073,0.9400223,0.2138199,0.01040568,-0.02576093,-0.001711396
0.261306,0.9446233,0.2131731,0.004411538,-0.01765069,-0.002320582
0.2632857,0.9432263,0.2121289,-0.005714244,-0.004068926,-0.004110644
0.2619091,0.9377462,0.2134051,-0.009423714,0.01041294,-0.006568819
0.259343,0.9363587,0.2181824,-0.007217447,0.01196344,-0.01149856
0.2584888,0.9355994,0.2219627,-0.007531641,0.005550481,-0.008277793
0.2593705,0.93639,0.2195782,-0.01002508,0.0001063921,-0.003098352
0.2620225,0.939041,0.217242,-0.01078694,-0.004424968,-0.003529551
0.2594215,0.9414484,0.2217755,-0.009521038,-0.009825649,-0.001445349
0.2572753,0.9436909,0.2245894,-0.007237291,-0.01166616,0.002998495
0.2611165,0.9390041,0.2187284,-0.005407649,-0.006173135,0.005669508
0.2634806,0.9328386,0.2158883,-0.000592152,9.718143e-05,0.002884702
0.2641148,0.9333474,0.2221399,0.009442775,-0.003169093,-0.0008568777
0.263177,0.93521,0.2270897,0.01775729,-0.01056909,0.002484747
0.2617562,0.9363766,0.2237938,0.01930459,-0.01192724,0.0036355
0.2627743,0.9345566,0.2198645,0.01590413,-0.005390638,-0.0008905595
0.2626056,0.9325261,0.221652,0.0148891,0.006447996,-0.002101794
0.2624162,0.9359406,0.2215588,0.01537899,0.008918118,0.001206152
0.2638178,0.9396076,0.2179442,0.01257981,0.005389615,0.0069409
0.2649095,0.9411012,0.2144988,0.01288087,0.009790444,0.009335239
0.2656888,0.9413365,0.2115285,0.01222194,0.01355971,0.005972582
0.2652317,0.9410754,0.2131455,0.00735888,0.01616126,0.00169262
0.2650742,0.9403471,0.2185224,0.005736476,0.01438504,-0.001190994
0.2655204,0.9379229,0.2214981,0.006014063,0.009337055,0.001600677
0.2647771,0.9374905,0.2177739,0.00753676,0.01853954,0.006268486
0.2635014,0.9370785,0.214411,0.008482359,0.02852886,0.003811372
0.2616841,0.9352046,0.2218035,0.01154287,0.0287528,-0.0009812857
0.2603805,0.9361092,0.2286223,0.01907018,0.02896519,-0.002751214
0.2596886,0.9356001,0.2253941,0.02150065,0.02758916,-0.002307581
0.2599741,0.9349888,0.2222799,0.02367457,0.02641106,-0.001674487
0.2641534,0.9403334,0.2213122,0.02989687,0.02409371,-0.002542536
0.2691227,0.9448372,0.217725,0.03101366,0.02367662,-0.002470093
0.2692783,0.9432379,0.2144003,0.02398211,0.03525685,-0.002171095
0.2639141,0.9411473,0.2129731,0.01269497,0.04588066,-0.003109086
0.2592949,0.940828,0.2159235,0.006753078,0.03844839,-0.003675923
0.2620965,0.9360807,0.221727,0.003999684,0.02358575,-0.005204053
0.2657137,0.9295076,0.2206915,-0.0006701677,0.02243692,-0.008344328
0.2651194,0.9297686,0.221241,0.0008139759,0.03565556,-0.01079387
0.2653516,0.9314329,0.2274613,0.007043271,0.04882841,-0.00805047
0.2645285,0.9302083,0.2250009,0.01461667,0.04810035,-0.003552133
0.2603205,0.9309812,0.2223899,0.02152064,0.04188775,-0.004297164
0.2565582,0.9336832,0.2239099,0.02385999,0.04349761,-0.0005026577
0.2570689,0.9362397,0.2204875,0.02630675,0.03730221,0.005784764
0.2603663,0.9367442,0.218522,0.02477063,0.02876917,-0.002016406
0.2600048,0.9358446,0.2164108,0.02086248,0.02494193,-0.01157314
0.2585476,0.9377211,0.2147918,0.0227599,0.01535206,-0.01000763
0.2576225,0.9418024,0.2153649,0.02043349,0.01945597,-0.007550374
0.2544735,0.9448538,0.2112319,0.01231025,0.02788423,-0.007021168
0.2556608,0.9436418,0.2123731,0.001507614,0.02889767,-0.007087422
0.2594025,0.9363763,0.2176734,-0.007685243,0.0396592,-0.008715236
0.2607107,0.9294378,0.2180013,-0.002773741,0.04130631,-0.008901233
0.2615055,0.9298309,0.2188753,0.005181524,0.03562401,-0.008846826
0.2587465,0.9342822,0.2188468,0.008439085,0.04003382,-0.01087102
0.2552765,0.9381711,0.2201752,0.0165473,0.04454213,-0.01248575
0.2536149,0.9409973,0.222059,0.02590583,0.05038986,-0.01108033
0.2519731,0.9392283,0.2194712,0.03280803,0.05259289,-0.005392937
0.2528917,0.9356328,0.218285,0.03631847,0.05635953,0.004628864
0.2532967,0.9365143,0.2166481,0.03849189,0.07810865,0.01125698
0.2532376,0.9341211,0.2176195,0.04182071,0.0925186,0.006073298
0.2549117,0.9281111,0.2226396,0.04547465,0.08075248,-0.002313053
0.2550865,0.9288736,0.2234166,0.05381315,0.06671716,-0.008329323
0.256059,0.9360852,0.2238621,0.05600901,0.05641708,-0.01781651
0.258631,0.9446224,0.218704,0.05206587,0.04189797,-0.0239212
0.2601883,0.9444513,0.2089133,0.05415609,0.0469641,-0.025551
0.2596156,0.9385819,0.2083524,0.04795398,0.06447546,-0.03198813
0.2561719,0.937985,0.2077953,0.04239572,0.06161346,-0.04088853
0.253061,0.935543,0.2061463,0.05161953,0.06214903,-0.04915266
0.2518366,0.9349996,0.210033,0.05883552,0.07198215,-0.05601172
0.2506386,0.9382052,0.2103243,0.06234611,0.07145723,-0.05923232
0.2478672,0.9391083,0.2102238,0.06269597,0.07222511,-0.05865058
0.2441533,0.9490758,0.2103941,0.06138469,0.06931151,-0.05783234
0.2404758,0.9619547,0.206041,0.06083185,0.06896719,-0.05480188
0.236166,0.9655718,0.2064381,0.05067448,0.07744442,-0.04183619
0.2357509,0.9634416,0.2077674,0.03744076,0.08236034,-0.02900729
0.2347613,0.9597397,0.205564,0.02700822,0.08800372,-0.02399907
0.2258591,0.9603066,0.20689,0.0137836,0.07184508,-0.01845632
0.2209276,0.9591495,0.2062474,-0.001487769,0.03230753,-0.01161447
0.2214526,0.9569372,0.2032944,-0.01573289,-0.003341138,-0.004267191
0.2224589,0.959297,0.2042099,-0.0252237,-0.0281247,0.004014789
0.2290638,0.9570553,0.2065698,-0.03031279,-0.0283965,0.0125931
0.2343246,0.9518193,0.2097687,-0.03130446,-0.0212974,0.01831764
0.2360381,0.9455446,0.2156995,-0.02522359,-0.02241792,0.02092262
0.2369856,0.9427286,0.2215732,0.002009804,-0.02325288,0.03166532
0.2394787,0.9513531,0.2140409,0.06225066,0.01556232,0.05285022
0.2621633,0.9620657,0.1830559,0.0845473,0.2503989,0.05615788
0.301525,0.9631066,0.1453108,-0.02939799,0.6747467,-0.01325932
0.3058145,0.9368677,0.1509816,-0.1517089,0.8325163,-0.1190197
0.2345266,0.9069442,0.225915,-0.09712483,0.4591545,-0.1332849
0.1537034,0.9247824,0.2894046,-0.01312139,0.05066454,-0.0835783
0.1587437,0.9554475,0.2667094,-0.00453203,6.150585e-05,-0.0477339
0.1983319,0.9612197,0.2282668,0.03048943,0.04503625,0.01323763
0.2045573,0.9639085,0.2286932,0.01609494,0.02034623,0.0382033
0.2118349,0.9563382,0.2243192,-0.02048638,-0.01329214,0.007530039
0.2145757,0.9456161,0.2264263,0.008765048,-0.07432104,0.0245918
0.2118911,0.948011,0.2393191,-0.000299699,-0.1095135,0.0362778
0.2275243,0.9477977,0.2280778,0.0006141175,-0.08921237,0.02432088
0.2260626,0.9535225,0.2218671,0.01596751,-0.0802221,0.04391454
0.2209157,0.9608766,0.2168499,-0.01053801,-0.08678328,0.04898813
0.2275079,0.9577677,0.2081174,0.001333882,-0.08612773,0.05396139
0.2203938,0.9566132,0.2177007,0.006013636,-0.1121949,0.06688679
0.2209839,0.9501219,0.2139653,0.003143832,-0.15712,0.06757541
0.2227849,0.9416965,0.2131202,0.01678193,-0.1588093,0.07880467
0.2266716,0.9432469,0.2208341,0.002769783,-0.1441613,0.07784712
0.2450893,0.9443895,0.2139626,0.008203779,-0.1237373,0.0745821
0.2460089,0.9391579,0.217928,0.008250512,-0.07198285,0.07090274
0.2455262,0.9358578,0.2203192,0.002958722,-0.05364108,0.05222295
0.2488098,0.9390274,0.2191588,0.0208738,-0.07488653,0.04911452
0.2405182,0.9391763,0.2205529,0.02276973,-0.08349078,0.04324108
0.2417789,0.9402937,0.2135855,0.02648696,-0.08447696,0.03808435
0.2448835,0.943574,0.2151269,0.01984776,-0.06292835,0.04287858
0.2475437,0.9421692,0.2109662,0.00893685,-0.01419407,0.03177684
0.2521927,0.9425276,0.2040368,0.008905236,0.004420026,0.01560816
0.2483492,0.936915,0.2121402,-0.003885075,-0.008073353,-0.00587997
0.2475901,0.9310325,0.2175889,0.0003498875,-0.01023203,-0.01340422
0.2469806,0.9377167,0.221621,0.00759224,-0.01614853,-0.005676913
0.2421013,0.945165,0.2239323,0.003831872,-0.01765571,-0.01341146
0.2409625,0.9494398,0.2182917,0.005356321,0.001497685,-0.01118351
0.2414095,0.9502412,0.2134167,0.0008347904,0.01044103,-0.004444921
0.2408611,0.9502883,0.2155459,0.006882094,-0.0004644734,-0.003591899
0.2379429,0.9490916,0.2185962,0.01873919,-0.02418504,0.005785088
0.2370976,0.9438327,0.214794,0.02319168,-0.04113528,0.003773219
0.2396713,0.9454408,0.2110332,0.0244219,-0.03934732,0.0009412523
0.2405248,0.9473008,0.204925,0.01611187,-0.03527603,0.003092978
0.2396162,0.9446128,0.2006815,0.009239127,-0.02959984,-0.0005497159
0.2382309,0.9462305,0.2089166,0.008766501,-0.0275072,0.005625485
0.2390772,0.9461671,0.2142962,0.01606532,-0.03898068,0.0126386
0.2403964,0.9448238,0.2134879,0.02637665,-0.05206555,0.0130454
0.2409435,0.9446087,0.211556,0.02560191,-0.04923135,0.01340377
0.2423365,0.9422667,0.2082913,0.02448802,-0.04113136,0.01253154
0.2419284,0.9427513,0.2098288,0.02618764,-0.04446964,0.01405272
0.2434722,0.9434074,0.2107046,0.02496366,-0.04128807,0.01185664
0.2475888,0.9398563,0.2106387,0.02548125,-0.03471102,0.008073934
0.2494457,0.9353818,0.2127445,0.02570785,-0.03265488,0.008893027
0.2506059,0.9323197,0.2118606,0.02794928,-0.02777394,0.004721629
0.2512018,0.9361031,0.2121082,0.0388922,-0.02833522,-0.003659269
0.2521901,0.9448981,0.2118233,0.04924721,-0.01395877,-0.0109786
0.2523704,0.94839,0.2045565,0.04309116,0.01460459,-0.02035172
0.2470563,0.9447683,0.1977413,0.03275778,0.02619306,-0.02885905
0.2411913,0.9404134,0.1989565,0.03510376,0.02860964,-0.02582278
0.2393954,0.9426231,0.2014605,0.03670473,0.03056757,-0.01918871
0.2372275,0.9488838,0.1985514,0.03903655,0.02680217,-0.01959638
0.2348793,0.9524845,0.1968469,0.046808,0.01845284,-0.01359311
0.2362503,0.9532679,0.1952198,0.04405949,0.01697298,-0.009114819
0.2363987,0.9552616,0.1891353,0.03786837,0.01757265,-0.009203913
0.2335919,0.9624853,0.1850135,0.0316578,0.007272635,0.006116391
0.2333057,0.963441,0.18223,0.01831064,-0.002716324,0.01758758
0.2348792,0.9541046,0.1860952,0.006013542,-0.02048715,0.0144825
0.2385291,0.9495852,0.1964519,-0.005287319,-0.03933009,0.01119746
0.2417391,0.9496823,0.1955993,-0.00981324,-0.03284236,0.007670602
0.240159,0.9519084,0.1935083,-0.009530381,-0.02378528,0.01042275
0.2397452,0.953468,0.1975466,-0.01507941,-0.02185416,0.01635535
0.240785,0.9486614,0.1955796,-0.01506992,-0.01425639,0.01782835
0.2404153,0.9440091,0.1961977,-0.01615774,-0.01264491,0.01653461
0.2420371,0.9405244,0.1984104,-0.02298836,-0.008111605,0.009348054
0.243552,0.9416786,0.1966984,-0.02269911,0.009287968,0.0005706341
0.2422605,0.9471897,0.1983286,-0.02212606,0.01126516,-0.005414125
0.2412137,0.9477313,0.1988314,-0.02104168,-0.003627659,-0.006997819
0.2426477,0.9479049,0.1969788,-0.01970902,-0.00903026,-0.007459085
0.2436128,0.9506821,0.1944234,-0.02392479,-0.006293638,-0.009668083
0.2417584,0.9544748,0.192287,-0.02716381,-0.005509002,-0.006380917
0.2376571,0.9571549,0.1949372,-0.03120039,-0.01427129,-0.005937201
0.2343009,0.9581413,0.1967833,-0.03919472,-0.02175335,-0.01002083
0.2392996,0.9587437,0.1956611,-0.04897241,-0.01124116,-0.008558323
0.2458528,0.9537461,0.1963017,-0.05283418,-0.004195177,-0.00793171
0.2417998,0.9492078,0.2003311,-0.04997573,-0.01236225,-0.005676853
0.238095,0.9483973,0.2060666,-0.05114361,-0.02255746,-0.001847543
0.2397736,0.9470582,0.2082808,-0.05088895,-0.02913321,-0.003368748
0.2393551,0.948384,0.2067344,-0.04804706,-0.02887274,-0.003338456
0.2402431,0.9478685,0.206978,-0.04674461,-0.02244408,-0.002803092
0.2396932,0.9462918,0.210127,-0.04133422,-0.01328311,-0.00291073
0.2360004,0.9461845,0.2121601,-0.03559904,-0.009483549,-1.903494e-05
0.2360932,0.9450344,0.2126232,-0.0309871,-0.0147816,0.001259964
0.2374369,0.9462751,0.2122228,-0.02908018,-0.02044501,-0.001387491
0.2394111,0.9460316,0.2097376,-0.02867825,-0.02216441,-0.004878585
0.2410495,0.9452112,0.2075643,-0.02203052,-0.02357439,-0.004947124
0.2390617,0.9462991,0.205712,-0.01922486,-0.0218717,-0.004398413
0.2384893,0.9445877,0.2035411,-0.02104336,-0.01433876,-0.002546482
0.2390748,0.944487,0.2050229,-0.01812656,-0.01261958,0.002735064
0.238818,0.9464634,0.2083118,-0.01684624,-0.01512037,0.001186136
0.2389742,0.9475393,0.2083043,-0.01736576,-0.01385725,-0.002581269
0.2387698,0.9474932,0.2063841,-0.01733877,-0.01518568,-0.0009279544
0.2386263,0.9457466,0.2052922,-0.01781734,-0.01680172,-0.001562821
0.237095,0.9459641,0.2061307,-0.01769016,-0.01899157,-0.003348957
0.2351141,0.9470174,0.2076943,-0.01890075,-0.02324926,-0.003308054
0.2342675,0.9483119,0.206883,-0.02007987,-0.02351995,-0.002342272
0.2334106,0.9502096,0.2068789,-0.02331122,-0.0183906,-0.001684535
0.2347836,0.9499325,0.2092315,-0.02830657,-0.01209048,-0.0009987722
0.236646,0.9505743,0.209094,-0.02854951,-0.01758269,0.002630426
0.234473,0.9527846,0.2054403,-0.02693231,-0.02610056,0.003960881
0.2329266,0.9538383,0.2025066,-0.02597612,-0.02198872,0.003013836
0.2370883,0.9501323,0.208373,-0.02436093,-0.01577213,0.00235615
0.239689,0.944155,0.2157752,-0.02079483,-0.01201793,-0.001764038
0.2352378,0.9451584,0.2124327,-0.01544251,-0.01703048,-0.004577526
0.2316788,0.9461614,0.2109394,-0.01473745,-0.02633729,-0.002002836
0.2333479,0.9430965,0.2135793,-0.01895373,-0.02101613,0.001525048
0.2341011,0.9441897,0.2102047,-0.02038808,-0.01878135,0.001162536
0.2334405,0.9460078,0.2088237,-0.01533643,-0.02726092,0.0006760969
0.2369701,0.9476457,0.2111327,-0.01062281,-0.02774198,0.004061566
0.2399866,0.9499344,0.2139803,-0.01342179,-0.02313464,0.006469202
0.2370663,0.9497614,0.2175403,-0.01596631,-0.01976339,0.008352313
0.2350146,0.9497527,0.2145745,-0.01434914,-0.02420835,0.007796262
0.2364977,0.947424,0.2105142,-0.01402192,-0.03137098,0.002521237
0.2375191,0.9447225,0.2128574,-0.009689628,-0.0274579,-0.0001031743
0.2384967,0.947636,0.2128246,-0.003598551,-0.02511601,0.0009852046
0.2402459,0.9514355,0.2088354,-0.007533407,-0.02483642,0.002128185
0.2402584,0.9530251,0.2051053,-0.01308657,-0.01704526,0.001038652
0.2380649,0.9505633,0.2040965,-0.01484747,-0.01357897,-0.000587164
0.2361608,0.9469922,0.2090992,-0.02034988,-0.0172446,0.0003748228
0.2356535,0.9485288,0.2102932,-0.02085767,-0.02086614,0.001942852
0.2363035,0.9484667,0.2063932,-0.01564632,-0.02087566,0.003553898
0.2360855,0.9463754,0.2093372,-0.01637617,-0.0201378,0.005897525
0.2349093,0.9485108,0.2119075,-0.01905854,-0.02151748,0.009334
0.2346937,0.9499249,0.2117747,-0.02343353,-0.02226638,0.009204573
0.2347365,0.9488594,0.2128915,-0.02852038,-0.02325595,0.005722086
0.2356959,0.9476342,0.2104207,-0.02669441,-0.020093,0.008040821
0.2366828,0.946687,0.2137793,-0.02437963,-0.01531389,0.009907048
0.2368664,0.9471597,0.2218969,-0.02335189,-0.01419746,0.007813714
0.2376027,0.9460144,0.2231236,-0.02076097,-0.01009946,0.008386103
0.2367428,0.9425754,0.2173561,-0.01999635,-0.008366819,0.008611093
0.235936,0.9409363,0.2098053,-0.02047838,-0.008996241,0.008135417
0.2379737,0.9417151,0.2143978,-0.02364774,-0.006410918,0.006166215
0.2392275,0.9431399,0.2200443,-0.02603524,-0.006400648,0.00432112
0.2370058,0.9440404,0.2151576,-0.0232227,-0.00664734,0.008758559
0.234099,0.9443308,0.2173806,-0.02067303,-0.009063501,0.01404986
0.2337825,0.9423115,0.2195463,-0.01871173,-0.01347991,0.01405428
0.2357126,0.9384621,0.2186153,-0.01365487,-0.01177563,0.009029394
0.241817,0.9384463,0.2276177,-0.008047287,-0.01147467,0.001228718
0.247323,0.9411516,0.232664,-0.007578369,-0.01618591,-0.004479204
0.2408928,0.9415775,0.2228218,-0.008800401,-0.01759944,-0.003062433
0.2332596,0.9417387,0.2124846,-0.008112884,-0.01347384,0.0002155012
0.2366347,0.9439097,0.217803,-0.01048202,-0.009749765,-0.0001158116
0.2390884,0.945888,0.2229943,-0.01082595,-0.01371805,0.001581098
0.2380661,0.9459147,0.2175004,-0.008835589,-0.02084724,-0.0001831776
0.2385323,0.9446869,0.2201345,-0.009643371,-0.02296265,-0.002489664
0.2363123,0.9431989,0.2216498,-0.007408176,-0.02096378,0.003857157
0.2367712,0.942928,0.2175769,-0.00686823,-0.01771457,0.004956117
0.241206,0.9444288,0.2198592,-0.01122839,-0.01542561,0.002786017
0.2420046,0.9465083,0.2178329,-0.01507703,-0.009456904,0.002721198
0.2408823,0.9483718,0.2145194,-0.0217081,0.00986833,-0.001765117
0.2397924,0.9499419,0.2128111,-0.03044926,0.03652908,-0.001802981
0.2392083,0.9513254,0.2092226,-0.03512164,0.04564129,0.00219342
0.2360071,0.9486035,0.2147746,-0.02637256,0.02090011,0.004688819
0.2296988,0.942127,0.2216664,-0.008137178,-0.01734202,0.00473118
0.2303339,0.9404656,0.219342,-0.002156392,-0.03688836,0.003136408
0.2355257,0.9428647,0.2162027,-0.003150307,-0.03344933,0.006064738
0.2388394,0.9456417,0.214858,0.001389672,-0.02306504,0.006964656
0.2412699,0.9500996,0.2122983,-0.0002743071,-0.0184528,0.005920039
0.2404567,0.9517999,0.2127593,-0.006791293,-0.01492305,0.005841817
0.2398498,0.9499443,0.2180195,-0.008915557,-0.01040824,0.00162734
0.2412415,0.9483966,0.2227794,-0.006271416,-0.01293473,0.0001432307
0.2404279,0.9448102,0.2258887,-0.0006813437,-0.01633712,-0.000693651
0.2399118,0.939012,0.2267863,0.0003152443,-0.01762183,-0.003433529
0.2414438,0.9362865,0.2250809,4.276075e-05,-0.02033035,-0.001831314
0.2416997,0.938652,0.2197109,0.001631325,-0.019817,-0.0004099157
0.2395237,0.9420284,0.211832,-0.001654609,-0.01547937,0.0003755536
0.2376149,0.9436247,0.2113138,-0.003527928,-0.01139757,0.003316285
0.2382023,0.9442398,0.2156207,-0.001459079,-0.01258577,0.006773132
0.2402223,0.9411599,0.2191612,-0.00113853,-0.01636521,0.008395171
0.2398763,0.9377545,0.2233938,-0.002218714,-0.01938522,0.00595271
0.235486,0.9418599,0.2212535,-0.003908272,-0.02617657,0.003092288
0.2329111,0.9461738,0.2174777,-0.003107714,-0.02982242,0.003828202
0.2374103,0.9445302,0.2199698,-0.0007290076,-0.02291926,0.006457687
0.2424708,0.9441086,0.2200481,0.0002551494,-0.01343824,0.005172823
0.2402927,0.9462784,0.217834,0.0008038938,-0.00990435,-0.0009955883
0.2380639,0.9465745,0.2176765,0.0004671218,-0.01009162,-0.004926892
0.2391445,0.9459798,0.2176149,-0.0001689273,-0.007703742,-0.002637728
0.2358993,0.9466817,0.2187975,-0.00284279,-0.006373863,0.000647151
0.2344726,0.9460043,0.2175918,-0.008575617,-0.01199913,-0.001673427
0.2395545,0.9452663,0.2167596,-0.0162778,-0.01175491,-0.006353474
0.2423143,0.947279,0.2210179,-0.02317612,0.01520478,-0.01028631
0.2384056,0.9469466,0.223652,-0.01937369,0.04322507,-0.01124177
0.2331263,0.94405,0.2255868,-0.008089994,0.02617307,-0.004452913
0.234794,0.9416687,0.2221275,-0.002709368,-0.005444965,-0.0001278321
0.2376218,0.940827,0.2164323,-0.002469438,-0.009603565,-0.003665773
0.2368702,0.9424339,0.2202217,-0.00324361,-0.004815144,-0.004705036
0.2363263,0.9431237,0.2182779,-0.001101038,-0.001833616,-0.001571396
0.231182,0.9455222,0.2145995,0.00596856,-0.008127797,0.002463803
0.2280251,0.948725,0.2183288,0.009414691,-0.01915632,0.005568725
0.2336422,0.9469782,0.2179872,0.005838206,-0.01293047,0.00655248
0.2388274,0.9468859,0.2196195,0.002031716,-0.008199349,0.003109575
0.2398164,0.9487466,0.2188547,0.001083986,-0.00537862,-0.004048798
0.2381147,0.9484933,0.2144203,-0.005575031,0.005359924,-0.007033615
0.2369091,0.9486205,0.2170932,-0.01677751,0.009039929,-0.006894334
0.2358793,0.9469323,0.2211252,-0.01712157,0.01595128,-0.00702328
0.2345455,0.943261,0.2236397,-0.01399406,0.01460707,-0.005748868
0.2343751,0.9408793,0.2217877,-0.0130174,0.0004515578,-0.006137099
0.2314274,0.9421153,0.219483,-0.007111206,-0.001155284,-0.008315006
0.2306274,0.9441797,0.2209251,-0.007643449,-0.001835453,-0.01011663
0.2341679,0.9427242,0.2230338,-0.007746909,-0.002108132,-0.01107248
0.2341773,0.9425043,0.2281444,0.003952629,0.004057075,-0.007649361
0.2336475,0.9427805,0.2272722,0.01142496,0.005812389,-0.00222843
0.2358899,0.9416508,0.224172,0.01185997,0.008023879,-0.002743298
0.2357192,0.9452451,0.2255724,0.01185004,0.009264948,-0.004483571
0.2328959,0.948895,0.2208757,0.01015745,0.009483343,-0.00279364
0.2313913,0.9481034,0.2185216,0.003233696,0.008980939,-0.003631893
0.2284918,0.9483074,0.2205288,-0.008536087,0.001201887,-0.002743256
0.225263,0.948571,0.2203893,-0.01432299,-0.005509344,0.002468185
0.2286143,0.9455619,0.2254143,-0.01290743,-0.004536816,0.003702047
0.2331652,0.9427572,0.2303394,-0.01015961,-0.001165014,-0.002201102
0.2337438,0.9441684,0.2301999,-0.006374615,-0.001345617,-0.008229595
0.2330549,0.9477414,0.2289759,-0.004499128,-0.001871056,-0.003477455
0.2309447,0.94941,0.2278856,-0.005064634,-0.001825822,0.00301174
0.2283286,0.9484994,0.2259935,-0.00525673,-0.005327866,0.002945712
0.2272944,0.9472908,0.2216719,-0.004922643,-0.007738417,0.007060907
0.2288513,0.9465255,0.2219146,-0.006251305,-0.01177401,0.01065348
0.2307172,0.9433756,0.2242335,-0.007543971,-0.01527895,0.01114605
0.2304018,0.9396698,0.2214402,-0.007250243,-0.01190149,0.01182628
0.2296671,0.9397235,0.2217722,-0.008808879,-0.01144084,0.002518181
0.2303522,0.9408243,0.2231152,-0.008109203,-0.01267421,-0.006492832
0.2361048,0.9403541,0.2224307,-0.002435003,-0.01035356,-0.003175718
0.2419072,0.9407532,0.2269011,0.001780153,-0.006187432,-0.00219274
0.2361151,0.9415198,0.2307268,0.0001113015,-0.002723764,-0.007002511
0.2283075,0.9415829,0.22896,-0.004341273,-0.01130115,-0.00756793
0.229588,0.9461926,0.226688,-0.004349105,-0.0226537,-0.004739795
0.229842,0.9542972,0.2265364,-0.004102471,-0.01966809,0.0007220413
0.2283381,0.9564312,0.2286821,-0.006506214,-0.01682846,0.007630919
0.2306699,0.9509465,0.2323862,-0.006202155,-0.02059428,0.007505597
0.2308546,0.9437188,0.2344709,-0.004930771,-0.01935606,0.009715849
0.2305398,0.9405852,0.2326026,-0.00387177,-0.01722812,0.01758335
0.2328884,0.9408427,0.2302222,-0.007050496,-0.01317639,0.009046071
0.2346833,0.9405572,0.228876,-0.01165973,-0.004606956,-0.004480183
0.2365361,0.941811,0.2285475,-0.008802374,-0.002060609,-0.003989412
0.2379912,0.9433136,0.2313916,-0.007205598,0.002268753,-0.004255742
0.2392736,0.9404958,0.2371168,-0.008547479,0.0129308,-0.00812121
0.2389991,0.9376171,0.242825,-0.006643157,0.01799053,-0.01421245
0.2358879,0.9393899,0.2380133,-0.0031116,0.01760043,-0.02141181
0.2325214,0.9422193,0.2275214,0.006096663,0.01508805,-0.01672706
0.2267543,0.943878,0.228518,0.01595471,0.01476494,-0.009671901
0.2213778,0.9461603,0.2307532,0.0160842,0.01110654,-0.009965374
0.2205647,0.9476677,0.2296687,0.01393576,0.002741267,-0.00590774
0.2227129,0.9474836,0.2322241,0.01450839,0.005000111,-0.001362073
0.2262928,0.9476962,0.2292133,0.01045898,0.003742119,-0.002417547
0.2262338,0.9507041,0.2233329,0.004770178,-0.006942332,0.0006771189
0.2251587,0.9541598,0.2203536,0.002351122,-0.009598312,0.003564927
0.2268429,0.9529822,0.2212771,0.0009663099,-0.01185189,0.001688045
0.2279916,0.9499774,0.2256179,0.002067919,-0.01332734,0.003006508
0.2332229,0.942686,0.2235054,0.000819634,-0.01224354,0.001776592
0.2398726,0.9299101,0.2223893,-0.002040132,-0.01580579,-0.002509163
0.2372365,0.9297131,0.2250299,-0.0006348059,-0.01484982,-0.002272609
0.2304597,0.9432391,0.2224586,-0.004492161,-0.0112523,-0.001976583
0.2283625,0.9520296,0.2217597,-0.0140964,-0.006567663,-0.001161237
0.22922,0.9524269,0.2211523,-0.01916453,0.002488171,0.001959457
0.2314422,0.9487169,0.2206571,-0.01547039,0.005007251,0.003388223
0.2333905,0.9467527,0.2235284,-0.008819399,0.006456738,0.0001949893
0.2320954,0.9472785,0.2224899,-0.008301822,0.01118695,-0.003917978
0.2297362,0.9445732,0.2245333,-0.007383149,0.006045534,-0.0005703289
0.2276613,0.9412454,0.2296444,-0.005216252,0.0004147075,0.001779345
0.2276608,0.9397333,0.2316467,-0.005582609,0.003574037,-0.003684243
0.2300587,0.9407944,0.2359427,-0.002851277,0.002384917,-0.006587713
0.2302965,0.942569,0.237337,0.001760018,-0.003879943,-0.005730793
0.2280726,0.9403607,0.2351439,0.006887731,-0.00748399,-0.005418517
0.2253961,0.9399239,0.2346203,0.005107108,-0.006206228,-0.005692116
0.226295,0.941657,0.2311439,-0.0003859964,-0.002566471,-0.004723366
0.2291674,0.9410542,0.2271259,0.003831398,-0.001195161,-0.00386587
0.2290393,0.9392779,0.2264211,0.00443205,0.003119359,-0.006999801
0.2290553,0.9368332,0.2260029,0.001279147,0.005572678,-0.007662729
0.2270747,0.9394314,0.2294747,0.004045145,-0.003129642,-0.003009253
0.2236439,0.9453309,0.2356493,0.005139026,-0.01478048,0.0037999
0.2235602,0.9492569,0.2336423,0.00678995,-0.02253875,0.01261363
0.2245359,0.9526165,0.2295734,0.002496682,-0.01890746,0.01654819
0.226566,0.9494908,0.2303449,-0.007930103,-0.01085924,0.01481519
0.2276676,0.9414552,0.2287912,-0.01046517,-0.01410398,0.01356102
0.2276734,0.9379247,0.2299332,-0.01047044,-0.02039978,0.01279425
0.2281651,0.9417155,0.2332592,-0.008643181,-0.0335319,0.01204426
0.2276047,0.9494908,0.2308295,-0.005801013,-0.05038276,0.01435796
0.2300047,0.9510098,0.2275981,-0.006239493,-0.05119735,0.02427134
0.2358956,0.9473666,0.2253681,-0.003673129,-0.05148077,0.03067492
0.2405496,0.9459405,0.2260831,-0.004720007,-0.05721056,0.01640842
0.2394,0.9446753,0.2273955,-0.008786726,-0.05702171,0.00035783
0.23469,0.9424472,0.2255361,-0.009553339,-0.05860408,0.006316075
0.2318206,0.9395546,0.2266239,-0.01379683,-0.06201753,0.01129859
0.2283115,0.9403333,0.2265857,-0.01438856,-0.06381337,0.006554765
0.2313004,0.9429829,0.2248149,-0.01142469,-0.06377089,0.01186067
0.2413578,0.9402858,0.225523,-0.01383584,-0.0565864,0.01027449
0.2444864,0.9395555,0.2254873,-0.01326068,-0.04461618,0.0008880132
0.2427704,0.9410067,0.2267854,-0.01088675,-0.03741602,-0.001517844
0.2395161,0.939798,0.2267567,-0.009035934,-0.03262373,-0.01311876
0.2361305,0.9413232,0.2256907,-0.004615063,-0.02381722,-0.01880571
0.2357866,0.9448855,0.2273094,-0.005359886,-0.01960533,-0.01113966
0.2349088,0.9475498,0.2279878,-0.007358405,-0.01945854,-0.01098381
0.2349799,0.9445375,0.2297065,-0.007301805,-0.02018123,-0.009639696
0.2355215,0.9398185,0.2301329,-0.01071541,-0.02714334,-0.007489215
0.2361616,0.9446849,0.2273326,-0.009857764,-0.03332342,-0.00680067
0.2367191,0.9485058,0.2261304,-0.003207885,-0.03585386,-0.00176571
0.2354091,0.9455422,0.2260873,0.0008993736,-0.03238781,0.00151612
0.2362435,0.9445423,0.2278057,0.0004246462,-0.0219695,0.007166532
0.2354355,0.9434083,0.2298355,0.0006100309,-0.01584,0.01110006
0.2338778,0.9425594,0.2325864,0.009822457,-0.01765151,0.009923211
0.2352259,0.943151,0.236397,0.01898593,-0.02197597,0.01024674
0.2350915,0.9420733,0.2357439,0.01647706,-0.0181022,0.007548596
0.2373134,0.9413833,0.2355183,0.01342368,-0.01286073,0.005501507
0.2399644,0.9416211,0.236604,0.01407066,-0.01274762,0.00624993
0.2387033,0.941607,0.233316,0.01003612,-0.006803549,0.005500506
0.2374849,0.9407685,0.2304096,0.006551647,-0.003894284,0.005064367
0.2364748,0.9404176,0.2299549,0.006228834,-0.001396708,0.0008622058
0.2356759,0.9433663,0.2300069,0.0009300273,0.004315331,-0.002994381
0.2351196,0.9469847,0.2277352,-0.003929819,0.0003753333,0.0009170915
0.2346333,0.9470762,0.2255057,-0.003257321,-0.003607805,0.004220686
0.2345855,0.9452175,0.230326,-0.002450634,-0.00788758,0.002645314
0.2349423,0.9455929,0.2336968,-0.001206944,-0.01211893,0.002336577
0.2357639,0.94602,0.2307172,-0.0004994608,-0.00903411,0.00459186
0.2361585,0.9436767,0.2281479,0.002251851,-0.009691455,0.005120737
0.2363567,0.9423597,0.2260184,0.007600235,-0.01014519,0.00449073
0.236119,0.9420024,0.2278671,0.007597419,-0.008705312,0.004210624
0.2370945,0.9404318,0.2324276,0.006913534,-0.0110148,0.0005288939
0.2387717,0.9390158,0.232268,0.007608319,-0.009804887,-0.00362918
0.2382579,0.9385872,0.2298015,0.00628185,-0.003180915,-0.002069646
0.2381658,0.9395503,0.2232629,0.007331315,0.0038795,0.002284008
0.2390095,0.9416113,0.2155467,0.01054805,0.003472277,0.005672954
0.2391321,0.9442797,0.2191623,0.01329066,0.002759411,0.006797605
0.2387603,0.9453056,0.2249447,0.01202559,0.007662424,0.001466169
0.2387511,0.9430265,0.2218101,0.00821609,0.002463499,-0.005484575
0.2386268,0.9404711,0.2215678,0.007739523,-0.006884799,-0.003912645
0.2354729,0.9411133,0.2250012,0.007884599,-0.008479199,3.147906e-05
0.2312281,0.9439475,0.2245952,0.007129259,-0.008475838,0.001421346
0.2299557,0.9449122,0.2261289,0.004574423,-0.007951491,0.004163688
0.2323847,0.9451489,0.2291351,0.0004171593,-0.01240793,0.005200884
0.234405,0.9431108,0.2302612,0.001008457,-0.01909987,0.00695476
0.2332243,0.9383881,0.2306731,0.003059997,-0.01959242,0.009574758
0.2339525,0.9401733,0.2286067,0.001680879,-0.02058122,0.007222014
0.2354249,0.9425146,0.2270941,0.0007036239,-0.01998535,0.006074849
0.2345129,0.9407505,0.2281855,-0.0001680122,-0.01762536,0.006304782
0.2349813,0.9422074,0.2301067,-0.0008152966,-0.01851731,0.003059067
0.2370344,0.9415919,0.2327951,0.001457534,-0.0194617,0.002175857
0.239357,0.9401714,0.2333112,0.003930546,-0.02579643,0.001642536
0.2391236,0.9407303,0.2296888,0.005635569,-0.03097807,-0.002579612
0.2358451,0.9396757,0.2255097,0.007162692,-0.02121981,-0.002877592
0.2354173,0.9405783,0.222774,0.006803427,-0.01020482,0.000742132
0.2370605,0.9406274,0.2184968,0.007817159,-0.0112747,0.00194647
0.2377509,0.9406705,0.2163856,0.01008266,-0.01534508,0.001403685
0.2392332,0.9426609,0.2191295,0.008233347,-0.01985557,0.00100325
0.2394037,0.9423324,0.2193484,0.005913967,-0.02722355,0.003055
0.2382751,0.9431373,0.2197867,0.005611131,-0.02421905,0.007267681
0.239288,0.9433401,0.2234094,0.005570437,-0.01802007,0.01044006
0.2399947,0.9416198,0.2275653,0.00696234,-0.0242833,0.01102756
0.2396037,0.9418872,0.2334741,0.006857312,-0.02868932,0.007569373
0.2380422,0.9426122,0.2316451,0.00566886,-0.0331125,0.004467508
0.2356946,0.9442423,0.2262044,0.004748581,-0.03797192,0.004172184
0.2393311,0.9447971,0.2289728,0.00163974,-0.02553499,0.00238834
0.2429762,0.9430268,0.2272563,-0.0004724618,-0.01658255,0.0009967087
0.2378423,0.9418149,0.2227732,0.000568654,-0.02840898,0.0009399707
0.2346577,0.9404545,0.2214711,0.004225345,-0.04093907,-0.001197534
0.2383939,0.9406849,0.216377,0.00402354,-0.03983356,-0.003801065
0.2408407,0.9441686,0.2173446,-0.007135216,-0.02830871,-0.003649821
0.2402528,0.947779,0.2210986,-0.01590952,-0.01987968,-0.0007562702
0.2404585,0.9472285,0.2206063,-0.009018737,-0.0222321,0.002310886
0.2422612,0.9425473,0.2250417,-0.0001880247,-0.02558518,0.002241807
0.2434858,0.9384573,0.2270646,-0.000816268,-0.02356027,0.0002352947
0.2429119,0.9355348,0.2244146,0.003015079,-0.03056453,0.0009431284
0.2404111,0.934397,0.2207586,0.008815128,-0.04701674,0.001662241
0.2376627,0.9369058,0.2148505,0.001140624,-0.05421175,0.0007088807
0.2386602,0.9403682,0.2187928,-0.00544201,-0.05204312,0.002862041
0.2446697,0.942898,0.228144,-0.005213144,-0.04266695,0.005094973
0.2487326,0.9442896,0.2300834,-0.008015127,-0.02840094,0.004888757
0.2469172,0.9442071,0.2297135,-0.006837521,-0.01842406,0.004791029
0.2467502,0.9417687,0.2295595,-0.003620162,-0.01225452,0.004544394
0.2479086,0.9392314,0.2298472,-0.004597051,-0.009161667,0.004013917
0.2467408,0.9401905,0.2267915,-0.003680637,-0.008610337,0.002308352
0.2469698,0.9399281,0.221402,-3.995717e-05,-0.008147684,0.001266567
0.2454802,0.9354045,0.2234627,0.003266335,-0.005047181,0.001509796
0.2426308,0.932232,0.2245157,0.006564311,-0.004735179,-0.0005850739
0.2436159,0.9341926,0.2201758,0.009218672,-0.0105823,-0.004491444
0.2467765,0.9376283,0.2180146,0.009199686,-0.01034919,-0.008029789
0.2493063,0.9379362,0.2165957,0.007567209,-0.004289535,-0.007300386
0.2472584,0.9381854,0.2197772,0.008054449,0.005684869,-0.003115102
0.2440508,0.9391837,0.2240691,0.009403624,0.01353005,-0.002728514
0.244341,0.937919,0.2209282,0.00776793,0.007595453,-0.002663996
0.2431653,0.937289,0.2189116,0.006685875,0.004315631,0.002029327
0.2434776,0.938617,0.220029,0.007150922,0.007877729,0.004013262
0.2472679,0.9404962,0.220259,0.006317035,0.008751232,0.001651318
0.2473188,0.9424233,0.2220309,0.005838357,0.01192955,0.000106822
0.2449449,0.9434207,0.222928,0.004346411,0.01395984,-0.001203754
0.2432,0.9430957,0.2228095,0.00425521,0.01427563,-0.0003340836
0.2424393,0.9418321,0.2232155,0.005128747,0.01562212,0.000249541
0.2430592,0.9413123,0.2202432,0.001992406,0.01690187,-0.003821557
0.2413222,0.9410174,0.2173462,0.001265125,0.02017391,-0.005875286
0.2394134,0.9410007,0.2217402,0.004467256,0.0212432,-0.005439237
0.2404131,0.9428343,0.2277023,0.007977248,0.02006311,-0.004151793
0.2410285,0.9435662,0.2282367,0.008771497,0.02036431,-0.002235274
0.2427433,0.9428376,0.2271106,0.006839882,0.01701713,-0.003464897
0.2453531,0.9431952,0.2253751,0.008220012,0.01221722,-0.003857254
0.245124,0.9438812,0.22314,0.007600817,0.01489141,-0.003061056
0.2455837,0.9435872,0.2236947,0.006184701,0.02312581,-0.003788143
0.2478984,0.9419795,0.2234607,0.00860959,0.02933178,-0.004620345
0.2463303,0.9413077,0.2217963,0.007591189,0.0270092,-0.005578525
0.2424546,0.9429099,0.2224323,0.006943255,0.01907411,-0.005190225
0.2402295,0.9443563,0.223965,0.005473676,0.01635828,-0.004557694
0.2380789,0.9446138,0.2250404,0.001170241,0.01920213,-0.00375853
0.2386663,0.9444615,0.2249161,0.002718938,0.02298862,-0.0001686616
0.2411706,0.9436429,0.225296,0.003327955,0.02344284,0.00358779
0.2426565,0.9409097,0.2270785,0.001036117,0.02059353,0.004801673
0.2450364,0.9378361,0.2265459,0.001116846,0.02139484,0.0053817
0.2431705,0.9389221,0.2210239,-5.993516e-05,0.02161075,0.004219779
