accx,accy,accz,gyrox,gyroy,gyroz
0.01740504,0.2704215,0.9616627,-0.06547516,-0.2276958,0.1733353
0.02843098,0.245627,0.9601589,-0.02940367,-0.2263749,0.1901808
0.01773166,0.234768,0.9550564,0.01651986,-0.2618597,0.2111852
0.02029414,0.2263839,0.9558113,0.03754031,-0.2364443,0.2181977
0.021472,0.2131804,0.9693456,0.05749906,-0.262372,0.2153828
0.01285015,0.2170814,0.9808959,0.08339281,-0.2789186,0.2229338
0.02301381,0.2225906,0.9794397,0.07157637,-0.2926275,0.2262642
0.023453,0.2186409,0.9721478,0.05840851,-0.3310888,0.2111808
0.0318449,0.2279954,0.9755606,0.07528381,-0.3178339,0.1989875
0.04095436,0.231791,0.9719777,0.08387499,-0.2823902,0.1980149
0.0313561,0.2349584,0.9638901,0.0871232,-0.300237,0.1924101
0.03221026,0.2454923,0.967045,0.09528069,-0.2902165,0.1803149
0.02260514,0.2370503,0.9670634,0.09100515,-0.2796298,0.1722366
0.01172206,0.2311475,0.9691364,0.09056456,-0.3077374,0.1714778
0.01610643,0.2362578,0.9666269,0.0910175,-0.2983023,0.1703512
0.01488228,0.2337107,0.9597174,0.08387937,-0.2775414,0.1683092
0.01309975,0.2325574,0.9691842,0.09228422,-0.2480527,0.1740777
0.008186494,0.2338626,0.9780059,0.09737158,-0.249733,0.1792032
0.002724195,0.2344033,0.9798562,0.08933227,-0.2988385,0.1758826
0.00160023,0.2358293,0.9783977,0.08693464,-0.3167254,0.173709
0.004838267,0.2364267,0.9710851,0.08669632,-0.3183186,0.1760712
0.01083517,0.2358499,0.9672428,0.08752874,-0.293525,0.1769662
0.006245369,0.233994,0.9610981,0.08721409,-0.2750404,0.1750712
0.004304576,0.2328843,0.9576386,0.08884193,-0.2965733,0.1750231
0.009848046,0.2316444,0.9662305,0.09268259,-0.2972825,0.1736607
0.01180747,0.229222,0.9747214,0.09442214,-0.2978765,0.1683722
0.01338828,0.2267733,0.9740505,0.09760835,-0.3003379,0.1656538
0.01230779,0.226415,0.9665649,0.09558347,-0.2966156,0.1652782
0.01173686,0.2270056,0.9631236,0.09668454,-0.2973962,0.1659021
0.01115919,0.2257666,0.9654625,0.1009768,-0.2855799,0.1652822
0.007413929,0.2264881,0.9730007,0.09471374,-0.2826964,0.1617779
0.006294862,0.2268244,0.9818887,0.09235752,-0.2809838,0.1617495
0.005370473,0.225748,0.9798967,0.1002125,-0.2858065,0.1611025
0.005102689,0.2268639,0.9771101,0.1104077,-0.2965624,0.1570383
0.006087332,0.2262868,0.978093,0.1121359,-0.2808818,0.156897
0.005299002,0.2261318,0.9739361,0.09648295,-0.2654322,0.1584521
0.005502097,0.2270104,0.9718808,0.08596386,-0.2568652,0.1592695
0.005595373,0.2270514,0.9712652,0.1000722,-0.2613318,0.158749
0.004447007,0.2291554,0.9668021,0.1134337,-0.2887039,0.1558516
0.004006277,0.2299419,0.9670958,0.1036125,-0.3050225,0.155061
0.004064312,0.23062,0.9754329,0.09787982,-0.2956336,0.1535707
0.004297365,0.2321525,0.980892,0.106813,-0.2823748,0.1488376
0.004866649,0.2281272,0.9747129,0.1069947,-0.3001269,0.1450932
0.007644392,0.220319,0.963967,0.1070701,-0.3166415,0.1425346
0.01111129,0.2173193,0.9605547,0.1115396,-0.302674,0.142979
0.01097807,0.2245253,0.9630015,0.1113222,-0.2892301,0.1457454
0.01053385,0.232519,0.9638378,0.1107638,-0.2755515,0.147119
0.01206232,0.230919,0.9639724,0.1042895,-0.2825097,0.1456089
0.01294454,0.2282942,0.9649441,0.09960753,-0.2987285,0.1419044
0.01502043,0.2287441,0.9654554,0.1026543,-0.2817684,0.1408085
0.01585644,0.2273624,0.9654083,0.102916,-0.2724092,0.1371629
0.01234689,0.2272755,0.9652488,0.1034307,-0.2740547,0.131095
0.009292682,0.2280209,0.966632,0.09973264,-0.2656956,0.1315619
0.007340947,0.2281932,0.9685936,0.09240999,-0.2644502,0.1298802
0.006153519,0.2304261,0.9692351,0.09242864,-0.2609141,0.1263556
0.006282773,0.2295035,0.9686684,0.0928572,-0.2606761,0.1294267
0.007592146,0.2268874,0.9682908,0.09122356,-0.2665502,0.1319883
0.01086898,0.2273742,0.9683702,0.0916094,-0.2644681,0.1307928
0.01063904,0.2258804,0.9674812,0.09113378,-0.2635455,0.1277983
0.01066304,0.2249903,0.9671983,0.088323,-0.2622075,0.1250294
0.01620298,0.2260577,0.9667254,0.08416837,-0.2567367,0.1230118
0.01863966,0.2270261,0.9664786,0.08171472,-0.249224,0.120555
0.0190003,0.2302583,0.968936,0.08099481,-0.2414252,0.1190988
0.0175922,0.2297255,0.969898,0.08116986,-0.2447235,0.1171144
0.01359419,0.2281797,0.9693711,0.0845391,-0.2493789,0.1158333
0.01454367,0.2308864,0.9700081,0.08756387,-0.2431522,0.1166217
0.0126484,0.2306987,0.9721558,0.08935645,-0.2432963,0.1156175
0.008401275,0.2302339,0.9755153,0.09494217,-0.2591664,0.1117279
0.01367429,0.2313296,0.973183,0.09734022,-0.2736766,0.108324
0.01871992,0.2319607,0.962782,0.08918017,-0.2653431,0.1120757
0.01642333,0.2340849,0.9562241,0.08214343,-0.2352803,0.1191794
0.01404205,0.2335807,0.9680314,0.08760107,-0.2187481,0.1180954
0.01344558,0.2326871,0.982592,0.0926758,-0.2429445,0.1098976
0.01274705,0.2338453,0.9747736,0.08651671,-0.2655967,0.1021822
0.01429227,0.2333441,0.9657709,0.08298365,-0.2364385,0.1007401
0.01893613,0.2346326,0.9679501,0.08337206,-0.2100733,0.1031043
0.02065273,0.237941,0.965465,0.07983329,-0.2296521,0.1011313
0.02008988,0.2388543,0.9667851,0.07813712,-0.2333279,0.0959138
0.02214432,0.2355623,0.9692162,0.07581811,-0.2164536,0.09133946
0.02367442,0.2318947,0.9684712,0.07136896,-0.2117097,0.09038774
0.02345547,0.2340583,0.9719962,0.06704788,-0.1991293,0.09070651
0.02279781,0.2356028,0.9674394,0.06137603,-0.1869527,0.08604867
0.02149863,0.2322805,0.9610902,0.05574487,-0.1732995,0.08280413
0.02018401,0.2313508,0.9613296,0.04789073,-0.1520905,0.08282632
0.0184261,0.2321634,0.9621074,0.04369923,-0.1497904,0.08193424
0.0181127,0.2322682,0.9679663,0.04404423,-0.1490139,0.08271052
0.01951269,0.233765,0.9708762,0.0409506,-0.137876,0.0817114
0.0195834,0.235204,0.9691059,0.04025682,-0.1322517,0.08056891
0.01988126,0.2347971,0.9692861,0.04001632,-0.1326597,0.08356798
0.01923721,0.232908,0.9690616,0.0357823,-0.1371441,0.08476523
0.01483881,0.2303113,0.9718693,0.03177918,-0.1376415,0.08071538
0.01101465,0.2273677,0.975483,0.02882096,-0.1383713,0.07405573
0.009423495,0.2261861,0.9764714,0.02985056,-0.1382439,0.07180055
0.008617421,0.2265693,0.9755658,0.0323531,-0.1324545,0.07403986
0.008525716,0.2252335,0.9753592,0.0351487,-0.1347667,0.0745893
0.008922385,0.2246608,0.9772752,0.03947158,-0.1379758,0.0732198
0.0102099,0.2252326,0.9769414,0.04050348,-0.1408558,0.07156949
0.00990569,0.2248221,0.9764249,0.04234753,-0.1473164,0.07217502
0.009563724,0.2252948,0.9739189,0.0483803,-0.1454518,0.07235669
0.01194859,0.2258878,0.9706766,0.05563473,-0.142885,0.06988361
0.01290476,0.2263618,0.9720019,0.06124716,-0.1419483,0.06820962
0.01219354,0.2258038,0.9699623,0.05841015,-0.1425271,0.06608408
0.01009147,0.224682,0.966521,0.04697307,-0.1447436,0.06459603
0.006383551,0.2268879,0.967717,0.0385053,-0.1349716,0.06534621
0.004780704,0.22877,0.9694167,0.04283385,-0.1273029,0.06799581
0.005432231,0.2285426,0.9704779,0.04806015,-0.13441,0.07186597
0.006016266,0.2296082,0.970919,0.04142882,-0.1370564,0.072091
0.005319194,0.2312071,0.972325,0.03782337,-0.1240706,0.0690685
0.005403844,0.2315744,0.9746697,0.04095548,-0.1177241,0.06581218
0.005937862,0.2285928,0.9747073,0.04094818,-0.1441529,0.06366136
0.005560916,0.2249977,0.9738987,0.04231349,-0.1679967,0.06201382
0.007832241,0.2260577,0.971985,0.04207836,-0.1497483,0.05973797
0.01114488,0.2266089,0.968166,0.03942474,-0.132146,0.05960034
0.01337151,0.2222456,0.9687436,0.03917533,-0.1393736,0.0582064
0.01435212,0.2198511,0.9707611,0.03593154,-0.1318865,0.05477634
0.01245957,0.2223092,0.9690174,0.03418188,-0.1171541,0.05297028
0.01031859,0.2255172,0.9711383,0.03492642,-0.1140481,0.05094946
0.008557355,0.2271304,0.9723887,0.03153768,-0.1054474,0.05122039
0.005977529,0.2266178,0.965578,0.02864599,-0.1048299,0.05173265
0.003491703,0.2269063,0.9587339,0.02733048,-0.1062943,0.04959857
0.003446875,0.2281582,0.9578712,0.0272246,-0.09720568,0.04945725
0.005032272,0.2265689,0.9649419,0.02863033,-0.1007409,0.05042481
0.003926479,0.2240269,0.9723728,0.028339,-0.104683,0.05172604
0.003763831,0.2235589,0.9730872,0.02591034,-0.104962,0.05121304
0.004993609,0.225329,0.9716754,0.02251283,-0.1059949,0.04810282
0.004584737,0.2271708,0.9700981,0.02285083,-0.09708971,0.0473488
0.005561374,0.2261166,0.9695797,0.02486504,-0.09533,0.04481656
0.004138376,0.2241448,0.971024,0.02569717,-0.0956831,0.0407853
0.001599915,0.2234054,0.9728624,0.02859134,-0.09394997,0.04162868
0.003745004,0.2233577,0.972473,0.02829091,-0.09643828,0.04155355
0.006651095,0.2238408,0.9707233,0.02677522,-0.0899843,0.03914309
0.008309576,0.2232877,0.9719162,0.02741104,-0.08859186,0.03877385
0.005450739,0.2215959,0.973018,0.02673093,-0.09906278,0.03804024
0.0009495772,0.2201634,0.9747213,0.03450491,-0.1050966,0.03944405
0.003613648,0.2187422,0.9774671,0.04693678,-0.09566996,0.04243514
0.00552555,0.2185592,0.9746299,0.04307344,-0.08192306,0.03989876
0.003313304,0.2213931,0.967004,0.02082705,-0.08430112,0.03692727
0.004082253,0.2250349,0.9606757,0.003920377,-0.0779317,0.03769853
0.003138991,0.2248737,0.9643169,0.01699996,-0.06806306,0.03667273
-0.0006832995,0.2232821,0.9711856,0.03243149,-0.09074438,0.03374303
-0.001447033,0.2240479,0.9685926,0.0194482,-0.1069086,0.03324096
0.001125671,0.2232883,0.9678461,0.01358965,-0.08645572,0.03510157
0.003945048,0.2223776,0.9710222,0.02166787,-0.07158111,0.03523719
0.003014285,0.2221902,0.9708295,0.01914099,-0.08644309,0.03541939
0.002281394,0.2198497,0.9725955,0.02312622,-0.09586289,0.03626448
0.005213988,0.2192177,0.972142,0.02753825,-0.08614932,0.03367339
0.005639144,0.2188633,0.9678111,0.02093302,-0.08554609,0.03192851
0.003637322,0.2166662,0.9662399,0.01945672,-0.08554299,0.03135124
0.002850307,0.2156957,0.9680193,0.01785399,-0.07997561,0.0286458
0.005077566,0.2190305,0.9738447,0.0184174,-0.08120787,0.02591159
0.008361742,0.2244044,0.9793135,0.02097234,-0.07826953,0.02369383
0.006984917,0.2222104,0.9807635,0.01719122,-0.07802409,0.02421331
0.005790569,0.2189101,0.9793253,0.01825174,-0.08141192,0.02652466
0.005732402,0.220002,0.9731357,0.01903486,-0.07695742,0.02829438
0.002417496,0.2177705,0.9677591,0.01978149,-0.07345318,0.02644957
0.002153141,0.2170542,0.970626,0.02440551,-0.07145202,0.02173887
0.003644201,0.2176015,0.975094,0.02074002,-0.07500489,0.02320359
0.003474332,0.2167423,0.9735434,0.01818189,-0.08109699,0.02383832
0.005720329,0.216994,0.97155,0.01774833,-0.07423463,0.02115309
0.007905835,0.2152006,0.9682968,0.0139827,-0.06786297,0.02149982
0.008181817,0.2150826,0.9629123,0.01702137,-0.07068246,0.01571993
0.006832712,0.21618,0.9703357,0.01861727,-0.0723617,0.01096934
0.005204976,0.2174628,0.9801088,0.01744456,-0.07454635,0.01670547
0.008119312,0.220697,0.975596,0.02169554,-0.07638765,0.02224674
0.01111432,0.2195907,0.9721177,0.02292462,-0.07733774,0.02218635
0.008686729,0.2183084,0.9718949,0.0238116,-0.08166397,0.01903912
0.004564392,0.2183573,0.9700044,0.02775209,-0.08080137,0.01608889
0.001018729,0.2158069,0.9729695,0.02602497,-0.07798431,0.0128994
0.000936208,0.2165786,0.976189,0.02537885,-0.08467109,0.01467483
0.004890546,0.2187666,0.9813395,0.03564006,-0.08879907,0.0197257
0.006301061,0.220697,0.9895572,0.0507165,-0.08649187,0.01688282
0.005916956,0.2239808,0.98437,0.05450283,-0.08986573,0.01546123
0.008209089,0.2229023,0.9632368,0.03550127,-0.09172712,0.01644715
0.01051567,0.2193327,0.9502315,0.01935559,-0.07566797,0.01222549
0.009760503,0.2182049,0.9674185,0.0333685,-0.06085621,0.01222872
0.007285429,0.2182063,0.9884379,0.04534144,-0.0807559,0.01619509
0.006985326,0.2199585,0.9783775,0.03573556,-0.09970216,0.01913467
0.008793617,0.2226668,0.9713345,0.03458583,-0.08028023,0.02000408
0.01036664,0.2236018,0.9804429,0.03839223,-0.07104306,0.01856204
0.01099798,0.225038,0.9741777,0.03347075,-0.09091665,0.01693024
0.01135713,0.2281589,0.9720876,0.03405091,-0.09864071,0.01257296
0.01428307,0.2293726,0.9758437,0.03453082,-0.08860405,0.01122196
0.01720508,0.2266405,0.9691668,0.03194072,-0.08211133,0.01289074
0.01777982,0.2232117,0.9694074,0.03396952,-0.08455815,0.009935435
0.01825673,0.2222133,0.9679931,0.0320648,-0.08306768,0.008685362
0.01783394,0.2205741,0.9667255,0.0285865,-0.07497142,0.007920113
0.01694045,0.2192056,0.9709584,0.02742536,-0.07236836,0.006357328
0.01560431,0.2209892,0.9683259,0.02670921,-0.07468325,0.008177028
0.01474641,0.2220348,0.9694131,0.02865345,-0.07763344,0.007808485
0.01607487,0.2235316,0.9688345,0.02875442,-0.0740293,0.008977018
0.01795371,0.2264694,0.9669958,0.02920496,-0.06040988,0.01298458
0.02012968,0.2283022,0.9700422,0.02877095,-0.051113,0.0135696
0.01993548,0.229413,0.9656518,0.02296072,-0.05397989,0.01238003
0.01867174,0.2263747,0.9647901,0.0202636,-0.06039862,0.009350669
0.02038271,0.2227019,0.9674112,0.02237266,-0.05652768,0.007078416
0.02221867,0.2236095,0.9666359,0.02398141,-0.04879372,0.006264657
0.02404645,0.2238556,0.9707201,0.01966459,-0.04795721,0.002653936
0.02396236,0.2234071,0.9733008,0.01462859,-0.04357708,-0.0004797282
0.02099784,0.2240897,0.9722929,0.01731487,-0.03996651,0.0009341839
0.02110538,0.2253188,0.9711544,0.01768007,-0.04172023,0.003707633
0.02360379,0.2269982,0.9686819,0.01567162,-0.04206436,0.003023329
0.02566841,0.2267385,0.965195,0.01819066,-0.04443915,0.003428691
0.02610994,0.2270445,0.9622342,0.02201772,-0.04593133,0.006095548
0.02683053,0.2292017,0.9611042,0.02603516,-0.04494815,0.0053966
0.03035008,0.2295369,0.9613912,0.02411846,-0.04496739,0.004412954
0.02975391,0.2287529,0.9684567,0.02100817,-0.0472988,0.002690185
0.02793132,0.2283037,0.9795404,0.02562644,-0.04716734,8.982107e-05
0.03002922,0.2275952,0.9820542,0.02434207,-0.03435457,0.0008545701
0.02817154,0.22774,0.9716208,0.00915951,-0.01412364,0.001695599
0.02419949,0.2289416,0.9606003,-0.005349854,0.0002415804,0.001493453
0.02156102,0.2295196,0.9647653,-0.005334488,0.004312094,0.0003934285
0.02151427,0.230071,0.9674156,-0.00413687,0.01431917,-0.002010501
0.02521301,0.2308073,0.9590742,-0.01496847,0.03949496,-0.002526715
0.02504589,0.230431,0.9573436,-0.02313966,0.05119307,-0.0001546761
0.02354436,0.2295459,0.956955,-0.02757539,0.04142604,0.00170691
0.02318047,0.2285827,0.9572969,-0.03065622,0.03603047,-0.0009814419
0.02255003,0.2271152,0.9643634,-0.0277776,0.03802884,-0.003761148
0.02604568,0.2251298,0.9678465,-0.0270171,0.03656882,-0.002619623
0.02672783,0.2244053,0.9675752,-0.02164174,0.03597347,-0.00335405
0.02278876,0.2251305,0.9667345,-0.01829409,0.03810871,-0.006885056
0.01935959,0.2241774,0.9680182,-0.02606983,0.03842612,-0.008967622
0.01578273,0.2228982,0.9682168,-0.02613733,0.04139797,-0.009228714
0.0148656,0.2232058,0.9651475,-0.02277912,0.04511788,-0.009123536
0.01483324,0.2240282,0.9673302,-0.02201622,0.04355801,-0.01033894
0.01356586,0.2261728,0.9684323,-0.02411617,0.03813224,-0.01079959
0.01216243,0.2268274,0.969099,-0.02893824,0.03144043,-0.007739397
0.01189841,0.2236297,0.9724317,-0.02127457,0.03021096,-0.005808108
0.01322855,0.2203182,0.9705342,-0.01529563,0.02949363,-0.006437441
0.01259981,0.2187521,0.970965,-0.01939825,0.02299716,-0.006398833
0.01433626,0.2192149,0.9718359,-0.01890425,0.0215894,-0.00905667
0.01821547,0.2200033,0.9697278,-0.01750581,0.02368046,-0.01186498
0.01738006,0.2191203,0.9716784,-0.01781825,0.02360117,-0.008930605
0.0136171,0.2197231,0.9733385,-0.0193804,0.02548849,-0.006324085
0.008957539,0.2212109,0.9759489,-0.01944179,0.02396323,-0.006796936
0.006728911,0.2206333,0.9778942,-0.01627667,0.01910968,-0.006964654
0.004894924,0.2192876,0.9755097,-0.0135481,0.01619829,-0.00670069
0.002802621,0.218685,0.9759111,-0.01053007,0.01159356,-0.005592502
0.005965823,0.2187877,0.9754728,-0.01088009,0.00905101,-0.005282768
0.007283715,0.2171867,0.9727541,-0.0103329,0.01008151,-0.006805844
0.007776735,0.2165219,0.9731951,-0.003237737,0.008489789,-0.007689565
0.01206881,0.2183616,0.9728324,0.004092767,0.007213804,-0.006444482
0.01260271,0.2178564,0.9716551,0.008208765,0.006602075,-0.005060891
0.0107493,0.2175781,0.9693991,0.004219233,0.000782351,-0.006895719
0.009154227,0.2171015,0.965444,-0.01166418,-0.001860956,-0.01024081
0.008886074,0.2154256,0.9673337,-0.02556559,0.01669641,-0.01262974
0.008433915,0.2162072,0.9719991,-0.01704408,0.03540895,-0.01299704
0.004068028,0.2143003,0.9767756,-0.004632823,0.01711301,-0.009477878
0.003370449,0.2131602,0.9811786,-0.01362133,0.0001573881,-0.005077481
0.004858721,0.2165004,0.9767869,-0.01659976,0.02051072,-0.00395105
0.003760209,0.2169491,0.972871,-0.01027038,0.02704974,-0.00464774
0.004850968,0.2166475,0.9742352,-0.01517864,0.001996976,-0.004320701
0.007435842,0.2170948,0.9733959,-0.01402257,-0.01000148,-0.005590011
0.01163495,0.218183,0.9755711,-0.01107614,0.006691068,-0.008088488
0.01318775,0.2199904,0.9772601,-0.01292144,0.02299105,-0.007156858
0.008204649,0.2176294,0.9756218,-0.009405124,0.0151495,-0.006952225
0.004429607,0.2157054,0.9747847,-0.01110792,0.01183559,-0.008179831
0.003489194,0.2170636,0.9731343,-0.01382835,0.02236034,-0.007575615
0.002981568,0.2177278,0.9743161,-0.01383686,0.01990055,-0.008544459
0.004279484,0.2172784,0.9761584,-0.01435469,0.01821145,-0.0103625
0.006283917,0.2136993,0.9764455,-0.01123868,0.01831571,-0.01091166
0.006059928,0.2098125,0.978499,-0.01144334,0.01420608,-0.008555001
0.005578748,0.2116744,0.9786473,-0.01140114,0.02118051,-0.004827296
0.006921655,0.2150887,0.9774893,-0.01019888,0.02264622,-0.006066137
0.006350273,0.2155322,0.9776504,-0.01238774,0.01425713,-0.008681959
0.006491998,0.2161563,0.9773559,-0.01183274,0.009859471,-0.009127007
0.0076483,0.2138455,0.9755106,-0.01077428,0.01326045,-0.01153312
0.005504171,0.2095444,0.9742508,-0.01067924,0.02043879,-0.01377376
0.005222497,0.2127746,0.9761871,-0.01115297,0.01732905,-0.01217209
0.005943276,0.2155691,0.977182,-0.01177334,0.0165502,-0.01065188
0.00518785,0.2130712,0.9770181,-0.009982287,0.02039748,-0.0113645
0.005813944,0.2136905,0.9790992,-0.008551684,0.0175565,-0.01042042
0.00548819,0.213602,0.9790944,-0.008306001,0.01873193,-0.00849542
0.005420665,0.2126638,0.9759947,-0.008493691,0.01687027,-0.008796664
0.005819527,0.2143405,0.9728707,-0.00697033,0.01243514,-0.00999687
0.00528258,0.2139504,0.9703382,-0.004685599,0.01183737,-0.009621459
0.005727958,0.2126036,0.9708758,-0.002804371,0.007928639,-0.009086196
0.005538184,0.2126188,0.9780277,0.003141789,0.008341969,-0.01138873
0.005432571,0.213297,0.9851377,0.006506418,0.008524763,-0.01260633
0.006108328,0.2133553,0.9782118,-0.0003991313,0.006832813,-0.01123657
0.00715859,0.209532,0.9692677,-0.005525388,0.01679017,-0.01119457
0.008447671,0.2058455,0.9751333,0.002014285,0.02461677,-0.0110442
0.005512862,0.2092509,0.9798198,0.00756695,0.01364812,-0.01072097
0.001053524,0.2129959,0.9798925,-1.086807e-05,0.001633166,-0.01083854
0.0008614517,0.2107767,0.9819569,-0.004988977,0.003999583,-0.01116391
0.001761731,0.2104227,0.9782502,-0.002184975,0.0008354705,-0.01196565
0.001330408,0.2121196,0.9759827,-0.002087913,-0.01235411,-0.009979638
0.001446605,0.2115756,0.976205,-0.002741114,-0.01492663,-0.008037787
0.00259771,0.2127006,0.9753246,-4.49328e-05,-0.003758734,-0.009369602
0.003882804,0.2128117,0.9775987,0.00341444,0.008297673,-0.009921339
0.004874852,0.2109783,0.9765936,0.005727773,-0.001574071,-0.009240978
0.005933025,0.211193,0.9783828,0.004989451,-0.01930188,-0.009205973
0.007301659,0.2110333,0.9823715,0.00237335,-0.01652256,-0.009706734
0.007170379,0.2106689,0.9790015,0.002296366,-0.01537521,-0.009696293
0.00556217,0.2097521,0.9784341,0.005138514,-0.01813408,-0.009525595
0.005432608,0.2084026,0.9788233,0.01014407,-0.01626748,-0.008991497
0.00565528,0.2101215,0.9770628,0.01333048,-0.01990018,-0.004709055
0.005413282,0.2113388,0.9774854,0.01048331,-0.01621321,-0.001471361
0.005894934,0.212226,0.9754339,0.009206176,-0.01390096,-0.005872856
0.006530552,0.2158083,0.9741732,0.01193809,-0.02215276,-0.009902809
0.008443998,0.2174781,0.9747494,0.0122514,-0.02505104,-0.008957392
0.01080864,0.2166255,0.9721281,0.01103586,-0.02068263,-0.008734008
0.01227877,0.2164158,0.967656,0.01019757,-0.01482227,-0.008866994
0.01301027,0.2169774,0.9657646,0.01063874,-0.01835699,-0.007835294
0.01229805,0.216923,0.9667842,0.01166408,-0.02205516,-0.008029779
0.01236064,0.2145816,0.9667983,0.01162591,-0.01773512,-0.01239924
0.01279292,0.2116423,0.9666102,0.01169068,-0.01705824,-0.0162205
0.01260708,0.2122148,0.9666614,0.009869055,-0.01401842,-0.01245954
0.01438425,0.2151228,0.9666124,0.008675581,-0.01454111,-0.009563623
0.01606271,0.21559,0.9675429,0.01375944,-0.02107045,-0.01054079
0.01622925,0.2156457,0.9702092,0.01874543,-0.02099759,-0.009204208
0.01668705,0.218132,0.9750635,0.01815596,-0.02279594,-0.008612398
0.01723164,0.2197196,0.9778906,0.02234073,-0.03077637,-0.008535143
0.01869978,0.2180697,0.9791946,0.03404447,-0.04209378,-0.007384632
0.02170782,0.215574,0.9766494,0.03538818,-0.044093,-0.006713907
0.02312806,0.2169014,0.9642075,0.02299664,-0.02697007,-0.006274213
0.02174888,0.2192396,0.9568333,0.01513943,-0.007488315,-0.006650553
0.02091485,0.2194555,0.9691381,0.01913408,-0.0002399793,-0.008731561
0.02007277,0.2213171,0.9812114,0.02466237,-0.01543608,-0.01183007
0.01877718,0.2236348,0.9722595,0.02387471,-0.03235312,-0.01172637
0.01960152,0.2252528,0.9654009,0.02315517,-0.02498637,-0.009950677
0.0196907,0.2238879,0.9741867,0.02327518,-0.02332893,-0.009607427
0.02032352,0.2205128,0.9735666,0.02109223,-0.0299563,-0.00761463
0.02632493,0.2217755,0.9649684,0.02192391,-0.0233629,-0.007119064
0.03278496,0.221743,0.9622681,0.02192846,-0.01814708,-0.008863101
0.03332345,0.2200769,0.9656489,0.02189491,-0.01415574,-0.009246553
0.03177426,0.2214335,0.9723584,0.02631994,-0.01624081,-0.01149454
0.03320062,0.2215605,0.9693317,0.02752365,-0.02585577,-0.01338329
0.0311747,0.2231432,0.9652479,0.02523955,-0.02213839,-0.0110425
0.02651059,0.2258172,0.9661606,0.02308352,-0.02129712,-0.008510624
0.0276986,0.2268463,0.9613731,0.02340664,-0.02663732,-0.008014028
0.02840489,0.226767,0.9625542,0.02491346,-0.02090268,-0.01047112
0.02714254,0.2257001,0.966458,0.02265861,-0.01291885,-0.01354433
0.02815709,0.2265961,0.9667086,0.01937746,-0.002876838,-0.01209636
0.02860093,0.2256513,0.9704636,0.01545184,-0.0004850282,-0.01070276
0.03207636,0.2241782,0.9709559,0.01258442,-0.00136464,-0.01188197
0.03654054,0.2255005,0.9695038,0.008178717,0.0164357,-0.01020018
0.03589319,0.2244874,0.9639893,-0.004858037,0.03275065,-0.008671732
0.0351373,0.2229203,0.957146,-0.01675281,0.04626332,-0.01040582
0.03492897,0.2210715,0.9614431,-0.02254222,0.06097199,-0.01228171
0.03268885,0.2203575,0.964324,-0.02629437,0.0593363,-0.01414391
0.03225797,0.223393,0.9618778,-0.02895472,0.05912499,-0.01555703
0.03147769,0.2250959,0.9641738,-0.03296829,0.06302797,-0.01672967
0.02758601,0.2263294,0.9691974,-0.03259499,0.06283262,-0.01672938
0.02652576,0.2276234,0.9729847,-0.02921252,0.06471867,-0.01340735
0.02502516,0.2274644,0.9723958,-0.03058581,0.06221097,-0.01157708
0.02132053,0.2258937,0.969814,-0.02972908,0.06206332,-0.01157953
0.02351216,0.2223758,0.9690928,-0.0236194,0.06021209,-0.009041272
0.0264092,0.2217342,0.9694007,-0.01616573,0.05129961,-0.007425322
0.02702869,0.2234692,0.9674704,-0.01390658,0.05037042,-0.008488924
0.02769987,0.2238056,0.9586258,-0.02543688,0.05804813,-0.008618923
0.02432179,0.2235235,0.9525425,-0.03754356,0.07413623,-0.006676051
0.01896862,0.2225243,0.9667212,-0.0356102,0.08320452,-0.006204375
0.0137873,0.2220438,0.983125,-0.02942691,0.07022464,-0.009051578
0.01381125,0.2228994,0.9746882,-0.02723194,0.06161675,-0.01038429
0.01721473,0.2258245,0.9663161,-0.02858618,0.07227131,-0.01173193
0.01454199,0.2282357,0.9715952,-0.03161685,0.07816698,-0.01599205
0.01481834,0.2243117,0.9677234,-0.0319651,0.06448947,-0.01572382
0.01745329,0.2195083,0.9620703,-0.03014473,0.05434328,-0.01360562
0.01587099,0.220544,0.9605019,-0.02916111,0.05871499,-0.0143212
0.01712925,0.2214446,0.9623749,-0.02826996,0.0596926,-0.01235495
0.01683338,0.2194179,0.9717061,-0.02806443,0.056214,-0.01261633
0.0158111,0.219194,0.9705494,-0.03101389,0.05054826,-0.01411762
0.01603561,0.2196676,0.9681087,-0.03202382,0.04351407,-0.009908472
0.01179731,0.2197889,0.9730885,-0.02750957,0.04543761,-0.00715248
0.0106039,0.2222613,0.9707691,-0.02533759,0.04855947,-0.006267239
0.01314445,0.2238584,0.9738763,-0.02660399,0.0415049,-0.00651524
0.01421583,0.2208129,0.9777968,-0.02616464,0.03761167,-0.009360532
0.01336275,0.2163773,0.9711337,-0.02454767,0.04346257,-0.007503114
0.01119586,0.21594,0.9683554,-0.02252904,0.04462175,-0.006091592
0.01135544,0.217303,0.9713565,-0.02145963,0.03790142,-0.01108281
0.01092379,0.2166055,0.9753221,-0.02181725,0.03220536,-0.01299025
0.01064042,0.2174451,0.9754924,-0.02273118,0.03386067,-0.009951046
0.01103874,0.2186287,0.9743295,-0.02248819,0.0370873,-0.007995008
0.009403612,0.2176774,0.9756265,-0.01898301,0.03522321,-0.007351711
0.0100423,0.2169625,0.974605,-0.01482366,0.03573139,-0.007415195
0.009075612,0.2157623,0.9750355,-0.01190015,0.03448494,-0.007956491
0.005595201,0.2155323,0.9753149,-0.01326247,0.0301337,-0.008910691
0.004153891,0.2163993,0.9744862,-0.01999691,0.03052318,-0.01009896
0.005046535,0.2156829,0.9758494,-0.0242319,0.02914548,-0.007465638
0.008337664,0.2145753,0.977931,-0.02135457,0.02602422,-0.004199419
0.007147419,0.2129131,0.9854605,-0.01138714,0.02013505,-0.005909604
0.006144682,0.2117437,0.9910098,-0.0006046484,0.01243915,-0.007681006
0.009875336,0.2127419,0.986091,0.003275983,0.01338968,-0.008277018
0.009754197,0.2125796,0.9795718,0.004802833,0.01473855,-0.009865761
0.009530606,0.2110196,0.9718447,0.005556371,0.01388105,-0.01030676
0.008755475,0.2103745,0.9637622,-0.0009172163,0.01983253,-0.009670571
0.005716035,0.2106115,0.970559,-0.008489499,0.0237091,-0.008918144
0.005473649,0.2130528,0.9822706,-0.0064943,0.01847433,-0.009137739
0.005074211,0.2150884,0.9768567,-0.005785081,0.01760195,-0.01073334
0.004875254,0.2144778,0.9735661,-0.01163444,0.02833218,-0.01050758
0.004065548,0.215317,0.9788669,-0.01017106,0.03421689,-0.006346434
0.003394009,0.2152437,0.975453,-0.00841573,0.02351791,-0.001872484
0.004007156,0.2120948,0.9761574,-0.01128354,0.01051965,-0.001996138
0.002819326,0.2104986,0.9786964,-0.009766069,0.01356864,-0.003903006
0.00615447,0.2103582,0.9743856,-0.01003219,0.02416385,-0.005767868
0.009546126,0.2087917,0.9745315,-0.01123664,0.02702313,-0.009992916
0.005436556,0.2064295,0.9766403,-0.01099499,0.02340678,-0.009465046
0.002683277,0.2081507,0.9796238,-0.01140891,0.01662673,-0.005181705
0.003377539,0.2110561,0.9822314,-0.006876206,0.01657005,-0.005871592
0.003019333,0.2085365,0.9834966,-0.004573818,0.01949525,-0.005410914
0.002263421,0.2074835,0.9834047,-0.009002621,0.01465653,-0.00407187
0.002973061,0.2093566,0.9767562,-0.01136744,0.01178975,-0.005515194
0.00337937,0.2098356,0.9737024,-0.0100502,0.008117317,-0.005618974
0.004823142,0.2121464,0.9753907,-0.009413554,0.006279685,-0.006932235
0.01003041,0.2142444,0.9768353,-0.01202544,0.008567417,-0.007178126
0.0121677,0.2148556,0.9785832,-0.01444384,0.006456993,-0.006414615
0.009299629,0.21317,0.9764184,-0.01541343,0.01842215,-0.009330843
0.005609488,0.2087599,0.9761054,-0.01637968,0.03202475,-0.01051041
0.002247775,0.2097026,0.9763027,-0.01567847,0.0227865,-0.008292174
-0.0004403698,0.2133796,0.974219,-0.01367522,0.01521575,-0.004893147
-0.003605303,0.2131348,0.9740929,-0.0102312,0.01756126,-0.00281831
-0.003649025,0.2098809,0.9756525,-0.008046527,0.01638476,-0.002426465
-0.001724556,0.2052534,0.97917,-0.01005307,0.01315187,-0.0004486132
-0.002239815,0.2067856,0.9779069,-0.01117498,0.01065403,-0.00111272
0.001342059,0.2111726,0.9757195,-0.006311961,0.007582094,-0.004814887
0.006139197,0.2110889,0.9771824,0.000390839,0.005153584,-0.006310513
0.004797195,0.2123457,0.9758208,0.001259143,0.006446648,-0.00471772
0.00588104,0.2128557,0.9764181,0.0009064351,0.009493483,-0.002866665
0.009898813,0.2118619,0.9768539,0.004898648,0.009635325,-0.0058443
0.008153474,0.2120915,0.9739388,0.01170378,0.004804018,-0.008484373
0.005608393,0.2105245,0.9679956,0.01473738,0.0007353794,-0.005840271
0.005754038,0.2109973,0.9600969,-0.002664698,0.006592636,-0.004191623
0.005177695,0.2110995,0.9655729,-0.02007504,0.02426836,-0.002761875
0.004411142,0.2082234,0.9788744,-0.0009847889,0.03386582,-0.0006652048
-0.0004332383,0.208266,0.9849627,0.01823071,0.005777667,-0.003800554
-0.005605,0.2102518,0.9873416,0.007490392,-0.02718995,-0.006895482
-0.0001434497,0.2121461,0.9836564,0.004336483,-0.01812713,-0.002041519
0.005559185,0.2126469,0.9779013,0.009485396,-0.01314859,0.002356524
0.002747056,0.2123121,0.9767032,0.006322259,-0.03328452,-3.357757e-05
0.00390078,0.2117982,0.9749666,0.01194879,-0.02961136,-0.0007968108
0.008961482,0.2101405,0.9738854,0.01516719,-0.01095812,0.0004575
0.008854858,0.2094717,0.9745039,0.00910838,-0.0001187462,-0.001108799
0.008766178,0.2080113,0.9770722,0.008526412,-0.004767497,-0.002346326
0.01035556,0.2077294,0.9780497,0.008124276,-0.02199888,-0.003089019
0.009095752,0.2089374,0.9747087,0.008615898,-0.01596598,-0.002058829
0.006317801,0.2073805,0.9769912,0.007562865,-0.00979421,0.002085972
0.002291247,0.2082031,0.9792774,0.004970548,-0.0181453,0.003969248
0.0002614676,0.2098483,0.9781941,0.009826951,-0.02092241,0.002287758
0.0031965,0.2089142,0.9800308,0.01440652,-0.03547527,-0.0001619164
0.006227119,0.2098548,0.9765428,0.01857057,-0.03459269,-5.554961e-05
0.008456644,0.2112111,0.9735168,0.0189229,-0.02616544,0.001703982
0.01062962,0.212191,0.9740042,0.01423748,-0.03806569,0.001864918
0.0136517,0.2137605,0.97236,0.0148894,-0.03288466,0.002210568
0.0191509,0.2140317,0.9722054,0.01434847,-0.02469647,0.0007302043
0.02060543,0.2128891,0.9684095,0.01447453,-0.02082453,-0.002446095
0.01762607,0.2121439,0.9674373,0.01550025,-0.01656092,-0.003729948
0.01654701,0.2125394,0.9727243,0.01214443,-0.02899996,-0.003579521
0.01469276,0.2129604,0.9737885,0.01141559,-0.02917624,-0.0007244118
0.01215444,0.2143779,0.9722924,0.008998907,-0.01827236,0.000823212
0.01215996,0.2167422,0.9701479,0.008202653,-0.01235663,-0.0001849528
0.01176868,0.2171619,0.9726532,0.01155698,-0.01492081,0.0006197926
0.01077306,0.2163534,0.9766726,0.0117217,-0.02875151,0.001071187
0.01119571,0.216112,0.9741842,0.01552982,-0.02891026,0.002016671
0.01220009,0.2141981,0.9723683,0.01800975,-0.0244643,0.003292525
0.01269778,0.211297,0.9735711,0.01703835,-0.02761457,0.002962294
0.0137847,0.2113624,0.9810897,0.02524561,-0.03997355,0.002847412
0.01867384,0.2115337,0.9893855,0.03701747,-0.05856014,0.002774731
0.02432426,0.2110751,0.984577,0.03709066,-0.04495068,0.00364569
0.02372804,0.2140291,0.9743892,0.01638765,-0.01625926,0.003880436
0.02095471,0.216439,0.9680316,-0.002313936,-0.00073207,-0.0001512921
0.02009861,0.2161305,0.9676377,0.01097821,0.008538846,-0.009968236
0.01724881,0.2164439,0.9692108,0.0231206,0.0005437615,-0.02024625
0.01682048,0.2160814,0.9667024,0.006315032,-0.002578346,-0.02139447
0.01758558,0.2149994,0.9701619,-0.004243198,0.004297889,-0.01861495
0.01491518,0.2163864,0.9749772,-0.00140999,0.002467931,-0.01624004
0.01951534,0.2190798,0.9662101,-0.002667398,0.01375442,-0.009593721
0.0256826,0.2189879,0.9593027,0.0005893319,0.03694343,-0.00630125
0.02318997,0.2149518,0.9657782,0.002321075,0.05401885,-0.00789183
0.02146353,0.2115567,0.9750396,-0.00487139,0.05385344,-0.006002824
0.01896004,0.2155691,0.9809568,-0.01080052,0.04514543,-0.003122736
0.01512002,0.2230703,0.9782528,-0.01309302,0.05424906,-8.941403e-05
0.01585415,0.2246811,0.9721575,-0.01737052,0.06056249,0.00253208
0.01383246,0.2233545,0.9736009,-0.03021016,0.05587182,-0.0002442029
0.01004478,0.2233306,0.9738486,-0.03902871,0.04624361,-0.003824243
0.01338877,0.2223817,0.9700104,-0.03735349,0.02882899,-0.003834428
0.01685271,0.2202922,0.9702738,-0.03782637,0.04325688,-0.002186067
0.01240054,0.2177641,0.9755239,-0.03482346,0.06018415,-0.001486536
0.007687198,0.2142624,0.9849862,-0.02583401,0.0313612,-0.001397578
0.006891481,0.2080295,0.9877601,-0.00970516,0.004833334,0.001170451
0.008555348,0.2052012,0.9790519,0.0171154,0.002088964,0.002300179
0.01267782,0.2099179,0.9704982,0.03111612,0.02301281,0.001628189
0.01207377,0.2124527,0.9691108,0.01970767,0.05373224,0.0002691484
0.006523079,0.2123791,0.9827203,0.009246168,0.04566233,-0.005028395
0.003646271,0.2135405,0.9939139,0.0168643,0.01248591,-0.007630207
0.007651706,0.2149093,0.9727769,0.0168149,-0.004806211,-0.007005889
0.01557156,0.2184664,0.9516097,0.0004007876,0.0158825,-0.006268231
0.01569459,0.2189216,0.9619311,-0.0124249,0.05132246,-0.003300868
0.01022735,0.2160363,0.9694326,-0.02175092,0.04994876,-0.003381973
0.006289615,0.2129714,0.9666016,-0.02061139,0.04317523,-0.004045435
0.003265514,0.2072877,0.9747551,-0.01052904,0.04596872,-0.002027861
0.004451125,0.2075371,0.9770851,-0.005465005,0.03208176,-0.001680313
0.005487327,0.2126068,0.9723751,-0.004293652,0.03459011,-0.002610975
0.005183846,0.212452,0.9712969,-0.011829,0.03977595,-0.006203899
0.006205481,0.211438,0.961934,-0.01792302,0.03295334,-0.008736378
0.004046717,0.2101332,0.9588877,-0.01833451,0.05029802,-0.007104596
-0.000362233,0.209269,0.9728236,-0.01830147,0.05847618,-0.008110967
-0.006681404,0.2122286,0.9859881,-0.01319248,0.03303223,-0.008111034
-0.008951411,0.2138424,0.988227,-0.01460215,0.01209646,-0.001473178
-0.005601823,0.2141089,0.9810411,-0.01289015,0.01768679,0.003737317
-0.006883859,0.2134716,0.9785516,-0.001861571,0.0246704,0.003968112
-0.006414003,0.2108309,0.9791906,0.003502782,0.01266584,0.003891295
-0.0018685,0.2094471,0.9757757,0.003703845,0.01311817,0.003246869
0.0008321262,0.2101549,0.9749787,-0.004177209,0.01734868,0.0008103472
0.00382098,0.2116971,0.9736331,-0.008045144,0.009200555,-0.001228816
0.002288528,0.2103255,0.9761773,-0.005879618,0.008942723,-0.001408446
-0.0003068955,0.2086171,0.9807769,-0.008895204,0.00246413,-0.003172613
0.0001224417,0.2093686,0.9796182,-0.007453877,0.0001212328,-0.006905825
-0.002803172,0.2078199,0.9798086,-0.006993201,0.007621184,-0.005589054
-0.003694913,0.2070577,0.9741778,-0.00768257,0.01322315,-0.003897891
-0.001987803,0.2072887,0.9675037,-0.006588325,0.03403718,-0.006060279
-0.003077642,0.2070918,0.97161,-0.01055233,0.04770472,-0.004981
-0.002904142,0.2108698,0.9719535,-0.01439699,0.04317085,-0.00542949
-0.001742363,0.2136245,0.9709404,-0.01914638,0.03591813,-0.01024313
0.0004981305,0.2124268,0.9760326,-0.02037944,0.02666512,-0.01354039
0.004017815,0.2109914,0.9775054,-0.01629521,0.02513184,-0.0138285
0.002687447,0.2100786,0.9782979,-0.009293538,0.02591768,-0.01090011
-0.0008620397,0.209574,0.9815094,0.0004397245,0.02691544,-0.00947957
-0.002177609,0.2094834,0.9827979,-0.003756092,0.0261494,-0.007850959
-0.004515492,0.2109023,0.9822939,-0.01124937,0.01775831,-0.000572529
-0.007071301,0.2141265,0.9803553,-0.00719938,0.01242574,0.008340047
-0.007401955,0.2178277,0.97772,-0.009489297,0.01126781,0.01417467
-0.007121113,0.2173508,0.976047,-0.01261115,0.01688643,0.01174116
-0.008550417,0.2139322,0.9764933,-0.007165285,0.01912883,0.006643734
-0.01019275,0.2125588,0.9767468,-0.005902569,0.006285605,0.006380082
-0.008013341,0.20873,0.9768926,-0.009704872,-0.005181305,0.005411711
-0.005359904,0.206668,0.978237,-0.01257519,-0.006164661,0.004010935
-0.00448637,0.207617,0.9768618,-0.01253759,-0.001992928,-0.0009329142
-0.002231376,0.2019499,0.9757467,-0.0144089,-0.003257596,-0.0080409
-0.002124131,0.1984951,0.9772677,-0.01650712,-0.004507148,-0.006105779
-0.003578576,0.2021213,0.9789668,-0.002808161,-4.270669e-05,-0.004105106
-0.002464355,0.2036867,0.981351,0.01169702,0.0005088431,-0.005347213
-0.002927983,0.2032471,0.9809643,0.00326586,0.003723291,-0.002662825
-0.006425316,0.2051951,0.9803362,-0.004235027,0.005589862,-0.002481877
-0.01290068,0.2090355,0.9836922,0.00164321,-0.002491809,-0.003051033
-0.01755483,0.2094459,0.9844643,0.0001788428,-0.01641022,-0.001262503
-0.009203387,0.2101789,0.9794041,-0.002440094,-0.02584798,-0.001415349
-3.743732e-06,0.2138448,0.9744474,0.000245536,-0.01137496,-0.0007584372
-0.004320569,0.2127475,0.9762197,-0.004324956,0.00243602,0.001114024
-0.006231649,0.2108972,0.9799248,-0.007173601,-0.01011889,0.002547229
-0.00335163,0.2096239,0.9806385,-0.002899368,-0.01776893,0.00340813
-0.006356367,0.2052985,0.9824437,-0.001346127,-0.01225856,0.002763474
-0.006199595,0.2045263,0.9815473,-0.0009101587,-0.01163863,0.002924438
-0.004385637,0.2048054,0.9793162,0.0009374869,-0.01129421,0.001247355
-0.006418581,0.2030854,0.9811347,0.003190181,-0.01064315,-0.00606919
-0.005360105,0.2036275,0.9806901,0.001875733,-0.01348979,-0.01046816
-0.005350279,0.2028258,0.9803694,-0.0005486021,-0.01229902,-0.00330277
-0.007080772,0.2020342,0.982927,0.003047846,-0.01431872,0.00517154
-0.006327896,0.2033185,0.9835165,0.008503084,-0.03045094,0.003238049
-0.005485659,0.201648,0.983946,0.01533826,-0.04658746,0.001892631
-0.003531682,0.2011961,0.9849286,0.01984871,-0.04859921,0.002737159
-0.003358742,0.2043163,0.9856232,0.01996351,-0.04753038,-0.003285593
-0.00286024,0.2080225,0.9813583,0.02213678,-0.05424143,-0.003714594
0.00152479,0.2111194,0.9725268,0.01985825,-0.05268325,-0.000422294
0.001711771,0.2098134,0.9707113,0.0183956,-0.04242639,-0.002054833
-0.0009264626,0.2087037,0.9734408,0.02652329,-0.04415732,7.177075e-05
-0.001134779,0.2094031,0.9743708,0.0338224,-0.06009917,0.0006881616
0.0009868214,0.2068943,0.9752358,0.03650971,-0.07767325,0.001568327
0.004183668,0.2063812,0.9762758,0.03751006,-0.0694326,0.005826294
0.003856803,0.2074532,0.9796171,0.04238707,-0.05804244,0.002329387
0.003619463,0.2066684,0.9800514,0.04959689,-0.0831094,-0.0006362591
0.005298855,0.2073576,0.9750603,0.05111857,-0.09700724,0.0008756813
0.00573622,0.2091768,0.9720076,0.0469076,-0.08240227,0.0008941598
0.008437176,0.2119026,0.9665936,0.03271905,-0.06668448,0.001849676
0.01014894,0.2132279,0.9626213,0.02090922,-0.05125494,0.001995239
0.009245049,0.2113062,0.9754346,0.03116319,-0.05606815,0.002552386
0.01005565,0.2110155,0.9887719,0.04154504,-0.06871516,0.001843697
0.01027093,0.2131072,0.9814389,0.03239111,-0.0669674,-0.0007518295
0.0122687,0.2147831,0.9705432,0.02714199,-0.06366659,0.0001279501
0.01599929,0.2160115,0.9690169,0.03317995,-0.05810534,0.0005015945
0.01613311,0.2179046,0.9686331,0.03395748,-0.05640151,0.0009717528
0.01748317,0.2198183,0.9696632,0.03507136,-0.05250855,0.001583154
0.02052562,0.2203674,0.9689758,0.03288839,-0.03694442,-0.00239822
0.01955433,0.2208089,0.9658047,0.01881294,-0.02474793,-0.006769123
0.01802283,0.219879,0.9670553,0.004663628,-0.004429391,-0.01049811
0.01907088,0.2169979,0.9660474,-0.01092638,0.0161931,-0.0124298
0.01969274,0.2158394,0.9625267,-0.01910056,0.02137727,-0.01084531
0.01905288,0.2149687,0.960795,-0.01502827,0.0474044,-0.007131879
0.01713393,0.2135721,0.9613224,-0.01798489,0.07442815,-9.70058e-05
0.01303699,0.2145855,0.9690893,-0.02086722,0.06129779,0.004563347
0.009715923,0.2160438,0.976731,-0.01805989,0.04019816,0.006599744
0.009302308,0.216884,0.9801616,-0.01270763,0.0171126,0.00923585
0.01019026,0.2203879,0.9799782,-0.004944773,-0.002294064,0.006734517
0.01164532,0.2245608,0.9728408,-0.01001947,0.008194056,0.002088368
0.01341598,0.2231908,0.9674956,-0.01686132,0.01892385,-0.000938754
0.01544971,0.2183477,0.9692131,-0.01339613,0.02360013,-0.000983864
0.01624581,0.2157764,0.9732501,-0.01608965,0.02925941,0.002058566
0.01259294,0.2157749,0.9732151,-0.01947197,0.02348202,0.0009273727
0.00793465,0.2156066,0.9711393,-0.015361,0.02928215,0.0002997297
0.009568483,0.2130301,0.9708523,-0.01496446,0.04077353,0.00150498
0.01285147,0.2119708,0.9699258,-0.01984556,0.04849636,-0.0007404485
0.01130214,0.2111236,0.9758149,-0.02261966,0.05808299,2.00117e-05
0.008182579,0.2070543,0.9836008,-0.01636394,0.03298972,0.001425227
0.004471017,0.2080616,0.9823319,-0.003358109,-0.007218849,0.0006053162
0.004441235,0.211502,0.9796993,0.002584513,-0.01389787,0.001260649
0.006767773,0.2121159,0.9778604,-0.001616024,-0.005777832,0.002209642
0.003064275,0.214521,0.9756896,-0.005589261,0.003141665,0.003013914
0.002175423,0.2144646,0.9750792,-0.008519963,0.01349766,0.0002729408
0.005391202,0.2130786,0.9725145,-0.01495351,0.01467698,-0.003020089
0.005538129,0.2143256,0.9681362,-0.01597621,0.01959981,-0.001257467
0.00582869,0.2139076,0.9694205,-0.008755625,0.03840492,0.001427724
0.004360713,0.2134412,0.9727003,-0.0002808118,0.04537614,0.002067955
0.004417239,0.2130974,0.970073,0.007947338,0.04208771,0.0007320404
0.00821935,0.2111826,0.9705679,0.00138052,0.04989918,0.002232931
0.01002347,0.2116264,0.97527,-0.009286636,0.04456252,0.004916516
0.008274613,0.2157668,0.9840474,0.008310723,0.01380143,0.0021336
0.003602412,0.2188879,0.9960198,0.03121091,-0.02948832,9.546828e-05
0.002655196,0.2156503,0.9913507,0.04158187,-0.05281259,-0.001015139
0.003289376,0.2112045,0.9773739,0.04792058,-0.02012336,-0.00228516
0.00185179,0.2129351,0.9673699,0.03950924,0.007439989,0.0003968697
0.002419108,0.2158819,0.9584251,0.03217073,-0.007509591,0.001039106
0.001241892,0.2171986,0.9632436,0.03302124,-0.00721807,0.003333847
0.00177727,0.2190289,0.9716336,0.02458668,0.001140918,0.007581526
0.004398665,0.2195104,0.9716572,0.01509907,-0.003412787,0.004840004
0.005300965,0.2196035,0.9736633,0.008211734,-0.001186361,0.002940013
0.009527588,0.2193276,0.9713764,0.001851019,-0.0002134153,0.00162922
0.01127385,0.2182215,0.9687518,-0.005648424,0.004240622,-0.003518923
0.01033116,0.2174301,0.9668371,-0.01600619,0.02836079,-0.006832012
0.01112565,0.214226,0.9603553,-0.01732566,0.06700835,-0.007943911
0.006514559,0.2120104,0.9634195,-0.01925053,0.09222623,-0.00481666
-0.0007593718,0.2149864,0.9692785,-0.02807175,0.06577248,-0.001181976
-0.003881059,0.2179291,0.9765867,-0.02439102,0.01243463,-0.0006450022
-0.002448729,0.2168888,0.9908892,-0.01576571,-0.01541445,-0.0001435255
-0.0001626284,0.2158,0.9942499,-0.004055872,-0.0163895,-0.0008936287
-0.00179088,0.2178018,0.9863067,0.01952183,-0.009762532,-4.825437e-06
-0.00286546,0.2192009,0.9736994,0.02451743,-0.01488053,0.0006463903
-0.002125713,0.2202392,0.9626755,0.01313521,-0.02064902,-8.042067e-05
-0.002043081,0.2201173,0.9616684,0.01118564,-0.01546805,0.0005697967
0.0008027629,0.2181463,0.9691831,0.004619633,-0.0177378,-0.0004263186
0.002347017,0.219069,0.9787795,0.004053809,-0.01120983,0.001917048
0.001425189,0.2181282,0.9740534,0.01038723,0.002169834,0.003286909
0.004155291,0.2172792,0.9658792,-0.003118018,0.01107525,-0.001540767
0.006154584,0.2199576,0.9675925,-0.0146568,0.03334763,-0.001525734
0.003866758,0.2192535,0.9657404,-0.0167544,0.04281894,0.0003697955
0.001831117,0.2186274,0.9657353,-0.02601388,0.04189933,0.0004877328
0.0027048,0.216308,0.9632831,-0.03133632,0.05461795,0.0009434035
0.003391292,0.2125584,0.9581484,-0.0325187,0.05717182,-0.001803408
0.002254216,0.216083,0.9677345,-0.03361732,0.045319,-0.002796858
0.002175325,0.219318,0.9784575,-0.0286057,0.03047565,-0.002124146
-0.000518073,0.2178091,0.9806955,-0.02183675,0.02121932,-0.003193001
-0.004489283,0.2161788,0.9792744,-0.02287982,0.0183581,-0.002958081
-0.0044541,0.21608,0.9770088,-0.02607658,0.02509275,-0.001142368
-0.007303639,0.2161799,0.9747734,-0.02283502,0.04123615,0.001824198
-0.0109202,0.2138528,0.9696578,-0.02352448,0.03838167,0.002159696
-0.007149095,0.2133596,0.9734906,-0.02555751,0.03247095,0.0008569137
-0.004189127,0.2141867,0.9804152,-0.02520988,0.03750682,0.0009601779
-0.0076971,0.2127418,0.977337,-0.02800574,0.0267002,0.0002907097
-0.008903943,0.2122656,0.978029,-0.02234152,0.01414822,0.0005377479
-0.005167237,0.2125001,0.9799095,-0.01322444,0.009669182,-0.001987178
-0.004005202,0.2123612,0.9758328,-0.00517894,0.0119747,-0.004323848
-0.007876915,0.211661,0.9742608,0.006241735,0.0188818,0.002681082
-0.01224556,0.2108782,0.9761578,0.004519429,0.007017534,0.008178067
-0.01254456,0.2120346,0.9815779,-0.002191749,-0.01272233,0.004285173
-0.01189735,0.2125668,0.9858399,0.001655694,-0.02427809,0.000838135
-0.01256667,0.210671,0.981129,0.003492681,-0.02382044,0.001733809
-0.00930676,0.2094032,0.97411,0.002943502,-0.01030417,-6.486488e-05
-0.005423065,0.2115615,0.9733388,0.001059232,0.002569505,-0.001942408
-0.005193055,0.2143802,0.9746891,-0.008504775,0.01771724,0.001005476
-0.005565598,0.2138979,0.976304,-0.01343962,0.01490622,0.0002743155
-0.005785918,0.2125083,0.9814601,-0.01080435,-0.008394774,-0.001415938
-0.006100077,0.2110109,0.9841903,-0.009521708,-0.01377769,-0.0008006559
-0.009078349,0.2079779,0.9856688,-0.005330354,-0.01353529,-0.002598312
-0.01225815,0.2070888,0.9883795,-0.001699744,-0.01071981,0.0005182609
-0.01037238,0.2112757,0.9798458,-0.002994424,0.0004533144,0.003946243
-0.008784916,0.215473,0.9692541,-0.003788085,0.006692699,0.002398758
-0.01020935,0.2121053,0.973365,-0.005286325,0.01146178,0.003987993
-0.0108335,0.2048004,0.977062,-0.006950739,-0.0001991176,0.004985472
-0.01085662,0.2024418,0.9748185,-0.00453944,-0.008326506,0.003705878
-0.01033065,0.2066982,0.9783283,-0.001704226,0.003650113,0.002491717
-0.008048708,0.211895,0.9789997,-0.005812901,0.007778071,0.0007860839
-0.006061418,0.2101394,0.9754693,-0.00947618,0.01079495,0.0007450842
-0.005895932,0.2077741,0.9775226,-0.004664738,0.01095822,-0.001948127
-0.008273644,0.2091489,0.9779272,-0.001945495,0.007986722,-0.006376055
-0.01300633,0.2069479,0.9778513,-0.001916764,0.001410167,-0.00514401
-0.0151433,0.2095942,0.980567,0.003347856,-0.02728558,-0.0009816651
-0.01477676,0.2151826,0.9797311,0.01094126,-0.05155786,0.002624459
-0.01377321,0.2128969,0.9811365,0.01834721,-0.05004633,0.004614207
-0.0105757,0.2134009,0.9841987,0.02362028,-0.03473352,0.00154118
-0.009479345,0.214475,0.9825157,0.02209331,-0.02463685,-0.0006730166
-0.008515195,0.2096111,0.9778997,0.01747286,-0.01973475,0.004807896
-0.003971593,0.2056205,0.9728876,0.01704806,-0.0045641,0.008582703
-0.001850036,0.2033362,0.9707467,0.01277541,0.007088489,0.004770881
-0.002829193,0.2056881,0.9696012,0.003548762,0.009971711,0.0005012208
-0.004242171,0.2089778,0.9722369,0.002340513,0.007845669,-0.001115879
-0.00560729,0.20925,0.9775839,0.005262355,0.004490414,-0.001565874
-0.007447516,0.2125971,0.9760837,0.00604321,0.009102271,-0.001479736
-0.009688078,0.2136127,0.9738821,0.006204667,0.01336117,-0.0004280306
-0.0105549,0.2117238,0.9706016,0.007817689,0.02031185,0.002070828
-0.01137149,0.2140427,0.9657549,0.01058355,0.02268408,0.003865604
-0.01079979,0.2162141,0.9697153,0.006395357,0.01282673,0.002058106
-0.01063971,0.2171966,0.9743291,-0.0006638423,0.006556067,-0.0004356954
-0.01378875,0.2188397,0.9804794,-0.002404778,-0.001260135,0.0006222048
-0.01406527,0.219546,0.9889466,-0.001840075,-0.01166051,0.002328367
-0.01181483,0.2189065,0.9830455,-0.003118691,-0.01358127,0.00267126
-0.008091839,0.2147553,0.9757175,-0.01024827,0.002611674,0.0006021029
-0.003939476,0.2113526,0.9774428,-0.01632073,0.02350201,-0.003590354
-0.006287265,0.214115,0.9748563,-0.01516524,0.01524403,-0.003523739
-0.008060787,0.2161878,0.9745609,-0.01501936,0.006552209,-0.001213376
-0.005315997,0.2129287,0.9780759,-0.01785265,0.01724278,-0.001149447
-0.006045516,0.2096972,0.9770055,-0.01856224,0.01321497,-0.002110512
-0.009356248,0.20875,0.981192,-0.01735158,0.008085438,-0.007105386
-0.01202733,0.2069002,0.9865438,-0.01353844,0.01021081,-0.01205419
-0.01202744,0.2066765,0.980772,-0.004434247,0.007021003,-0.009661964
-0.01215872,0.2104326,0.9750257,0.0007548047,0.009062687,-0.0044553
-0.01576487,0.2108717,0.9752406,-0.003125047,0.003307344,0.0003416985
-0.01578201,0.208566,0.974032,-0.004538113,-0.005169025,0.00412041
-0.01353903,0.2099736,0.9720806,-0.003591855,-0.0006540496,0.002986583
-0.01392461,0.2102511,0.9729818,-0.005136076,-0.0009575136,0.001679653
-0.01287357,0.2089908,0.976799,-0.004593293,-0.004018904,0.003596827
-0.01212328,0.2105135,0.9804527,-0.003841649,-0.006053717,0.002344098
-0.01180022,0.21155,0.9795748,-0.004723389,-0.01128098,0.001726595
-0.00791012,0.2126531,0.9772224,-0.005438573,-0.01214008,0.004039478
-0.004822311,0.2130087,0.978333,-0.005741219,-0.01398195,0.003429748
-0.007670022,0.2105257,0.9797428,-0.001888981,-0.02012327,0.003228179
-0.01151401,0.2092837,0.9804684,0.006158578,-0.02737876,0.002355915
-0.01003543,0.2081616,0.9797962,0.01160258,-0.03579599,-0.0001408249
-0.01051098,0.2086572,0.9745206,0.01324131,-0.04145982,-0.0004285511
-0.01404841,0.2107983,0.9687974,0.01765794,-0.04414115,-0.001384103
-0.01231123,0.2093853,0.966601,0.02430796,-0.0487996,0.000602856
-0.01146862,0.2097749,0.9721805,0.02552951,-0.05482568,0.004805665
-0.01154488,0.2120842,0.9805368,0.0276269,-0.05735332,0.003643796
-0.007935549,0.212542,0.9801904,0.03298396,-0.05974596,0.0008188381
-0.00601966,0.2131314,0.9793915,0.02515363,-0.05913001,-0.0003684075
-0.003931876,0.21303,0.9786405,0.01478589,-0.04389797,0.0007634014
-0.00402201,0.2141135,0.9741038,0.01924729,-0.02899408,0.003991163
-0.006574089,0.2142114,0.9735258,0.01799282,-0.0358636,0.004883746
-0.003520086,0.2126705,0.9713298,0.008779679,-0.04385349,0.00390027
-0.001632393,0.2140616,0.9744656,0.008857733,-0.03675595,0.003464234
-0.003191651,0.213597,0.982882,0.01014932,-0.03803541,0.003928961
-0.001783681,0.2097132,0.9781348,0.0100633,-0.04571479,0.006922696
-0.000966373,0.2061935,0.973877,0.01307876,-0.04476655,0.009271287
-0.001502487,0.2055078,0.9750036,0.01435165,-0.04135833,0.003935972
-0.001403083,0.2093021,0.9747581,0.01356633,-0.03487417,-0.003512137
-0.001409782,0.2123333,0.9794629,0.01093601,-0.03490195,-0.001369897
-0.001307622,0.2120864,0.9778636,0.008585388,-0.03772871,0.003981773
-0.00147044,0.2139692,0.9733741,0.009435105,-0.03213336,0.003725424
-0.001370621,0.2180836,0.9742821,0.01117828,-0.03448053,0.004066251
-0.001325512,0.2173318,0.9723757,0.01071435,-0.03484456,0.004706013
-0.00150283,0.2151385,0.9720722,0.005491527,-0.02507883,0.001356365
-0.001279927,0.2165991,0.9708713,0.0003788261,-0.01701551,-0.0009948915
-0.001444781,0.2152634,0.9697847,-0.0006320628,-0.009027162,-0.00166372
-0.00140509,0.2155314,0.9730086,-0.003502828,-0.007464273,-0.001745147
-0.0007798903,0.2186818,0.9719629,-0.007673365,-0.003014507,-0.001175678
0.001553072,0.2167626,0.9719767,-0.007556333,0.008502553,-0.003895756
0.005458462,0.2150116,0.9721802,-0.009139582,0.01593038,-0.005097133
0.006392256,0.2135079,0.9675042,-0.01366236,0.02279529,-0.002113923
0.005123286,0.2115575,0.9643362,-0.01044342,0.0194981,-0.00246208
0.005504463,0.2127907,0.9628167,-0.006705131,0.01513311,-0.001226195
0.004747999,0.2126168,0.9656044,-0.008939578,0.01697795,0.004665654
-2.307179e-05,0.2122546,0.9717825,-0.005693447,0.008630556,0.006632708
-0.003283753,0.2127334,0.9775277,-0.0004999676,0.005057014,0.003688483
0.002021234,0.2123214,0.9799883,0.003251193,0.00696508,-0.0007277073
0.008304024,0.2129706,0.9769175,0.004715467,0.008499443,-0.0007174486
0.00569036,0.2144235,0.9742974,-0.01005417,0.01832946,0.000657982
0.003133488,0.2166826,0.970885,-0.02427582,0.02350463,-0.002071107
0.002360304,0.2167161,0.9742994,-0.01062886,0.02676294,-0.001931361
-0.003033503,0.2135466,0.9829676,0.002324707,0.02736979,-0.003741279
-0.00249971,0.2117993,0.9779217,-0.01189463,0.02243267,-0.006612352
0.0003578897,0.2122922,0.9755862,-0.0211276,0.02829178,-0.003138067
-0.003812356,0.2129371,0.9797125,-0.01669493,0.03016415,7.919934e-05
-0.004878516,0.2123388,0.9745662,-0.0198648,0.02110296,0.003700135
-0.005324671,0.2123157,0.9697919,-0.01961766,0.01860302,0.0004648791
-0.00661155,0.2128339,0.9665379,-0.01605517,0.02597968,-0.007072172
-0.004572011,0.2122472,0.9706456,-0.01715524,0.03381264,-0.003877506
-0.005873099,0.2129043,0.9803692,-0.01412,0.02442095,-0.003900606
-0.006125137,0.214432,0.9810743,-0.01323778,0.01361277,-0.007064255
-0.005685408,0.2155883,0.9877905,-0.01394692,0.01863104,-0.004354394
-0.008278359,0.2153378,0.9940031,-0.01288723,0.01753758,-0.004997516
-0.008495546,0.2128078,0.9826657,-0.01673968,0.01159629,-0.004001173
-0.009784019,0.2110453,0.9758607,-0.0193338,0.01136214,-0.001090569
-0.009202766,0.209947,0.9805247,-0.01850695,0.01400486,0.0001084651
-0.005393361,0.2093716,0.9816643,-0.01750191,0.01981493,0.003284856
-0.005906829,0.2095773,0.9783971,-0.01635365,0.0183534,0.002216699
-0.008286664,0.2075008,0.9758771,-0.01640769,0.01257386,-0.0004116673
-0.009922786,0.2049382,0.973798,-0.01598418,0.01190982,-0.001072963
-0.00757752,0.2053097,0.9730545,-0.01611449,0.01495379,-0.004982621
-0.003833706,0.2078901,0.9761227,-0.01720553,0.02505785,-0.007135698
-0.006107208,0.2093013,0.9779501,-0.01662796,0.02894411,-0.005955439
-0.008048127,0.2094848,0.9777039,-0.01268282,0.01453634,-0.00572136
-0.008630096,0.2102798,0.97806,-0.007464352,0.0004693179,-0.004521018
-0.01163358,0.2095059,0.9776436,-0.00675943,0.00189319,0.0006050859
-0.01293154,0.2088989,0.9796765,-0.004982487,0.006841466,0.00549275
-0.0121989,0.2079374,0.9840689,0.0002842781,0.006820294,0.0007422086
-0.009606422,0.2057356,0.9872363,4.568427e-05,0.01445149,-0.005988338
-0.007385199,0.2065192,0.9848273,-0.0007509031,0.02006717,-0.003799898
-0.00836926,0.2041105,0.9751435,-0.0001312394,0.01141964,-0.0002072079
-0.00865026,0.1999994,0.9699791,-0.003468467,0.008317741,0.003847431
-0.008271672,0.2019463,0.9779827,-0.004152631,0.009866359,0.005735461
-0.00946679,0.2031734,0.9867892,-0.004228231,0.00458603,0.001613728
-0.01110278,0.2050573,0.9810212,-0.009064884,0.003681423,0.002620594
-0.01270685,0.2084542,0.9748056,-0.01253593,0.0191908,0.003344493
-0.01444915,0.206801,0.979424,-0.01129983,0.03423336,0.001163111
-0.01568111,0.2063226,0.9788869,-0.008488724,0.01634051,0.003905034
-0.01397784,0.2072613,0.9781642,-0.00932767,-0.003399844,0.001052384
-0.01052782,0.2048062,0.9814258,-0.009240888,0.009236056,-0.001911181
-0.009443364,0.2034327,0.9823501,-0.00668102,0.01603573,0.0009316788
-0.01153983,0.2038217,0.9895593,-0.008089265,0.01172107,-0.0004239373
-0.01430727,0.2048033,0.9915637,-0.006938818,0.01055156,-0.001274831
-0.0144073,0.204942,0.9841971,-0.003661975,-0.000662175,-0.001959732
-0.01486253,0.2023704,0.9815389,-0.003663955,-0.003349987,-0.00273391
-0.01850297,0.2018874,0.9813152,-0.004338306,0.004337814,-0.0009870619
-0.01980997,0.2035888,0.9815252,-0.006712503,0.004823109,-0.001309956
-0.01672362,0.2032029,0.9776697,-0.006770261,0.008747152,-0.0003166142
-0.01414875,0.2050143,0.9729398,-0.003878625,0.008343237,-0.0001216
-0.01442967,0.2077717,0.9757484,-0.00175012,0.0009193029,-0.002117433
-0.01239419,0.2041246,0.9783137,-0.002259242,-0.0003881363,-0.004752335
-0.008124165,0.2001782,0.9790366,-0.005219496,-0.001138873,-0.009188869
-0.009509054,0.2005417,0.9775946,-0.003942861,0.001409125,-0.006518367
-0.0119565,0.2000071,0.9730759,-0.003712742,0.005020625,-0.0005282015
-0.01180018,0.1996528,0.9716647,-0.00470641,0.004448211,0.0001854229
-0.01513562,0.2006627,0.9731326,-0.001229624,0.006249325,0.001316057
-0.01794638,0.2016894,0.977946,-0.002858708,0.006782423,0.002139524
-0.01793759,0.203247,0.9837374,-0.006454251,0.006849114,0.001367601
-0.01733659,0.2031257,0.984871,-0.006889157,0.004821038,0.0009667647
-0.01513222,0.2022665,0.9846146,-0.005782277,-0.002061105,-0.001802177
-0.01496794,0.2022893,0.9843656,-0.000527215,-0.005335697,-0.004019599
-0.01563014,0.1993244,0.9818947,0.004478623,-0.005836433,-0.001237081
-0.01499221,0.1958455,0.9797715,0.007676697,-0.002679914,0.001664251
-0.01562343,0.1975658,0.9803114,0.007349633,0.002016901,0.00141175
-0.01615103,0.2006712,0.9796305,0.004605859,0.002309399,0.002505032
-0.01682429,0.201689,0.9731943,0.004277992,0.008028552,0.003410272
-0.01714518,0.2017378,0.9680112,0.00578286,0.01249371,0.001307352
-0.01716158,0.2008806,0.9733506,0.008266774,-0.003084965,0.0007399788
-0.01854698,0.2004676,0.9792037,0.003244155,-0.01690494,0.001660956
-0.01819621,0.2003869,0.9770147,-0.002790054,-0.001622719,0.002485997
-0.01746315,0.2013573,0.9799908,0.0006752416,0.008657256,0.003372622
-0.01715021,0.2036742,0.9877177,0.001271368,-0.01628384,0.002817479
-0.01430417,0.2029737,0.9851306,4.258607e-05,-0.03084487,0.002607555
-0.01226589,0.2019133,0.9768989,0.001722174,-0.004708063,0.002441978
-0.01257666,0.2022633,0.9723392,0.001432286,0.01522001,0.001607101
-0.01396675,0.2000714,0.975458,0.001801771,-0.000676174,0.00176754
-0.01689687,0.1995861,0.9848172,0.002243399,-0.01499263,0.0005121468
-0.01890861,0.2015445,0.9868601,0.001851813,-0.01314777,-0.001439116
-0.01837398,0.2023439,0.9812186,0.001857925,-0.01914762,-0.0009114104
-0.01845781,0.2031478,0.977787,0.002329908,-0.0215714,2.229997e-05
-0.02000089,0.2028157,0.9785427,0.003517927,-0.01673981,0.0002608122
-0.01944417,0.2024939,0.980393,0.003910642,-0.02016425,0.0004802114
-0.0175266,0.2030697,0.9778861,0.003662859,-0.02078049,0.00135109
-0.01529498,0.2022684,0.9751817,0.003053084,-0.02610313,0.005249568
-0.01182768,0.2009746,0.9736737,0.002545637,-0.03494794,0.00666147
-0.01084552,0.2006572,0.973359,0.003014395,-0.02627989,0.0005844872
-0.01083371,0.204983,0.9773597,0.004528998,-0.01825068,-0.001620856
-0.009866365,0.2099719,0.9771626,0.007186324,-0.01995054,0.003543678
-0.01162384,0.2055141,0.9775886,0.009598393,-0.01892298,0.006077633
-0.01233225,0.1992986,0.9794229,0.009853031,-0.02026947,0.003893776
-0.01137022,0.2006868,0.9726705,0.007738362,-0.02683031,-0.0002538094
-0.01259129,0.204723,0.968646,0.009002625,-0.03032714,-0.001587334
-0.01426066,0.2075204,0.9697559,0.01667936,-0.02928589,0.002102606
-0.01612286,0.2050423,0.9771118,0.02704496,-0.03973367,0.01026491
-0.01682947,0.2020037,0.9961728,0.05145777,-0.07613081,0.0217447
-0.01801442,0.2092436,1.012114,0.09885737,-0.1273466,0.03196091
-0.02061041,0.2150042,1.01674,0.1311568,-0.1700607,0.03795238
-0.01547481,0.208775,1.001605,0.1153286,-0.1953604,0.02719985
0.002287091,0.2002338,0.9605937,0.09085013,-0.1861973,0.005731447
0.02353659,0.1957355,0.9307014,0.08841992,-0.127184,0.003958413
0.02555135,0.2007106,0.9461755,0.09545263,-0.06756082,0.01254491
0.01028985,0.2150555,0.9700114,0.1130089,-0.05199498,0.01729959
0.006669436,0.2260004,0.9703736,0.1185873,-0.05495348,0.02424191
0.009202863,0.2278779,0.9770126,0.1042804,-0.05896817,0.01877554
0.00866114,0.2275489,0.979113,0.09117406,-0.06871774,0.01019927
0.01510506,0.2309901,0.9626596,0.0721986,-0.06422504,0.01511366
0.02226025,0.2326476,0.9618774,0.08033549,-0.03811119,0.01378467
0.02726184,0.2297386,0.9649138,0.1079138,-0.02188193,0.005173937
0.02844674,0.2290055,0.9636957,0.1041193,-0.02049089,-0.0006797658
0.02496795,0.2310618,0.964038,0.105521,-0.01012994,-0.006405083
0.02255136,0.2335713,0.9584282,0.1098905,0.003727965,-0.008854208
0.01787064,0.2333402,0.9697289,0.1079624,-0.00489992,-0.009064286
0.01375926,0.2291497,0.9796861,0.1418488,-0.03130831,-0.002400805
0.01261476,0.2242135,0.9717157,0.1854741,-0.03589838,0.007261482
0.01699638,0.2216413,0.9713644,0.2136684,-0.009917709,0.001734377
0.02557643,0.228795,0.9705601,0.2310903,0.02718779,-0.006821165
0.02517225,0.2404667,0.9604059,0.2350925,0.05051864,-0.007227641
0.02072983,0.2437238,0.9432628,0.2200654,0.05818017,-0.00589112
0.01821891,0.2445627,0.9375814,0.2031419,0.0891122,0.009539743
0.01605174,0.2562229,0.9554376,0.2378403,0.1045366,0.04063987
0.01302922,0.2799624,0.9704361,0.2961001,0.03605893,0.0682051
0.001912349,0.3000659,0.9722789,0.3304434,-0.052653,0.08270456
-0.006861544,0.309584,0.9646311,0.3693929,-0.06190705,0.09548875
7.614035e-05,0.3149551,0.9548095,0.39972,-0.04665099,0.1090532
0.01347913,0.3129249,0.9411831,0.3661262,-0.05719184,0.09312546
0.0170519,0.3124062,0.9271404,0.2899749,0.03247514,0.0554972
0.006068447,0.3218335,0.9469331,0.2657483,0.1208821,0.03507129
-0.01666962,0.3243696,0.9694456,0.2742854,-0.02417867,0.03079378
-0.03330917,0.3110515,0.9457299,0.2133962,-0.2029621,0.03326569
-0.008137989,0.3013517,0.9293842,0.1139366,-0.2058753,0.03270203
0.03948947,0.3226058,0.9502936,0.07385879,-0.1795805,0.02841372
0.05971508,0.3512396,0.956258,0.09467304,-0.1765945,0.02611153
0.05870744,0.3478647,0.9414407,0.06262111,-0.1213651,0.01496607
0.04899182,0.3402079,0.938832,-0.02866714,-0.07803008,0.01610302
0.03674285,0.3466689,0.9520985,-0.05995862,-0.08338454,0.03963465
0.03364278,0.3537342,0.963516,-0.06073414,-0.1103148,0.05715045
0.03123888,0.3707046,0.9526499,-0.09228572,-0.1720754,0.06152429
0.03107439,0.37919,0.9425552,-0.1219329,-0.2029516,0.07265504
0.03307093,0.3619506,0.9569884,-0.1191962,-0.2125886,0.1141186
0.02987334,0.3412464,0.966845,-0.08760237,-0.2681338,0.1609352
0.02820192,0.324533,0.9669081,-0.05384328,-0.3037392,0.1993476
0.02583305,0.3168341,0.9667736,-0.0222309,-0.3340516,0.2433133
0.005649965,0.2843041,0.9628726,0.2157633,-0.1006476,0.2302005
0.00599055,0.2803218,0.9631209,0.2248026,-0.1100835,0.217328
0.00517561,0.2758344,0.9589323,0.1991756,-0.1204761,0.2115626
0.005424549,0.2789874,0.9580887,0.1773794,-0.1332672,0.2118003
0.00349351,0.2849954,0.9599925,0.1955219,-0.1257786,0.2144554
0.001341533,0.2885934,0.9620378,0.2113763,-0.1173745,0.2177986
0.0009664577,0.2884803,0.9611149,0.1952765,-0.1307734,0.2144808
0.002487807,0.2868362,0.9600883,0.1895615,-0.1324897,0.2127117
0.00614462,0.2908215,0.9585249,0.1919933,-0.1240031,0.217502
0.01032437,0.2948877,0.9541694,0.1828342,-0.1201181,0.2217441
0.01075452,0.2944048,0.9532081,0.182666,-0.1140442,0.2189501
0.008539474,0.2949859,0.9544311,0.1781067,-0.1107853,0.214366
0.008688113,0.2962797,0.9530172,0.1682087,-0.1017976,0.217255
0.006581078,0.2983596,0.9541698,0.1693667,-0.09188473,0.2173658
0.003120473,0.2973067,0.958111,0.1647489,-0.0880634,0.2118356
0.003482662,0.2898151,0.9581678,0.1588983,-0.08442993,0.2076924
0.002651266,0.2841112,0.9585699,0.1594599,-0.08691578,0.2037177
0.001610913,0.281747,0.9625669,0.1610405,-0.09026606,0.2043888
-0.0001957771,0.2793938,0.9625714,0.1662085,-0.1026868,0.20493
-0.004259399,0.2786838,0.9615733,0.168772,-0.1192161,0.1991741
-0.00315558,0.281171,0.9633867,0.1689005,-0.1163997,0.194883
-0.0008257301,0.2840282,0.9621039,0.1688674,-0.1148407,0.1933066
0.0009369191,0.2868742,0.9608071,0.1666805,-0.1181602,0.190579
0.005654943,0.2918277,0.959578,0.165559,-0.1106942,0.1864939
0.005034086,0.2912857,0.9557188,0.1634785,-0.1070799,0.18377
0.002850977,0.288781,0.9541123,0.1597829,-0.1054948,0.1831184
0.005701777,0.2921081,0.9524309,0.1572622,-0.09759596,0.1824213
0.004902945,0.2917083,0.9526692,0.1551383,-0.09327721,0.1803064
0.002385035,0.2888407,0.9573297,0.1513047,-0.09079048,0.1763864
0.002920844,0.2866706,0.9591743,0.146319,-0.09035461,0.1728441
0.002630806,0.2820999,0.9597805,0.1468968,-0.09651619,0.1709786
0.002809808,0.2803029,0.9615516,0.1568374,-0.09615481,0.1743443
0.002938852,0.2797053,0.9622603,0.1678697,-0.09264735,0.1791082
0.002487025,0.2799894,0.9594034,0.1641885,-0.09742984,0.1746171
0.003052944,0.2829036,0.9553014,0.1414429,-0.09608977,0.1694809
0.00246839,0.2836382,0.9577595,0.125695,-0.08573761,0.1678666
0.00182508,0.282491,0.9596506,0.1397422,-0.08069982,0.15895
0.001498331,0.2814491,0.9571053,0.1537659,-0.08583648,0.1493538
0.001929542,0.2820626,0.9567454,0.140269,-0.09149149,0.147323
0.003262398,0.2836012,0.9559947,0.1314182,-0.08832001,0.1473876
0.001834704,0.2849859,0.9584757,0.138239,-0.09106172,0.1468825
0.0009672618,0.2869445,0.9629905,0.136396,-0.1062246,0.1465856
0.002912383,0.2860281,0.9606116,0.136957,-0.1126979,0.1451289
0.00481279,0.2841022,0.9575078,0.1392308,-0.1025508,0.1418413
0.005782738,0.282132,0.9569123,0.132006,-0.09158049,0.1392379
0.003846609,0.278687,0.9563928,0.1329334,-0.09165471,0.1377773
0.001864803,0.2797566,0.9573343,0.1332269,-0.09270604,0.1369848
0.002853032,0.2825968,0.9577477,0.1252161,-0.08863945,0.1369336
0.003121986,0.282782,0.9593911,0.1225672,-0.08743171,0.1351201
0.001937359,0.2839343,0.961318,0.1208015,-0.08531085,0.1333669
0.0001720982,0.2853007,0.9605836,0.1202192,-0.08255436,0.1332032
-0.001733528,0.2859767,0.9638665,0.1211793,-0.08185742,0.1323527
0.0002619555,0.2844096,0.965255,0.1204518,-0.07986895,0.1306066
0.004454094,0.2805331,0.9587264,0.1202655,-0.08551079,0.1276912
0.004441528,0.2804513,0.9574675,0.1193997,-0.0949462,0.1246661
0.002858573,0.2836554,0.9599045,0.1217092,-0.09968868,0.1201309
0.002757643,0.2852331,0.9597047,0.1228762,-0.1032104,0.1154069
0.002570168,0.2839306,0.9617528,0.1220682,-0.1030816,0.1140005
0.002777358,0.2816441,0.9646835,0.1271223,-0.106203,0.1109571
0.00190921,0.2817718,0.9664805,0.129213,-0.1112343,0.1084108
0.000906268,0.282242,0.9611193,0.1268815,-0.109248,0.1078953
0.001720444,0.2816664,0.9532041,0.1263639,-0.1125721,0.1040702
0.003033951,0.2821043,0.9552177,0.1265837,-0.1202285,0.1022457
0.00688758,0.2824832,0.9573958,0.1346292,-0.1211691,0.1037821
0.01141014,0.2844829,0.9566838,0.1494344,-0.1233945,0.1040006
0.01179491,0.2864159,0.9564514,0.149411,-0.1280945,0.1020574
0.01048344,0.2826923,0.9541188,0.1234044,-0.1248653,0.09915542
0.01021137,0.2792652,0.9556156,0.1020147,-0.1176174,0.09822071
0.009707195,0.2822656,0.9545591,0.116274,-0.1124263,0.09611057
0.009727973,0.2850704,0.9506037,0.1304311,-0.1090882,0.09426703
0.01179482,0.2843593,0.9516981,0.1147371,-0.1117823,0.09585426
0.01304078,0.2844901,0.9500866,0.1093673,-0.1140003,0.09384946
0.01284194,0.2836045,0.9508043,0.1203801,-0.1141218,0.091153
0.01415434,0.2823021,0.9545247,0.120181,-0.1188542,0.09275858
0.015854,0.284895,0.952301,0.1196919,-0.1192166,0.09335281
0.01628163,0.2879098,0.9527083,0.119114,-0.1112293,0.0914298
0.01835772,0.290991,0.9554561,0.1170419,-0.1015828,0.08615289
0.02212199,0.2909815,0.9564246,0.1198074,-0.1001173,0.08026736
0.02144357,0.2860037,0.9578657,0.1159346,-0.1033326,0.0796418
0.01963167,0.2850159,0.9575648,0.1122499,-0.1024004,0.07950166
0.0217254,0.2858096,0.9576761,0.1107403,-0.1081508,0.07721926
0.02180931,0.2867249,0.9553107,0.1085774,-0.1121009,0.0767082
0.02188271,0.2886373,0.9509059,0.1133145,-0.1052979,0.07505823
0.02318897,0.2876301,0.951743,0.1150589,-0.09739532,0.07314766
0.02251324,0.2909253,0.9520381,0.11316,-0.08847453,0.07464845
0.023971,0.2942476,0.9503765,0.1105499,-0.08858292,0.07314235
0.02480382,0.290074,0.9508761,0.1068601,-0.09267991,0.0697221
0.02642245,0.2880799,0.9505988,0.1068568,-0.09078052,0.06935604
0.03080003,0.2906836,0.9530353,0.1047244,-0.09104914,0.06701929
0.0289499,0.2927173,0.9567024,0.102956,-0.08344584,0.06527875
0.0253881,0.2914039,0.9526999,0.1025333,-0.07477885,0.06460933
0.02520527,0.2901938,0.9476242,0.1017063,-0.08242383,0.0624487
0.0253552,0.2910327,0.9476245,0.1060099,-0.0916865,0.06443063
0.02700665,0.291947,0.9477207,0.107446,-0.09213647,0.06318484
0.02664007,0.2955489,0.9495942,0.104422,-0.0899305,0.0575276
0.02678031,0.2964832,0.9525582,0.1059808,-0.0895402,0.05603854
0.03303064,0.2933623,0.9509915,0.1129455,-0.08796468,0.05228632
0.03975902,0.2927486,0.9480574,0.1184743,-0.07988071,0.04966682
0.0418014,0.2929118,0.9468724,0.1105933,-0.07105364,0.05258726
0.04020925,0.29432,0.9471998,0.08807463,-0.06817214,0.05231754
0.04149188,0.2984677,0.9494019,0.07049005,-0.05713612,0.05002014
0.04388863,0.3023722,0.9501678,0.07845448,-0.03088603,0.04721332
0.03957815,0.3004228,0.9479605,0.08751171,-0.01609793,0.04379031
0.03491269,0.2956991,0.9457032,0.06459995,-0.01851349,0.04675384
0.03459332,0.2973477,0.9453848,0.04320955,-0.01056753,0.05111414
0.03653977,0.2981586,0.9454465,0.04262237,0.007585406,0.04672269
0.03937594,0.2971358,0.9422509,0.03382554,0.01563759,0.04286395
0.03874365,0.2991936,0.9393255,0.0258735,0.02044684,0.04380145
0.03583476,0.296635,0.942253,0.02868061,0.03637553,0.04041071
0.03141658,0.2938256,0.9460702,0.02619263,0.04552195,0.03891535
0.02740633,0.2946411,0.947059,0.02222982,0.03791971,0.04186148
0.02855172,0.2939286,0.9500784,0.02100124,0.0332649,0.04116178
0.02722133,0.2927856,0.9543838,0.01948307,0.03021689,0.03845611
0.02219346,0.2912918,0.9545881,0.02060437,0.0211033,0.03431938
0.02140665,0.2921989,0.9551231,0.02604435,0.0158049,0.03072892
0.02089829,0.2939935,0.9581765,0.02995117,0.01713952,0.03282357
0.01975348,0.2923555,0.9571089,0.02718837,0.02171996,0.03557441
0.02214729,0.2914772,0.9560612,0.02517149,0.02502344,0.0342863
0.02347766,0.2915054,0.9571939,0.0255683,0.02726016,0.03313061
0.02189192,0.2912976,0.9540039,0.02289705,0.02801786,0.03299586
0.02093568,0.2899837,0.9517054,0.02027433,0.02565051,0.03219478
0.02063489,0.2872882,0.9529612,0.01945561,0.02860353,0.03302982
0.0199021,0.2880726,0.9529528,0.01785566,0.03119283,0.03315742
0.01880046,0.2892073,0.9528477,0.01627317,0.02905825,0.03105231
0.01741978,0.2871159,0.9547029,0.01648427,0.02875702,0.0289797
0.01489045,0.2858287,0.9604103,0.01725272,0.02050176,0.02623704
0.01177207,0.2855271,0.9669252,0.01949637,0.008738282,0.02520323
0.009765534,0.2849608,0.9663862,0.0244102,0.004516311,0.02481844
0.01041701,0.2843635,0.9584887,0.0303047,0.002727634,0.02365029
0.01622227,0.2828962,0.9515078,0.03857523,0.006086341,0.02648667
0.02153427,0.2809849,0.9518282,0.04055215,0.0107426,0.02882077
0.0191068,0.2803799,0.9540259,0.02253338,0.007370959,0.02510961
0.014166,0.2806532,0.9533498,0.006889892,0.004648373,0.02172656
0.01078188,0.2810638,0.954104,0.02162496,0.009115727,0.02184069
0.008599437,0.2811585,0.9549811,0.03474128,0.01128548,0.01953904
0.009685829,0.2812195,0.9550555,0.01959386,0.009395466,0.01564586
0.0104258,0.2837504,0.9589629,0.01145026,0.007808526,0.01652907
0.009101394,0.2841714,0.9627283,0.01838586,0.001928492,0.01883849
0.009686036,0.2813768,0.9620198,0.01814479,-0.002325803,0.01901527
0.009135876,0.2816492,0.9589145,0.01985682,0.001009307,0.0171826
0.007755644,0.2804409,0.9564609,0.02237138,0.00300978,0.01246599
0.009486827,0.2783117,0.9601113,0.0185029,0.001931684,0.01223987
0.0101155,0.2804823,0.9641956,0.01892595,-0.0001466325,0.01778048
0.009541424,0.2819128,0.9603464,0.01969412,-0.005633512,0.01714143
0.009800682,0.2820461,0.9574484,0.0185998,-0.009939204,0.0119198
0.009281275,0.2816957,0.9585084,0.01893886,-0.007825498,0.009902169
0.008027203,0.2790427,0.956514,0.01783017,-0.007650987,0.005082529
0.006355338,0.2743465,0.9520571,0.01959977,-0.01169925,0.001196578
0.007040906,0.2716402,0.9498014,0.02154315,-0.01003028,0.005752378
0.009275669,0.2774116,0.9548781,0.01943703,-0.004587899,0.008080529
0.009905525,0.2831621,0.9609684,0.01785665,-0.001605127,0.00777922
0.00997314,0.2804528,0.9584523,0.01708406,-0.005149893,0.008867959
0.009502767,0.2794375,0.95691,0.01644636,-0.01050805,0.00668696
0.009489179,0.2815188,0.9605861,0.01528181,-0.005766846,0.0062383
0.008918089,0.2801395,0.9634124,0.0141007,-0.001326832,0.006445
0.00706006,0.2792967,0.9672801,0.01457987,-0.002479086,0.004833646
0.007421976,0.2792705,0.964856,0.0144578,0.0003755515,0.004971698
0.007328731,0.2779656,0.957181,0.01377324,-0.001245532,0.003209016
0.004018601,0.2782983,0.9583159,0.01477312,-0.008262743,1.497665e-05
0.002070903,0.2774919,0.9609156,0.0182755,-0.01274087,-0.002018735
0.005020674,0.2748929,0.9608336,0.02431853,-0.01462232,-0.0008088866
0.009384936,0.274577,0.9622695,0.03068368,-0.009878963,0.001790675
0.01030184,0.2751865,0.9622949,0.03365408,-0.005835245,0.000229997
0.009656393,0.2756318,0.9640627,0.03074365,-0.00926261,0.000498574
0.009604793,0.2771627,0.9628737,0.02216367,-0.009117875,0.002575043
0.009370979,0.2785955,0.9592386,0.01443114,-0.00208739,0.0002515075
0.007539198,0.2780694,0.9601987,0.01666778,0.00353649,-0.001531989
0.003557825,0.278855,0.9571578,0.02062657,0.002614788,0.0004257145
0.001805872,0.2809779,0.9539087,0.01530018,0.002049797,0.003384875
0.002952593,0.2790422,0.9569486,0.01044866,0.003832638,0.002606868
0.003919253,0.276896,0.9602468,0.006624949,-0.00517325,-0.0007139509
0.007023851,0.2763194,0.9629504,0.00199275,-0.01471573,-0.002869596
0.01110358,0.2757792,0.960238,0.006208088,-0.006627153,-0.006588515
0.01038364,0.2770017,0.9546165,0.008673745,0.003222508,-0.006984142
0.008548849,0.2762631,0.9555457,0.005319785,0.00311211,-0.005023568
0.01027396,0.2761742,0.9579745,0.006193035,0.0005763389,-0.00685601
0.009107786,0.2780859,0.958419,0.006353655,-0.004763936,-0.004940551
0.004543132,0.2782607,0.9581686,0.006192416,-0.008928616,-0.003608049
0.002042037,0.2789924,0.955516,0.006583682,-0.00618364,-0.005806209
0.002378904,0.2777879,0.9542216,0.005861786,-0.004891564,-0.004329537
0.005388722,0.2759406,0.9557996,0.008196733,-0.007309382,-0.004957639
0.006054416,0.2764555,0.9564881,0.009039417,-0.00720436,-0.005835197
0.005107595,0.276491,0.957896,0.007861958,-0.005577793,-0.005202743
0.005965636,0.274983,0.9609255,0.008388679,-0.00487091,-0.006433874
0.005284487,0.271167,0.9620074,0.008806465,-0.005896657,-0.005488269
0.0055568,0.2704805,0.9615312,0.008476982,-0.006708069,-0.006275553
0.005839882,0.2721761,0.9594922,0.00629167,-0.003097527,-0.008270166
0.005115685,0.2717962,0.9556548,0.001781214,0.0005292188,-0.00769866
0.005949361,0.2718733,0.9572907,-0.002233183,-0.001547599,-0.008245322
0.005374199,0.2704329,0.964178,0.0004786426,-0.006513763,-0.01033982
0.005467249,0.2717514,0.9688247,0.00639605,-0.01169706,-0.01245194
0.005850037,0.2751284,0.9705859,0.008274079,-0.01696136,-0.01206138
0.005195513,0.2745006,0.9683628,0.01214235,-0.02222479,-0.01170099
0.006367334,0.2735769,0.9666159,0.01565712,-0.02766536,-0.01243202
0.00831711,0.2715316,0.9671603,0.01672844,-0.03365932,-0.009826622
0.01151565,0.2720771,0.9640663,0.02154734,-0.03809684,-0.00759222
0.01282638,0.2748317,0.9630025,0.02650837,-0.03639983,-0.007470008
0.01199724,0.2738759,0.9629859,0.03631794,-0.03464286,-0.00558555
0.01289568,0.2737588,0.9610977,0.04174323,-0.03743532,-0.004748987
0.01209982,0.2741246,0.9610626,0.02211618,-0.03591162,-0.007960471
0.01043843,0.2770095,0.9570548,0.005763097,-0.03227824,-0.009364428
0.009565232,0.2807861,0.9536274,0.01843398,-0.03295806,-0.008287634
0.009215571,0.2790244,0.9536808,0.02799957,-0.04093596,-0.009997982
0.01093847,0.2786348,0.9521531,0.01752156,-0.05090004,-0.01067913
0.01355855,0.2791358,0.9541689,0.01407506,-0.04258041,-0.009979349
0.01785442,0.2762498,0.956635,0.01892544,-0.03317745,-0.01084457
0.01947453,0.2742116,0.9569891,0.01619277,-0.04421611,-0.01271374
0.01710901,0.2750768,0.9572557,0.01666977,-0.04793331,-0.01503997
0.0181217,0.277384,0.9555484,0.01850321,-0.03987596,-0.01233565
0.0185932,0.2783768,0.9554192,0.01667321,-0.03659491,-0.009080393
0.01756443,0.2794644,0.9555323,0.01878159,-0.03569519,-0.01203192
0.01938531,0.2801855,0.9544137,0.01798494,-0.03802864,-0.01523902
0.01965444,0.2789298,0.954545,0.01702913,-0.0408849,-0.01675818
0.01930499,0.2789094,0.955636,0.01916294,-0.04353087,-0.0151322
0.01961397,0.2797651,0.9575476,0.0212648,-0.0447709,-0.01214108
0.01958135,0.2809086,0.9559643,0.02572629,-0.03763237,-0.01446648
0.02177676,0.2824136,0.9524206,0.02413154,-0.03200706,-0.01628862
0.02448888,0.2822194,0.9509036,0.02112369,-0.03218694,-0.01448718
0.02567105,0.2813755,0.9494787,0.02366273,-0.03278695,-0.01472363
0.02552846,0.2813394,0.9507729,0.02283278,-0.03609495,-0.01427884
0.02743594,0.2813567,0.9522161,0.02071638,-0.03436512,-0.01197004
0.03130409,0.2820171,0.9509886,0.02009385,-0.02866667,-0.01338803
0.03080299,0.2833154,0.9515642,0.01892311,-0.02907508,-0.01796236
0.02902131,0.2829698,0.9524907,0.01808494,-0.02822945,-0.020317
0.02928553,0.281532,0.9528123,0.01904761,-0.02942728,-0.0204934
0.02935048,0.2805376,0.9530527,0.02069379,-0.03609477,-0.02178026
0.03101956,0.2822214,0.9525027,0.02015796,-0.03708022,-0.02182641
0.03240458,0.2864539,0.9528601,0.02329722,-0.03631406,-0.02147876
0.03108135,0.2875514,0.9528914,0.029015,-0.03732382,-0.02177189
0.03003417,0.2871312,0.9522187,0.02986542,-0.03787941,-0.01881936
0.03093236,0.2868214,0.951162,0.02798429,-0.0367061,-0.0193352
0.0326078,0.2845988,0.9493862,0.02580652,-0.03426406,-0.02077699
0.03435025,0.284983,0.9513505,0.02809634,-0.03893615,-0.01556685
0.03717855,0.2876645,0.9585667,0.03535379,-0.0411373,-0.01452305
0.03968097,0.2891407,0.9639153,0.04025725,-0.03062505,-0.01818641
0.03915508,0.287587,0.9589974,0.03486207,-0.02178513,-0.02069398
0.03739171,0.2855572,0.9497236,0.01961915,-0.02179259,-0.02125187
0.03736477,0.289782,0.9488937,0.01209348,-0.01405752,-0.01940926
0.03698359,0.2935672,0.9508033,0.01275324,0.009665687,-0.02050696
0.03372336,0.2921064,0.9490564,0.00486712,0.02395426,-0.0195368
0.03096978,0.2919737,0.947274,-0.009614968,0.02407189,-0.01426846
0.03244129,0.2917717,0.9442075,-0.01962819,0.03255102,-0.01239796
0.0372621,0.290136,0.9435964,-0.02502203,0.04324185,-0.01541091
0.04093414,0.2893231,0.9454678,-0.0325388,0.05060024,-0.02004648
0.04024948,0.2886055,0.9456786,-0.03619863,0.06379044,-0.01825545
0.03660664,0.288756,0.9495692,-0.03643308,0.07405167,-0.01653299
0.03225765,0.2891743,0.952611,-0.04091502,0.07092392,-0.02062821
0.0291197,0.2887138,0.9494168,-0.04171488,0.06860377,-0.02170416
0.02761179,0.2890443,0.9479494,-0.04267255,0.07277122,-0.02346783
0.02673155,0.2899397,0.9505871,-0.04665367,0.0687878,-0.02349377
0.02565223,0.2900241,0.952274,-0.04695168,0.06371248,-0.01974341
0.02356827,0.2877921,0.952315,-0.04337532,0.05722096,-0.0199541
0.02164456,0.2823066,0.9564272,-0.03651769,0.04722297,-0.01899092
0.02213805,0.2791517,0.9617367,-0.03625356,0.05210686,-0.01695595
0.02456825,0.2816733,0.9608768,-0.03546386,0.05616621,-0.01385956
0.0254234,0.2837501,0.9620317,-0.02703022,0.05083472,-0.009195483
0.02489939,0.2830486,0.9660669,-0.02662102,0.05120521,-0.01109414
0.02467789,0.2823887,0.9604103,-0.02876247,0.05212616,-0.01466494
0.02313241,0.2818167,0.9539072,-0.02853326,0.05530003,-0.01724677
0.0215677,0.281695,0.9572841,-0.03289239,0.05885635,-0.0204052
0.02060695,0.2823899,0.958116,-0.0361237,0.05636601,-0.01937602
0.018158,0.2827803,0.9557228,-0.03433811,0.05479378,-0.01799817
0.01572427,0.2834554,0.9581876,-0.03203426,0.05202815,-0.01821563
0.01650553,0.2836642,0.9607112,-0.03460898,0.04492505,-0.01775364
0.01817044,0.2829713,0.9628422,-0.0356954,0.03965534,-0.01897788
0.01696659,0.2832696,0.9625869,-0.03155941,0.03825515,-0.01977306
0.01569008,0.2824171,0.9597211,-0.02784992,0.03682029,-0.01860496
0.01325749,0.2803165,0.9613786,-0.02292553,0.03500302,-0.02001999
0.01070507,0.2793423,0.9617421,-0.01710174,0.03642207,-0.02097988
0.01572749,0.2778394,0.960226,-0.006760122,0.04394376,-0.01731827
0.02192923,0.2765282,0.9604639,0.0002528363,0.05028873,-0.01471306
0.0207097,0.2762571,0.9547593,-0.02069918,0.04032545,-0.01508432
0.01632737,0.276273,0.950226,-0.04326829,0.02816804,-0.01842842
0.01339646,0.2765837,0.9565008,-0.02837306,0.03355639,-0.02351619
0.01195699,0.276107,0.9623962,-0.01512863,0.03610715,-0.02285577
0.009879961,0.2754538,0.9598257,-0.02768928,0.03054007,-0.01867262
0.007502895,0.2748688,0.9582679,-0.02771721,0.03183085,-0.01746855
0.008081127,0.2747372,0.9603571,-0.02338001,0.028284,-0.0178651
0.009992707,0.2753058,0.9563377,-0.02928339,0.01940271,-0.02061779
0.01017294,0.2748889,0.9513863,-0.02541093,0.01632371,-0.02370988
0.01229751,0.2745344,0.9513614,-0.02324578,0.02037958,-0.01983127
0.0150212,0.2734322,0.9519377,-0.02332209,0.03038847,-0.01563342
0.01366913,0.2714836,0.9538237,-0.02011146,0.0300174,-0.01884255
0.01186158,0.2724453,0.9551674,-0.02349841,0.02381326,-0.02119384
0.009018954,0.2744714,0.9581786,-0.02167378,0.02361479,-0.02062412
0.005419544,0.2752129,0.9610824,-0.02030941,0.01741023,-0.01883929
0.006178053,0.2752709,0.9574297,-0.0234272,0.01302872,-0.01535582
0.007862339,0.2741889,0.956338,-0.02228018,0.01326882,-0.01686179
0.008269248,0.2723371,0.9595954,-0.02296156,0.01334439,-0.02058761
0.008914698,0.2705759,0.9618961,-0.01933287,0.01852623,-0.02074835
0.009223439,0.2720505,0.9620512,-0.01733383,0.0185095,-0.02098149
0.01071434,0.274921,0.9553098,-0.01895572,0.01594174,-0.02040432
0.01181931,0.273718,0.9477854,-0.01434894,0.01682756,-0.01728898
0.01078309,0.2738228,0.9495028,-0.0170802,0.01995725,-0.01518553
0.01100399,0.275997,0.9562066,-0.01973075,0.02570376,-0.01576908
0.01109073,0.2745897,0.9586976,-0.01620506,0.02148261,-0.01543581
0.00900034,0.2736085,0.959395,-0.01851367,0.01407535,-0.01407506
0.007585443,0.2727543,0.9608985,-0.01772338,0.01242216,-0.01519388
0.006383949,0.2705815,0.9588654,-0.0168654,0.01011201,-0.01612552
0.005411454,0.2709667,0.9585273,-0.01868339,0.0113822,-0.01706948
0.00643386,0.27182,0.9588072,-0.01636119,0.01275952,-0.01798348
0.00828697,0.2723431,0.9564364,-0.0164367,0.01100653,-0.01699911
0.008776558,0.2725237,0.957983,-0.0145037,0.007018896,-0.01875572
0.008025422,0.2714884,0.9612482,-0.01046017,-5.030367e-05,-0.02036745
0.008917041,0.2706131,0.9659885,-0.008704723,-0.0008603518,-0.01885809
0.01117455,0.2691614,0.9663365,0.0003685811,0.003211928,-0.01724247
0.01306735,0.269877,0.958651,0.009592595,0.004848258,-0.0154406
0.01303611,0.271958,0.9588638,0.001898928,0.006260336,-0.01600762
0.01160219,0.2718361,0.9629503,-0.01105711,0.008251623,-0.01735866
0.01115427,0.2736332,0.9620577,-0.01013574,0.009858826,-0.01723902
0.00753816,0.2741427,0.9617465,-0.008086011,0.01032507,-0.01709499
0.003829443,0.2701032,0.9600341,-0.01222531,0.009505441,-0.01519425
0.005777912,0.268691,0.9598233,-0.01245794,0.006373426,-0.01355086
0.00613695,0.2697938,0.9613655,-0.01361876,0.001717392,-0.01381561
0.005122839,0.2700242,0.9610706,-0.01292818,-0.004800161,-0.01418165
0.007095096,0.2696838,0.9627661,-0.008482891,-0.01235462,-0.01421913
0.009030007,0.2695093,0.9631557,-0.00718717,-0.00963856,-0.01469874
0.0103725,0.2724315,0.9612809,-0.006673407,-0.003954975,-0.01666978
0.01079951,0.2755942,0.9600619,-0.005816209,-0.009434052,-0.01681019
0.01097553,0.2751841,0.957696,-0.000329612,-0.01352901,-0.01472832
0.01111371,0.2743903,0.9574862,0.003163748,-0.01740326,-0.01424814
0.008948305,0.2733201,0.9583308,-0.002870065,-0.02603117,-0.01469373
0.006816902,0.2713181,0.9568321,-0.005849816,-0.02609155,-0.01665733
0.0070528,0.2702104,0.9594615,-0.002883441,-0.02793597,-0.01743137
0.009176723,0.2698301,0.9633881,0.001123247,-0.0355845,-0.01411046
0.01249972,0.2719245,0.9612814,0.003754643,-0.03413493,-0.0135272
0.0149258,0.2756308,0.9581142,0.004273257,-0.03379344,-0.0139867
0.01583854,0.2752505,0.9555563,0.004894351,-0.03796509,-0.01152853
0.01623566,0.2724601,0.954022,0.006563632,-0.03637391,-0.01058012
0.01651931,0.2729046,0.9562301,0.01013449,-0.03307567,-0.01028799
0.0160301,0.2766198,0.9584204,0.01044895,-0.02947,-0.01115734
0.01482139,0.2801873,0.960967,0.009992945,-0.02814643,-0.01221076
0.01513482,0.2780896,0.9637558,0.01255444,-0.0315647,-0.01223742
0.01567402,0.2743703,0.9625386,0.01274506,-0.03417794,-0.01400024
0.01569533,0.2759511,0.9605555,0.01408481,-0.03814708,-0.01388396
0.01889811,0.275387,0.9568461,0.01454896,-0.04229134,-0.01371153
0.02208433,0.273904,0.9510721,0.01320751,-0.04240479,-0.0146428
0.02085093,0.2758909,0.9535708,0.01632815,-0.04087072,-0.01453924
0.0192803,0.2747764,0.9579541,0.01972263,-0.03793366,-0.01541193
0.01971413,0.2749623,0.9547518,0.02290316,-0.03816361,-0.01396133
0.02049952,0.2774589,0.9554596,0.02322844,-0.0401202,-0.01311292
0.02205988,0.2779258,0.9597526,0.01859585,-0.04091896,-0.01377037
0.02384734,0.2787747,0.9614448,0.01900192,-0.05042683,-0.01281052
0.02474824,0.2771759,0.962889,0.02958479,-0.05752247,-0.01394855
0.02614219,0.2749034,0.9583298,0.04595439,-0.04613793,-0.01262695
0.02665716,0.2751511,0.9524393,0.04866067,-0.0360974,-0.009878408
0.02526583,0.2768606,0.9531321,0.03057482,-0.04207997,-0.01096691
0.02563865,0.2800736,0.9563331,0.01953707,-0.04455526,-0.01133095
0.02945776,0.2820909,0.958562,0.02819121,-0.03613118,-0.01177313
0.03337986,0.283817,0.9533512,0.03507199,-0.03525683,-0.0135218
0.03267786,0.2839303,0.9487328,0.02914578,-0.04565422,-0.01439276
0.03221293,0.282697,0.9572964,0.02829747,-0.05896134,-0.01444312
0.03711254,0.2848057,0.9640236,0.03764002,-0.06717625,-0.01432765
0.03963797,0.2860256,0.9583235,0.04467721,-0.06423076,-0.01409661
0.03954714,0.2860321,0.9519433,0.05118158,-0.05390671,-0.01213845
0.04058568,0.28684,0.950907,0.05286112,-0.03854148,-0.01033493
0.03896836,0.2878814,0.9507875,0.04811616,-0.03176232,-0.01089283
0.03663894,0.2913603,0.949105,0.04301288,-0.0342807,-0.01115819
0.03589648,0.2925618,0.9443208,0.03073976,-0.02114814,-0.01065099
0.03678236,0.2911664,0.9398902,0.01815858,-0.002562748,-0.01097861
0.03820723,0.2917504,0.9414853,0.0104784,0.006541337,-0.01013608
0.03734685,0.2917895,0.9418529,-0.0001592288,0.01529643,-0.009249993
0.03742911,0.2918636,0.9377951,-0.01328927,0.02741941,-0.01110326
0.03910736,0.2937513,0.9369578,-0.02761114,0.04735317,-0.01032903
0.04087222,0.2958172,0.9397289,-0.03915141,0.06565977,-0.004557974
0.04328739,0.2961666,0.9434186,-0.04751008,0.07264236,0.0003705496
0.04252032,0.2942756,0.9489458,-0.0543515,0.07950302,-0.0003133341
0.03787039,0.2923619,0.9545808,-0.05961214,0.09248162,-0.004255367
0.03297197,0.2906971,0.9525707,-0.06255354,0.09918355,-0.006226818
0.030978,0.2885717,0.9475058,-0.06065336,0.09247217,-0.008820423
0.03046204,0.2862274,0.949236,-0.06255383,0.08593916,-0.01061534
0.02762396,0.2849227,0.9510701,-0.06291644,0.07412635,-0.007501014
0.02700596,0.2847738,0.9531935,-0.05420895,0.05848252,-0.003067224
0.02799272,0.28366,0.9565456,-0.04808971,0.05835217,0.001975268
0.02459635,0.286381,0.954867,-0.04238234,0.05725344,0.003354718
0.02177809,0.2915541,0.9536064,-0.03705556,0.05243708,0.0003671031
0.02164546,0.2891852,0.9525514,-0.03426501,0.05445154,-0.0009569512
0.02038807,0.2846227,0.9518009,-0.03138799,0.05930805,-0.004390368
0.01813247,0.2815209,0.9557035,-0.02975191,0.06435589,-0.01151313
0.01769229,0.274421,0.9590402,-0.02037674,0.04868172,-0.02119097
0.02118376,0.2686521,0.9616497,-0.00858334,0.02915968,-0.02685122
0.02589689,0.2686035,0.9623743,-0.004946803,0.03462525,-0.01927761
0.02825648,0.2704759,0.9581233,-0.01204885,0.03795369,-0.01203851
0.02475147,0.2716361,0.9523336,-0.02577891,0.03339562,-0.01225237
0.02005005,0.274568,0.9497053,-0.02636174,0.03638723,-0.0100119
0.02237106,0.2798469,0.9521124,-0.01988109,0.03756145,-0.01103439
0.0223635,0.2847803,0.9527495,-0.01889737,0.03411476,-0.01424697
0.0166662,0.2909578,0.952399,-0.02237584,0.03332892,-0.01230057
0.01443112,0.292303,0.9549602,-0.03101662,0.03365947,-0.01312689
0.01504797,0.285453,0.9566993,-0.03205149,0.03227786,-0.00986988
0.01688394,0.2814925,0.9580878,-0.03182514,0.03153687,-0.001304997
0.01786272,0.2813672,0.9535613,-0.03666123,0.03254064,-0.003893464
0.01789778,0.2779527,0.9481772,-0.03443086,0.03671935,-0.006066067
0.01839248,0.2732419,0.9545502,-0.03119252,0.04008982,-0.002174781
0.0165686,0.2743258,0.9602061,-0.02791542,0.03695009,-0.005399488
0.01533805,0.2765516,0.9599887,-0.02353404,0.0293865,-0.01008095
0.01419238,0.2736606,0.9625598,-0.02250297,0.02221046,-0.01213825
0.01195304,0.2731314,0.9618908,-0.02201315,0.02214538,-0.008820962
0.01065315,0.2725233,0.958083,-0.02198558,0.02327821,-0.001818063
0.008135278,0.2713749,0.9591654,-0.02080495,0.01823206,-0.00362921
0.008374272,0.2750357,0.958027,-0.02013856,0.0170317,-0.005341381
0.01173199,0.2753221,0.9539536,-0.02059733,0.02021333,3.098714e-05
0.01404031,0.2748401,0.9570241,-0.01965164,0.02132718,0.003033397
0.01531348,0.276731,0.9602773,-0.01883761,0.02167572,0.004072202
0.0143934,0.277903,0.9584059,-0.01719004,0.01904901,0.0007187703
0.01416978,0.2793046,0.9567205,-0.01669424,0.01618932,-0.006014876
0.0138926,0.274318,0.9565141,-0.0165323,0.01831972,-0.004989983
0.01189316,0.2684404,0.9594852,-0.01471839,0.01911385,-0.00286953
0.01228574,0.2691135,0.9613312,-0.01425668,0.01538477,-0.005516116
0.01288371,0.2701357,0.9608959,-0.01265086,0.01320016,-0.004636524
0.01177427,0.2714149,0.9615208,-0.01104765,0.01508073,-0.003653951
0.009804448,0.2734778,0.960777,-0.01180211,0.01688589,-0.004030229
0.007955792,0.274561,0.9607729,-0.01063732,0.01554738,-0.001493643
0.009763326,0.2750072,0.959638,-0.009771161,0.01269279,-0.002543652
0.01224029,0.2757783,0.9573177,-0.01321213,0.007604917,-0.006854016
0.01127134,0.2743386,0.958511,-0.01560406,0.003374528,-0.006230612
0.01141511,0.2687589,0.9586033,-0.01031421,0.005543142,-0.001647595
0.0133125,0.265514,0.9579963,-0.0003412926,0.01000144,0.00183242
0.01210012,0.2665724,0.9585701,0.006584545,0.01724722,0.003521999
0.0102779,0.2692526,0.9583922,0.005338981,0.02209658,0.001154123
0.009670446,0.2709108,0.9592639,-0.007526451,0.01092034,-0.003302752
0.008874795,0.2709198,0.9600103,-0.01850341,0.0009616533,-0.001818122
0.008338723,0.2720334,0.9597757,-0.008025967,0.007338834,-0.001787137
0.006417567,0.2722635,0.959596,0.002027024,0.01014112,-0.005868833
0.006359094,0.2722519,0.9597309,-0.0119663,0.006234448,-0.005134188
0.007635644,0.2723858,0.9584187,-0.02069276,0.007432719,-0.005269238
0.005563094,0.2718622,0.9524112,-0.01174435,0.007094828,-0.005018743
0.005559927,0.2724008,0.9470675,-0.009239065,0.002903056,-0.001150467
0.008233789,0.2710044,0.9504435,-0.01017102,0.002286926,-0.001866798
0.01124025,0.2695252,0.9551573,-0.006837194,0.00733376,-0.004939933
0.01375943,0.2688815,0.952956,-0.007257597,0.01278977,-0.005376289
0.01233482,0.2664755,0.9547438,-0.007879803,0.009548319,-0.00474214
0.01197433,0.2653588,0.9615468,-0.005572301,0.004788855,-0.006794306
0.01276196,0.2676374,0.9635024,-0.005018304,0.006536402,-0.009131587
0.01035507,0.2716775,0.9650805,-0.00632572,0.003861731,-0.007318796
0.008667541,0.2714282,0.9627286,-0.006417085,0.0004914521,-0.003936567
0.007030244,0.269662,0.9577017,-0.00396479,0.001240186,8.985048e-06
0.004883169,0.2706267,0.9618841,-0.001457779,-0.002017626,-0.0002755853
0.005416837,0.269049,0.9648088,-0.001700501,-0.003022205,-0.003671934
0.006906998,0.2693472,0.9625279,-0.001323046,-0.005752093,-0.003036344
0.007460696,0.2719856,0.9626843,0.003199466,-0.01600081,-0.003158227
0.00844538,0.2721978,0.9605127,0.006537525,-0.02088706,-0.002951601
0.009454769,0.2726092,0.9573317,0.005374335,-0.02280164,-0.001337543
0.008238767,0.2719931,0.9584106,0.004565346,-0.02599464,-0.004327411
0.008125185,0.271698,0.9622224,0.006638023,-0.02613058,-0.008230314
0.01082519,0.2703443,0.965845,0.008261916,-0.02777397,-0.008105721
0.01239518,0.2657737,0.9669099,0.008546689,-0.03034174,-0.005866776
0.01298228,0.265003,0.9632889,0.01116287,-0.03122244,-0.006356077
0.01357744,0.2681245,0.9566186,0.01213625,-0.03198791,-0.006267769
0.01498002,0.2703965,0.9547646,0.00980985,-0.03175282,-0.003602038
0.01717899,0.2697176,0.9584358,0.01091295,-0.03406875,-0.002656657
0.0185048,0.2690369,0.9606617,0.01169879,-0.03969877,1.3579e-05
0.01938833,0.2717545,0.9589699,0.01147302,-0.0423581,0.0005986403
0.01710005,0.2727575,0.9577005,0.01572875,-0.04270086,-0.001180443
0.01476752,0.2720555,0.9607044,0.02226058,-0.0465489,0.000574883
0.01977202,0.2724657,0.9627715,0.03265404,-0.05187294,0.0007269543
0.02388522,0.2729941,0.9622797,0.03889252,-0.05089858,0.001844148
0.02037055,0.2736656,0.961779,0.02814665,-0.0484299,0.00255427
0.01807172,0.2718809,0.960619,0.01808994,-0.049433,-7.840601e-05
0.01988235,0.2701678,0.9611006,0.02429445,-0.04300279,0.0001494753
0.01977678,0.272345,0.9612438,0.0276786,-0.03661136,-3.26539e-05
0.01925893,0.2756059,0.9595076,0.02154029,-0.04398622,0.0002570498
0.02192203,0.2780087,0.9578945,0.02064766,-0.04898687,0.001448953
0.02455919,0.2780106,0.9555231,0.02029914,-0.04227893,-0.0009962396
0.02551023,0.2763693,0.9536267,0.01743894,-0.03728181,-0.003731635
0.024926,0.2749388,0.9525764,0.01930137,-0.03817323,-0.00395161
0.02404861,0.2732924,0.9538547,0.0197965,-0.03576937,-0.001228028
0.02579786,0.2734377,0.955196,0.0208089,-0.03207306,-0.0008651914
0.02858877,0.2756738,0.9525366,0.02478024,-0.03652401,-0.003230706
0.02973218,0.2764028,0.9517967,0.02595347,-0.04131894,-0.004359822
0.02791926,0.2762299,0.9507413,0.0281866,-0.03987149,-0.00746874
0.02523987,0.2777572,0.9468928,0.02889969,-0.04040371,-0.007252252
0.0251631,0.279329,0.9467429,0.02730193,-0.04440081,-0.003885818
0.02699577,0.2810377,0.947098,0.03084259,-0.04555672,-0.003627905
0.03040834,0.2828956,0.9503101,0.0354522,-0.04410204,-0.001247159
0.03232638,0.2827862,0.956864,0.03661579,-0.04217465,-0.0001683608
0.03261362,0.2836185,0.9562843,0.03410455,-0.03691749,-0.002803813
0.03658367,0.2855901,0.9550023,0.03023245,-0.03303488,-0.002913091
0.03969321,0.2862584,0.9566206,0.03002406,-0.0317806,-0.003071958
0.03658802,0.2860684,0.9541855,0.02812045,-0.02492351,-0.00403396
0.03312227,0.2840722,0.9523442,0.0235605,-0.0178441,-0.004056629
0.03449795,0.2827241,0.9514304,0.02500549,-0.01594087,-0.003282275
0.034776,0.2835971,0.95005,0.02496474,-0.01418841,-0.002222402
0.03256629,0.2843298,0.9505954,0.01606197,-0.008983534,-0.001655546
0.03524452,0.2844037,0.9506355,0.008234122,-0.002509563,-4.740048e-05
0.03723616,0.2821318,0.9506158,0.005674182,0.002191809,-0.0006034896
0.03558065,0.2806197,0.9495293,0.001918552,0.0108761,-0.0007798351
0.03618957,0.2860877,0.94955,-0.007088264,0.02246032,0.002841503
0.03623455,0.2928917,0.9510078,-0.0155273,0.03209374,0.004010832
0.03646004,0.2925244,0.9492112,-0.01634799,0.03527326,0.002990183
0.03898719,0.290201,0.950065,-0.01214311,0.03168701,-6.81639e-05
0.04074085,0.2900205,0.9502859,-0.005781881,0.04152835,-0.003841111
0.03893797,0.2863853,0.9472688,-0.00479316,0.05752859,-0.004663883
0.03294777,0.2830282,0.9476034,-0.0251494,0.05920262,-0.003185396
0.02769417,0.2838481,0.9476763,-0.04892062,0.05918889,0.001973409
0.02509153,0.2852499,0.9489655,-0.03958012,0.06413654,0.004847106
0.02457724,0.2884797,0.9491935,-0.0244056,0.06870474,0.0031645
0.02510187,0.2895327,0.9485132,-0.03050685,0.05987933,0.002391012
0.02415009,0.286339,0.9538466,-0.02945242,0.04488259,0.001703361
0.02460198,0.2844164,0.9567219,-0.02902479,0.04754656,0.000679786
0.02723148,0.2826383,0.9559002,-0.03340214,0.05028487,-0.0004032492
0.02934852,0.2814269,0.956086,-0.02569208,0.04912536,-0.0008073251
0.02900608,0.2817956,0.9574336,-0.02537028,0.05483588,-0.002120977
0.02610137,0.2811478,0.9606637,-0.02522767,0.05309187,-0.004199874
0.02436177,0.2802864,0.9657413,-0.02083726,0.04835445,-0.003923308
0.02402005,0.2801743,0.9706095,-0.02502227,0.04327431,-0.004612618
0.02183917,0.2797697,0.9638547,-0.02528215,0.0384289,-0.005820026
0.01829613,0.2779211,0.9558549,-0.02692443,0.04011827,-0.004901858
0.01835459,0.2772324,0.9604613,-0.02757661,0.03590541,-0.000604414
0.01889246,0.2783342,0.9596335,-0.02382424,0.02864567,0.004058711
0.01583632,0.2785596,0.9520507,-0.0234976,0.02659106,0.001331305
0.01802226,0.2793474,0.9488831,-0.0195226,0.02712308,-0.001464599
0.02114712,0.2789317,0.9491977,-0.02035541,0.03026926,0.001830724
0.01870605,0.2757227,0.9516069,-0.02191143,0.03108411,0.004238398
0.01932159,0.2726334,0.9524203,-0.01845433,0.03115598,0.005261221
0.01998153,0.2713574,0.954403,-0.02015902,0.03123103,0.005154028
0.01888468,0.2724648,0.9555442,-0.02001597,0.02941526,0.003745236
0.01908984,0.2725428,0.9543576,-0.02119865,0.02815744,0.0044708
0.01541972,0.2720948,0.9588987,-0.02272355,0.02429048,0.005445724
0.01088877,0.2743276,0.9611495,-0.01843361,0.02193519,0.004845981
0.01055267,0.275515,0.9587402,-0.01669263,0.02441935,0.002056636
0.01273945,0.2748368,0.9588971,-0.01621672,0.02578614,-0.001910037
0.01490652,0.2741488,0.957239,-0.01696413,0.02251614,0.0006597472
0.01640559,0.2738624,0.957041,-0.01809905,0.0162436,0.006260491
0.01673462,0.2735365,0.9609298,-0.01729846,0.01150588,0.005696512
0.01372555,0.2718292,0.9630404,-0.01437576,0.008234251,0.001300167
0.01152206,0.271744,0.9612013,-0.006576043,0.01363066,-0.00280988
0.01255712,0.2731541,0.958368,-0.003836142,0.02668405,0.0005050166
0.01277749,0.2737803,0.9591131,-0.00775006,0.0280785,0.005973208
0.01234673,0.2750559,0.9568733,-0.01264562,0.01780333,0.002223011
0.01244631,0.2737181,0.9529611,-0.01773628,0.009774323,-0.0003471434
0.01227075,0.2706654,0.9581187,-0.01369604,0.01176327,-0.0003278198
0.01065894,0.2705044,0.9638359,-0.007884345,0.01476368,-0.001656074
0.009104905,0.2698299,0.9644597,-0.01064262,0.009478356,0.001112775
0.009660338,0.2704295,0.9655142,-0.01051556,0.007176356,0.001324847
0.01035445,0.2734407,0.9652576,-0.008625965,0.004230498,0.0001096355
0.01171525,0.272334,0.9625914,-0.01129064,0.0006540777,0.0008258485
0.01480356,0.2712428,0.9591948,-0.0116967,0.006324162,-0.001528404
0.01560469,0.2720668,0.9561921,-0.01154729,0.009505583,-0.00287937
0.01215518,0.2701015,0.9551322,-0.0110121,0.01190171,-0.003795638
0.009162656,0.2687568,0.956012,-0.004122607,0.01280496,-0.005210891
0.009324652,0.2653419,0.9580205,0.0006776466,0.005528191,-0.004832218
0.009109582,0.260518,0.9591058,-0.00154654,0.001574588,-0.006312787
0.0083244,0.2626977,0.9578948,-0.002686789,-0.0008395209,-0.009565718
0.009956302,0.2655576,0.9571465,-0.001260481,0.002310108,-0.009071871
0.01176912,0.2662004,0.9571525,-0.0001661316,0.009735278,0.002562432
0.01030623,0.2696899,0.9568843,0.001011991,0.006689877,0.0147898
0.009299921,0.2726721,0.9585707,0.001876246,0.006496824,0.01121194
0.01180243,0.2741586,0.9581128,0.001244744,0.00823713,0.007541488
0.01317789,0.2740475,0.9535455,-0.0005694381,0.001483064,0.01228899
0.01241452,0.2730975,0.9527584,-0.004395806,-0.001131783,0.009646046
0.01233489,0.274658,0.958829,-0.01034747,0.0006836274,0.006664084
0.01242299,0.2740128,0.9658173,-0.01756936,0.003183177,0.009840586
0.01093541,0.2694158,0.9665756,-0.02280926,0.00808894,0.008308344
0.007155051,0.2642787,0.9650738,-0.01862317,0.01173045,0.007177523
0.004965468,0.2612896,0.9657706,-0.01080226,0.00817919,0.005936606
0.008033885,0.2642203,0.9624796,-0.006989671,0.000831784,-0.0001583688
0.0111767,0.2666845,0.9586985,0.002847201,0.001826823,-0.002178709
0.009527167,0.2654718,0.9599182,0.01298532,0.002363197,-0.003067056
0.008079307,0.2688235,0.9611354,0.005546274,-0.001189997,-0.003217929
0.008738643,0.2732681,0.9619681,-0.00763937,0.002109922,0.001020846
0.00767639,0.2727575,0.963012,-0.01129465,0.0006069752,0.001431852
0.006489654,0.273216,0.9626047,-0.01906965,-0.01006153,-0.0002752945
0.005547373,0.2800533,0.9631857,-0.04290446,-0.01915278,0.0002045834
0.00617265,0.2920955,0.9624377,-0.07324673,-0.02170882,-0.001855457
0.01020357,0.3015799,0.9538732,-0.1001912,-0.02144077,-0.00310509
0.01358415,0.3013471,0.9444829,-0.1397847,-0.01508237,0.001186451
0.01956924,0.2958835,0.9475904,-0.1990124,0.03128546,0.0006236317
0.02913381,0.2872047,0.9573778,-0.2149437,0.0984113,-0.007651346
0.03346066,0.2739315,0.9611907,-0.1601437,0.1091109,-0.01378202
0.02750605,0.2663148,0.9602536,-0.1253561,0.07655761,-0.01683089
0.01402893,0.258937,0.9598705,-0.1480353,0.06641415,-0.01487869
0.003576705,0.2406868,0.9654002,-0.1618247,0.0639376,-0.01120355
-0.004895643,0.2206271,0.9753073,-0.1524238,0.0293789,-0.01113124
-0.01521573,0.2006747,0.9799497,-0.1449527,-0.01712992,-0.009160836
-0.01296708,0.1920611,0.98051,-0.111244,-0.03724593,-0.005943096
-0.002489997,0.1963739,0.9832491,-0.0478849,-0.03308842,0.0001281531
-0.002064522,0.1863074,0.9868148,0.002304154,-0.04040078,0.004837184
-0.004431065,0.1797858,0.9837211,0.0527455,-0.06357272,0.00211522
-0.003591417,0.1976634,0.9760733,0.09428508,-0.07665325,0.002167321
-0.003848669,0.2143143,0.9758012,0.08323091,-0.08694787,0.002869765
-0.001702721,0.2273671,0.9779083,0.0722398,-0.09176574,0.003903745
0.001717852,0.2464262,0.9764913,0.07955908,-0.08413913,0.008896724
0.008484749,0.2595825,0.9723814,0.05521034,-0.08420662,0.00987765
0.01575726,0.2615214,0.9643621,0.03118655,-0.07230281,0.01083007
0.01229071,0.2611896,0.9620506,0.02791838,-0.05050032,0.0112531
0.009968505,0.2620112,0.9634455,0.01244949,-0.05488552,0.009241581
0.01346439,0.2630757,0.9626164,-0.007557836,-0.06688875,0.007320197
0.0162565,0.2640818,0.9643217,-0.01177504,-0.07032057,0.001478164
0.02442861,0.2525189,0.9625742,-0.006806071,-0.06515274,-1.474441e-05
0.02925721,0.236585,0.9574132,-0.00880985,-0.0458442,-0.001047841
0.0285833,0.2359875,0.9535021,-0.0103965,-0.03107246,-0.009703222
0.03010141,0.2364589,0.9505821,-0.007774677,-0.02745366,-0.01484379
0.0287613,0.2333598,0.9528623,-0.01472895,-0.01659355,-0.01964757
0.02772015,0.2359499,0.9589012,-0.0180786,0.001019635,-0.02832694
0.02461714,0.2369096,0.9642061,-0.01441761,0.003205037,-0.03294543
0.01829603,0.235552,0.9654964,-0.01113463,-0.009310349,-0.03200483
0.01958201,0.2371125,0.9698224,-0.003979373,-0.02379983,-0.03028245
0.02187422,0.2407992,0.9807283,0.0003730217,-0.03845047,-0.02951536
0.02447441,0.2441045,0.9796873,0.007844398,-0.03798563,-0.0274367
0.03172858,0.2423655,0.9730164,0.02148259,-0.03381774,-0.03392775
0.03110624,0.2345144,0.9702882,0.03724854,-0.03858961,-0.05029257
0.02870909,0.2283094,0.9567787,0.04119356,-0.02292775,-0.06288231
0.0308901,0.2275047,0.9518917,0.008558104,-8.130503e-05,-0.07473742
0.02253808,0.2246669,0.9647696,-0.01458388,-0.001772675,-0.08594972
0.007248289,0.2146419,0.9760768,0.02033206,-0.03530352,-0.08924953
-0.0004139559,0.2093954,0.9869921,0.05666342,-0.0946982,-0.09169135
0.002892776,0.2216445,0.9832792,0.05061819,-0.1182146,-0.09200202
0.007694686,0.2354294,0.9667362,0.04721407,-0.07988495,-0.07492667
0.004718699,0.237271,0.9622953,0.05778503,-0.05253555,-0.04945393
0.00490666,0.239405,0.9626858,0.05084418,-0.06180008,-0.03664029
0.008242323,0.2453849,0.9625353,0.04547503,-0.05268454,-0.02339267
0.01179171,0.250012,0.9563885,0.04322664,-0.02575537,-0.002556106
0.02460752,0.2579886,0.9472303,0.0317751,-0.011956,0.009290472
0.03310435,0.2692557,0.9512559,0.02663676,0.01082578,0.01803269
0.03710264,0.2725384,0.9553137,0.01072105,0.03174861,0.02615366
0.04451868,0.2706864,0.9570593,-0.007722845,0.0408876,0.02878363
0.04143521,0.2686088,0.9582537,-0.01059785,0.06205953,0.03017235
0.03536852,0.2587072,0.9528904,-0.01541797,0.06482067,0.02514558
0.03179944,0.2494288,0.9515685,-0.02182458,0.05668067,0.02008223
0.025378,0.2434156,0.9506503,-0.0301191,0.06479337,0.01745393
0.02345497,0.23557,0.9550569,-0.03087516,0.06453729,0.01292505
0.02020272,0.2343951,0.966801,-0.02527725,0.06366774,0.01558443
0.01569158,0.2350295,0.9705337,-0.02519246,0.05610889,0.01491865
0.01706568,0.2344574,0.9749794,-0.01590614,0.03482364,0.006881918
0.01672714,0.2361024,0.9789874,-0.005472473,0.02932972,0.002421893
0.01618146,0.2362112,0.974833,0.002469006,0.03248188,0.0009950992
0.01765739,0.237733,0.9677549,0.007151083,0.0319423,0.004121515
0.01818621,0.2406116,0.9596268,0.001472586,0.0300695,0.005543562
0.02148543,0.2435825,0.9598594,0.0002402683,0.0295602,0.006569735
0.02428294,0.2456474,0.9637422,-0.002967583,0.03258546,0.00954666
0.02488546,0.2454166,0.9625348,-0.005773208,0.03623713,0.008163093
0.02373542,0.2452702,0.9650483,-0.003294686,0.04188887,0.01105102
0.01737675,0.2427198,0.9679896,-0.005461966,0.03802419,0.01280164
0.01356048,0.2402444,0.9673558,-0.002273363,0.03158187,0.009507178
0.01532052,0.2386162,0.9713284,0.002329091,0.03787096,0.008975607
0.0150926,0.2366935,0.9779858,0.007384586,0.04048271,0.007750362
0.01145919,0.2395498,0.9779504,0.008247121,0.03787978,0.008102426
0.008636464,0.2410809,0.9716257,-0.01374596,0.03228708,0.005202588
0.01050268,0.2389429,0.9678256,-0.03306084,0.02216661,-0.0004917702
0.01188219,0.2386958,0.9692295,-0.02107596,0.02212823,0.0003428251
0.009796873,0.238995,0.9702468,-0.00654823,0.02355562,0.005845448
0.009382441,0.2399404,0.9690378,-0.01661123,0.01992368,0.01415988
0.009871149,0.2401613,0.9692679,-0.01881046,0.02758133,0.01416516
0.009007209,0.2380899,0.9699002,-0.009450087,0.03471031,0.01221563
0.005946312,0.2350344,0.9703355,-0.0144576,0.02395773,0.01872334
0.002344306,0.2322374,0.9750448,-0.01198832,0.01413845,0.01803746
0.003027571,0.2298186,0.9780704,-0.007006919,0.01630496,0.01746714
0.005102295,0.2267459,0.9747388,-0.007700715,0.01555846,0.01959517
0.004104789,0.2271904,0.9752891,-0.002184907,0.01178777,0.01534641
0.003881446,0.2290081,0.9777411,-0.002767094,0.01003183,0.01622657
0.005536442,0.2289569,0.9734019,0.0002350621,0.003938452,0.01621156
0.005641892,0.2341926,0.9698379,0.001714975,-0.0006973787,0.01327437
0.005528608,0.2395137,0.9694631,-0.001979606,0.00270114,0.01426143
0.005653672,0.2370687,0.9691252,0.002622772,0.01036517,0.01300584
0.005728078,0.2333677,0.9724711,-6.360929e-05,0.01463269,0.01310286
0.007517459,0.2327202,0.9764289,-0.0009496904,0.007230422,0.01293198
0.00881391,0.2335835,0.9774184,0.001986441,-0.0005792783,0.01197899
0.008112076,0.2334703,0.9727574,-0.000261649,0.0001050042,0.01439564
0.005771085,0.2330456,0.9650055,0.00148804,0.007732969,0.01546778
0.002350078,0.2330255,0.9667958,-0.004735422,0.01781248,0.01705952
0.0007300747,0.2311188,0.9725336,-0.01104349,0.005956249,0.01697459
0.002144497,0.2304151,0.9739641,-0.009840755,-0.01133546,0.0156672
0.003576638,0.2313049,0.974446,-0.01411576,-0.005715219,0.01713987
0.003283199,0.2289692,0.9730322,-0.01759591,-0.004976834,0.01705588
0.006051078,0.227099,0.9746398,-0.01941506,-0.009934506,0.01946934
0.009885128,0.2290336,0.9767197,-0.02439238,-0.00581033,0.02270868
0.00808336,0.2315157,0.9751681,-0.03459781,0.001013686,0.02480537
0.006119862,0.2350208,0.9765949,-0.04298994,0.009148766,0.03325771
0.007574455,0.2367162,0.9791438,-0.03968469,0.000626075,0.03889973
0.00960602,0.2342781,0.9811867,-0.02943134,-0.01139622,0.03875233
0.01113109,0.2332307,0.9775579,-0.00807594,0.008137032,0.04198183
0.009552924,0.2287657,0.9644091,0.003715562,0.05380989,0.03823365
0.004112268,0.2178518,0.9582506,-0.03480604,0.08941737,0.02642098
-0.004851867,0.2127162,0.9738896,-0.07467654,0.05734948,0.02265297
-0.009407056,0.2205354,0.9913121,-0.0488215,-0.009214945,0.0288518
0.000430224,0.230719,0.9805419,-0.019371,-0.01704897,0.04272047
0.01227441,0.2274357,0.9677843,-0.03076298,0.006039692,0.04958035
0.01801123,0.2202576,0.9696791,-0.03518777,0.02490991,0.03268743
0.02526223,0.2179345,0.9617107,-0.03654327,0.04061209,0.005517209
0.01920034,0.2102837,0.9715216,-0.02686668,0.01783153,-0.01519467
0.002298799,0.2050719,0.9926014,-0.0004735201,-0.00188195,-0.02062358
0.004696111,0.2063861,0.980843,-0.005853717,0.01553609,-0.0183464
0.01205712,0.2064446,0.9703548,-0.007865369,0.02511347,-0.02124175
0.007315707,0.204464,0.9712957,0.009049876,0.02393704,-0.01858048
-0.001921289,0.2022678,0.96976,0.011961,0.01423183,-0.01153241
-0.0174601,0.2044768,0.9826823,0.02156943,-0.01753681,-0.002431939
-0.01777856,0.2069826,0.9889912,0.01971359,-0.0450028,0.009640761
-0.004448782,0.2118003,0.9843424,0.007450163,-0.03651425,0.01114433
-0.002651636,0.2212797,0.9828428,0.008156022,-0.01988152,0.0118956
0.003658454,0.2262156,0.9717824,0.001833272,-0.01841508,0.01621427
0.01081552,0.2275625,0.963621,0.002788895,-0.0002316579,0.01451419
0.009324565,0.224932,0.9689815,0.006213023,0.01040719,0.01051269
0.01025315,0.2204313,0.9733652,0.001630983,-0.008414775,0.000690028
0.00839606,0.2174581,0.9714516,0.004506488,-0.01812027,-0.01031893
0.008939228,0.2158635,0.971215,-0.004258969,-0.01856696,-0.01417196
0.01061324,0.2156248,0.9741223,-0.0196192,-0.009049132,-0.01526156
0.008957597,0.208476,0.9741079,-0.02461232,0.005834581,-0.0185152
0.01032592,0.2033118,0.9801714,-0.01527565,0.0006129199,-0.02342835
0.009422607,0.2034612,0.9873652,0.008655104,-0.02089888,-0.02295126
0.007989184,0.2019033,0.9858224,0.0245163,-0.04915951,-0.02259344
0.002198227,0.2072628,0.9859195,0.03692735,-0.06548281,-0.02158563
-0.005925751,0.2098381,0.9843944,0.04521883,-0.07868265,-0.00825878
-0.002262005,0.2065342,0.9821715,0.04848396,-0.09205385,0.004817304
0.00348416,0.2044352,0.9807759,0.0850668,-0.05871298,0.006440191
0.005358296,0.2016345,0.9705335,0.1327073,-0.02915029,0.003251911
0.007684781,0.2157176,0.9611479,0.1368717,-0.07525835,0.003693799
0.01137925,0.2460622,0.9625355,0.1083206,-0.1130149,0.006894062
0.01842291,0.2628772,0.9656252,0.08173571,-0.08286659,0.006219927
0.02363105,0.2531418,0.9612265,0.05507311,-0.05564278,0.004399911
0.02570511,0.2373189,0.9589609,0.02242719,-0.05221691,-0.0007773753
0.02193861,0.229889,0.9625624,0.01581513,-0.04408533,-0.006954018
0.01164867,0.2145786,0.9669854,0.03549479,-0.04884281,-0.007801242
0.01071451,0.2007886,0.9795285,0.05467389,-0.05755169,-0.01271617
0.01629218,0.2006153,0.9857722,0.07434107,-0.05820003,-0.01853456
0.01805323,0.2060196,0.9751275,0.08021412,-0.06287435,-0.01549583
0.02419923,0.2193898,0.9670342,0.07202443,-0.05405113,-0.007583638
0.02724174,0.2260305,0.9665071,0.0729751,-0.04575947,-0.003560296
0.02496463,0.2274183,0.9645552,0.07112531,-0.04763945,-0.008949161
0.02615302,0.2338969,0.9601148,0.06184571,-0.03918371,-0.01381986
0.02277022,0.2347734,0.9616695,0.05793195,-0.03653046,-0.01056227
0.02108292,0.2368223,0.9649022,0.05220391,-0.03690806,-0.006566569
0.02414742,0.2353641,0.962653,0.04681358,-0.02700207,-0.005112524
0.02333784,0.2299153,0.96153,0.04675807,-0.003620405,-0.004580113
0.02273206,0.2301439,0.9601656,0.04157877,0.03061712,-0.005417265
0.01832098,0.2271871,0.9641573,0.02941886,0.03880972,-0.004600555
0.01326006,0.2289727,0.9710422,0.01294805,0.02796667,0.0001325196
0.01571152,0.2357873,0.9678602,-0.001428596,0.02568392,0.004033416
0.01874789,0.239913,0.9668221,-0.004596813,0.02016733,0.004559487
0.02072993,0.2407119,0.9687407,-0.0005049607,0.02546294,0.003342698
0.02429065,0.2366531,0.9648199,0.002255351,0.04788427,0.003768465
0.02836144,0.2385312,0.9629881,0.0008848816,0.05653724,0.00388674
0.02834262,0.2376113,0.9634248,5.222863e-05,0.04647433,-0.000608327
0.02400401,0.2320042,0.9612771,-0.0007610964,0.03933221,-0.002973835
0.01937426,0.2325225,0.9578956,-0.006168693,0.04767569,-0.001070557
0.01491636,0.2305916,0.9581544,-0.01120783,0.05996533,0.0006768165
0.01506978,0.2302095,0.9619441,-0.01395456,0.06684806,0.001036571
0.01641275,0.228771,0.9642848,-0.01423753,0.074977,0.0002741238
0.01418071,0.226755,0.966439,-0.01209908,0.07516255,-0.0006223826
0.01375931,0.2309387,0.9697815,-0.01185789,0.06456043,-0.002913785
0.009924749,0.2281665,0.9744116,-0.01001843,0.05087002,-0.0005160893
0.002793767,0.2243689,0.9773912,-0.002056247,0.03462943,0.004244424
0.002486183,0.2220412,0.9734435,0.01003549,0.03290117,0.002182638
0.006102114,0.2194807,0.9675928,0.01799601,0.03841775,0.0005801702
0.009569407,0.2255221,0.962912,0.01424999,0.03415603,-0.0008607091
0.01044147,0.228536,0.959011,0.00232879,0.03497054,-0.003615971
0.008244677,0.2302978,0.9643717,-0.006960152,0.03587576,-0.0006071875
0.007440952,0.2349988,0.9750284,0.0002176091,0.03272907,0.003310359
0.004895874,0.233518,0.9779382,0.009843604,0.03141136,0.003053405
0.001538108,0.2326248,0.9786012,-0.001822668,0.02660216,0.002473219
0.002361274,0.2333777,0.9806853,-0.01175609,0.02772981,0.005749696
0.002542831,0.2313622,0.9757899,-0.01030747,0.03069885,0.006897302
0.000785746,0.2289934,0.9689162,-0.01435046,0.02782691,0.004235786
0.001703589,0.228512,0.9690789,-0.01119808,0.02916966,0.006407528
0.004586696,0.2285636,0.9727534,-0.004592664,0.02984138,0.008535659
0.006049541,0.2258533,0.9743877,-0.006214529,0.02745696,0.007998456
0.005833406,0.2232876,0.9736315,-0.003661925,0.02647431,0.006235488
0.004344114,0.2219067,0.973298,-0.000990266,0.0228631,0.0003226143
0.001052701,0.2226145,0.9736193,-0.002664937,0.01550734,-0.001134262
-0.002434741,0.2249586,0.9727451,-0.001642568,0.008125744,-0.001157991
-0.002244853,0.2251573,0.9721775,0.001997045,0.009776134,-0.004803704
-0.0002434973,0.2264097,0.9741747,0.005587608,0.01462787,-0.001939487
-0.001923573,0.226056,0.9766498,0.00573177,0.01064341,0.001650027
-0.00279639,0.2228556,0.9766943,0.005858881,0.01008907,0.001504696
-0.002001904,0.222657,0.975416,0.007537989,0.0122864,0.003579455
-0.00210262,0.2226101,0.9727041,0.007961499,0.007985616,0.004717788
0.001883723,0.2237206,0.9689116,0.01018488,0.007640235,0.004481744
0.003989863,0.2269253,0.9695486,0.009090655,0.009765204,0.004072729
0.00204813,0.2266595,0.9746827,0.001172892,0.01205771,0.003735583
0.001657121,0.2259794,0.9773798,-0.003877107,0.01547348,0.003688643
-0.0008295971,0.2266733,0.9755476,-0.002802712,0.01389344,0.002949505
-0.003020965,0.2262801,0.9732497,-0.001403177,0.01470774,0.003190536
-0.002890477,0.2263633,0.9734444,-0.001670354,0.01765758,0.001907292
-0.002808361,0.226127,0.9739346,0.0001808853,0.01607444,0.0001064289
-0.002750042,0.2244954,0.9733499,0.001906473,0.01255417,0.001781475
-0.003900792,0.2231463,0.9742198,0.0005801646,0.00505017,0.003771854
-0.004336265,0.2230032,0.9764146,0.002899019,-0.003459389,0.004348401
-0.004192716,0.222235,0.9781869,0.008892274,-0.006355897,0.003765186
-0.004000259,0.2202976,0.9774171,0.01497136,-0.001987053,0.00278173
-0.00312199,0.2215597,0.9748613,0.02335108,0.004614075,0.002005546
-0.002904529,0.224081,0.973502,0.02710039,0.006119361,0.003646932
-0.003405473,0.2235557,0.9704636,0.01162423,0.006408901,0.006079594
-0.00465476,0.2234988,0.9693722,-0.006817697,0.007917888,0.002218474
-0.004315647,0.2238288,0.9716099,0.005465449,0.00674395,0.0004864144
-0.003516979,0.2233724,0.9683101,0.01870724,0.00255947,0.003949304
-0.00368966,0.2237735,0.9674333,0.003946206,-0.0001101541,0.005694365
-0.002706408,0.2235833,0.9742304,-0.000561432,0.004897655,0.009790695
-0.004341672,0.2233336,0.9787441,0.005045413,0.009384727,0.007920852
-0.006224126,0.2225264,0.9792272,0.004235339,0.002565317,0.001765968
-0.003603018,0.2200096,0.9746387,0.007202683,-0.003308411,0.002797149
-0.002121375,0.2188728,0.9714719,0.003802846,0.001311952,0.00227549
-0.003941294,0.2203425,0.978648,0.0009186784,0.004043645,0.002367253
-0.005618022,0.2241412,0.9838515,0.001238767,0.001420966,0.003529759
-0.005702603,0.2276164,0.9784603,-0.001750962,-0.001207257,0.002097921
-0.005458487,0.2268688,0.9740835,0.002390023,-0.007791101,0.004143539
-0.00562258,0.224801,0.9767831,0.003243073,-0.01325307,0.002652164
-0.006031168,0.2231795,0.977642,0.004790009,-0.01461817,-0.003117842
-0.008271598,0.2201725,0.9776511,0.0121126,-0.02400549,-0.005852851
-0.01055131,0.2207847,0.9829045,0.01606506,-0.03854188,-0.002171228
-0.009270661,0.2237086,0.9832837,0.02400242,-0.0451735,0.00339243
-0.005427496,0.2220479,0.9758654,0.0245115,-0.04462455,0.0007749098
-0.002422416,0.222497,0.9692196,0.02161149,-0.04603039,0.0002757054
-0.002226271,0.2248113,0.9684452,0.02671081,-0.05028983,0.002693289
-0.003179294,0.2228952,0.9731474,0.02419666,-0.05095567,-0.00171384
-0.002822084,0.2226077,0.974305,0.02411188,-0.05079013,-0.004072703
-0.002475056,0.2218938,0.9722771,0.02940736,-0.05043134,-0.005758982
-0.002507865,0.2188943,0.9723471,0.02915703,-0.04659774,-0.01074792
-4.336232e-05,0.2176424,0.9728503,0.02972616,-0.04648318,-0.01312107
0.0030727,0.2169884,0.9738071,0.02809962,-0.05035799,-0.01144118
0.005046492,0.218622,0.9719146,0.02739267,-0.05059325,-0.008494772
0.007234349,0.221049,0.9696191,0.03005268,-0.04799971,-0.006774501
0.005854023,0.2248813,0.9704254,0.03000857,-0.04732467,-0.002574512
0.002988071,0.2303684,0.9705446,0.03126004,-0.04710432,0.0005206391
0.005086694,0.229935,0.9725672,0.03004204,-0.04646918,0.002218131
0.006905767,0.2281468,0.9749971,0.02480372,-0.04900898,0.006966031
0.006940441,0.2294293,0.9751934,0.0238654,-0.04957155,0.005696717
0.009976788,0.228234,0.976654,0.03152492,-0.04644161,0.004337422
0.01142488,0.2264262,0.9760209,0.0405064,-0.04029184,0.00693489
0.01068365,0.2273444,0.9708537,0.03664267,-0.03167703,0.004913028
0.01146586,0.2290111,0.9660743,0.02776822,-0.03237099,0.004763828
0.01087863,0.2296879,0.9677096,0.02425892,-0.03121839,0.004693887
0.009798949,0.2299977,0.9754936,0.02209247,-0.0200077,0.004790315
0.008737155,0.2310503,0.9801595,0.01996688,-0.02033404,0.009466227
0.0067809,0.2325866,0.9780607,0.01644984,-0.02712479,0.009504652
0.007747413,0.2332875,0.9732076,0.02538008,-0.0307406,0.005064907
0.01170464,0.2314226,0.9664375,0.04607813,-0.04232627,-0.001524404
0.01651474,0.227972,0.9602224,0.05185282,-0.05517243,-0.005337351
0.01896792,0.2271997,0.9564945,0.05025612,-0.05392568,-0.002445482
0.01916377,0.2290639,0.9548418,0.05275394,-0.03746517,-0.002092388
0.02012651,0.2298095,0.9567891,0.04690089,-0.01949363,-0.001358737
0.01848677,0.2317285,0.9594523,0.032579,-0.01391596,0.00203732
0.01547837,0.2369941,0.9634732,0.02034451,-0.01878564,0.002784342
-0.04461009,0.5302663,0.8565891,0.1553952,-0.01980492,0.3433155
-0.059226,0.5340341,0.852266,0.164725,-0.02764424,0.3464319
-0.06204019,0.5312211,0.8484469,0.1626354,-0.05427181,0.355105
-0.06557669,0.5314939,0.8360311,0.1644455,-0.05879552,0.3615536
-0.06457303,0.5279415,0.8312232,0.1659588,-0.06695336,0.3618194
-0.05981622,0.5260006,0.8339554,0.1639718,-0.0654183,0.3595556
-0.05505669,0.5269501,0.8371341,0.1691662,-0.0602749,0.3586214
-0.05213978,0.5308038,0.8470808,0.1750787,-0.06985229,0.3548317
-0.05636189,0.5335705,0.8577995,0.1844613,-0.06568461,0.3488637
-0.05497954,0.5347683,0.8526746,0.1881703,-0.06569767,0.3436518
-0.05024152,0.5378939,0.8414261,0.1835952,-0.05637003,0.3338419
-0.04910962,0.5374395,0.8412596,0.1787165,-0.03966809,0.3242472
-0.05198178,0.5393609,0.8419499,0.1655821,-0.04790532,0.3212977
-0.05931484,0.5417561,0.8421184,0.1567094,-0.05172757,0.3192933
-0.05869407,0.5402488,0.8441814,0.1592709,-0.05053173,0.3149673
-0.05871269,0.5377445,0.8425391,0.1535694,-0.05634502,0.3108228
-0.06237952,0.5284142,0.8442026,0.1468397,-0.05487051,0.3087776
-0.05598751,0.5236625,0.8460754,0.1562812,-0.05438186,0.3068399
-0.05227654,0.5267656,0.8458382,0.1642402,-0.06322926,0.3025196
-0.05496995,0.5239621,0.8478219,0.159471,-0.06953547,0.2971363
-0.05633283,0.5212832,0.8472928,0.1591458,-0.06260481,0.2923273
-0.05898769,0.5244857,0.8466296,0.162645,-0.05747495,0.2897802
-0.06223642,0.5291625,0.8445762,0.1621558,-0.06499109,0.2883366
-0.06419252,0.5314856,0.8386867,0.1638858,-0.06878837,0.2844697
-0.06065837,0.5313302,0.8361072,0.1621293,-0.06118236,0.2814602
-0.05679065,0.5305445,0.8388074,0.1523597,-0.0550447,0.2800743
-0.06023588,0.5299941,0.8427093,0.144689,-0.055104,0.2770458
-0.06242094,0.5308324,0.8474425,0.1450729,-0.05043935,0.2732069
-0.06082974,0.5300264,0.8572339,0.1460135,-0.04697003,0.2662126
-0.06176987,0.5299152,0.8615809,0.1432846,-0.05509184,0.2621013
-0.06319987,0.5307626,0.8536568,0.1506674,-0.0659504,0.2668665
-0.06252998,0.5269048,0.849138,0.1614827,-0.07123543,0.2682992
-0.06369665,0.5249704,0.8522306,0.1580542,-0.06675707,0.2644085
-0.06715996,0.5261063,0.8558167,0.1551237,-0.06157309,0.2632171
-0.06877569,0.5240469,0.8569121,0.157985,-0.06725384,0.2635226
-0.06819587,0.5210275,0.8542114,0.1605005,-0.0713719,0.2633153
-0.06764618,0.5189726,0.8499441,0.1675958,-0.0701114,0.2631007
-0.06823527,0.5197507,0.8489378,0.1691696,-0.07280431,0.2636885
-0.06802897,0.5223569,0.850822,0.163675,-0.07417143,0.2613824
-0.06648977,0.5234309,0.8494887,0.1608891,-0.07269676,0.2572636
-0.06486284,0.5252921,0.8477982,0.1561947,-0.07098625,0.2550631
-0.06371015,0.5258953,0.8482182,0.1515236,-0.06720116,0.2476147
-0.06678548,0.5246588,0.8509413,0.1511123,-0.06489453,0.2399983
-0.0717449,0.5278544,0.8559683,0.1525329,-0.06694281,0.2420519
-0.07392044,0.5301094,0.8535909,0.1589417,-0.07562074,0.2430869
-0.07554127,0.5268232,0.8497232,0.1651522,-0.085359,0.2377608
-0.07502468,0.524804,0.8504186,0.1644735,-0.08724035,0.235019
-0.07260661,0.5247739,0.8478591,0.1672033,-0.09020033,0.2363415
-0.07199554,0.5252808,0.8480608,0.1723204,-0.1043944,0.2370054
-0.07153825,0.525501,0.8496279,0.1726264,-0.1225449,0.2371804
-0.06931998,0.523702,0.8473279,0.1765057,-0.1263221,0.2377778
-0.06552346,0.5217537,0.8461212,0.1770104,-0.1150381,0.2374857
-0.06419484,0.5216113,0.8444384,0.1720678,-0.1095216,0.2349459
-0.06588763,0.5228456,0.8465086,0.174116,-0.1092316,0.2304422
-0.06532087,0.5225371,0.8513522,0.172777,-0.10458,0.2268692
