accx,accy,accz,gyrox,gyroy,gyroz
0.8433239,-0.09248479,-0.05186726,-0.08565458,0.3668917,0.4412145
0.79628,-0.07572948,0.023792,-0.2483511,0.08076389,0.3027721
0.8297108,-0.08666805,-0.06305158,-0.2589576,-0.2732282,0.4675957
0.9034426,-0.09875238,-0.15929,-0.307481,-0.5869886,0.4772352
0.9067014,-0.1462209,-0.1828256,-0.1897467,0.1115885,0.4518095
0.8836901,-0.1269901,-0.1895419,-0.03537682,0.6342356,0.47024
0.7584893,-0.1197232,-0.1112518,-0.1573179,0.6417295,0.3003174
0.6833625,-0.1941928,-0.09431749,-0.2353364,0.4517052,0.2521176
0.6580693,-0.26417,-0.117143,-0.2258965,0.2409933,0.2111759
0.6585311,-0.3118064,-0.1072529,-0.05282156,0.4403106,0.1407024
0.753824,-0.2813339,-0.1173631,0.2728257,0.5754051,0.06200944
0.779625,-0.208763,-0.08327635,0.3899001,0.7924451,-0.128533
0.7784684,-0.1250518,-0.06366274,0.3341915,0.9800552,-0.2219862
0.7536951,0.004370236,-0.01802132,0.2612853,0.7462405,-0.2785548
0.7208255,0.05851598,0.05147401,0.1167286,0.6349406,-0.2737092
0.9242014,-0.0391852,0.01852426,-0.1440338,0.618546,-0.2360949
1.29612,-0.314218,0.003730722,-0.4009896,0.5642588,-0.3350133
1.584593,-0.62756,0.02510002,-0.4865505,0.3754833,-0.489734
1.579132,-0.6640027,0.02844671,-0.2867843,0.08324916,-0.7583923
1.403985,-0.5278418,0.04412712,0.197743,0.1518259,-0.8536176
1.384354,-0.499356,0.04721759,0.7073244,0.2568137,-0.6464725
1.483901,-0.4472957,0.04661844,0.8014818,0.1406898,-0.5060683
1.583185,-0.2682714,0.04667322,0.3774662,0.1654542,-0.2897993
1.542409,-0.1699345,0.05587255,0.04584096,0.2775989,-0.02450959
1.348868,-0.2166323,0.0901419,0.05061847,0.284191,-0.008399107
1.163656,-0.2907751,0.135646,0.04395443,0.2304601,0.02346223
1.021863,-0.3202749,0.1410298,0.04685294,0.06765886,0.1861269
0.9992353,-0.242805,0.08827746,0.02480191,-0.0798194,0.2103581
0.9301019,-0.1092838,0.04569678,-0.155908,0.01235112,0.2579163
0.8007806,-0.0729063,0.03294092,-0.384875,0.05483778,0.4460632
0.8038894,-0.1393466,0.07442813,-0.4431695,-0.1317498,0.4383313
0.7007968,-0.2089178,0.1384938,-0.2565504,-0.3738043,0.3384315
0.6781227,-0.2538994,0.1353956,-0.0958127,-0.504275,0.2723884
0.8291934,-0.2382606,0.1242074,0.01227415,-0.3192813,0.1270403
0.816593,-0.1636296,0.1321317,0.05034196,-0.09433197,0.1077533
0.8359032,-0.1195418,0.1275519,-0.06986126,-0.1676032,0.09672822
0.7702166,-0.06495477,0.1310087,-0.09771617,-0.3382127,-0.01938695
0.6105819,0.001642903,0.1344508,-0.08840645,-0.5463152,-0.06543098
0.7065597,-0.0149295,0.1330211,-0.1071187,-0.7421313,-0.1115145
0.7745713,-0.05261731,0.1115333,-0.05727938,-0.7319918,-0.07590472
0.8074879,-0.07291848,0.08278517,-0.06203691,-0.766871,0.06803047
0.8978731,-0.1102889,0.0813074,-0.1764159,-0.975026,0.2486025
0.8882194,-0.122202,0.0454987,-0.3976349,-1.009139,0.4126855
0.9269844,-0.08843832,-0.03522216,-0.5192523,-0.7242654,0.2380839
0.9313883,-0.08594044,-0.05743708,-0.4462518,-0.3751507,-0.09422835
0.8792413,-0.1874884,-0.0105396,-0.3299855,-0.3852224,-0.1426405
0.9013494,-0.3645731,0.02165971,-0.1228389,-0.6035924,-0.02140012
0.9203771,-0.4568605,0.01043307,0.008201713,-0.478738,0.06748081
1.03043,-0.3451665,-0.04759441,-0.054962,0.06110153,0.008079514
1.208215,-0.2662936,-0.1464635,-0.05217951,0.6756614,-0.06717675
1.305589,-0.3867953,-0.2261997,0.05140391,0.8122273,-0.0201607
1.354931,-0.4263713,-0.2509039,0.09312903,0.8232058,-0.1070682
1.364506,-0.2803363,-0.2015259,0.02084567,0.9518094,-0.2027497
1.347969,-0.178056,-0.07691189,-0.1214749,0.1547122,-0.07171055
1.353215,-0.234667,-0.008529039,-0.1975801,-0.6985003,0.09133296
1.444761,-0.3214757,-0.1061866,0.07218321,-0.40821,0.1740601
1.596546,-0.3170612,-0.2385668,0.4756574,-0.1272043,0.1019312
1.585733,-0.2457855,-0.2250512,0.3730903,-0.1371677,-0.007617663
1.253942,-0.08181408,-0.09340557,-0.01424368,-0.2175182,0.06593393
0.7854149,0.03593224,0.007607346,-0.2996892,-0.7857276,0.3012203
0.587688,-0.07321019,-0.01922562,-0.4558014,-1.272616,0.6664518
0.6637375,-0.209895,-0.1115501,-0.1857706,-1.02371,0.8224661
0.7333841,-0.2730061,-0.1562385,0.186114,-0.4568695,0.5966451
0.8743384,-0.3048085,-0.1911011,0.3019873,-0.05620928,0.4021418
1.041748,-0.2562255,-0.2116911,0.3540587,0.4233116,0.2323265
1.025515,-0.1990935,-0.1908663,0.2340745,0.815464,-0.01294185
0.9359391,-0.09047709,-0.1820657,0.06727954,0.9635134,-0.0713809
0.7970564,0.06209943,-0.1147836,-0.1360152,1.107075,-0.02216906
0.6287271,0.03727538,-0.007015795,-0.4017381,0.7155055,0.03678813
0.582294,-0.08897439,0.04212807,-0.353889,-0.04774609,0.1566044
0.6035545,-0.1652583,0.02433246,-0.1740027,-0.5141047,0.1957774
0.7043048,-0.2190958,-0.04604221,0.07153788,-0.4375569,0.1520253
0.8933218,-0.206256,-0.06000262,0.3718711,0.3408954,0.08017334
0.9489981,-0.1311669,-0.03841815,0.3628258,0.9053944,-0.07770749
0.8286414,-0.02748784,-0.02831712,0.1568604,0.7145805,-0.2132166
0.7294509,0.04114668,-0.006263175,-0.1547221,0.2381667,-0.1915667
0.7323081,-0.0554244,-0.07905981,-0.3644731,-0.1777392,-0.157564
0.7826389,-0.2200778,-0.1839873,-0.2401355,-0.1230132,-0.2613735
0.9672064,-0.3806206,-0.1880013,-0.08813978,0.5064457,-0.4917553
1.335379,-0.5845104,-0.05886367,-0.001779944,1.332988,-0.8873485
1.591924,-0.6556973,0.1087647,-0.008529529,1.483724,-1.125697
1.571035,-0.515309,0.1188902,-0.1019171,0.8818661,-0.8667367
1.525958,-0.3903141,0.09901238,-0.04320142,0.3340092,-0.4563008
1.58464,-0.4302761,0.1404053,0.08977876,-0.01901795,-0.09566661
1.658528,-0.4585743,0.1243602,0.1777353,0.03793699,0.07494833
1.713021,-0.3833639,0.1236803,0.2076743,0.197125,-0.1508737
1.595229,-0.3376539,0.135279,0.1065598,0.08025329,-0.2453363
1.33454,-0.2616466,0.1148484,-0.02238459,0.2751448,-0.05292445
1.176746,-0.2402545,0.107119,-0.05392721,0.4052104,0.03914401
1.007742,-0.2918691,0.08156973,-0.04694875,0.09588796,0.2139247
0.7712248,-0.1664228,0.05687508,-0.07362992,-0.2053143,0.5065874
0.6157294,-0.0774754,0.04526627,-0.108806,-0.3773192,0.6587224
0.6245627,-0.1307016,0.04785108,-0.1182169,-0.2749843,0.6307116
0.8045773,-0.1790884,0.1098765,-0.05447062,-0.1116436,0.4400105
0.8572968,-0.2608623,0.1648375,0.09067838,-0.06512333,0.188767
0.8081876,-0.246352,0.1647596,0.1643035,0.01848343,-0.01396818
0.8142707,-0.1947492,0.1567477,0.1302001,-0.1264515,-0.1156001
0.6757251,-0.1613308,0.1597188,0.1043299,-0.4201188,-0.1578714
0.6048192,-0.04674867,0.1625198,0.07566557,-0.6389977,-0.1375037
0.6843483,-0.008668146,0.1452375,0.02450631,-0.8409035,-0.03903095
0.718717,0.004449164,0.1262813,-0.1001037,-0.9064973,-0.009938765
0.7760931,0.009948707,0.08595588,-0.3731381,-0.9433486,0.02782307
0.8230193,-0.09530213,-0.007287713,-0.5604173,-0.9609488,0.1058931
0.8439929,-0.118024,-0.0705747,-0.4439532,-0.8187672,0.1173057
0.8307109,-0.09624051,-0.06730564,-0.2791376,-0.6400616,0.1096721
0.8683479,-0.1645315,-0.04650838,-0.2092495,-0.4578881,-0.005560822
0.972496,-0.2193858,-0.02454203,-0.08993702,-0.3822367,-0.1815454
0.9783576,-0.2368844,0.01632304,-0.05388443,-0.3914298,-0.270956
1.023112,-0.2210893,0.08139504,-0.06939263,-0.2521731,-0.2771383
1.072784,-0.2156925,0.1140914,0.04863354,0.02597414,-0.2513009
1.07645,-0.2647785,0.04650147,0.0982024,0.357759,-0.2593744
1.152947,-0.2915976,-0.1094166,0.06689588,0.5656671,-0.1731877
1.210316,-0.2892849,-0.2509629,0.04485512,0.6581337,-0.09591344
1.268677,-0.2807171,-0.2740299,-0.03184767,0.8966945,-0.2396799
1.319055,-0.2555044,-0.1609421,-0.06982836,1.006646,-0.377451
1.407541,-0.1898846,-0.04375388,-0.07935406,0.4223783,-0.3667582
1.634179,-0.1503292,-0.08599138,-0.07670871,-0.07213934,-0.350343
1.778228,-0.2453266,-0.251953,-0.07461947,0.9007736,-0.4428892
1.558159,-0.2528117,-0.32993,-0.2193595,1.491566,-0.4524495
1.093095,-0.1001832,-0.1001107,-0.4352105,-0.7905297,-0.09465153
0.9629049,-0.07587508,0.1481601,-0.5007631,-2.779373,0.4048958
1.175891,-0.1624616,-0.06928147,-0.3250267,-1.277208,0.5287536
1.189957,-0.243761,-0.2685026,-0.06668635,0.1056967,0.309117
0.9294621,-0.2709219,-0.07110386,0.08356429,-0.7184551,0.2682474
0.6881477,-0.2196827,-0.03204254,0.1167174,-0.7086817,0.3546711
0.778298,-0.1980973,-0.1274534,0.08576084,-0.198755,0.3269387
0.9083508,-0.1317628,-0.08289299,0.1062665,-0.3176354,0.3530419
0.8180805,-0.0483739,-0.08302654,0.1171452,0.2342021,0.3310687
0.8564282,-0.05822857,-0.07391502,-0.00336716,0.1495183,0.2539067
0.8762861,-0.04032887,-0.06717124,-0.1526273,-0.3399941,0.285837
0.8305623,-0.03880949,-0.1280413,-0.2703006,0.09306908,0.3845577
0.9115191,-0.05060611,-0.1408389,-0.3167673,-0.004947272,0.5858108
0.9144142,-0.02571889,-0.1420938,-0.3283423,0.05218205,0.6954936
0.9321065,-0.07419017,-0.1296363,-0.3729054,0.5723556,0.5640799
0.9282212,-0.1433509,-0.1069944,-0.3913633,0.4991441,0.4115806
0.8108542,-0.1920385,-0.08895888,-0.4362548,0.4352224,0.3457538
0.7928566,-0.1984382,-0.05813244,-0.4568297,0.2563712,0.3771809
0.7728509,-0.1648123,-0.0882151,-0.3530314,0.3177076,0.4118014
0.7604953,-0.1621997,-0.09772001,-0.2181375,0.7088064,0.3134829
0.8651404,-0.09693773,-0.04186085,-0.147455,0.8411111,0.165945
0.9719527,0.008362098,-0.00451751,-0.3070397,1.083941,0.1102428
0.9638004,0.08764603,-0.0007244706,-0.7037338,0.8459205,0.2154138
0.803859,0.1320489,-0.05718381,-1.083201,0.3370404,0.3679074
0.6912408,-0.001417338,-0.1474587,-1.205337,0.2841356,0.3114365
0.7381021,-0.2758167,-0.2264827,-1.055761,0.5207666,-0.02746912
0.9561227,-0.5816008,-0.2228676,-0.9133191,1.23824,-0.5715629
1.286985,-0.8645178,-0.1127904,-0.6997869,1.47299,-0.9856949
1.455456,-0.9108779,0.0165645,-0.3061259,0.6691857,-0.9299485
1.495591,-0.6190228,0.122253,-0.1677457,-0.04867355,-0.7615929
1.53685,-0.2375444,0.1079384,-0.2705298,-0.03265733,-0.6712504
1.495073,-0.08996168,0.05040957,-0.3250209,0.2458627,-0.3664309
1.414374,-0.08867628,0.06128606,-0.498333,0.2269124,-0.02478768
1.348509,-0.006258725,0.01463023,-0.9026283,0.4922338,0.1449311
1.248293,0.04820192,0.02723608,-1.421981,0.7195972,0.1615583
1.135372,0.02876819,0.09554799,-1.887932,0.3448967,0.115934
1.069978,-0.05664854,0.04842471,-2.101331,0.2212429,0.1625898
1.012183,-0.2185686,0.04694659,-1.961689,0.1695327,0.2086258
0.976117,-0.2513294,0.04310531,-1.720803,0.2217638,0.2552686
0.9591475,-0.2002143,-0.04806177,-1.600331,0.6202839,0.2744266
0.8749568,-0.2021863,-0.0669682,-1.54993,0.6390545,0.1832359
0.8163898,-0.1653225,-0.01615354,-1.655245,0.4034507,0.138004
0.8007588,-0.169714,0.0606883,-1.711009,0.1421987,0.09552399
0.7902079,-0.2228906,0.0769764,-1.570774,0.1517956,0.0397384
0.8141744,-0.2126765,0.01401776,-1.457651,0.4157667,0.003165592
0.7714465,-0.1843464,-0.02377102,-1.278833,0.3388128,-0.0388969
0.7291907,-0.1639797,-0.0449902,-1.145296,0.1527757,0.06534221
0.7704425,-0.2195807,-0.02666324,-1.085501,-0.09165779,0.158626
0.8279004,-0.2931576,-0.0006445295,-0.9624655,-0.07968916,0.03835049
0.9026313,-0.2173618,0.006506588,-1.029762,0.3461283,-0.2000511
0.8834037,-0.1415455,0.07896969,-1.081376,0.4330523,-0.4667008
0.7699927,-0.1507082,0.1536111,-0.9784346,0.2484301,-0.5412034
0.7219139,-0.1258918,0.1516261,-1.00922,-0.00564867,-0.3832083
0.7567728,-0.1147823,0.08117351,-1.189103,0.008342137,-0.3014186
0.8872759,-0.1656727,-0.0190968,-1.473941,0.4538525,-0.3213463
1.122814,-0.317048,-0.1221341,-1.543037,0.6983146,-0.2414912
1.437708,-0.5361966,-0.2323662,-1.199158,0.9035162,-0.1883936
1.603482,-0.5449499,-0.2627902,-0.8036533,1.31703,-0.3050389
1.384381,-0.357312,-0.1334812,-0.6927591,1.326045,-0.3741613
1.168435,-0.2770331,0.06038626,-0.9657454,-0.05509618,-0.2059464
1.28698,-0.3086,0.06183024,-1.175804,-1.47232,0.1877406
1.510978,-0.3733414,-0.1746814,-0.9261149,-0.3822951,0.4234656
1.634017,-0.4177099,-0.3063314,-0.669574,0.6951045,-0.0118484
1.398295,-0.3169721,-0.1322193,-0.6899874,-0.4809648,-0.4627744
0.924999,-0.1552056,0.0579388,-0.7678492,-1.396787,-0.02945806
0.837382,-0.09439299,-0.04277098,-0.8217417,-1.580971,0.4644782
0.9812151,-0.1554422,-0.1772173,-0.7351594,-1.226556,0.4475103
0.9471917,-0.233685,-0.1673146,-0.5360528,-0.1660472,0.5195043
0.9173289,-0.2256007,-0.15597,-0.4311044,-0.188563,0.4192136
0.8845475,-0.1635232,-0.05356288,-0.3992361,-0.4648369,0.1786029
0.8320846,-0.09353816,-0.02970339,-0.5230827,-0.1483326,0.3318782
0.8547098,-0.08525171,-0.1309136,-0.7787561,-0.4667905,0.4337317
0.8453193,-0.1031822,-0.1194799,-0.8586275,-0.4871684,0.4284818
0.8519296,-0.07679296,-0.1517151,-0.7648927,-0.2338744,0.428079
0.9200274,-0.1212347,-0.1588331,-0.5814048,-0.2193081,0.2268451
0.9844059,-0.1586269,-0.1253425,-0.3169149,0.2672035,0.1322482
0.9837479,-0.1208928,-0.1702479,-0.1867619,0.3961854,0.1153734
0.8975468,-0.1145957,-0.131062,-0.2874483,0.257206,0.06783911
0.8298952,-0.1014081,-0.1250882,-0.3399217,0.3481002,0.1052897
0.8039765,-0.1462425,-0.1311082,-0.2089251,0.3142796,0.1186509
0.8084298,-0.241924,-0.07957177,-0.08941382,0.4691637,0.186558
0.7929711,-0.2370365,-0.06907713,0.05786818,0.4973582,0.2429194
0.7172812,-0.1613807,-0.01089412,0.1611459,0.2200343,0.2335414
0.7087946,-0.03643614,-0.02031616,-0.01105401,-0.006191903,0.2599794
0.8008287,0.08299465,-0.06920743,-0.2677177,0.1062354,0.1569854
0.9372886,0.1000497,-0.05824255,-0.5381061,0.5347871,0.01038863
0.9958769,0.04113117,-0.1051336,-0.7333935,0.7597106,-0.01111584
0.9005652,-0.03265773,-0.104162,-0.6261496,0.836596,0.003577628
0.8430627,-0.07377066,-0.0564323,-0.4611087,0.5535461,-0.0313429
0.8851492,-0.10022,-0.04674266,-0.3689578,0.1646362,-0.1919526
0.9097015,-0.1361736,-0.07165447,-0.3346397,0.3423234,-0.3922159
0.9594217,-0.2252032,-0.1585368,-0.5207721,0.4361703,-0.5343862
1.139201,-0.4876172,-0.1931163,-0.6760967,0.4628578,-0.7529562
1.406181,-0.8342387,-0.1592836,-0.5398905,0.6057591,-1.087661
1.56118,-0.9312952,-0.1212342,-0.2366638,0.4698119,-1.178013
1.566238,-0.7495355,-0.03518471,0.3153417,0.4050438,-0.8593547
1.621439,-0.6258307,0.04277596,0.8622448,0.2941792,-0.6132916
1.696273,-0.5176553,-0.002052965,0.7431013,0.1718107,-0.5855353
1.598816,-0.1779361,-0.06737549,0.2787361,0.74279,-0.3877074
1.418842,0.06840104,0.02531736,-0.06643659,1.265878,-0.0552039
1.216346,-0.02425107,0.1239759,-0.4697896,0.6032188,0.1156754
0.9698019,-0.103023,0.1067611,-0.5788368,-0.1550715,0.2002282
0.8647247,-0.1132398,0.06939718,-0.4177864,0.1034844,0.275287
0.8273894,-0.2388357,0.0154362,-0.4064251,0.3500313,0.2165488
0.6844915,-0.2672156,0.04405486,-0.2331126,0.2385651,0.1926143
0.5887763,-0.2030394,0.1270577,-0.03791349,0.03729897,0.2259596
0.5792127,-0.2265953,0.1398958,0.04382,-0.5428054,0.1485404
0.643509,-0.2169444,0.1661874,0.2556353,-0.7270854,0.09392376
0.7905435,-0.2045931,0.1644179,0.3661595,-0.419518,0.008283633
0.8726405,-0.2011473,0.1456118,0.4653322,-0.317666,-0.05970564
0.8796018,-0.1192407,0.158204,0.5306902,-0.1603534,-0.01575732
0.8290005,-0.05282181,0.1363837,0.3847655,-0.2713218,-0.07705641
0.6878819,0.01538764,0.1443143,0.2738199,-0.7838532,-0.1218612
0.5887713,0.05605598,0.1582986,0.1482379,-1.216856,-0.123958
0.6518948,-0.04357831,0.1401597,0.09032153,-1.652525,-0.1618321
0.8194028,-0.2080949,0.08544148,0.2135454,-1.7232,-0.01154231
0.9481366,-0.2840154,-0.04228082,0.2962263,-1.290937,0.2427236
1.0034,-0.2192974,-0.1314157,0.3149386,-0.7115889,0.3491448
0.9984395,-0.1583118,-0.1523644,0.3051056,-0.1618999,0.1918928
0.9170587,-0.1512601,-0.07880454,0.3277691,-0.2132831,-0.1247907
0.8525727,-0.1400403,0.08822241,0.376792,-0.6927146,-0.3710395
0.9026414,-0.1458281,0.1277422,0.444775,-0.8004124,-0.4609639
1.031965,-0.1143052,0.04373747,0.5293224,-0.3351299,-0.3180627
1.124753,-0.08540182,-0.003100948,0.4120099,0.4156054,-0.1216933
1.149045,-0.1648635,-0.04665592,0.2398834,0.695285,-0.04508819
1.129032,-0.2790105,-0.1812484,0.2191678,0.6074113,-0.03285224
1.107755,-0.3175024,-0.3406181,0.1480147,0.7040369,-0.2414221
1.200228,-0.2544262,-0.3080586,0.07931064,0.7110521,-0.5271218
1.3969,-0.1699141,-0.1344884,0.1059313,0.6955057,-0.4942348
1.679401,-0.1343527,-0.07496787,0.04290159,0.51127,-0.1056647
1.859683,-0.1584074,-0.1881857,-0.05231987,0.1494266,0.2239363
1.598163,-0.2577232,-0.2685441,-0.01297275,0.212746,-0.005629291
1.153368,-0.34523,-0.01482463,0.1379174,-0.0892004,-0.2199705
0.9636382,-0.342182,0.2246492,0.3429785,-1.095722,0.1921077
1.043797,-0.3213215,-0.04340136,0.5526614,-1.429492,0.5170535
1.120243,-0.322614,-0.292695,0.7437624,-0.7048557,0.4650208
0.972284,-0.287495,-0.1834451,0.8021749,-0.1415671,0.4070307
0.8036588,-0.1823561,-0.1141184,0.7104166,-0.5670177,0.356097
0.7198257,-0.06957277,-0.1015615,0.6309219,-0.883867,0.389067
0.7451807,-0.04982643,-0.08915358,0.5269563,-0.5094225,0.4838293
0.9350188,-0.1061628,-0.1422526,0.4349225,-0.2893698,0.5031786
0.9726514,-0.1227375,-0.1113974,0.3979174,0.03170939,0.393225
0.8662217,-0.08673359,-0.029997,0.3254564,0.2645989,0.168104
0.7863062,-0.0502631,0.01403107,0.2793513,-0.09572103,0.1316168
0.723126,-0.01430797,0.01219926,0.1939457,-0.2800345,0.2898288
0.7999571,-0.009330093,-0.1055716,0.1263862,-0.3241362,0.425414
0.853419,-0.0410766,-0.2026173,0.2497097,-0.08991764,0.504645
0.8244042,-0.08612812,-0.1729106,0.3835338,0.7150252,0.3398637
0.7368908,-0.1545964,-0.08040679,0.4118536,1.017847,0.07355485
0.5512937,-0.1838289,0.03346041,0.4370494,0.6552536,0.01078058
0.5858158,-0.1596161,0.04412114,0.5142478,0.1202281,0.009671109
0.7625155,-0.1454893,-0.04091046,0.5849426,-0.2331259,-0.06293193
0.8913916,-0.1119544,-0.1175274,0.6055397,0.18929,-0.2375947
0.9870693,-0.07577979,-0.1638088,0.5495944,0.8231684,-0.4486623
0.8894645,-0.1308566,-0.1220374,0.3787621,0.9625784,-0.5985458
0.8612873,-0.3365144,-0.02433358,0.2798188,0.94145,-0.8205566
1.120803,-0.6507319,0.06476644,0.3299987,0.8091375,-1.121459
1.505961,-0.7555349,0.09837162,0.3581039,0.3264507,-1.220362
1.827086,-0.4914483,0.09729692,0.4018184,-0.105045,-0.9147324
1.850251,-0.2753199,0.1857857,0.5459196,-0.2549128,-0.5096259
1.840061,-0.2726876,0.2232718,0.7208367,-0.3653284,-0.4186817
1.987404,-0.171892,0.03446321,0.8242058,0.04229992,-0.4029451
1.866169,-0.0479245,-0.1140343,0.6952865,0.9664074,-0.2986391
1.36427,-0.08718742,0.06738672,0.3370163,1.155458,-0.2242843
0.8274172,-0.09738546,0.292778,0.05515805,0.3372499,0.07482201
0.7135838,-0.07161215,0.2264328,0.001923215,-0.4980145,0.4767151
0.8467354,-0.1659009,0.125667,0.09092278,-0.6425263,0.6489448
0.6513119,-0.2347313,0.08588045,0.1894904,-0.3017165,0.7135004
0.5629001,-0.1924796,0.003447578,0.1833016,-0.1295099,0.6237376
0.6896223,-0.1585192,0.05070448,0.2030291,-0.161792,0.3619639
0.5411084,-0.1285278,0.09879813,0.2552185,-0.1437069,0.04218601
0.5352214,-0.1053377,0.09587,0.2099355,-0.2304037,-0.2415031
0.618387,-0.1211643,0.1713808,0.1499197,-0.4418169,-0.266024
0.5527624,-0.1223281,0.1435732,0.07183674,-0.7460331,-0.1312708
0.6686989,-0.1182959,0.1013107,0.05736058,-1.125847,0.1412754
0.7715515,-0.134517,0.09703353,0.1380083,-1.236952,0.5161891
0.8954451,-0.1582731,-0.04152363,0.1794466,-0.9107401,0.5204545
1.007624,-0.1849539,-0.1350261,0.2536559,-0.4103582,0.2490068
0.8660638,-0.1923328,-0.04876907,0.2912597,-0.2514289,0.06973874
0.8109722,-0.2026089,0.08294341,0.2333349,-0.511474,-0.003559187
0.8039979,-0.2475271,0.09476692,0.1793344,-0.5593734,0.02362719
0.7623114,-0.2711682,0.03965226,0.101172,-0.08107406,-0.03374552
0.8761939,-0.3041957,0.003305947,0.06162237,0.4845835,-0.1931524
1.11296,-0.4560652,-0.1833735,0.1048704,0.5785125,-0.2868425
1.45175,-0.5811794,-0.4303792,0.2735495,0.4854075,-0.4273101
1.652055,-0.4738017,-0.4330389,0.6820902,0.6834768,-0.5404125
1.629729,-0.2200867,-0.1563469,0.97152,0.6937292,-0.4523338
1.615114,0.04719864,0.1439746,0.5964183,0.1506994,-0.1995926
1.625343,0.2316681,0.1767239,-0.1095191,-0.5184083,0.2301413
1.612617,0.1804568,-5.154304e-05,-0.4408704,-0.6669335,0.4576356
1.50805,-0.03865963,-0.1093895,-0.4421551,-0.4551479,0.1454784
1.264929,-0.2298425,-0.05087683,-0.3863683,-0.6426909,-0.1064779
1.068136,-0.2913884,-0.02761595,-0.325142,-0.8653528,0.009453731
1.094196,-0.1832305,-0.1307646,-0.234283,-0.6950583,0.1612536
1.101051,-0.08968575,-0.1920437,-0.1680607,-0.3634925,0.4249204
0.8915856,-0.05861855,-0.2099641,-0.3246953,0.006517457,0.7109702
0.7279592,0.00235624,-0.1697365,-0.5101454,-0.1625787,0.7024154
0.7145888,-0.05090807,-0.1004375,-0.5630327,-0.4809557,0.5208811
0.8162674,-0.09566595,-0.1331002,-0.5902523,-0.1837213,0.3028235
0.925483,-0.04609807,-0.1644544,-0.5625447,0.07410285,0.2055963
0.8528745,-0.03479905,-0.1704909,-0.6313922,0.2560652,0.3589795
0.7910562,0.01919528,-0.1620634,-0.7484996,0.3740905,0.5231436
0.798341,0.01318158,-0.1117979,-0.8120497,0.1286149,0.5925416
0.7880006,-0.0551516,-0.120711,-0.8642494,0.1452497,0.6255996
0.8372816,-0.06937753,-0.1383787,-0.794641,0.1737481,0.6167353
0.8274387,-0.1164203,-0.1474226,-0.7731503,0.04109095,0.6367405
0.8230208,-0.1161587,-0.1939382,-0.7648065,0.2562935,0.6354475
0.8958245,-0.09680054,-0.1913841,-0.6750053,0.5693232,0.5926072
0.9079005,-0.1016573,-0.1694226,-0.7032471,1.079748,0.5732806
0.9026629,-0.03167749,-0.1310073,-0.7877347,1.521302,0.4557651
0.8378182,0.01451701,0.006862846,-0.9782863,1.375327,0.2536883
0.7396025,-0.007491359,0.1385723,-1.197503,0.9603946,0.1681185
0.7233561,-0.07613936,0.1260779,-1.212808,0.3131511,0.234309
0.6883957,-0.2417886,-0.0128401,-1.107207,-0.1272458,0.2969149
0.6618741,-0.5210209,-0.188862,-0.817812,0.04501665,0.1870115
0.8267748,-0.7985452,-0.2706437,-0.3587875,0.6002536,-0.2960739
1.204585,-0.9198537,-0.1823414,-0.07351292,1.560627,-1.204898
1.518581,-0.8869748,-0.06736745,-0.136592,1.953911,-1.760724
1.599332,-0.5955579,-0.01809245,-0.4583155,0.9819052,-1.432972
1.706758,-0.1104644,-0.00948152,-1.017269,-0.2203968,-0.8970593
1.902109,0.05845315,-0.1606553,-1.47391,-0.3832311,-0.3580335
1.897635,-0.1289912,-0.3214544,-1.388387,0.8167867,0.01825318
1.644081,-0.1998618,-0.2046978,-1.381541,1.952903,-0.2114587
1.327616,-0.1559894,-0.01621375,-1.695222,1.408542,-0.2078515
1.096782,-0.2133773,0.05402547,-1.731725,0.7086354,0.09182248
0.9940821,-0.2225877,0.066268,-1.732783,0.904361,-0.01872657
0.9083455,-0.2080716,0.03563749,-1.621166,0.6912215,-0.00391205
0.8132873,-0.2599285,0.02853239,-1.217643,0.5594066,0.08650849
0.7846118,-0.1795293,-0.007352781,-1.191003,0.6956747,0.0789344
0.7592015,-0.09863285,-0.07572134,-1.401047,0.362457,0.238072
0.7496785,-0.182673,-0.0006633352,-1.434616,0.294977,0.1637695
0.7620187,-0.264433,0.1150057,-1.288024,0.1632464,0.005492845
0.7549846,-0.3033223,0.1573591,-0.9565877,-0.08922708,-0.09641659
0.8026776,-0.2624161,0.1679977,-0.7316594,0.1489287,-0.2968209
0.823589,-0.1262949,0.08820394,-0.5644167,0.1509765,-0.4020664
0.7656479,-0.0141146,0.02181331,-0.4824398,-0.0194225,-0.4962591
0.7068935,0.002944738,0.07261644,-0.6618308,-0.2593343,-0.4351179
0.6760142,-0.05831708,0.1180168,-0.7043194,-0.6864767,-0.3001667
0.6927649,-0.08132072,0.1130745,-0.5741836,-0.8697349,-0.2529246
0.6982054,-0.08240717,0.08498796,-0.4792642,-0.9593809,-0.02025807
0.7391425,-0.1245996,0.008245244,-0.4449973,-1.026975,0.1343961
0.8361212,-0.1278832,-0.09661337,-0.4819835,-1.073033,0.169396
0.8578612,-0.1343285,-0.1168871,-0.4645441,-0.8311397,0.1636525
0.8346835,-0.1869368,-0.04880309,-0.4682311,-0.3812508,-0.02199258
0.8315089,-0.2132774,0.005917262,-0.4020332,-0.4342814,-0.1381224
0.8504618,-0.225498,0.06053746,-0.08661673,-0.5253844,-0.2743976
0.8726332,-0.258317,0.1008518,0.3052178,-0.3611413,-0.3495452
0.9286783,-0.3101348,0.0576464,0.5625986,-0.2279298,-0.1825356
1.085831,-0.356817,-0.04251563,0.4966018,0.01639125,-0.1306514
1.239515,-0.3541683,-0.1495513,0.292185,0.1635214,-0.1607403
1.384098,-0.3284287,-0.2658775,0.2069967,0.3598099,-0.2015001
1.561345,-0.3245108,-0.3802444,0.2061315,0.9233832,-0.311938
1.505691,-0.2985291,-0.3270542,0.2159033,1.052276,-0.3407095
1.204779,-0.2471614,-0.05940992,0.01700398,-0.08426604,-0.1892678
1.069684,-0.2416504,0.1217809,-0.0624092,-1.477168,0.1498601
1.253095,-0.3205499,0.02787718,0.4616921,-1.383007,0.2749742
1.638426,-0.4392393,-0.214846,1.050401,-0.1999801,0.008243243
1.838205,-0.426106,-0.3458643,1.057134,0.4271804,-0.4110614
1.390105,-0.2629078,-0.1705085,0.6635209,-0.008305677,-0.7113466
0.7970192,-0.07825038,0.09289237,0.2933651,-1.080123,-0.2997371
0.7834865,0.04281601,0.08555484,0.07175717,-1.670771,0.4378076
0.9728327,-0.07683928,-0.1112395,0.2363181,-0.8964177,0.5707779
0.9410575,-0.2577597,-0.2156626,0.5430808,-0.01829479,0.451661
0.8672984,-0.2350232,-0.1580836,0.4068159,-0.3911962,0.358994
0.8217154,-0.2078732,-0.0923696,0.3076268,-0.6579267,0.1765221
0.8246904,-0.1525441,-0.1537744,0.3327497,-0.2282989,0.1944146
0.881409,-0.04148139,-0.1889993,0.2016057,-0.2530835,0.2746543
0.8660217,-0.04962289,-0.1268406,0.2634129,-0.02561617,0.2446618
0.8573432,-0.09732129,-0.06460062,0.2722178,0.2935904,0.2709927
0.8585228,-0.1528919,0.03366464,0.3267436,-0.2114993,0.2787726
0.7882293,-0.1661326,0.01256317,0.5809132,-0.3678864,0.2692471
0.7870942,-0.1139137,-0.1281018,0.6377002,-0.2666273,0.3107816
0.8485008,-0.1032866,-0.1823873,0.7385503,0.002000588,0.3046863
0.8803319,-0.1084817,-0.2349995,0.8113063,0.8611232,0.1866351
0.8009301,-0.1547232,-0.158202,0.764835,1.061482,-0.0007617415
0.6580701,-0.2002411,0.02017322,0.8487471,0.5293163,-0.09899188
0.6917174,-0.1597071,0.02267958,0.8934865,-0.04067747,-0.1130382
0.8208814,-0.08869296,-0.04203578,0.8970906,-0.1562399,-0.1452678
0.9108414,-0.01306194,-0.1369407,0.8342837,0.3253758,-0.1627362
0.9308408,-0.009457018,-0.1790235,0.6799785,0.660283,-0.2590776
0.8919133,-0.1437721,-0.09225593,0.5056759,0.9182757,-0.47562
1.008307,-0.3820241,-0.00920291,0.3479089,1.035321,-0.7442059
1.250766,-0.5613692,0.113888,0.3678653,0.6328141,-1.005427
1.494468,-0.5028101,0.1516093,0.4046678,0.08058759,-0.9480633
1.621212,-0.3744969,0.0629664,0.4258822,-0.04332832,-0.5258055
1.547121,-0.3498896,0.06083092,0.5255157,0.2101519,-0.2123032
1.576696,-0.3388177,0.1332905,0.5468797,0.1489375,-0.2391026
1.661115,-0.2994165,0.1894849,0.6046336,0.1080953,-0.3099894
1.526668,-0.2212142,0.1232186,0.7038644,0.2596144,-0.1208374
1.314004,-0.1783693,0.04361796,0.6881023,0.2659866,0.08515722
1.04829,-0.2112327,0.1082264,0.6605776,0.3535767,0.1596059
0.8131929,-0.1739626,0.1283931,0.6245626,0.09247669,0.3936976
0.7778456,-0.1255214,0.08876649,0.4893428,-0.33478,0.6425145
0.7889359,-0.1354319,0.09620388,0.3596062,-0.3686903,0.6627841
0.7758363,-0.1440043,0.08568814,0.3335755,-0.3262926,0.5891662
0.7767632,-0.1974083,0.08188264,0.3893425,-0.3188534,0.4881775
0.7534561,-0.234774,0.1167224,0.5600855,-0.4433233,0.3079356
0.740156,-0.2485757,0.1452381,0.7969406,-0.5839887,0.06275298
0.7878855,-0.2181575,0.1460716,0.9742688,-0.6129911,-0.1139081
0.8558408,-0.1053182,0.1420047,1.007872,-0.6369142,-0.219977
0.856911,-0.1126807,0.1505421,0.9026219,-0.6397823,-0.2362314
0.8220283,-0.1541073,0.135715,0.841554,-0.7374169,-0.09036296
0.8041103,-0.1232293,0.09359831,0.8140009,-0.757981,0.09793577
0.7650946,-0.1457337,0.02219862,0.7377321,-0.7683899,0.3209156
0.7526341,-0.1283036,-0.05615866,0.642556,-0.9000208,0.4226461
0.7967872,-0.109148,-0.05876702,0.4999419,-0.8546649,0.2587473
0.835122,-0.1572053,-0.02510264,0.458333,-0.767089,0.0775622
0.867629,-0.1930472,0.009337755,0.484874,-0.7276974,-0.0666593
0.9071814,-0.2221005,0.06085538,0.4617686,-0.7422875,-0.2216401
0.9312372,-0.2028726,0.04203086,0.5091196,-0.8214488,-0.2878029
0.9268875,-0.1654333,0.006830431,0.5225951,-0.6860717,-0.24509
0.9331384,-0.1063972,0.05028269,0.4693214,-0.3718905,-0.2085843
0.958747,-0.01021873,0.07717662,0.4096006,0.03021589,-0.2320681
0.9617194,-0.07447602,0.05353847,0.3431886,0.3040248,-0.2641147
1.024127,-0.3062692,-0.06744463,0.445343,0.2950907,-0.3265065
1.173855,-0.4990145,-0.2928389,0.6540907,0.3837562,-0.3160409
1.253787,-0.5074236,-0.371973,0.8021206,0.6032798,-0.3136861
1.247002,-0.3602053,-0.2614992,0.855316,0.9818199,-0.5549516
1.269856,-0.1911877,-0.1222398,0.7066211,1.205181,-0.6743115
1.294402,-0.02831782,0.01233445,0.380456,0.1525098,-0.2118296
1.358768,-0.05606283,-0.04952974,0.1707904,-1.080078,0.5291004
1.676464,-0.2458112,-0.3476622,0.4138973,-0.6007755,0.6721491
1.921682,-0.2530085,-0.4543542,0.7678021,-0.1012275,0.06262377
1.51657,-0.1989263,-0.1274722,0.666024,-0.6610992,-0.2829401
1.005269,-0.1100936,0.2230164,0.4415258,-0.8568078,0.155663
1.067154,0.02275651,0.08592345,0.3004575,-1.070961,0.6364371
1.093182,-0.08850478,-0.1557888,0.127752,-1.037333,0.6196268
0.805069,-0.1951454,-0.1084921,0.1920515,-0.4125171,0.5986231
0.7317682,-0.1845294,-0.1293128,0.3232595,-0.7774133,0.6824368
0.7604393,-0.2232331,-0.1178339,0.4230125,-0.9687272,0.5654946
0.7389646,-0.2029307,-0.07660932,0.6048055,-0.3973,0.5407842
0.8261285,-0.2099801,-0.1918676,0.6220285,-0.2957222,0.4446116
0.8856618,-0.2193209,-0.143437,0.6690923,0.06712613,0.1797041
0.8852889,-0.1692608,-0.1183317,0.7227781,0.1982476,0.1622727
0.8323205,-0.1215978,-0.1379127,0.5583394,-0.02838777,0.2147885
0.7636206,-0.0261711,-0.05949404,0.4820109,0.1634045,0.3267568
0.788518,0.00475058,-0.1028532,0.4394545,0.1605983,0.5052066
0.792453,-0.0336907,-0.06385715,0.3393566,0.2543453,0.5146163
0.7880337,-0.08112587,-0.04535253,0.2820556,0.2780715,0.4620445
0.8117535,-0.1782983,-0.0947033,0.2697375,0.1220344,0.3640489
0.838387,-0.2272202,-0.03657848,0.36331,0.3343939,0.2760167
0.9128179,-0.2025358,-0.07336201,0.4316176,0.4061173,0.1612293
0.9355839,-0.1451171,-0.05979719,0.4556703,0.4381729,-0.05952273
0.9087392,-0.07177334,-0.01442753,0.4323409,0.3742086,-0.2613794
0.904718,-0.04639501,-0.04321526,0.3417164,0.1123346,-0.4508684
0.899439,-0.07353493,-0.05217224,0.3040432,0.2108328,-0.5408145
0.920831,-0.1603698,-0.1166645,0.2829871,0.5282601,-0.6021975
1.02257,-0.4182203,-0.06511056,0.4546773,0.8606784,-0.7696061
1.223048,-0.7131224,0.01700296,0.7399187,0.8365987,-0.8888474
1.397615,-0.6837899,-0.003934035,0.7458361,0.5545814,-0.8796381
1.439116,-0.4340435,0.0520057,0.6383334,0.4531051,-0.6879559
1.425561,-0.2371356,0.07154825,0.5640486,0.1850503,-0.4167886
1.434614,-0.1205505,0.06688853,0.4611189,0.004569705,-0.2855941
1.478017,-0.1817127,0.1549732,0.4243965,-0.05053087,-0.2397609
1.533733,-0.2967907,0.2048281,0.4648561,-0.2323962,-0.101512
1.540174,-0.3114016,0.1118175,0.5456403,-0.08219722,0.09054649
1.420573,-0.3001603,-0.01263539,0.6118855,0.2360324,0.1811862
1.122939,-0.2026274,0.008446296,0.5090283,0.4723559,0.3114607
0.7159506,-0.1191418,0.03377258,0.265838,0.2720897,0.5555021
0.4808567,-0.111554,0.01641445,0.1324615,-0.3252276,0.583294
0.5321186,-0.09267486,0.1025159,0.100979,-0.368905,0.2833304
0.5999518,-0.1606518,0.1521605,0.08631742,-0.3495236,-0.04344594
0.5975751,-0.2181421,0.1257594,0.1637425,-0.4293851,-0.1494724
0.5828138,-0.2134132,0.09895299,0.286954,-0.1766557,-0.05412517
0.5067121,-0.202125,0.05673976,0.4231431,-0.4062983,0.04527197
0.4971163,-0.1528701,0.06771318,0.4871465,-0.8518208,0.086998
0.6280197,-0.1747394,0.06608796,0.4502343,-1.272657,0.1725072
0.8142045,-0.1868293,-0.0368428,0.4971761,-1.584488,0.2357948
0.9650457,-0.1629933,-0.1445493,0.5791068,-0.9163714,0.2533149
0.9620341,-0.1842902,-0.1505258,0.5759182,-0.1211064,0.2186126
0.8503896,-0.1425298,-0.01623239,0.5157671,-0.02376521,0.04035476
0.7774036,-0.1245921,0.1475565,0.4568525,-0.3792541,-0.1605671
0.8520407,-0.1737066,0.1952299,0.4805095,-0.683464,-0.334565
1.010032,-0.2262462,0.1302889,0.5645795,-0.138772,-0.4365865
1.111315,-0.3045891,0.02121622,0.6487162,0.515371,-0.4179835
1.279574,-0.3591919,-0.1764894,0.7152813,0.7008476,-0.3700505
1.508228,-0.3634804,-0.4018025,0.772992,0.9335389,-0.3139612
1.61407,-0.2817896,-0.3029196,0.7712351,0.8894055,-0.4584161
1.580113,-0.1157286,0.008933843,0.6226794,0.5637458,-0.624216
1.485317,0.05127077,0.1161082,0.3340421,0.1547238,-0.4119229
1.485597,0.06409809,0.1032188,-0.03422816,-0.4899207,-0.09777109
1.519407,-0.08514455,0.05453386,-0.1445385,-0.7819267,0.2547514
1.497945,-0.1311248,0.02024466,0.1669107,-0.5029095,0.5246729
1.400095,-0.09696751,0.04080059,0.3682314,-0.04802113,0.1686411
1.053616,-0.1001722,-0.01664459,0.2161264,0.2091486,-0.209556
0.771644,-0.09705374,-0.01751314,-0.04791235,-0.6885949,0.1837095
0.8296357,-0.1630086,-0.04685882,-0.2380386,-1.811976,0.5858296
0.8455877,-0.267206,-0.1914157,-0.07561422,-1.086493,0.575042
0.769106,-0.3298061,-0.1970277,0.3043303,-0.149018,0.6340709
0.8162831,-0.3164735,-0.1639437,0.5014638,-0.2858781,0.4968258
0.8362026,-0.2769849,-0.1355997,0.6208633,-0.08803331,0.1644696
0.8124396,-0.2416125,-0.08183846,0.6736676,-0.02145713,0.05210876
0.8704863,-0.09321223,-0.1127123,0.5661728,-0.1111299,0.01091763
0.8494599,0.00574416,-0.124564,0.5004863,0.2885912,0.08738662
0.8047901,0.01219304,-0.09229559,0.4413779,0.4393346,0.2184653
0.8388215,0.06087762,-0.05744215,0.3159208,0.5506054,0.2700835
0.7880642,-0.002035201,-0.04244497,0.1593534,0.3636744,0.390104
0.7624785,-0.1082999,-0.06837141,0.02665449,-0.0695914,0.4379066
0.7781914,-0.1549472,-0.07802813,0.1360669,0.2101021,0.3649709
0.7723105,-0.2000913,-0.06449852,0.2895184,0.363673,0.1992461
0.8235306,-0.18511,-0.03629047,0.3413602,0.3308646,-0.02392233
0.8300749,-0.1467089,-0.02185085,0.4479218,0.5269186,-0.1667081
0.8357344,-0.08355996,-0.01783504,0.3422537,0.3854663,-0.2951366
0.8581637,-0.05601699,-0.02775869,0.1191084,0.3590712,-0.3943908
0.8947983,-0.2247217,-0.0499117,0.0880112,0.5656341,-0.5240451
1.085894,-0.4663445,-0.0009114399,0.115396,0.6400848,-0.8499031
1.337522,-0.5916547,0.05336629,0.1938395,0.635236,-1.108648
1.516819,-0.5557769,0.05491791,0.2641417,0.5590301,-0.903194
1.528527,-0.3821612,0.08672367,0.3140256,0.4586797,-0.4556926
1.468676,-0.2130918,0.1869692,0.4318369,-0.0511662,-0.174646
1.518563,-0.2134266,0.2514995,0.4488462,-0.6154735,0.01890795
1.543557,-0.2454402,0.1103755,0.3693737,-0.2712262,0.05508562
1.508245,-0.1682411,-0.03951462,0.2908322,0.3475422,0.008429268
1.356858,-0.1808974,0.05762184,0.210325,0.373649,0.1150629
1.020912,-0.2247394,0.1675072,0.1677664,0.01811888,0.1220184
0.810045,-0.2066074,0.1571313,0.1445658,-0.454592,0.1990166
0.7908281,-0.2422381,0.1380974,0.1461824,-0.5829258,0.4222346
0.7907735,-0.1887438,0.08193361,0.1943759,-0.2836681,0.4236868
0.8064426,-0.1227692,0.06327484,0.2599238,-0.2263622,0.3074396
0.7860454,-0.1503672,0.1019368,0.3124396,-0.3142223,0.1377805
0.7409883,-0.1380916,0.09336768,0.3637808,-0.3548073,-0.01914421
0.713976,-0.1473003,0.1241508,0.3941764,-0.5606462,-0.09912503
0.6935108,-0.1324439,0.1432804,0.3177029,-0.6952802,-0.150988
0.7135998,-0.101677,0.07589783,0.2108071,-0.7988168,-0.03738002
0.7344572,-0.1350177,0.04973843,0.1826451,-0.9323949,0.1032554
0.8006683,-0.1689089,0.04411897,0.2109354,-1.086321,0.1619992
0.9618619,-0.2322083,-0.009108411,0.3072805,-1.245224,0.1608174
1.063966,-0.2376753,-0.08591023,0.4329795,-0.8581354,0.06200214
1.016686,-0.1676809,-0.08591852,0.480022,-0.2054227,-0.004878611
0.8644105,-0.1113274,-0.01826234,0.4479314,0.04405101,-0.04663936
0.7179467,-0.03425724,-0.007994098,0.3817225,0.1217036,-0.1015334
0.6434473,0.01504428,0.04316264,0.2746262,0.1496822,-0.1592694
0.6349766,0.01147892,0.1342104,0.1698742,0.1126562,-0.2053316
0.7550693,-0.09901726,0.1352664,0.06047904,0.157528,-0.1634592
1.025622,-0.32333,0.01253397,-0.06213553,0.2183354,-0.03579771
1.347914,-0.4842707,-0.2230274,0.0266304,0.4141877,0.05537956
1.529322,-0.5327247,-0.3120642,0.3304059,1.060027,-0.2202484
1.454682,-0.4222073,-0.1532677,0.5697687,1.4962,-0.5880818
1.252074,-0.1702983,0.09489239,0.5595615,0.4563035,-0.4311196
1.189044,-0.05164789,0.236629,0.2610855,-1.124684,-0.1303405
1.471736,-0.1254928,-0.05446597,0.05046049,-1.036157,0.01091513
1.750411,-0.2018683,-0.3795089,0.1217985,0.1882749,0.09145486
1.460302,-0.214963,-0.1269751,0.1332291,0.5845904,-0.05637533
1.001071,-0.1674592,0.09981841,0.02705048,-0.430288,-0.08394849
0.9593902,-0.1081551,-0.06976021,-0.05587154,-1.548632,0.2224676
1.001217,-0.1530107,-0.1512022,-0.04978046,-0.9518058,0.5387441
0.9068936,-0.2531669,-0.2079944,0.1006095,-0.2162645,0.6977061
0.8179778,-0.2883013,-0.2243585,0.3268301,-0.6449288,0.5743306
0.7818933,-0.2854255,-0.09142116,0.489069,-0.4500103,0.3814581
0.8661272,-0.2350254,-0.1530934,0.5003028,-0.2396845,0.1987413
0.8885924,-0.1602613,-0.1787952,0.4450058,-0.2711444,-0.008710699
0.8541226,-0.1251875,-0.08797713,0.3627321,0.2589025,0.07536592
0.8890512,-0.06408623,-0.1396385,0.2562715,0.2437543,0.1554113
0.8654801,-0.04492525,-0.1019618,0.1752424,0.263981,0.1356431
0.8707098,-0.06836782,-0.05437209,0.05943795,0.386579,0.2750413
0.8729285,-0.01727615,-0.04368242,-0.1036117,0.02949009,0.2923089
0.8418815,-0.02242736,0.003321521,-0.2742172,-0.09018516,0.2993971
1.029683,-0.5410242,0.05242612,-0.6790388,0.2820491,-0.03216142
1.250712,-0.5683112,-0.1355071,-0.5330243,0.5746771,-0.1341705
1.742909,-0.5838251,-0.4603824,-0.2072081,1.279561,-0.2232725
1.975866,-0.6010403,-0.6068273,0.1050809,1.916824,-0.6205771
1.609719,-0.3669093,-0.2713709,0.01617444,1.578559,-0.784193
1.389686,-0.06266814,0.1127904,-0.3689464,0.1222623,-0.3085321
1.532716,0.01683563,0.0805039,-0.6161022,-1.139697,0.2281598
1.526179,-0.1026374,-0.03985137,-0.5639124,-0.3804617,0.2935277
1.361782,-0.2856415,-0.02377667,-0.3262466,0.4362461,0.1290795
1.213279,-0.3828169,-0.02765454,-0.2145596,-0.619615,0.2352168
1.04537,-0.3691985,-0.02650721,-0.1830439,-1.148897,0.3353812
0.981089,-0.2845386,-0.08548815,-0.1809749,-0.6594467,0.4134465
0.9412867,-0.1725211,-0.191072,-0.3958194,-0.698421,0.6441954
0.7890872,-0.1264311,-0.1842926,-0.496391,-0.4891502,0.6771252
0.7808002,-0.1267942,-0.1609692,-0.4962892,-0.05237631,0.656053
0.8232346,-0.1555854,-0.1455762,-0.5670177,-0.02103938,0.5992958
0.775091,-0.1885732,-0.08613617,-0.4557494,0.111459,0.3967755
0.7986128,-0.1935364,-0.05841906,-0.3449222,0.08962504,0.2864258
0.7595368,-0.1892386,-0.06949007,-0.2504859,0.03561351,0.2129918
0.6975776,-0.1435558,-0.08672306,-0.1818653,0.1450735,0.2333185
0.7321778,-0.1117037,-0.1072052,-0.2661196,0.1734204,0.3148186
0.7790343,-0.08722838,-0.1282056,-0.253821,0.5421634,0.3284088
0.8387698,-0.07674822,-0.1242993,-0.2804889,0.9248082,0.3491181
0.7834418,-0.148964,-0.09046394,-0.3220404,0.8673765,0.2793027
0.6724742,-0.1987045,-0.03571762,-0.2493185,0.4900227,0.1982334
0.6753782,-0.2404151,0.01918654,-0.1800799,-0.03773172,0.1770448
0.7547189,-0.2767158,-0.00792481,0.03784291,-0.1479525,0.1459387
0.9347472,-0.2566077,-0.1043295,0.1819982,0.3020823,0.1127265
1.04538,-0.2438356,-0.1996101,0.1240713,1.012336,-0.05947135
0.9215788,-0.2115494,-0.2373619,0.05488946,1.469103,-0.3696725
0.813118,-0.2368262,-0.143556,-0.124653,1.336851,-0.7645837
0.9102818,-0.438199,0.05546389,-0.307465,1.091113,-1.267205
1.119777,-0.7383334,0.2724506,-0.3618885,0.6689531,-1.536228
1.342127,-0.8187596,0.3293689,-0.3488305,0.01613136,-1.13296
1.536411,-0.4802703,0.2431513,-0.264788,0.1172984,-0.383814
1.662121,-0.200345,0.2863579,-0.1362367,0.4501085,0.04430108
1.616699,-0.2709783,0.3097589,-0.1375754,0.03312974,0.1661456
1.444644,-0.2816524,0.1814093,-0.3419367,-0.04461177,0.1246941
1.429425,-0.1895134,0.1405007,-0.5008172,0.1557386,0.09134731
1.346532,-0.2707993,0.1886661,-0.4913736,-0.05627044,0.2218956
1.007465,-0.3364639,0.2321327,-0.3393982,0.004612131,0.2217329
0.839999,-0.2650403,0.1914252,-0.161183,-0.07609037,0.2987021
0.7129648,-0.2264699,0.1088795,-0.1119425,-0.3970479,0.5222416
0.5925181,-0.1448665,0.118879,-0.09202954,-0.4698188,0.5204903
0.7183934,-0.06920653,0.1171818,-0.1149515,-0.4949752,0.4712823
0.7430073,-0.1053027,0.1303233,-0.1930969,-0.293605,0.2819371
0.7237432,-0.09467576,0.167857,-0.2713126,-0.2555245,-0.1038242
0.7188866,-0.09344929,0.1550109,-0.3953821,-0.4674621,-0.3449797
0.6064295,-0.1243724,0.170871,-0.4233885,-0.6650313,-0.3268145
0.6379588,-0.1287519,0.1311654,-0.3778564,-0.9747809,-0.04661966
0.7456153,-0.1751703,0.04642625,-0.3883449,-1.035168,0.2741826
0.8779764,-0.1907953,-0.01537261,-0.3573174,-1.042872,0.4736397
0.971542,-0.2193304,-0.07153035,-0.2482461,-0.8800001,0.4364734
0.9132559,-0.303528,-0.03720966,-0.1429871,-0.3672976,0.2505797
0.8962824,-0.3079256,-0.009438795,-0.1344394,-0.229917,0.161681
0.8165723,-0.2157783,-0.02271817,-0.1721029,-0.4001716,0.04015016
0.6898211,-0.115354,0.0202375,-0.2272727,-0.47622,0.03147849
0.7696643,-0.1262168,0.0499752,-0.3814659,-0.2121371,0.04902317
0.890233,-0.1983611,0.0544505,-0.5038813,0.1822681,-0.1327596
0.927771,-0.2727447,0.06661818,-0.5163763,0.265013,-0.1612179
1.022341,-0.4521401,0.072085,-0.4933818,0.3523887,-0.1116402
1.191663,-0.60972,-0.002532259,-0.31699,0.511611,-0.07479545
1.437673,-0.6358398,-0.2953043,0.0927146,0.8174959,-0.07047418
1.703118,-0.6409752,-0.5845118,0.5217068,1.62123,-0.3756978
1.652712,-0.5006027,-0.4111704,0.5925966,2.164831,-0.602857
1.422653,-0.2009015,-0.04787092,0.280599,0.8543215,-0.233876
1.434261,-0.1044073,0.02670154,0.101907,-1.395529,0.4163389
1.456019,-0.1535028,0.03023895,0.1674938,-1.478577,0.5735358
1.426787,-0.1625825,-0.07569611,0.1455735,0.03814033,0.2426429
1.416681,-0.2644482,-0.2662787,0.0786994,0.5359242,0.1040232
1.156522,-0.2495787,-0.1132167,-0.01732855,-0.3847316,0.3107986
0.8133998,-0.1638391,-0.00837278,-0.2062629,-1.611901,0.5521645
0.6562922,-0.2514069,-0.156255,-0.2278406,-1.436989,0.59089
0.7228919,-0.2380002,-0.1860344,-0.08735558,-0.716819,0.6078017
0.8279579,-0.21308,-0.2059708,-0.03347106,-0.5028664,0.595998
0.7958512,-0.2417328,-0.209644,0.009839161,0.06311888,0.3915989
0.8468011,-0.1500631,-0.1422129,0.03625311,0.01486294,0.2895438
0.8547855,-0.127823,-0.106541,-0.03990442,-0.1363245,0.2394927
0.7808938,-0.09627549,-0.07996237,-0.1039076,0.4301666,0.2384431
0.8172984,-0.04966141,-0.1127204,-0.2285684,0.4390174,0.3994677
0.7781503,-0.1103601,-0.1544312,-0.359002,0.5658897,0.4517063
0.767077,-0.1318536,-0.1753302,-0.362021,0.9863481,0.4237197
0.7207862,-0.1542351,-0.1451944,-0.429653,1.255999,0.2610974
0.5242793,-0.1710062,-0.01087179,-0.5171389,1.358626,0.01941543
0.4764445,-0.1876848,0.07574006,-0.5106173,0.6932717,-0.01301512
0.5604036,-0.2556185,0.0742654,-0.4635401,0.10895,0.0366713
0.7934196,-0.2696675,-0.03806075,-0.31043,0.0005344733,0.07857654
1.064707,-0.2671083,-0.2170854,-0.1444078,0.3898722,0.02232596
1.034124,-0.2471556,-0.2568402,-0.1728951,1.160022,-0.273304
0.8161685,-0.192685,-0.2302415,-0.356996,1.211361,-0.7501464
0.7189263,-0.220617,-0.1952287,-0.4638316,1.081865,-1.152355
0.9218652,-0.4200339,-0.01127687,-0.430339,0.8698564,-1.289551
1.32059,-0.6938078,0.1879601,-0.4194503,0.4124826,-1.23529
1.712704,-0.7004047,0.1480854,-0.4785176,0.5854377,-0.9012828
1.895785,-0.4261431,0.06773582,-0.4691395,0.6530887,-0.4364612
1.723818,-0.2388367,0.1551128,-0.333399,0.3368463,-0.1375109
1.540572,-0.2295316,0.1466548,-0.2511274,0.2876301,-0.0001364088
1.53594,-0.2131222,0.09131607,-0.373152,0.3734693,0.03518448
1.397223,-0.1114404,0.1419698,-0.6445867,0.4392426,0.1901144
1.122448,-0.07631533,0.1386358,-0.8827831,0.2547844,0.3180559
0.9123244,-0.1501559,0.1712396,-0.9297908,0.01062055,0.3177308
0.7417993,-0.1930111,0.178606,-0.8197198,-0.01786282,0.4408918
0.638448,-0.2012979,0.1117816,-0.6483687,-0.0490495,0.5009061
0.6440341,-0.1832359,0.1378683,-0.4999804,-0.04312921,0.4162619
0.6808948,-0.1536966,0.1063466,-0.4629721,0.03849999,0.1777508
0.6950273,-0.1592693,0.07309532,-0.569039,0.06783436,-0.171805
0.633791,-0.1520325,0.1257426,-0.7102278,0.03995264,-0.2778464
0.5372942,-0.1568437,0.132263,-0.7333592,-0.1344151,-0.07984033
0.5089248,-0.1716786,0.1169337,-0.6585891,-0.6456355,0.2668579
0.5899876,-0.1612662,0.01096474,-0.583666,-1.137844,0.4844607
0.7843499,-0.1906822,-0.09859592,-0.6019566,-0.9247998,0.389137
0.9331733,-0.2694552,-0.0653779,-0.6244521,-0.2936713,0.150997
0.8765746,-0.3351756,-0.0283215,-0.5885504,0.009730759,0.02792511
0.7694785,-0.2973852,-0.01171645,-0.6983249,-0.07881415,0.07806169
0.776909,-0.250004,0.05573137,-0.8458227,-0.2098302,0.139798
0.7873368,-0.3514073,0.09099666,-0.8366026,-0.0253918,0.1742563
0.875423,-0.4853646,-0.02347182,-0.706237,0.2779986,0.1700146
1.229997,-0.6043912,-0.2542443,-0.4979449,0.5382531,0.09825697
1.612319,-0.6788441,-0.4399663,-0.3036555,1.163375,-0.1214643
1.724169,-0.547434,-0.3446277,-0.04288818,1.542739,-0.4039107
1.621413,-0.3148225,-0.02753185,0.2309965,0.6867462,-0.3739549
1.492517,-0.1268253,0.1413019,0.2963527,-0.4507888,-0.2539475
1.312346,0.02057665,0.15572,0.1323899,-0.5588991,-0.2289549
1.211352,0.0886917,0.104903,-0.245303,-0.787477,0.08268947
1.448353,0.08979861,-0.0774958,-0.5380955,-1.582678,0.4737248
1.598121,0.02630542,-0.326313,-0.6304341,-1.009617,0.5029441
1.361051,-0.05027798,-0.3839191,-0.87486,0.08012328,0.3374904
0.9375288,-0.01441641,-0.1110719,-1.182104,0.111417,0.3486185
0.5193742,0.00659995,0.03403845,-1.300164,-0.1531785,0.6108444
0.5355786,-0.1025191,-0.08159189,-1.262319,-0.5227443,0.9474597
0.7491255,-0.2077289,-0.1531571,-1.068566,-0.2002265,1.024423
0.6883915,-0.2427236,-0.2270627,-0.852411,0.5318255,0.6474338
0.6985859,-0.2041428,-0.21026,-0.8299043,0.430811,0.2240189
0.7416769,-0.1169011,-0.1472942,-0.8864755,0.3992858,0.1415593
0.6945693,-0.01975598,-0.1512349,-0.8386384,0.3689905,0.285804
0.8080964,0.05936004,-0.1096969,-0.824134,0.348389,0.4593648
0.894132,0.0252193,-0.1263928,-0.9284548,0.6904079,0.5399821
0.8898987,-0.0402512,-0.1439332,-1.070061,0.6612134,0.5175235
0.9060677,-0.05837017,-0.1249898,-1.237021,0.7011108,0.4485545
0.8775792,-0.1247223,-0.1789458,-1.363753,0.7788793,0.382562
0.838121,-0.2231603,-0.2641372,-1.482915,0.880264,0.2371301
0.7702935,-0.4331086,-0.3254063,-1.618044,1.289343,-0.06689866
0.8025127,-0.7734655,-0.2073799,-1.575141,1.342537,-0.5296223
1.103993,-1.076942,-0.001104259,-1.348832,1.268706,-1.228834
1.545421,-1.264562,0.04141317,-1.067365,0.9829387,-1.606063
1.805396,-1.153904,0.004051124,-0.8842376,0.5042796,-1.221964
1.731512,-0.7217585,-0.03548301,-0.9899102,0.4871507,-0.8191908
1.729786,-0.2318299,-0.08646275,-1.296869,0.4965509,-0.5416936
1.772281,-0.01183582,-0.09470569,-1.660634,0.4714773,-0.02218604
1.539453,-0.1493271,-0.1187847,-1.883341,0.7308505,0.2805056
1.405736,-0.2055732,-0.1757882,-1.830473,1.113571,0.3567114
1.2796,-0.1904629,-0.1372075,-1.859027,1.374957,0.455653
0.9783974,-0.3005331,-0.06068442,-1.942053,1.398362,0.3165992
0.7887384,-0.245921,-0.04840089,-1.827655,1.365151,0.2321696
0.5832455,-0.215165,-0.02068548,-1.808681,1.13752,0.3739792
0.5137592,-0.2614478,0.02158968,-1.80791,0.6076517,0.3785215
0.7138809,-0.2336418,0.066412,-1.63647,0.2477668,0.2965956
0.9069567,-0.3525939,0.09920886,-1.413142,0.4068676,0.09064371
1.048507,-0.4069552,0.06897534,-1.130928,0.8255445,-0.2190219
0.9749581,-0.3524318,0.0799385,-0.9458481,1.000761,-0.3210748
0.7977259,-0.3227446,0.1272176,-0.8311468,0.5210268,-0.2621948
0.7579991,-0.2058311,0.1287258,-0.6762551,-0.3897648,-0.1892436
0.750099,-0.1802571,0.1007699,-0.6017445,-0.6527646,-0.1861393
0.8082176,-0.2216786,0.04588971,-0.5541695,-0.2911669,-0.2761927
0.8221646,-0.2324307,0.05359196,-0.5144991,-0.2178984,-0.4208966
0.8117192,-0.2965993,0.07673075,-0.4865051,-0.2477205,-0.4702709
0.9768629,-0.4032064,0.007173372,-0.5158859,-0.1810656,-0.2544798
1.202335,-0.5638604,-0.1075069,-0.5070572,0.08789243,0.03361156
1.419849,-0.6403328,-0.2852848,-0.1125757,1.210993,0.09604601
1.415585,-0.5427568,-0.30232,0.2324175,2.250258,-0.3428014
1.039335,-0.3067179,0.04131347,-0.1728974,0.9638678,-0.766107
0.7262254,-0.001908801,0.310521,-0.8642035,-1.548284,-0.2640826
0.8982489,0.1077535,0.1410053,-1.042061,-2.100321,0.3783362
1.245173,-0.09176448,-0.1441834,-0.8073068,-1.179106,0.30937
1.271196,-0.3608587,-0.1953607,-0.4732971,-0.4154239,0.08826097
1.173234,-0.4404931,-0.1538601,-0.07301108,-0.09873517,-0.1059793
0.9703561,-0.3519467,-0.0858947,0.1351891,-0.678018,-0.24085
0.6873479,-0.238254,-0.006837189,0.1133353,-1.247688,-0.09185876
0.7920971,-0.1788251,-0.09175491,0.1109091,-1.09312,0.07487942
0.9133258,-0.1368604,-0.1600942,0.08906736,-0.7267552,0.2295158
0.8434413,-0.07221777,-0.1243517,0.01716539,-0.2628146,0.3975756
0.8919018,-0.08926391,-0.1265665,-0.04378796,-0.0613965,0.3684663
0.8411287,-0.1200232,-0.1038106,-0.07945323,-0.1315824,0.278612
0.7805243,-0.1153125,-0.08056784,-0.04865008,-0.1045309,0.1671234
0.8045481,-0.1401397,-0.09128756,0.005248243,-0.03937211,0.06320281
0.7586996,-0.1344287,-0.1143031,0.03767444,-0.03662031,0.1351997
0.7673563,-0.1552372,-0.1321725,0.1436696,0.1190455,0.1819543
0.765449,-0.1744322,-0.1090344,0.3333807,0.6860676,0.1478123
0.6765999,-0.1641004,-0.06833085,0.506045,1.085339,0.08506957
0.611126,-0.179305,-0.008073841,0.6126115,0.8430249,-0.1330868
0.618802,-0.1295385,0.0266012,0.5845731,0.3307027,-0.3360769
0.6506007,-0.08754478,0.04582956,0.495889,-0.09846188,-0.3731996
0.6896,-0.09681944,0.02682062,0.39972,-0.1338721,-0.3642546
0.8770483,-0.1580791,-0.11321,0.2097702,0.5402305,-0.4732949
1.107415,-0.3760362,-0.1929793,0.1320542,1.32057,-0.8974329
1.184381,-0.6038012,-0.09836387,0.1779906,1.133037,-1.532294
1.280089,-0.6282328,0.07805856,0.06914169,0.3475918,-1.729513
1.497025,-0.4928091,0.2024055,-0.02218501,-0.125946,-1.093059
1.682296,-0.4063896,0.1713852,0.1129412,-0.08406833,-0.2611641
1.751886,-0.3761867,0.1216618,0.355612,0.1859458,0.04258806
1.703175,-0.33109,0.1164349,0.6098605,0.2700917,-0.0476144
1.541172,-0.3521102,0.0925837,0.7657624,0.4203771,-0.1087098
1.343022,-0.3485066,0.158749,0.7236416,0.168471,-0.02039996
1.181848,-0.2879333,0.2356673,0.6619004,-0.4690343,0.1167148
1.052434,-0.2378707,0.1378437,0.6828439,-0.2593859,0.3644504
0.9280505,-0.1739675,0.04591639,0.6107964,-0.1122868,0.628676
0.7765115,-0.157595,0.07837172,0.5569198,-0.4144629,0.6433842
0.6449696,-0.144264,0.09264851,0.6000226,-0.3372975,0.5694608
0.607154,-0.1294525,0.1036151,0.5757433,-0.5183603,0.3813867
0.6360865,-0.1730617,0.1461798,0.5989877,-0.6153122,0.03697801
0.6357484,-0.1770943,0.1613911,0.6413528,-0.4651053,-0.08895908
0.5849667,-0.1617498,0.1602977,0.6077893,-0.6931871,-0.02603685
0.5902557,-0.1714918,0.153721,0.6180779,-0.8981214,0.09702497
0.6553708,-0.2019297,0.1308888,0.6321372,-1.244925,0.3064037
0.7794784,-0.246193,0.05439857,0.6746978,-1.521788,0.3918499
0.9394785,-0.209092,-0.08179542,0.7510157,-1.224347,0.2289156
0.9500118,-0.1452681,-0.1443876,0.7649258,-0.795812,0.04509079
0.8430034,-0.1340584,-0.05659178,0.6830305,-0.4701328,0.06055855
0.763102,-0.1279459,0.03752022,0.4323748,-0.6737645,0.1148923
0.7770908,-0.1416935,0.03784802,0.1702718,-1.045318,0.1262482
0.884169,-0.1723013,0.03633496,0.1241507,-0.6949924,0.1053762
0.9856516,-0.2489329,0.06426935,0.2595007,-0.2346815,-0.07643435
1.079853,-0.4401231,0.06546259,0.4292316,0.08125783,-0.2553096
1.131157,-0.6106133,-0.01858777,0.6098125,0.3428996,-0.2419036
1.203293,-0.6128487,-0.2076466,0.8294682,0.2538341,-0.1632534
1.396567,-0.5287773,-0.3401713,0.871533,0.5343722,-0.2478833
1.469255,-0.4050365,-0.2976921,0.7930652,1.094392,-0.5608774
1.355424,-0.2218988,-0.1613712,0.7645458,0.8476076,-0.7425978
1.361252,-0.1421709,-0.07660318,0.51713,-0.4625478,-0.2780176
1.671811,-0.1730095,-0.1859436,0.2297446,-1.724087,0.2953732
1.90068,-0.162379,-0.2823762,0.2278723,-0.9336483,0.02019065
1.53127,-0.2046117,-0.06479376,0.295486,0.01050931,-0.1792751
1.093899,-0.253004,0.1062663,0.3189333,-1.527485,0.3598986
1.120392,-0.2197931,-0.102518,0.3308217,-2.319166,0.6383417
1.013182,-0.2391421,-0.2897279,0.4192162,-1.12851,0.7323833
0.7999015,-0.2368179,-0.2369568,0.5505421,-0.5600519,0.8106993
0.8919107,-0.1921305,-0.1816217,0.5736761,-0.6012164,0.6783058
0.8510902,-0.1822709,-0.1515245,0.5513842,-0.599198,0.6766596
0.7876403,-0.1563554,-0.1102105,0.4758748,-0.2444146,0.5185619
0.8095394,-0.1551545,-0.1082663,0.4043709,0.2603242,0.3604984
0.6170329,-0.1418354,-0.1006591,0.3458292,0.2041725,0.4343738
0.628663,-0.11492,-0.09778678,0.2537197,0.06603647,0.3743393
0.7231713,-0.1433912,-0.1200468,0.2981007,0.03710307,0.3807165
0.6568286,-0.1542217,-0.1208552,0.3606352,0.2666249,0.3389094
0.6744433,-0.1724984,-0.0965363,0.3941337,0.77028,0.13174
0.5652921,-0.2070374,-0.06200963,0.4426632,0.8954843,-0.03716645
0.4989098,-0.19637,-0.06424016,0.4025642,0.5602188,-0.1481076
0.6039814,-0.196722,-0.08514315,0.4402722,-0.04909972,-0.08440368
0.7352022,-0.2394799,-0.08224881,0.5367313,-0.2653969,-0.1306087
0.9361613,-0.2686547,-0.1334473,0.5806377,0.2725976,-0.3579858
0.9279937,-0.2368948,-0.255295,0.5091542,0.9429213,-0.6149558
0.8802228,-0.2321638,-0.3405774,0.2854641,1.291649,-1.067331
0.9815483,-0.3872791,-0.1912328,0.1400339,1.146394,-1.571839
1.057427,-0.6237448,0.133685,0.01365201,0.3589569,-1.811177
1.402426,-0.6780252,0.2202654,-0.1096614,-0.4868509,-1.280906
1.85858,-0.4686669,0.08583382,-0.01089815,-0.05820544,-0.3797152
1.93189,-0.3075916,0.04481832,0.2795057,0.6588122,-0.2533451
1.764704,-0.3654183,0.1089284,0.5786732,0.2240855,-0.3967527
1.599453,-0.3628587,0.1739206,0.5663715,0.0341519,-0.1633617
1.460707,-0.2121148,0.1662553,0.3563104,0.05523222,0.08261838
1.290422,-0.1459665,0.1361739,0.2964099,-0.1407448,0.3710067
1.027303,-0.1947889,0.1251302,0.2971154,0.1252152,0.5612519
0.7612655,-0.2368795,0.1200639,0.3456531,-0.09834482,0.6290661
0.6374718,-0.2227446,0.143423,0.4000792,-0.4584238,0.784964
0.5930084,-0.1739813,0.1246383,0.3219377,-0.4145413,0.7245034
0.5614846,-0.1359951,0.09208976,0.2479609,-0.5514403,0.5112858
0.6247899,-0.1100357,0.08597798,0.2420035,-0.4032001,0.19291
0.6498417,-0.1252921,0.09195069,0.2436491,-0.3744277,-0.336997
0.5946049,-0.1641644,0.1337496,0.2330361,-0.4916832,-0.6230525
0.5851412,-0.1884207,0.1212251,0.192941,-0.4449042,-0.5789266
0.5397077,-0.2044515,0.09793246,0.1795566,-0.8832602,-0.2435639
0.5673454,-0.1426854,0.06923803,0.2216595,-1.422917,0.3809899
0.7301736,-0.08769544,-0.0776938,0.2476895,-1.611862,0.6598275
0.8636097,-0.1352358,-0.1692396,0.2002061,-1.053333,0.5071889
0.9177616,-0.1890571,-0.09553227,0.1225845,-0.2833073,0.3556897
0.8351243,-0.2432178,0.01817979,0.09264082,-0.4845857,0.115406
0.7925518,-0.2765926,0.08116115,0.08642114,-0.5611806,-0.1617374
0.8540023,-0.2908491,0.09439872,0.06280509,-0.02431651,-0.2488871
0.9006296,-0.3683625,0.07035877,-0.01041444,0.3845182,-0.2675888
1.128525,-0.4765551,-0.06054607,-0.05885595,0.6670368,-0.2574621
1.442164,-0.5594137,-0.2954083,0.1613486,0.6166632,-0.2301718
1.608039,-0.5381235,-0.4231667,0.451504,0.636904,-0.3752766
1.656384,-0.3734438,-0.2716674,0.3541508,0.7440566,-0.4541318
1.616349,-0.1722516,-0.1041742,0.02671845,0.1397811,-0.1190567
1.602997,-0.1001341,-0.1343708,-0.2108528,-0.4358084,0.2297685
1.59163,-0.2061268,-0.1380715,-0.3249875,-0.2584046,0.171727
1.439392,-0.2690707,-0.1131479,-0.3684931,-0.2723856,0.08433571
1.198209,-0.2026041,-0.1311882,-0.4453707,-0.8293687,0.2400625
1.034707,-0.1960655,-0.1376548,-0.466794,-1.001088,0.3464116
0.9697914,-0.22618,-0.1933932,-0.4228252,-0.8068421,0.4728709
0.8660375,-0.2184819,-0.2223813,-0.4301963,-0.7723376,0.6597463
0.78594,-0.2266819,-0.2230676,-0.3894069,-0.5045007,0.6072919
0.7627023,-0.2111899,-0.230407,-0.3801917,-0.1226966,0.495892
0.7069792,-0.1916164,-0.1578854,-0.401657,-0.09959041,0.370793
0.7092015,-0.2096667,-0.088834,-0.3367396,-0.2483422,0.1748483
0.7640814,-0.2123139,-0.08408394,-0.2898446,-0.3075507,0.1569027
0.8290908,-0.1850172,-0.1376156,-0.1912724,-0.1024116,0.2471059
0.9141224,-0.1169657,-0.2230913,-0.1229041,0.3241194,0.4218026
0.9032614,-0.04622794,-0.2491351,-0.1958892,0.7982066,0.612194
0.8094186,-0.04649466,-0.189028,-0.2730197,0.9549652,0.6337846
0.7324991,-0.06941041,-0.08277691,-0.3622093,0.6048201,0.6133452
0.7082579,-0.05563256,-0.0507554,-0.3944213,0.4247153,0.5712899
0.7486709,-0.04379512,-0.08096757,-0.5080031,0.7082906,0.5000655
0.7628445,-0.05405138,-0.07198749,-0.8321175,0.8514578,0.451302
0.7566203,-0.09430146,-0.06912644,-0.9575644,0.5783373,0.4260495
0.8473646,-0.1721378,-0.08090767,-0.8749958,0.3753473,0.3628641
1.005032,-0.2025766,-0.1310572,-0.9372766,0.6126075,0.1976926
1.093025,-0.2221803,-0.2472858,-1.110397,0.9472734,0.065795
1.042514,-0.3649319,-0.3104851,-1.318239,1.150861,-0.2354621
1.035796,-0.5790452,-0.2402677,-1.475498,1.150645,-0.8052888
1.239034,-0.7751186,-0.1248614,-1.373005,0.8599123,-0.9941467
1.480533,-0.8268419,-0.0942117,-1.006607,0.8296594,-0.6676814
1.533349,-0.6465629,-0.142059,-0.5364516,1.515885,-0.5181539
1.348858,-0.4419887,-0.1405877,-0.357077,2.144874,-0.7298544
1.215093,-0.3970329,0.05503618,-0.6521524,1.366874,-0.8245682
1.386462,-0.4087576,0.2561162,-0.8641472,-0.62045,-0.6753086
1.576506,-0.2756597,0.1095665,-0.874036,-1.653292,-0.400821
1.577762,-0.04656446,-0.1442751,-0.9923076,-0.171203,0.02632565
1.417178,0.03233223,-0.2427086,-1.233493,2.175,0.3411118
0.9873884,0.01128357,-0.2988402,-1.866734,2.541606,0.426959
0.4900018,-0.01692055,-0.1737175,-2.569646,1.661649,0.4638174
0.3957973,-0.1721707,0.1070854,-2.581651,1.048579,0.358003
0.7324702,-0.3746385,0.2258701,-2.002042,0.3286204,0.2042213
1.064709,-0.5005872,0.1215079,-1.233599,0.5189844,0.1190247
1.105944,-0.5196158,0.002187974,-0.6857471,1.210041,-0.1320547
0.8747143,-0.391441,0.08074874,-0.4529095,0.9062596,-0.3702102
0.6412597,-0.2884515,0.1497119,-0.2753109,0.2927786,-0.3102586
0.7172852,-0.3230751,0.1026674,-0.2111897,-0.4080777,-0.2529237
0.8731946,-0.3598446,0.1104914,-0.2290256,-0.3292468,-0.3811525
0.971869,-0.3579047,-0.0007344224,-0.238786,0.3303827,-0.4228635
1.219885,-0.3589422,-0.1265932,-0.2928489,0.201145,-0.3492244
1.320021,-0.326107,-0.07012174,-0.3911398,0.5534674,-0.3233442
1.203684,-0.1757942,0.01032935,-0.7163247,0.6974075,-0.2458596
1.187895,0.01827417,0.116564,-1.202669,-0.1552141,-0.1279708
1.192005,0.005178728,0.1076247,-1.428847,-0.417416,-0.01529659
1.154389,-0.2352953,-0.03665423,-1.329628,-0.5165773,0.1540734
1.108585,-0.4260731,-0.09117614,-1.030699,-0.5950163,0.1684774
1.074647,-0.4264195,-0.07489823,-0.5540765,-0.6777038,-0.0235088
1.032459,-0.3791906,-0.01288121,-0.1237942,-0.9629166,-0.2077797
0.8937454,-0.4024093,0.0128383,0.1121768,-0.7711815,-0.3222383
0.8313979,-0.3793961,-0.008420508,0.2246475,-0.8062749,-0.3087199
0.8880498,-0.1940077,-0.04064709,0.1326908,-0.8464493,-0.1418233
0.9051622,0.025267,-0.1340922,-0.05708645,-0.5113238,0.114422
0.9171951,0.08354127,-0.1510836,-0.2326767,-0.357117,0.361853
0.9243597,0.002715977,-0.1210086,-0.4941115,-0.1857423,0.4186316
0.90033,-0.05643773,-0.1217524,-0.5816094,-0.3567418,0.305543
0.8620545,-0.1335386,-0.08314151,-0.4079283,-0.5325657,0.2235277
0.7905547,-0.2501435,-0.0693035,-0.1710866,-0.4458959,0.1600136
0.7328989,-0.2356829,-0.08067138,0.08493997,-0.5048048,0.1056803
0.7209756,-0.2069513,-0.08657849,0.2245694,-0.2496236,0.1305292
0.7130029,-0.2397573,-0.09444771,0.3392883,0.07516576,0.1251173
0.7085744,-0.2078275,-0.1038667,0.5013618,0.2861249,0.02789206
0.6936924,-0.1972895,-0.112814,0.6049253,0.4652291,-0.09648192
0.6654257,-0.1677619,-0.07625219,0.7299414,0.4610226,-0.1880463
0.7127961,-0.1051437,-0.04388903,0.7414324,0.4157444,-0.2139901
0.8163709,-0.0787644,-0.04490459,0.6477192,0.2045265,-0.2146202
0.9097958,-0.007898627,-0.06652162,0.5374078,0.2524723,-0.2325458
0.989879,-0.0103009,-0.1324774,0.1526129,0.4705162,-0.3577757
1.026159,-0.1803054,-0.1660207,-0.2619,0.3869881,-0.6889992
1.11781,-0.4705954,-0.08095976,-0.3102535,0.4020035,-1.080563
1.337032,-0.7132291,0.04663357,-0.1231497,0.342107,-1.186197
1.516271,-0.6663798,0.05617981,0.159225,0.3596722,-0.8594362
1.532996,-0.4906962,0.02095163,0.4185826,0.6702388,-0.455667
1.498134,-0.4087439,0.08214861,0.572532,0.5425051,-0.374531
1.57375,-0.4104442,0.1733897,0.6321254,-0.440741,-0.444896
1.700312,-0.395043,0.2241608,0.5914844,-1.333076,-0.3524086
1.704607,-0.2573907,0.1133965,0.5431686,-0.2208167,-0.1476672
1.452476,-0.1670994,-0.05595295,0.4394187,1.178803,0.06255446
0.9562173,-0.1544521,-0.009217438,0.2530208,0.3163866,0.2861195
0.5798524,-0.1028419,0.08325811,0.1936143,-0.3530648,0.5036641
0.5536376,-0.1406943,0.1245368,0.2183056,-0.2815948,0.608792
0.6422109,-0.1900643,0.2001408,0.2069066,-0.7576696,0.5203958
0.6587739,-0.1894661,0.1731802,0.2787605,-0.3663055,0.3890828
0.6413564,-0.2233463,0.1186223,0.4152322,-0.04389358,0.3087106
0.6230324,-0.1940595,0.1170552,0.5095617,-0.4523298,0.202953
0.5626617,-0.1577705,0.1009675,0.5755199,-0.3340611,0.127438
0.4845766,-0.1504084,0.1296605,0.5438515,-0.4874268,0.01804371
0.4738498,-0.1474975,0.1298435,0.4424685,-0.9253411,-0.1201221
0.5494153,-0.1944229,0.06312345,0.4202545,-1.464236,-0.03269356
0.7582178,-0.1973243,-0.024469,0.4200544,-2.181426,0.1558107
1.04352,-0.2400103,-0.1551988,0.4723702,-1.978504,0.2410866
1.137482,-0.3348244,-0.1921331,0.6155053,-1.193809,0.2125505
0.952106,-0.3077086,-0.06141989,0.7124598,-0.4380299,0.03436801
0.7447012,-0.2458258,0.1054831,0.8053696,-0.1787491,-0.1498123
0.7291076,-0.2238267,0.1403348,0.8353725,-0.5990531,-0.2905224
0.873549,-0.2666317,0.003634275,0.727078,-0.4763436,-0.3933646
1.042456,-0.3534485,-0.2024055,0.6507021,0.02801476,-0.4309678
1.167717,-0.3538123,-0.3749582,0.6254658,0.3197518,-0.4812465
1.536338,-0.3335153,-0.3444588,0.6718046,0.5506043,-0.4142455
2.058101,-0.3435334,-0.2670565,0.7325886,0.6705243,-0.3097868
1.955039,-0.2866295,-0.3043882,0.594506,0.8399267,-0.31787
1.495488,-0.1075322,-0.0916852,0.3081736,0.4555191,-0.2556213
1.338197,0.05814964,0.2018671,-0.04201962,-0.3065446,-0.1504698
1.163322,-0.06573266,0.2224045,-0.1879017,-0.8162034,0.04064984
1.078679,-0.2502764,0.1957796,0.2336931,-1.384118,0.385689
1.15153,-0.1752711,0.01695538,0.785812,-1.224792,0.5895139
1.022334,-0.1759516,-0.257282,0.8829422,-0.7140294,0.5344882
0.9331878,-0.2357499,-0.1858868,0.7236102,-0.8177668,0.4800116
0.8228084,-0.09884788,-0.06401417,0.5743843,-0.7186094,0.5972026
0.6357791,-0.05916625,-0.1457733,0.3922498,-0.6294894,0.6230626
0.6688542,-0.1089736,-0.1098009,0.3547851,-0.5636868,0.4727298
0.7430078,-0.1258604,-0.06781456,0.5535523,-0.1791722,0.3084339
0.7820275,-0.1933994,-0.1138335,0.6843538,-0.1513569,0.1148153
0.8302147,-0.1699653,-0.07475243,0.7082696,-0.1123746,0.09834201
0.8243745,-0.1116251,-0.1297961,0.7402398,0.1701336,0.2442948
0.7997653,-0.08133165,-0.1943935,0.7414288,0.5212259,0.3833172
0.7493677,-0.05038134,-0.1400893,0.7639798,0.9027949,0.5672629
0.6548534,-0.09983351,-0.1225724,0.7636853,0.8054444,0.5262785
0.5678329,-0.167631,-0.05028104,0.7953904,0.425665,0.2375269
0.6087888,-0.2452878,0.02330165,0.9775798,0.002520251,-0.09170404
0.7373,-0.2406963,0.02661435,1.076308,-0.1359962,-0.4176788
0.867436,-0.1393429,-0.04318414,0.9032831,0.336604,-0.5761772
0.8969975,-0.1587124,-0.1756364,0.6263761,0.8325721,-0.6956292
0.8325272,-0.2967435,-0.1001489,0.5566217,1.097414,-0.9444611
0.9795539,-0.517648,0.04192437,0.5886272,0.6894554,-1.21984
1.326056,-0.5983466,0.05726602,0.456464,-0.1737383,-1.214434
1.712235,-0.3783256,0.05838037,0.3560738,-0.2638487,-0.6306534
1.871723,-0.2616509,0.0399206,0.3967859,0.1120971,-0.0198715
1.657744,-0.3671646,0.1723303,0.5556469,0.2574931,0.04597451
1.568038,-0.420016,0.3115775,0.7349996,-0.01989442,0.03196121
1.567767,-0.3639605,0.1612982,0.7358553,-0.3294175,0.2485395
1.424967,-0.2918981,0.03989944,0.7491891,0.1111655,0.3065303
1.293314,-0.2413083,0.09181504,0.7828001,0.4162201,0.242254
1.032356,-0.2004134,0.1067544,0.6398941,0.02218854,0.3612944
0.7957669,-0.1778011,0.09312085,0.4509639,-0.3435531,0.5362793
0.689703,-0.1087229,0.1096561,0.2691331,-0.6555643,0.7336067
0.6490981,-0.07892579,0.09726569,0.1598145,-0.8201055,0.799773
0.7504854,-0.1555315,0.0514479,0.2228086,-0.7296609,0.5769737
0.7182737,-0.1628358,0.03441598,0.3682738,-0.5686773,0.2983622
0.6461152,-0.1667,0.04085853,0.5309098,-0.3082905,-0.05794424
0.6131134,-0.1772596,0.07617282,0.5854409,-0.2155812,-0.3373796
0.4372629,-0.1369723,0.13427,0.501515,-0.4570957,-0.3566913
0.4268547,-0.1549064,0.1527659,0.4775582,-0.865599,-0.2476031
0.5664513,-0.1429232,0.06980705,0.45328,-1.494854,0.08849707
0.7874898,-0.1462355,-0.1068691,0.3617859,-1.883983,0.3493333
1.060704,-0.2176515,-0.1817134,0.401923,-0.9265234,0.163348
1.009743,-0.2413465,-0.07434826,0.5452107,0.61664,-0.1510678
0.8564993,-0.2616168,0.08670181,0.621331,0.8385363,-0.3283155
0.8613798,-0.3013516,0.1455378,0.4823179,0.3401668,-0.4467245
0.9606365,-0.3861614,-0.09010238,0.2480122,0.3214266,-0.462588
1.234613,-0.448537,-0.4075742,0.2736218,0.4363734,-0.3324671
1.541141,-0.4242838,-0.3618933,0.4041694,0.6194522,-0.2905431
1.710657,-0.3915412,-0.08378761,0.5741194,0.7341383,-0.3231491
1.69012,-0.3010753,0.04590802,0.8305076,0.2607549,-0.2762467
1.677378,-0.2102912,-0.04563404,0.7245386,-0.3781024,-0.1293454
1.804899,-0.1626733,-0.1862661,0.5371657,-0.4441582,0.06702994
1.626409,-0.1568215,-0.154932,0.6547499,-0.2662766,0.05153382
1.221883,-0.2157863,-0.02645043,0.6146493,-0.514803,0.04804652
1.037504,-0.1553154,0.02011823,0.471482,-1.004506,0.3013142
0.9829584,-0.09371836,-0.02539753,0.3761269,-1.314388,0.5035488
1.002211,-0.1342273,-0.1239759,0.1812232,-1.057158,0.6388468
0.9025814,-0.09027241,-0.1192747,0.1006607,-0.5427003,0.7485483
0.6677286,-0.08331333,-0.1030702,0.0717382,-0.6265969,0.8183317
0.6669041,-0.1476266,-0.1640628,0.004234811,-0.7275114,0.8188273
0.7221075,-0.2122262,-0.1262408,0.04532424,-0.4852951,0.6249387
0.6849848,-0.2607146,-0.1551415,0.1872373,-0.2120754,0.3525381
0.6453773,-0.2155173,-0.2014834,0.4228469,0.4359105,0.09022889
0.5659526,-0.1988277,-0.1344114,0.5288649,0.8263803,0.0277754
0.5570683,-0.1859572,-0.09950927,0.4971907,0.853973,0.1134844
0.5509335,-0.1244555,0.02614845,0.5710746,1.052753,0.03127757
0.523844,-0.1351973,0.08011453,0.5840928,0.7050879,0.02263681
0.5858933,-0.1277361,-0.005459341,0.506588,0.06021865,0.1010137
0.7089648,-0.09014244,-0.01336824,0.4858501,-0.1655025,0.08424252
0.9087884,-0.1070039,-0.1236596,0.5400603,-0.05559279,0.07299882
0.9841468,-0.117439,-0.3048789,0.5911483,0.2893858,-0.08207897
0.9165862,-0.1472818,-0.35823,0.4332246,0.6724095,-0.4279024
1.038695,-0.3558944,-0.1728564,0.2632326,0.9765981,-0.9513028
1.246831,-0.7010397,0.1219851,0.3286248,0.5792953,-1.389869
1.391814,-0.7985107,0.1185263,0.4177016,-0.03432193,-1.234253
1.593327,-0.5482535,0.01109818,0.5002996,0.3468685,-0.7780513
1.696132,-0.3315251,0.05803343,0.6815497,0.4666379,-0.3596993
1.563776,-0.2966398,0.1127694,0.8009476,-0.1081233,0.01072954
1.46042,-0.2917726,0.1836492,0.7046451,-0.2718938,0.05293803
1.542571,-0.2667605,0.1679074,0.4252276,-0.2703375,-0.002596999
1.561218,-0.2264771,0.1008814,0.1498002,-0.1311797,0.1206039
1.383099,-0.1966583,0.1305939,0.1135501,-0.01111128,0.1906253
1.105396,-0.2210585,0.09728105,0.206474,-0.1809624,0.3561347
0.7553137,-0.2223599,0.07327915,0.14272,-0.2831024,0.6480032
0.5287096,-0.1455123,0.1176638,0.05143501,-0.4478865,0.7469053
0.5373313,-0.07469761,0.09188282,-0.002533715,-0.4395617,0.657944
0.5569299,-0.06983916,0.09648645,-0.1006625,-0.2495053,0.4471196
0.5260822,-0.08424732,0.1163927,-0.04938347,-0.2537131,0.156202
0.4663177,-0.07716768,0.1173129,0.02380582,-0.2757516,-0.08468466
0.3664838,-0.1069786,0.158147,-0.004031434,-0.5349672,-0.1469882
0.3118208,-0.1559126,0.1278947,0.05907998,-1.124169,-0.07785898
0.3572038,-0.1599963,0.05197554,0.1310064,-1.822948,0.05415711
0.5701515,-0.1821099,-0.02950859,0.2192377,-2.050496,0.2163796
0.8992871,-0.2389424,-0.1419261,0.3554452,-1.098128,0.04740431
1.056381,-0.2919074,-0.161163,0.4708553,0.08042406,-0.2478388
0.9784126,-0.3383331,-0.05882559,0.5350829,0.3122588,-0.1969406
0.9956778,-0.4217723,0.01669907,0.3673798,0.06188353,-0.1631708
1.158072,-0.5284546,-0.130336,0.1753138,0.1825742,-0.2399163
1.35772,-0.4785868,-0.4311209,0.124408,0.6769651,-0.3231835
1.697204,-0.3694617,-0.5279475,0.06251417,0.9681722,-0.4512351
1.843486,-0.3936627,-0.2997543,0.2129765,0.7105031,-0.2822683
1.669249,-0.3699577,-0.05078393,0.5363599,-0.05959754,0.001324549
1.585112,-0.3001399,-0.08527516,0.6845968,-0.7317695,0.02499671
1.494314,-0.2606465,-0.1586369,0.6016967,-0.7845585,0.0259765
1.350488,-0.1691286,-0.092752,0.4234608,-0.7230054,0.1038391
1.302067,-0.159846,-0.1480505,0.2977608,-0.9228996,0.1523804
1.14684,-0.1966074,-0.202776,0.2087844,-0.9312821,0.18999
0.956069,-0.1589419,-0.1770021,0.2216854,-0.7940101,0.2883517
0.9511536,-0.142829,-0.1927304,0.3051802,-0.8019109,0.4288617
0.9926469,-0.1168214,-0.1408605,0.3352186,-0.297462,0.4302101
0.9134652,-0.09412837,-0.1183898,0.3913186,0.4950233,0.3691715
0.7873347,-0.1186793,-0.08462733,0.3888706,0.505388,0.4012058
0.6637387,-0.1163979,-0.0003538015,0.3684955,0.1166772,0.3857933
0.5954936,-0.1208841,-0.06574374,0.3799837,-0.016791,0.4034034
0.6872398,-0.1500585,-0.1258886,0.3368996,0.1704489,0.5223596
0.7413564,-0.1707013,-0.1351146,0.4231345,0.4717651,0.5513644
0.7353112,-0.1720721,-0.1589349,0.497524,0.5926672,0.4868249
0.8098642,-0.1270631,-0.1276403,0.3494696,0.7049513,0.3342984
1.492,-0.4006432,-0.3390459,-0.1082284,0.8282083,-0.2496331
1.701261,-0.2898652,-0.2804782,-0.1237777,1.355049,-0.2129725
1.655204,-0.1456107,-0.09005078,-0.4336688,1.308257,-0.1090754
1.415466,-0.1660498,0.01152005,-1.00103,0.4388562,0.07876083
1.354205,-0.3152622,-0.08735543,-1.360254,-0.6185664,0.4213963
1.480498,-0.4959542,-0.2014891,-0.9135412,-0.6016121,0.524015
1.627743,-0.6217158,-0.2102854,-0.2308795,0.08476969,0.2156225
1.470676,-0.4932771,-0.1263439,-0.1153017,0.0457517,-0.003317352
1.102096,-0.2055662,-0.02125129,-0.2103601,-0.301468,0.07110428
0.9072668,-0.0419101,0.02761657,-0.3966326,-0.7194051,0.341708
0.7659149,-0.05244961,-0.01186512,-0.6514689,-1.030581,0.732166
0.6674022,-0.172658,-0.06647033,-0.5749984,-0.7710456,0.9811012
0.666275,-0.2428166,-0.04632691,-0.3998192,-0.8104161,0.9339048
0.8041559,-0.2523455,-0.09200003,-0.2833221,-0.804256,0.7401709
1.019941,-0.2893519,-0.2089355,-0.1460411,-0.0687263,0.4642234
0.9326213,-0.2194944,-0.246033,-0.1181644,0.8132132,0.2110635
0.7136954,-0.1049152,-0.1930153,-0.1491924,1.352443,0.1567974
0.5245576,-0.06691777,-0.07812201,-0.3208143,1.078247,0.1386489
0.39448,-0.07449483,-0.0204799,-0.5345363,0.775458,0.1413839
0.5067496,-0.1084068,-0.01739983,-0.4436368,0.765555,0.2620019
0.5242523,-0.09691712,-0.01169109,-0.2661633,0.4262575,0.270604
0.549983,-0.1323245,-0.03142963,-0.1905509,0.3234307,0.1429079
0.7903734,-0.1807046,-0.02210929,-0.09244732,0.2980393,-0.03941906
0.8825138,-0.1217433,-0.03520068,-0.1825661,0.291303,-0.1807451
0.8768124,-0.1075891,-0.06747937,-0.3778805,0.4959503,-0.1521711
0.8501831,-0.1653626,-0.09706276,-0.34418,0.5116359,-0.2342391
0.8374235,-0.2953647,-0.1420091,-0.3129089,0.9977498,-0.5882778
1.037158,-0.5235528,-0.04787777,-0.2861965,1.494399,-1.082703
1.372045,-0.6694326,0.08426305,-0.08261644,1.096572,-1.37307
1.657305,-0.5662377,0.08212942,0.03904418,0.76187,-1.019384
1.692333,-0.3734716,0.07513789,0.006116992,0.7686941,-0.4968663
1.50319,-0.3420511,0.1331743,-0.04564095,0.3433749,-0.2447367
1.366025,-0.3179691,0.1785043,-0.1004286,-0.1902046,0.04410678
1.379092,-0.2515524,0.1239652,-0.3193734,0.121395,0.1395672
1.376247,-0.2426405,0.0741788,-0.5918552,0.5195164,0.04277463
1.228693,-0.2013114,0.1578127,-0.572457,0.2252589,0.117925
1.053568,-0.2502145,0.2201441,-0.4680029,0.0307408,0.1205789
0.8731269,-0.3284085,0.1847687,-0.391566,-0.2334711,0.1569122
0.7550361,-0.2785483,0.1619737,-0.2512545,-0.521545,0.3528601
0.7877073,-0.2387853,0.1449051,-0.1909861,-0.2775745,0.3927282
0.7737773,-0.1709127,0.1084,-0.1297348,-0.1506184,0.3211099
0.7163007,-0.07542826,0.1088676,-0.09506258,-0.07006999,0.1806018
0.6232198,-0.04272846,0.1262014,-0.1860489,0.04976783,0.02154858
0.4571989,-0.01891,0.1337139,-0.3307453,-0.2464716,0.001357475
0.401829,0.006877867,0.1557228,-0.5327557,-0.5924005,0.03175069
0.4323978,0.01351556,0.1378186,-0.6973162,-1.013645,0.06191099
0.5553135,-0.06491285,0.06960709,-0.8416956,-1.386839,0.1091568
0.8388983,-0.2056291,0.01110569,-0.9661293,-1.234192,0.1016769
1.129006,-0.272252,-0.01068841,-0.8531884,-0.7714871,-0.06766745
1.262458,-0.284766,0.02292544,-0.6080294,-0.04253902,-0.2262699
1.229358,-0.3468528,0.04341673,-0.3545757,0.5716033,-0.1248355
1.216995,-0.4714043,-0.01515467,-0.04195802,0.632985,0.006848468
1.239279,-0.5452415,-0.165867,0.05594154,0.6367685,-0.04045837
1.21921,-0.4030958,-0.3244075,-0.1402309,0.8705283,-0.2051713
1.24231,-0.1848303,-0.2658798,-0.3669137,0.962895,-0.3552595
1.30257,-0.2035224,-0.151657,-0.567323,0.1747962,-0.2088983
1.425942,-0.2854506,-0.2053751,-0.5766527,-0.8493982,0.1847471
1.600885,-0.2877474,-0.1922781,-0.2154235,-0.5380103,0.4588808
1.682718,-0.413482,-0.2132907,0.216358,0.1603242,0.4477067
1.577823,-0.4317325,-0.3124916,0.2613077,0.1750722,0.06227772
1.235398,-0.2252647,-0.116084,-0.08330734,-0.04744302,-0.2864631
0.8255932,-0.06586931,0.07564014,-0.4534858,-0.8171808,0.001358999
0.6910978,-0.01232706,-0.02868257,-0.6692195,-1.326181,0.436021
0.8020717,-0.1010033,-0.1138239,-0.6276293,-0.7320694,0.5717914
0.7927679,-0.1879401,-0.1557961,-0.4300055,-0.2291479,0.6724244
0.7387521,-0.1771494,-0.1895749,-0.3209745,-0.1117011,0.5632881
0.830706,-0.1901304,-0.1364179,-0.2157159,0.0572302,0.3088294
0.8521627,-0.1256923,-0.113161,-0.2155283,0.237297,0.2122856
0.8443788,-0.06275631,-0.1335216,-0.3500347,0.423882,0.1507981
0.8256237,-0.08788235,-0.1167679,-0.3997504,0.5169683,0.239301
0.7108258,-0.08906386,-0.07359829,-0.4162655,0.6988543,0.370198
0.7226657,-0.1169095,-0.01518997,-0.3423029,0.887454,0.3075312
0.7742676,-0.160814,0.02318606,-0.2818148,0.6920715,0.3016895
0.7793597,-0.1970362,0.008544727,-0.3464164,0.2605514,0.3295883
0.8272899,-0.2208102,-0.01530446,-0.3304399,0.0133855,0.33399
0.8665999,-0.2134525,-0.05634068,-0.2958864,0.1266341,0.3640199
0.9467567,-0.2014431,-0.1100976,-0.284408,0.3513069,0.1819817
0.9556806,-0.1656061,-0.120053,-0.3378761,0.4657003,-0.108017
0.8992878,-0.2002807,-0.1072272,-0.4312594,0.538276,-0.2838513
0.9285151,-0.3787923,-0.06087716,-0.3402617,0.8362345,-0.5371071
0.9819132,-0.5972458,-0.002650892,-0.1736817,1.202983,-0.9500588
1.176616,-0.6717512,0.01558443,0.01681803,0.9833529,-1.159688
1.477272,-0.5913522,0.04437661,0.1568592,0.6371651,-0.9708486
1.586584,-0.4910545,0.07840766,0.05432844,0.7014648,-0.7129681
1.459354,-0.289722,0.09453647,-0.1471075,0.4044833,-0.4628118
1.323801,-0.1394091,0.1088685,-0.3535119,0.02744713,-0.155689
1.33952,-0.2005529,0.113216,-0.4731481,0.1750177,0.001376321
1.32867,-0.2394027,0.1359665,-0.5096101,0.006640402,0.09681892
1.26408,-0.3043886,0.18193,-0.605224,-0.3186239,0.1563878
1.223574,-0.3622988,0.1867474,-0.5366099,-0.1939918,0.09665168
1.076303,-0.3089006,0.1449037,-0.3882115,-0.08387157,0.1622968
0.8991475,-0.2913977,0.1079763,-0.410919,0.005966941,0.3116716
0.7385225,-0.1557915,0.06406666,-0.3897598,0.06848707,0.3960639
0.5801728,0.01126555,0.03666875,-0.4320548,-0.01533814,0.4101559
0.538149,-0.02913443,0.07094982,-0.6390864,-0.07893145,0.2481671
0.4929718,-0.08462602,0.09148945,-0.7931431,-0.3049644,0.05743476
0.4009716,-0.09698093,0.06119512,-0.9019785,-0.531067,-0.001711041
0.4215446,-0.1191733,0.02459523,-0.8975094,-0.7753359,0.07092363
0.5266428,-0.1887946,-0.003412074,-0.8639948,-1.284955,0.1562514
0.7109216,-0.3202738,-0.03559135,-0.8506118,-1.415404,0.06835605
0.999948,-0.3617961,-0.06928887,-0.5692726,-0.8265722,-0.009505646
1.120263,-0.3424738,-0.05542707,-0.1468005,-0.01307955,-0.03401559
0.9782529,-0.3498372,-0.001363204,0.1131003,0.4286434,-0.1311704
0.8662226,-0.2667951,0.04605309,0.0660638,0.3282173,-0.2020958
0.8570371,-0.157877,0.06347777,-0.2031592,0.2959591,-0.2348103
0.9768848,-0.2429394,-0.0341404,-0.4074345,0.5420894,-0.1463084
1.241675,-0.3657347,-0.230775,-0.5155401,0.6516024,-0.07093916
1.397154,-0.3410116,-0.3111696,-0.4911647,0.7288048,-0.2049136
1.411712,-0.3333656,-0.1760551,-0.3479778,0.8310907,-0.3010918
1.348094,-0.345868,0.02751834,-0.1982121,0.4839374,-0.261045
1.307858,-0.3130731,0.08984293,-0.05590912,-0.3789018,-0.06140834
1.593206,-0.2638154,-0.06037637,0.06899393,-0.8036739,0.2730278
1.863452,-0.1486314,-0.1990126,0.1990906,0.02201049,0.3774457
1.580262,-0.04944721,-0.1103166,-0.1273876,0.7842511,0.127263
1.12396,-0.002978351,0.01653303,-0.9065684,0.03244186,-0.02179057
0.9437627,0.004449086,0.0295886,-1.26268,-0.9072632,0.3048669
0.9434898,-0.05767055,0.009422098,-1.23061,-0.9155711,0.6450812
0.9743037,-0.1151544,-0.110365,-1.130409,-0.5818221,0.5954595
0.9070969,-0.19074,-0.2298467,-0.9726982,-0.1321935,0.5215837
0.8100059,-0.1943872,-0.1800618,-0.9591404,-0.09567914,0.5587784
0.797975,-0.08677184,-0.1487728,-0.9586347,-0.4027284,0.5569751
0.734115,-0.07128657,-0.1758824,-0.9485663,-0.2861705,0.5680835
0.7118859,-0.05961484,-0.1632212,-0.9720029,-0.107043,0.5814287
0.7816485,-0.04959531,-0.1783627,-0.9386547,0.2930092,0.5584898
0.7646472,-0.09508764,-0.1967969,-0.9641192,0.8089978,0.5427509
0.7777341,-0.04200243,-0.1732482,-1.025347,0.8043878,0.5284317
0.8366444,0.0002304846,-0.1526592,-1.149491,0.9584285,0.5296663
0.8467307,0.01477741,-0.13857,-1.307501,1.300914,0.5407068
0.827436,-0.001760922,-0.0872059,-1.416427,1.324903,0.475466
0.7185836,-0.1072416,-0.02959058,-1.59911,0.8844234,0.4107871
0.673792,-0.1388515,-0.03465912,-1.686017,0.05701724,0.4249603
0.8374284,-0.2040477,-0.09678664,-1.566281,-0.1120231,0.39219
1.081597,-0.3026677,-0.2131546,-1.479319,0.6728715,0.2362613
1.184695,-0.2983641,-0.3218836,-1.505833,1.321784,-0.004318763
1.051001,-0.3481004,-0.3307069,-1.510278,1.102825,-0.2177899
0.9715235,-0.5083027,-0.2808407,-1.411648,0.7694303,-0.4328435
1.073972,-0.7649765,-0.2020507,-1.197964,0.9061907,-0.7787143
1.253451,-0.8989926,-0.1148741,-0.8384273,0.863533,-0.9735931
1.590892,-0.7664353,-0.1222198,-0.6073246,1.041185,-0.7968256
1.781611,-0.5939252,-0.1619822,-0.7028868,1.459263,-0.5937712
1.450026,-0.3064042,-0.1083676,-0.9506774,1.321268,-0.4199432
1.050603,-0.01329142,-0.03319541,-1.422964,0.9973813,-0.03318175
1.056976,-0.04753563,0.02752022,-2.055184,0.428227,0.3211382
1.239193,-0.1346111,0.03042747,-2.521034,0.09552954,0.4648278
1.365452,-0.1929339,-0.05267409,-2.615794,0.7533221,0.5472189
1.360271,-0.4338878,-0.07347977,-2.180296,1.480437,0.5450128
1.145746,-0.5735373,-0.06597032,-1.583919,1.766297,0.4310466
0.8883382,-0.4915485,-0.03492357,-1.287253,1.589336,0.2476188
0.7619662,-0.3990352,0.09382135,-1.220102,0.9955237,0.1426178
0.8121252,-0.2904098,0.1365299,-1.247133,0.5081577,0.216433
0.9510469,-0.2395009,0.07971782,-1.134895,0.5255541,0.224804
1.010628,-0.316787,0.04711727,-0.8632732,1.082345,0.09016869
0.9422199,-0.3345078,0.0732856,-0.7199706,1.284086,-0.1218099
0.76553,-0.2674804,0.1485068,-0.6945548,0.6384535,-0.389342
0.6985678,-0.233884,0.179314,-0.7269712,-0.1270332,-0.4873225
0.809119,-0.2335685,0.1729411,-0.7412385,-0.3295246,-0.5100117
0.9005086,-0.2414604,0.15578,-0.6078561,-0.09409797,-0.6543264
0.9472872,-0.2262859,0.1732218,-0.4589651,-0.1097332,-0.6711267
0.8805162,-0.1917836,0.207944,-0.427979,-0.1518822,-0.5259632
0.7758119,-0.2018275,0.1727204,-0.4967768,-0.09361,-0.3999969
0.7965485,-0.3197486,0.1158017,-0.6094356,-0.3657713,-0.2233869
0.8857061,-0.5181048,-0.08217652,-0.7451585,-0.6384187,0.1289978
1.053258,-0.5988091,-0.3513762,-0.7552663,-0.5915503,0.5138313
1.187935,-0.5358678,-0.3367617,-0.42795,0.5798886,0.4142669
1.162791,-0.4671361,-0.05241398,-0.1279474,1.808197,-0.2214042
0.9884381,-0.3103311,0.3035818,-0.2663559,0.249466,-0.6256028
0.8300177,-0.1475377,0.4304118,-0.4532736,-1.785935,-0.3860858
1.037711,-0.1894965,0.1440177,-0.413064,-1.381658,-0.0353776
1.32467,-0.2898266,-0.1552441,-0.3952434,-0.9434108,-0.08105909
1.242382,-0.3215121,-0.1594603,-0.3404728,-1.025014,-0.1148356
1.052361,-0.2939261,-0.1056535,-0.2077433,-0.4580691,0.04297682
0.8541645,-0.1828344,-0.08935241,-0.2214014,-0.4713362,0.1470071
0.6505432,-0.1136996,-0.02680129,-0.3125516,-0.7645943,0.4311272
0.6674657,-0.1520469,-0.06131437,-0.396954,-0.6300859,0.5140183
0.7456591,-0.1971599,-0.1346109,-0.3969111,-0.6769594,0.2402563
0.8060108,-0.2300426,-0.1035192,-0.2581646,-0.4687368,0.1375934
0.9166442,-0.2464514,-0.105565,-0.139619,-0.1314937,-0.04252393
0.8947722,-0.1896066,-0.1266974,-0.02109169,0.05682531,-0.1374937
0.8040235,-0.0955582,-0.1124701,0.01635795,0.457452,0.002875421
0.7261407,-0.07087214,-0.1130898,-0.05148798,0.68485,0.02566882
0.6357728,-0.1059719,-0.0905514,-0.01836334,0.7185677,0.1787999
0.6627077,-0.1605322,-0.06653095,0.08247068,0.7212123,0.2574937
0.7559789,-0.2323842,-0.03862244,0.31286,0.749719,-0.01255668
0.8230171,-0.2128988,0.009099474,0.494675,0.8785352,-0.4062951
0.7922305,-0.09996359,0.009008497,0.2541736,0.7487313,-0.7153746
0.6365551,-0.04544346,-0.05370417,-0.148655,0.2702491,-0.6610386
0.5396939,-0.1213074,-0.1727324,-0.3172667,-0.2827154,-0.4818376
0.6038286,-0.3700981,-0.2330491,-0.1039133,-0.1594664,-0.4199446
0.9069733,-0.7191461,-0.1100689,0.405725,0.6161819,-0.5047846
1.322546,-0.8995952,0.05855661,0.9237552,1.085813,-1.049187
1.525629,-0.7151061,0.1713751,1.127498,1.004338,-1.625237
1.624551,-0.2933469,0.2590471,0.7609691,0.05679465,-1.410293
1.751794,0.009185667,0.24987,0.144836,-0.9014666,-0.6562688
1.7908,-0.06860266,0.2045932,-0.1339317,-0.5893251,-0.0916442
1.798402,-0.3150974,0.2368067,0.09940324,-0.2431158,0.05389555
1.659831,-0.3363668,0.2302316,0.5418101,-0.3385638,-0.05616758
1.270704,-0.2954562,0.2060718,0.6926845,-0.1097872,0.009551846
1.006591,-0.2672133,0.2249102,0.6569533,-0.153445,0.2019414
0.8678859,-0.08657415,0.1566134,0.5820878,-0.3524599,0.260076
0.6270567,0.002276849,0.07639585,0.2856242,-0.1854678,0.5000551
0.536009,0.04582289,0.0666849,0.01127885,-0.2562986,0.6801566
0.5217705,0.09827768,0.06328906,-0.24387,-0.5739845,0.5913191
0.4208013,0.06435937,0.06533,-0.5219384,-0.822093,0.4196524
0.44212,0.07814704,0.05052595,-0.5891177,-0.9643433,0.0014964
0.5059402,-0.08753595,0.05416116,-0.5837826,-0.8409485,-0.1629927
0.5056402,-0.3183003,0.05706612,-0.5329269,-0.9486555,0.01580784
0.5483615,-0.3443214,0.0149893,-0.3749673,-1.414107,0.07816561
0.7202468,-0.3822762,-0.03241354,-0.05137378,-1.614186,0.1781313
0.9515034,-0.4106484,-0.1240236,0.3635082,-1.231507,0.1351652
0.9811855,-0.4012895,-0.1874008,0.6032842,-0.4166381,0.009384337
0.8679769,-0.355834,-0.1648063,0.7177338,-0.1343108,0.01592025
0.8555743,-0.2714511,-0.08860079,0.6318202,-0.3731295,-0.1158342
0.8727522,-0.2470199,0.0412281,0.5221855,-0.1806378,-0.2955128
0.921866,-0.2808957,0.0767712,0.6763691,0.3168055,-0.3830632
1.041036,-0.4206977,0.02167451,0.755736,0.7254491,-0.3765494
1.043886,-0.5149893,-0.04999246,0.7448453,0.6103525,-0.2364986
1.064178,-0.4488505,-0.2251553,0.7705233,0.443226,-0.1490774
1.274543,-0.3605469,-0.3112491,0.7617842,0.9805869,-0.320699
1.409642,-0.3106887,-0.1338531,0.8354116,1.044895,-0.5154153
1.421809,-0.2595235,0.08643233,0.9351706,-0.05646714,-0.4093515
1.556255,-0.1641642,0.1513271,0.8954735,-0.9014623,-0.245037
1.691986,-0.137181,0.05760111,0.645324,-0.04227158,-0.1935611
1.399895,-0.1185167,-0.02403692,0.4017785,0.7119418,-0.1316457
0.9988464,-0.05765916,0.03491643,0.3346267,-1.077781,0.03720022
1.088241,-0.1595743,0.034607,0.3573783,-2.413009,0.3925771
1.174396,-0.3259386,-0.1186547,0.6619807,-1.100782,0.5249751
1.023318,-0.3861334,-0.203209,1.038183,-0.3354474,0.3548674
0.9728763,-0.308265,-0.1266221,1.118225,-0.9242682,0.3811339
0.8554207,-0.1364156,-0.04161926,1.080495,-0.859418,0.3851527
0.8294251,-0.008878548,-0.08447052,0.8951513,-0.3072541,0.2781831
0.8867676,0.05759093,-0.1140042,0.6162666,-0.04973959,0.3626174
0.7270553,0.03849601,-0.07026278,0.4067165,0.1389075,0.4301955
0.6753132,-0.01173226,-0.1004734,0.2834305,0.09548612,0.4683957
0.723787,-0.04070761,-0.1042839,0.2930162,-0.01377442,0.5077706
0.7268382,-0.149994,-0.09035696,0.2882684,0.3112895,0.4314011
0.7938097,-0.2529738,-0.1255807,0.4043109,0.5587592,0.3606108
0.75894,-0.2510183,-0.07703408,0.5972638,0.6600915,0.2710667
0.7218593,-0.1972861,-0.03822905,0.5366894,0.5811172,0.2364769
0.7744823,-0.1579088,-0.04867166,0.4239891,0.3130255,0.2692387
0.8007542,-0.1635182,-0.06708137,0.3819429,0.506562,0.1274233
0.868064,-0.1662332,-0.1122058,0.3901464,0.5875632,-0.1305001
0.8675752,-0.1720961,-0.09453305,0.4208152,0.546084,-0.3629444
0.7723864,-0.1976172,-0.0829098,0.3526345,0.8913674,-0.5228094
0.7548498,-0.3056204,-0.08028993,0.3094356,1.243614,-0.718828
0.8849981,-0.5344136,0.01341647,0.3179686,1.458375,-1.068686
1.202565,-0.6301896,0.1049781,0.2532702,0.5301042,-1.181862
1.589343,-0.4880344,0.1199435,0.1124915,-0.6939649,-0.7415758
1.825827,-0.3949924,0.1048964,0.07102121,-0.09962192,-0.2082183
1.774108,-0.4695522,0.1485093,0.3346971,0.4128794,-0.1630147
1.615817,-0.4992962,0.1816831,0.7103333,-0.124556,-0.3261582
1.566543,-0.4185032,0.1502842,0.8118165,0.1027276,-0.2421297
1.375227,-0.2887089,0.1608218,0.6675105,0.2703215,-0.1350651
1.097163,-0.1160595,0.1635399,0.5425225,-0.1576412,-0.01103621
1.009796,-0.1012254,0.1323641,0.4089805,-0.2092939,0.1847874
0.8641329,-0.1628005,0.09323796,0.2339574,-0.3806247,0.2658387
0.6743689,-0.06960659,0.02925447,0.07538585,-0.512674,0.4694504
0.6950968,-0.07811166,0.03852234,-0.1488715,-0.3920158,0.6332761
0.7236661,-0.1425134,0.08127418,-0.2629946,-0.4197527,0.4468827
0.6665677,-0.1257426,0.07569352,-0.1883856,-0.1625099,0.1949799
0.6629641,-0.2125007,0.07894276,-0.116369,0.04936013,-0.1323852
0.6064077,-0.2313213,0.08555467,0.01740914,0.03063919,-0.4703162
0.4531216,-0.1756101,0.1165105,0.09152266,-0.06157253,-0.5059689
0.344979,-0.171257,0.1621923,0.03024523,-0.6101493,-0.3661982
0.3548486,-0.112269,0.1281839,0.04707542,-1.327754,-0.08342042
0.5553965,-0.1073501,0.01597906,0.02873827,-1.678126,0.3203136
0.8927355,-0.1166261,-0.1413398,0.004365856,-0.9655855,0.4164327
1.137082,-0.103512,-0.2182945,0.1164726,0.1313593,0.2414194
1.044741,-0.2071677,-0.09075634,0.2266676,0.1463015,0.1919183
0.806664,-0.2999428,0.05656463,0.2749178,-0.07485063,0.1054873
0.8202112,-0.3089227,0.07536408,0.1749979,0.07568218,-0.008612284
0.8609987,-0.3010739,0.03287061,-0.009031754,0.2508387,0.04264144
0.9667213,-0.3548618,-0.09996822,-0.08024508,0.6874334,-0.04897244
1.329432,-0.4722529,-0.2642746,-0.0463207,0.9932648,-0.214699
1.57634,-0.4929613,-0.2414724,0.1269146,0.8877338,-0.2522866
1.711916,-0.3992877,-0.01692686,0.4595237,0.4311766,-0.2151064
1.728478,-0.2654102,0.1469062,0.6590333,-0.3465671,-0.03423098
1.626692,-0.1221047,0.0654667,0.2074951,-0.7179062,0.05932742
1.61563,0.02194464,-0.0645212,-0.5683675,-0.4725208,0.1473827
1.475201,0.07802349,-0.08860762,-0.7800102,-0.3928733,0.3952858
1.211457,-0.07125488,-0.1188101,-0.7234885,-0.5883743,0.4334809
0.9962598,-0.2173017,-0.1199386,-0.753478,-0.7312236,0.3828323
0.9535687,-0.2364381,-0.1050511,-0.5850663,-0.9257759,0.4101074
0.997369,-0.2686746,-0.1694468,-0.3933841,-0.7035067,0.3852365
0.8708539,-0.2507846,-0.1875482,-0.2444903,-0.04553126,0.4369913
0.8156258,-0.1656206,-0.155352,-0.1949557,0.07871239,0.4836735
0.7809867,-0.1248714,-0.139952,-0.3557009,-0.1054839,0.3467197
0.7143393,-0.1251038,-0.1134865,-0.4897079,-0.1074501,0.1583771
0.8049383,-0.1218581,-0.1294081,-0.5972092,-0.009402193,0.1405233
0.8288895,-0.0667427,-0.1541733,-0.6722231,0.2644631,0.3070718
0.8916494,-0.009644118,-0.1662402,-0.7345513,0.4830148,0.5032752
0.9351632,-0.04367062,-0.180937,-0.8325078,0.6157542,0.6264802
0.8032686,-0.1071687,-0.1427286,-0.7971577,0.602081,0.6356965
0.7945771,-0.1351523,-0.1020676,-0.7474352,0.3679785,0.6052183
0.8288904,-0.1543067,-0.08664072,-0.7293616,0.2764974,0.5979075
0.8956758,-0.1610913,-0.1012367,-0.6874907,0.3790809,0.5901883
0.9934646,-0.1897756,-0.1230031,-0.6536372,0.6163067,0.5632565
0.9217084,-0.2532769,-0.05708295,-0.495784,0.6733204,0.469859
0.8546169,-0.2510132,0.0316134,-0.3319006,0.3075313,0.3409314
0.8523219,-0.1879554,0.0536567,-0.2790639,-0.1563848,0.2249311
0.8997977,-0.1277086,-0.01411078,-0.2686007,-0.3604608,0.1094684
0.9693188,-0.1006418,-0.1514939,-0.3922095,-0.0514924,0.01362499
0.9114263,-0.1732052,-0.2697031,-0.6454522,0.3165383,-0.0671204
0.8788353,-0.3292457,-0.3215682,-0.8475669,0.4741293,-0.2713921
0.9800981,-0.5328358,-0.2536237,-0.836985,0.7501076,-0.7391812
1.146506,-0.7162899,-0.1646594,-0.6803779,0.9340949,-1.230495
1.420198,-0.7287967,-0.1866305,-0.5183076,1.004011,-1.33799
1.702414,-0.5818942,-0.175524,-0.4719743,0.9692627,-1.076184
1.724063,-0.3917482,-0.1017466,-0.8588341,0.6998474,-0.7651532
1.555897,-0.2606618,-0.07377261,-1.411008,0.5415169,-0.520301
1.451734,-0.2413285,-0.07694547,-1.48203,0.627912,-0.2709044
1.322884,-0.2328392,-0.09735215,-1.402931,0.923634,-0.1247927
1.163038,-0.2119576,-0.0905762,-1.525139,1.273348,-0.1150034
1.047077,-0.2209942,-0.03424596,-1.551939,1.267837,-0.06874417
0.9142033,-0.1961812,0.03544456,-1.617151,0.9139682,-0.006709095
0.8817713,-0.1632011,0.06312445,-1.764928,0.6063867,0.05476868
0.883408,-0.1590421,0.004642278,-1.732553,0.5115958,0.214732
0.8387809,-0.1890585,-0.02705835,-1.653972,0.5164569,0.3184079
0.8526037,-0.2937585,0.009899332,-1.488929,0.5170903,0.2094016
0.8027266,-0.3657064,0.04678026,-1.146531,0.4773152,0.06828238
0.725981,-0.343394,0.1036208,-0.8036024,0.4376703,-0.0405922
0.7112144,-0.2997128,0.1246923,-0.4914662,0.3518315,-0.2203748
0.6587057,-0.2315674,0.07931789,-0.3001932,0.170164,-0.3124286
0.5892184,-0.1462291,0.05323865,-0.2398529,-0.1721884,-0.2435813
0.5589259,-0.08186314,0.06318777,-0.2010939,-0.6904432,-0.08524739
0.6451498,-0.07560546,0.06539088,-0.1814596,-0.8800717,0.1419992
0.7679472,-0.1134809,0.03063566,-0.1771393,-0.7541514,0.1911664
0.7904855,-0.1230244,-0.01321147,-0.3313888,-0.8010423,0.0360032
0.7853441,-0.1303923,-0.02780938,-0.590574,-0.82194,-0.02999599
0.7848573,-0.1817296,0.001226171,-0.6442515,-0.8306601,-0.02097455
0.8444426,-0.268665,0.04573709,-0.4602969,-0.9066435,-0.02719114
0.9854768,-0.3589151,0.05384533,-0.2112487,-0.7848065,-0.05618789
1.107953,-0.4184382,0.06432828,0.03630313,-0.5958801,-0.1803165
1.135385,-0.4461895,0.08924755,0.4258284,-0.4778503,-0.2938897
1.064807,-0.4256993,0.08740898,0.8425431,-0.4112106,-0.2794613
1.051347,-0.3988902,0.06134521,0.9385076,-0.2800973,-0.2406219
1.135019,-0.405059,-0.04701487,0.7944363,0.07860339,-0.1878508
1.268156,-0.4237054,-0.253371,0.6332249,0.4452287,-0.02243727
1.420712,-0.449313,-0.3582204,0.5170297,0.7651445,0.06927744
1.413877,-0.3902619,-0.1740419,0.472522,0.9678332,-0.1185175
1.265092,-0.2912609,0.01818514,0.3906535,0.1813152,-0.2693094
1.20752,-0.3064113,-0.1310992,0.2597773,-1.14753,-0.1022248
1.376454,-0.3501164,-0.3024723,0.3738029,-1.122962,0.08397287
1.558118,-0.3541193,-0.265434,0.6959226,-0.3331366,0.06682671
1.437252,-0.3264672,-0.1893852,0.7790899,-0.2522977,-0.01779164
1.262398,-0.2622329,-0.07184022,0.603263,-0.487196,-0.05135989
1.080491,-0.2104519,-0.06929332,0.4176542,-0.92416,0.09580684
0.7001102,-0.1516316,-0.1294512,0.3863325,-1.234856,0.3446358
0.6413602,-0.1443725,-0.06326119,0.4933786,-1.166655,0.3895318
0.8505075,-0.1760133,-0.1277872,0.4960679,-1.256556,0.3286067
0.8495114,-0.09505657,-0.2215843,0.4372828,-0.8739234,0.2940718
0.9617172,-0.03623265,-0.2061038,0.3175832,-0.1277903,0.1972219
1.00495,-0.06898249,-0.1865352,0.1003098,0.01381983,0.2017861
0.823486,-0.05792059,-0.07931697,0.061241,-0.1483017,0.2948572
0.8496881,-0.06284679,-0.06631699,0.1533106,-0.2015959,0.353063
0.7811764,-0.1198788,-0.113842,0.2617603,-0.1348563,0.4537464
0.6603081,-0.1576067,-0.08456392,0.4376959,-0.05066501,0.4774324
0.8067189,-0.1321293,-0.1538492,0.5646235,0.406346,0.4127361
0.9182425,-0.09900305,-0.1999683,0.5477125,1.258922,0.3227902
0.9722907,-0.1780626,-0.1722358,0.5027623,1.508632,0.1066786
0.8710533,-0.2960057,-0.1058472,0.5868266,1.10664,-0.07259887
0.6428864,-0.3272478,0.01826532,0.6782126,0.6523138,-0.1126749
0.5919984,-0.2193862,0.03888254,0.6794591,0.2071019,-0.1509442
0.6146729,-0.05104064,0.00763686,0.4764294,-0.1886561,-0.1901164
0.7657098,-0.03641543,-0.01294807,0.0760711,-0.2885314,-0.2444634
1.0443,-0.09620826,-0.07140621,-0.01114414,0.0308578,-0.3154896
1.188617,-0.08684122,-0.1083311,0.1280479,0.3937931,-0.3786498
1.13469,-0.1050981,-0.1049934,0.05995591,0.4329786,-0.5050633
1.031476,-0.2046031,-0.08923516,-0.1047188,0.2012162,-0.6897495
1.068109,-0.4022562,-0.07260359,-0.2795906,-0.2032238,-0.8680241
1.231652,-0.5639306,-0.04232879,-0.2884634,-0.5647271,-0.8855571
1.556353,-0.5478569,-0.06232069,-0.0393933,-0.1201506,-0.6882324
1.743462,-0.5015783,-0.1146643,0.3476663,1.098157,-0.5314355
1.463786,-0.4665081,-0.0619237,0.7741497,1.618104,-0.5076501
1.210524,-0.3879203,0.09818742,0.8472411,0.8109306,-0.5150505
1.215565,-0.3392551,0.2556396,0.7126466,-0.6174575,-0.4677585
1.312167,-0.2901594,0.2004717,0.7725942,-1.293683,-0.228506
1.41203,-0.2280661,0.03184688,0.7263829,-0.4645722,0.1259876
1.269305,-0.2337436,0.028213,0.6725579,0.4100699,0.3376136
0.9593946,-0.2312255,0.05247402,0.7126468,0.2465171,0.4266353
0.675937,-0.159424,0.07796401,0.5207662,-0.2233393,0.5783803
0.5666754,-0.1144766,0.1347176,0.3843787,-0.4438095,0.6237014
0.7156656,-0.121428,0.1046628,0.3987219,-0.2930973,0.4574788
0.7702643,-0.1392149,0.1062743,0.3861483,0.02101772,0.3160834
0.6521564,-0.1497704,0.1184774,0.4114295,-0.01726834,0.1476412
0.5485464,-0.1549177,0.1176974,0.3539614,-0.2932852,-0.1006193
0.4265368,-0.1751191,0.159251,0.3146297,-0.588839,-0.2741216
0.4180342,-0.2044973,0.1170363,0.3684819,-1.053091,-0.2672148
0.5010892,-0.2240707,0.05430935,0.4635557,-1.408657,0.01439758
0.5841726,-0.1663221,-0.007427593,0.6288915,-1.460336,0.3520991
0.8449315,-0.06880869,-0.09177072,0.6362258,-1.039617,0.4242135
1.047208,-0.09280789,-0.06346952,0.5702822,-0.374824,0.1911269
0.9831966,-0.1955175,0.04268132,0.5900326,-0.4453196,-0.04443701
0.9728624,-0.2784756,0.1335373,0.5603984,-0.800552,-0.02743779
1.058175,-0.3220764,0.1194449,0.5837914,-0.6960443,0.00510585
1.138993,-0.3679714,0.000414784,0.7005303,-0.2324446,-0.0262525
1.235293,-0.4864158,-0.1449475,0.8093509,0.5308826,-0.04045005
1.248708,-0.5110954,-0.3224687,0.8997751,0.7628108,-0.1346145
1.293281,-0.4298613,-0.3618005,1.016802,0.6644605,-0.2952382
1.383898,-0.3701537,-0.1909747,1.143244,0.7735792,-0.4671143
1.251842,-0.199708,0.02369206,1.027499,0.07371126,-0.4521757
1.15554,-0.06795775,0.1407328,0.7286085,-1.021372,-0.1594338
1.448806,-0.1303128,-0.02024361,0.6541842,-1.182841,0.2283626
1.688062,-0.2318615,-0.2293066,0.7875776,-0.3890305,0.398483
1.465435,-0.3290691,-0.1374038,0.8629731,0.2305612,0.009323545
1.113308,-0.2263915,0.0194155,0.7479328,-0.4377134,-0.3598009
0.9767295,-0.02342935,0.06533183,0.4777263,-1.325449,-0.0615435
1.021159,-0.07031136,-0.05037502,0.2538855,-1.293714,0.2690879
1.067922,-0.1170941,-0.268518,0.198124,-0.8062909,0.3691133
0.9610444,-0.107812,-0.2069478,0.3084686,-0.2600698,0.5358989
0.807654,-0.2110053,-0.05723422,0.4124236,-0.3221104,0.5082479
0.7487097,-0.2328147,-0.0749024,0.4478944,-0.7192379,0.3693849
0.7600733,-0.1803993,-0.0712966,0.5618753,-0.6103586,0.2935152
0.8082974,-0.1231368,-0.1428421,0.614666,-0.3747728,0.1878773
0.7616697,-0.07553935,-0.1764788,0.5962353,0.1250229,0.265615
0.6929154,-0.09605523,-0.1107949,0.6107033,0.6226387,0.3736195
0.7073678,-0.1072707,-0.1345245,0.5680113,0.5712962,0.3677481
0.6856915,-0.149195,-0.09258322,0.5805193,0.6291787,0.4141514
0.7106886,-0.2250351,-0.06751304,0.643062,0.6125082,0.3535598
0.7417294,-0.2319882,-0.07724525,0.7051479,0.4620332,0.1896319
0.7599096,-0.1681584,0.004708772,0.7844464,0.5531214,-0.06579556
0.8620069,-0.0533064,0.00940253,0.7022795,0.4197565,-0.3307999
0.8698688,0.009702097,-0.02352307,0.4634645,0.2196461,-0.3130691
0.8459977,-0.04252348,-0.1250983,0.196219,0.2440225,-0.2278311
0.8761383,-0.2286177,-0.2576777,0.0979774,0.533719,-0.2684593
0.9502864,-0.5260623,-0.1710705,0.3180436,0.969629,-0.5489831
1.185933,-0.6620797,0.03416324,0.5260391,0.895861,-1.092676
1.46992,-0.5288807,0.1858394,0.4441872,0.3916474,-1.222046
1.682005,-0.3731918,0.1721299,0.2276767,0.05283639,-0.6859033
1.728912,-0.2978743,0.1319206,0.08239466,0.1394203,-0.1545421
1.639665,-0.291103,0.2243611,0.1800025,0.318061,-0.0976741
1.566489,-0.3338067,0.1818711,0.4849301,0.2101524,-0.2145233
1.426002,-0.2853454,0.104045,0.6786837,0.2100631,-0.1313194
1.280125,-0.2298803,0.1730129,0.6757241,0.1724117,-0.01947714
1.168852,-0.2078419,0.1628617,0.5954367,-0.159337,0.1190417
0.9783074,-0.09442007,0.1535239,0.4861926,-0.2812332,0.3313177
0.9038793,-0.09589073,0.1772929,0.3764551,-0.2788072,0.430473
0.8902393,-0.1413844,0.105507,0.2426626,-0.4012939,0.561832
0.7198003,-0.07143421,0.07145794,0.1188781,-0.5255406,0.6591281
0.7113437,-0.1088305,0.07297234,0.02296639,-0.4625292,0.5639695
0.8041897,-0.1630287,0.07185738,0.01072549,-0.2226138,0.4258405
0.6676055,-0.1888934,0.0831341,0.1033838,-0.1873879,0.1399849
0.60264,-0.2307852,0.07064999,0.168761,-0.2515728,-0.1768107
0.5389612,-0.169336,0.09590938,0.2759097,-0.4024429,-0.2320122
0.3311763,-0.1497069,0.1099446,0.3426728,-0.8322534,-0.162988
0.3740568,-0.1772521,0.07694693,0.31023,-1.158187,-0.02919751
0.5953603,-0.1692897,0.02152505,0.3777624,-1.270098,0.190784
0.8391316,-0.2023031,-0.0631345,0.4427345,-1.115348,0.2885578
1.082552,-0.2531905,-0.0883244,0.5494684,-0.6642876,0.1879333
1.148204,-0.3007631,-0.07628372,0.7561315,-0.3407178,0.1080841
1.062651,-0.2708027,-0.01448909,0.8864823,-0.381864,0.1006955
0.9351686,-0.2286139,0.1098969,0.957123,-0.4685624,0.04590057
0.9490768,-0.3352539,0.09875917,0.9309526,-0.1076056,0.06978663
1.050305,-0.4569893,-0.03624099,0.8620413,0.3219753,0.1322469
1.093201,-0.4768856,-0.1771234,0.8324632,0.5450295,0.009768147
1.167857,-0.4011075,-0.2593854,0.7716624,0.7455386,-0.3300824
1.171642,-0.2745739,-0.150809,0.6297805,0.3997314,-0.6745737
1.224351,-0.1962755,-0.00899549,0.3417659,-0.2899897,-0.5152188
1.425348,-0.1747519,-0.03462696,0.2091162,-0.5834705,-0.0848612
1.563548,-0.2520139,-0.1259728,0.4223285,-0.3619304,0.06603665
1.713913,-0.3898172,-0.2316086,0.6100962,0.221051,0.1817333
1.735918,-0.3946315,-0.2319739,0.6228994,0.4685639,0.04483928
1.433422,-0.2501791,-0.02032001,0.458179,-0.08122545,-0.2082915
1.099354,-0.09733163,0.1260053,0.133143,-0.8771006,0.1480136
0.9892994,-0.08243431,0.02710043,-0.05044486,-0.9738883,0.4598183
0.9917993,-0.1723279,-0.1001528,-0.006552475,-0.6528783,0.425513
0.8707577,-0.1979106,-0.09776678,0.08059326,-0.7263161,0.5055463
0.77909,-0.1877114,-0.1021307,0.1859606,-0.6286645,0.470275
0.8138594,-0.1688205,-0.1278964,0.3107009,-0.3588323,0.3920391
0.7705882,-0.1186237,-0.0882801,0.3384272,-0.2772786,0.3599201
0.7454567,-0.1088267,-0.1141104,0.2896295,-0.05477622,0.2772122
0.7469045,-0.1043522,-0.1497999,0.2297437,0.05808637,0.2905138
0.7161847,-0.0948099,-0.1390855,0.09885745,0.2280535,0.3222513
0.741626,-0.1179046,-0.1635398,0.03198166,0.5459977,0.3413797
0.7287263,-0.1344303,-0.1200953,0.08935468,0.6324203,0.3284806
0.6978444,-0.1646739,-0.07981294,0.07619748,0.5241952,0.2459241
0.674438,-0.2254322,-0.06565432,0.08618033,0.2054166,0.121002
0.6469033,-0.267333,0.0007610891,0.2390664,0.07054601,-0.08086929
0.7418162,-0.2265886,0.003548399,0.4073999,0.2251618,-0.2319745
0.8720869,-0.1235132,-0.03887079,0.4606429,0.3912804,-0.3312396
0.9061783,-0.03640759,-0.08596764,0.3548748,0.5875493,-0.4620144
0.8511123,0.003686399,-0.1223952,0.1964027,0.6244992,-0.5482695
0.820286,-0.1030064,-0.116369,0.0106976,0.7011129,-0.6475538
0.9705459,-0.3802699,-0.04969084,-0.08116262,0.8283476,-0.8973416
1.261572,-0.6396978,0.07723751,0.05852518,0.8011925,-1.178016
1.559908,-0.6440517,0.0889375,0.1714418,0.8898553,-1.148031
1.64506,-0.386332,0.06794539,0.2373923,0.8839089,-0.8250713
1.461488,-0.230887,0.1540764,0.3213303,0.5694709,-0.5073333
1.378598,-0.2960401,0.1975905,0.266526,-0.0254106,-0.2938174
1.5286,-0.3167349,0.229939,0.1842017,-0.5895525,-0.1633364
1.620926,-0.2787214,0.2121749,0.1248617,-0.3801998,0.08796185
1.515882,-0.2975746,0.127222,0.1609006,0.05514967,0.3828311
1.304809,-0.313412,0.1612762,0.3103774,-0.03257478,0.389359
1.036126,-0.266402,0.1620221,0.3274858,-0.172686,0.3883962
0.8081195,-0.1798321,0.07700233,0.2999925,-0.3331806,0.5636099
0.7639004,-0.06382203,0.07028942,0.1811319,-0.3782863,0.6609944
0.7508611,-0.0170075,0.06294002,-0.08060058,-0.2343641,0.6438945
0.6767299,-0.1014716,0.07310948,-0.1046743,-0.4368085,0.466389
0.6423578,-0.1886022,0.120529,0.05660809,-0.497923,0.1517492
0.5621625,-0.2885449,0.1277924,0.2371637,-0.4285493,-0.1084723
0.4917607,-0.3500539,0.1400176,0.497022,-0.676895,-0.1445406
0.5129352,-0.3029399,0.1149358,0.7140712,-0.8416839,0.04689933
0.5685826,-0.2921901,0.04781508,0.8170638,-1.172682,0.21974
0.7973808,-0.2257374,-0.02630127,0.7917048,-1.377704,0.2766255
1.073564,-0.1376241,-0.1158968,0.6812525,-0.9454914,0.1766628
1.036017,-0.18045,-0.09208837,0.5547723,-0.556167,0.01611147
0.8158339,-0.171577,0.01728462,0.4422265,-0.5357031,0.02775446
0.7464026,-0.129929,0.06676427,0.4465735,-0.6302117,0.04319981
0.83223,-0.1461274,0.06700027,0.4576753,-0.4842654,-0.01417211
0.9585905,-0.1433818,0.05365447,0.4090527,-0.1634943,-0.07431851
1.044127,-0.1779072,0.06361902,0.428496,0.1886587,-0.1326044
1.045303,-0.2883333,0.05007603,0.3781888,0.5784488,-0.03786445
1.043789,-0.3769091,-0.04431914,0.2481138,0.635325,0.05129786
1.022182,-0.2611512,-0.1801416,-0.2302829,-0.3772594,0.3145244
0.9661003,-0.3298434,-0.1737412,-0.2397975,-0.5894961,0.3015246
0.9067036,-0.2696567,-0.1871046,-0.08765398,-0.4536471,0.3331262
0.8543257,-0.1656049,-0.2283039,0.08564608,-0.004695753,0.4945827
0.7432684,-0.17013,-0.1894351,0.05896141,-0.0007274583,0.5853173
0.7501356,-0.1707558,-0.1678038,0.08183709,-0.05856429,0.488495
0.8158657,-0.1931858,-0.1642059,0.03939889,0.03363605,0.356786
0.8179946,-0.1868242,-0.1761826,-0.03049595,0.1336555,0.1961239
0.8594153,-0.1356544,-0.2267675,-0.027812,0.4586312,0.1780742
0.8293791,-0.1144411,-0.224284,-0.06613668,0.7097372,0.2861837
0.7843731,-0.06608672,-0.2018503,-0.0605422,0.8898734,0.3774723
0.77769,-0.07750757,-0.1724537,-0.08895771,1.080693,0.4327761
0.6832972,-0.1219297,-0.1122204,-0.1417178,0.9489139,0.3990436
0.6071927,-0.1483422,-0.05217448,-0.1738721,0.5575034,0.3797819
0.6202664,-0.2474914,-0.0250669,-0.2192267,-0.06458262,0.3728475
0.7375027,-0.3020996,-0.08828271,-0.1080936,-0.421873,0.2696297
0.9087596,-0.2947866,-0.1771181,0.03799949,0.05738687,0.05793163
0.9344587,-0.2721298,-0.217072,0.08978529,0.5729454,-0.2493235
0.8240783,-0.2117227,-0.2140941,0.106086,0.6318012,-0.528585
0.7755802,-0.2253904,-0.1731953,0.05150031,0.7109154,-0.7062032
0.8861124,-0.366314,-0.1045077,-0.029513,0.7259609,-0.8536817
1.106804,-0.5663544,0.009700886,-0.1339187,0.3806727,-1.005948
1.391753,-0.6251808,0.04408181,-0.1627337,-0.187735,-0.9851417
1.653047,-0.5201829,-0.0455354,0.0059382,-0.4652931,-0.7387129
1.738171,-0.4789257,-0.06110556,0.2271667,-0.1294586,-0.5778988
1.702622,-0.4435229,-0.01047927,0.2922329,0.1128398,-0.565134
1.626423,-0.3079913,0.005756152,0.1458195,-0.01896349,-0.4959206
1.456197,-0.1459467,-0.02172104,0.01887611,0.2047868,-0.3094885
1.260088,-0.05378816,-0.05912458,-0.004447348,0.5637488,-0.04175718
1.065558,-0.1071535,-0.001455301,-0.07579415,0.4740906,0.2100181
0.8645032,-0.1934413,0.09908359,-0.08188876,0.1443863,0.3770526
0.7942276,-0.2486541,0.1471484,-0.002729828,-0.2312077,0.4465695
0.8521942,-0.2528562,0.1182352,0.007077947,-0.4013207,0.4620356
0.8943956,-0.1682501,0.02202532,0.01669962,-0.1925845,0.4724014
0.8435391,-0.1457898,-0.01535943,0.003630015,-0.02772878,0.4322691
0.7498502,-0.1534453,0.009060888,-0.07630964,-0.08059671,0.3030669
0.6772466,-0.1229262,0.03818883,-0.08137506,-0.1930542,0.06526081
0.5790838,-0.1251398,0.07392448,-0.06667097,-0.4372401,-0.2006024
0.5224407,-0.1076639,0.08771439,-0.0871759,-0.6699086,-0.3230216
0.5204022,-0.1317289,0.1013405,-0.06832802,-0.8536917,-0.25917
0.5212562,-0.1855544,0.07046203,-0.04820315,-1.176465,-0.04171888
0.6624269,-0.181377,-0.0311386,-0.02009086,-1.416848,0.2450639
0.8991041,-0.1641741,-0.1524745,0.004025673,-1.394703,0.3540222
1.051025,-0.1433906,-0.2264649,0.0319325,-0.9334568,0.2028316
1.040605,-0.2242974,-0.1416156,0.1134687,-0.3372851,0.05552358
0.9197045,-0.3215091,-0.03301254,0.1643296,-0.4532019,-0.07849161
0.8661156,-0.277302,-0.02823857,0.1744454,-0.6226408,-0.2519241
0.914298,-0.2764907,-0.02447307,0.1555849,-0.1703567,-0.2469085
0.9946682,-0.3505302,-0.1216682,0.09177757,0.1227538,-0.269976
1.070772,-0.377239,-0.3607078,-0.04391376,0.2871042,-0.4139384
1.255598,-0.3614102,-0.5101174,-0.26573,0.5137503,-0.4355327
1.488232,-0.3143265,-0.4632457,-0.3207536,0.5476632,-0.4515725
1.456518,-0.2359656,-0.2611908,-0.2106851,0.5604354,-0.2813204
1.385115,-0.1682792,-0.08367805,-0.2224986,0.2212978,0.03161701
1.488831,-0.2029517,-0.1506734,-0.2164536,-0.5786954,0.006353121
1.588294,-0.2528882,-0.3071069,-0.07198476,-0.9075953,-0.003015588
1.666767,-0.2082868,-0.3242994,0.006552599,0.1062352,0.09866627
1.475685,-0.1675739,-0.2784424,-0.1384563,1.129342,0.04419969
1.096929,-0.1202143,-0.2076739,-0.4201725,0.0943155,0.285524
1.063393,-0.08661559,-0.1741856,-0.518223,-0.8420821,0.6570991
1.10749,-0.1847784,-0.216058,-0.4233218,0.04446821,0.675251
0.9302613,-0.2961726,-0.186352,-0.2894016,0.2475246,0.6255643
0.7974596,-0.3263043,-0.1553884,0.0003201624,-0.286337,0.6283073
0.7485479,-0.3154308,-0.1661545,0.3242199,-0.344416,0.5617077
0.7610449,-0.2713215,-0.1728159,0.4463005,-0.484533,0.42006
0.7863426,-0.2227992,-0.2559408,0.4254273,-0.2276612,0.2733152
0.7645169,-0.1631651,-0.2939173,0.392299,0.3851125,0.2369371
0.7506879,-0.1152184,-0.2446728,0.3713275,0.7096515,0.2650149
0.6649443,-0.1052812,-0.174925,0.3023227,0.8709398,0.3230083
0.609015,-0.0837128,-0.05818988,0.2590487,0.7555851,0.3671787
0.6624401,-0.06613567,0.004287449,0.2546529,0.5594489,0.3429515
0.695391,-0.09044884,-0.00595012,0.1537106,0.2654711,0.3197277
0.7633674,-0.1490452,-0.03582833,0.03427003,-0.2147038,0.3233745
0.8624069,-0.2153197,-0.1067726,0.01770918,-0.244164,0.3509267
0.9561772,-0.2867074,-0.2032918,0.132107,0.1092543,0.328293
1.007188,-0.3077716,-0.2371538,0.2991428,0.4357702,0.1188842
0.9090202,-0.2132453,-0.1900846,0.3476909,0.6778811,-0.2346781
0.7590881,-0.1565521,-0.1787369,0.2650518,0.7179876,-0.4646864
0.688974,-0.2444877,-0.1336003,0.08483865,0.7183286,-0.5721832
0.7543258,-0.4144273,0.0003567794,-0.07707491,0.5442047,-0.8900214
0.917356,-0.5558194,0.07601367,-0.03442074,-0.2214389,-1.231
1.236388,-0.5381457,0.0622288,0.1178697,-0.8387914,-1.211296
1.750513,-0.5012654,0.032639,0.2761452,-0.1644579,-1.01878
1.892078,-0.5085567,0.06792122,0.4238286,0.6503477,-0.8677783
1.615962,-0.3523561,0.05272069,0.3897612,0.0689159,-0.6202443
1.584073,-0.1372721,-0.1105386,0.2605856,-0.1419764,-0.2171536
1.489243,-0.02537616,-0.2043429,0.1176876,0.9611316,0.1017454
1.088085,0.01175978,-0.09448367,-0.2302593,1.410776,0.2921211
0.9098017,-0.04348872,0.06556212,-0.3962104,0.7464619,0.5203457
0.8791152,-0.1398758,0.09305762,-0.1938908,-0.1953927,0.6468436
0.7867631,-0.2308268,0.1345074,-0.1270831,-0.6084699,0.5879213
0.7869072,-0.2365576,0.1811732,-0.1148587,-0.3841533,0.5218822
0.8899913,-0.1665363,0.03958368,-0.08734682,-0.2513967,0.4574911
0.9234584,-0.1905195,-0.02483195,-0.1567452,-0.07436604,0.3209532
0.7995696,-0.1836772,-0.01701794,-0.07404139,-0.1517836,0.1177989
0.6735906,-0.145304,-0.01614132,0.0006280591,-0.5492941,-0.1360315
0.5866396,-0.195364,0.09317858,-0.02386664,-0.6237367,-0.2491741
0.5716971,-0.1822747,0.06273592,-0.02360671,-0.7297819,-0.092983
0.6453567,-0.1917397,0.0003409915,-0.06761916,-0.8650982,0.1379656
0.720893,-0.2296822,-0.02489636,-0.02279236,-1.069934,0.3511939
0.8592522,-0.2182844,-0.1433479,0.09468042,-1.179445,0.4687693
0.9167914,-0.254567,-0.1528298,0.1711293,-0.7109414,0.4040313
0.8593552,-0.2118884,-0.1448452,0.1871198,-0.4149313,0.3050859
0.8507402,-0.1648121,-0.1274323,0.1443525,-0.4393005,0.1158287
0.8405784,-0.217803,-0.06310482,0.1601399,-0.3724398,-0.1159727
0.8429187,-0.226095,-0.07235373,0.1170273,-0.2011365,-0.1641503
0.8409641,-0.2329056,-0.01551919,0.0002624735,0.03472688,-0.1751514
0.8361723,-0.2636754,0.02252151,-0.0744561,0.2010176,-0.1766192
0.906902,-0.3522057,-0.06086525,-0.1416441,0.4433151,-0.1563122
1.083068,-0.5440998,-0.2569963,-0.03244794,0.5415515,-0.2531905
1.33864,-0.6417773,-0.4900951,0.1500556,0.6468768,-0.4410951
1.440994,-0.4553229,-0.4112471,0.210738,0.8653753,-0.7027654
1.407463,-0.1584816,-0.1552672,0.2618161,0.3555281,-0.7272575
1.511486,-0.08219096,-0.1339447,0.09741939,-0.5770481,-0.2916375
1.662598,-0.1385229,-0.3971205,-0.2541688,-0.8677324,0.04718397
1.588605,-0.1538562,-0.622573,-0.3505157,-0.01598729,-0.09316018
1.262025,-0.1769528,-0.2696478,-0.2618868,0.7178798,-0.1701112
0.9985184,-0.1822096,0.1378858,-0.236662,-0.4447158,0.2568266
1.123778,-0.2190395,-0.1662394,-0.1747118,-1.392986,0.6187082
1.270959,-0.2937615,-0.3509194,-0.01266723,-0.2448223,0.5601754
0.9549388,-0.300674,-0.1368637,0.08625633,0.4170486,0.4734196
0.6791295,-0.2828383,-0.192364,0.09941684,-0.3868245,0.460871
0.7506,-0.2975498,-0.2034853,0.2298845,-0.6601957,0.4538974
0.7706118,-0.3176901,-0.140932,0.4778645,-0.1547196,0.3710826
0.7647512,-0.2963612,-0.2238179,0.6344337,0.2154857,0.1796789
0.7250097,-0.2052963,-0.1669029,0.6370533,0.4942618,0.06812065
0.6387582,-0.0841416,-0.1494471,0.5269797,0.659591,0.06547522
0.6982369,-0.05839758,-0.1849431,0.3483714,0.5732717,0.1175954
0.7865333,-0.287479,-0.03981024,0.3132597,-0.6860879,-0.2284244
0.7615274,-0.1621586,-0.04941571,0.3115003,-0.6276943,-0.366577
0.8194634,-0.1116241,-0.01346069,0.2881536,-0.479026,-0.2522035
0.947264,-0.2205459,0.005375683,0.2785094,-0.4879294,-0.08367292
0.9861406,-0.3877197,-0.03320519,0.3100099,-0.4490211,-0.08994137
0.9604585,-0.342315,-0.07356029,0.4512401,-0.3925084,-0.2068773
0.9855136,-0.3429232,-0.04050866,0.7175555,-0.3282641,-0.4236769
1.015013,-0.4867858,-0.02242603,0.9510601,-0.2597453,-0.53249
1.125475,-0.5440867,-0.118134,1.115443,-0.1720133,-0.5239298
1.269989,-0.5761224,-0.2381228,1.26977,0.2495983,-0.5652856
1.258435,-0.4752862,-0.2875052,1.29714,0.4827276,-0.560163
1.158091,-0.241016,-0.2272301,1.043288,0.09946861,-0.4785862
1.17756,-0.1569869,-0.1995105,0.5766951,-0.4155796,-0.3012758
1.486315,-0.2583745,-0.3430028,0.3276184,-0.2325792,-0.03044482
1.761068,-0.3687736,-0.441787,0.5604517,1.460724,0.02727811
1.37413,-0.2739748,-0.2978819,0.7553952,2.678713,-0.1417557
0.683484,-0.1292545,-0.007764157,0.6176122,0.1595693,-0.1348617
0.5640815,-0.1174673,0.1238967,0.6193986,-3.073095,0.1314232
0.9199781,-0.154538,-0.1351795,0.7887812,-2.184822,0.3639535
1.146508,-0.2529581,-0.4269367,1.000647,-0.2518288,0.3045512
1.013615,-0.2325861,-0.3370883,1.275353,-0.1048048,0.1781472
0.8351357,-0.1255143,-0.2063484,1.11153,-0.2278992,0.2562537
0.8860043,-0.08005603,-0.2405823,0.6790516,-0.7993148,0.3130145
0.8924125,0.03754122,-0.1936186,0.494273,-0.3991591,0.4186326
0.8871529,0.04247158,-0.1908872,0.2419661,0.6328013,0.5581194
0.9389253,0.003891517,-0.1975777,-0.06081185,0.2044986,0.4158991
0.8864253,0.05508086,-0.09561022,-0.2962217,0.3067652,0.3347959
0.9519641,-0.007597556,-0.1252081,-0.4789438,0.4501526,0.408027
0.9905127,-0.01471272,-0.1775261,-0.3960769,0.3084849,0.4243739
0.8857367,-0.02362165,-0.202005,-0.353363,1.085012,0.4925178
0.8049666,-0.1425468,-0.2478215,-0.3664925,1.20381,0.4431281
0.6242656,-0.17359,-0.1578128,-0.2723892,1.214822,0.2921414
0.4695048,-0.1945854,-0.06294268,-0.3474536,1.092474,0.1544577
0.3411637,-0.1903199,0.005897126,-0.4200053,0.2225162,-0.0387786
0.2654106,-0.1495342,0.03805557,-0.4113764,-0.4301909,-0.08121337
0.5047118,-0.1456835,-0.05227362,-0.3440664,-0.8640125,0.0445805
0.8937756,-0.1282956,-0.1630522,-0.06951109,-0.2478813,0.0693601
1.190435,-0.1171376,-0.2896371,0.070948,0.8783938,-0.2107428
1.182511,-0.04373538,-0.2844082,-0.1285435,1.500352,-0.566365
0.9287626,0.003064234,-0.1644159,-0.4643123,1.374996,-0.5636386
0.8090796,-0.1675271,-0.1155295,-0.7935402,0.4448772,-0.5197246
0.9853776,-0.4960491,-0.01459338,-1.089911,0.1717652,-0.7583903
1.405332,-0.8219175,0.03641369,-1.180498,-0.1442863,-0.9530546
1.784581,-0.9103342,-0.006349843,-0.8073272,-0.3078663,-1.074293
1.897548,-0.7880334,0.02192104,-0.1389708,0.2586134,-1.17821
1.746528,-0.61465,0.005837581,0.4721972,-0.2726661,-1.010603
1.586665,-0.2586567,-0.07419745,0.679951,-0.2876327,-0.6769642
1.568149,0.1285323,-0.1184809,0.445499,0.6421838,-0.2858357
1.322457,0.1733892,-0.06225665,0.004627492,0.8726625,0.3171345
0.9618934,0.01278767,0.05689478,-0.6497773,0.6431264,0.7761711
0.8306967,-0.1375989,0.05757375,-0.9159134,-0.1521353,0.902399
0.7503063,-0.3229753,0.01145847,-0.555136,-0.2468312,0.9746058
0.7017337,-0.3812061,0.01301744,-0.3794591,0.03024478,0.7849067
0.6617299,-0.2900632,0.01004508,-0.2012947,-0.1757944,0.4322141
0.5599149,-0.268476,0.02877378,0.05149584,0.1579722,0.2141994
0.5086243,-0.1982983,0.03639559,-0.1053222,-0.130655,-0.09608306
0.485568,-0.0645704,0.05542882,-0.2131136,-0.6813731,-0.232414
0.4753074,-0.05928349,0.09712764,-0.3089813,-0.7807231,-0.07710174
0.509261,-0.1102738,0.08126459,-0.469381,-1.234077,0.1372508
0.5991213,-0.1410795,0.01313461,-0.3194473,-1.23703,0.5139831
0.760165,-0.1808007,-0.1229963,-0.2426171,-0.892876,0.629945
0.8881623,-0.296559,-0.1994874,-0.09960265,-0.287608,0.3606951
0.8335241,-0.4287127,-0.08721611,0.2945722,0.2154459,0.142619
0.7312868,-0.3666355,0.01901667,0.356479,-0.222777,-0.09764197
0.7724195,-0.2885409,0.007562912,0.1313948,-0.3746168,-0.2368422
0.8480917,-0.4017438,-0.07768288,-0.0263223,-0.0419691,-0.1646709
1.081891,-0.5111484,-0.2689229,-0.016564,0.1244713,-0.2272959
1.508272,-0.5872467,-0.4702576,0.1261044,0.351679,-0.4450227
1.682715,-0.5930024,-0.4500953,0.4947029,0.5627783,-0.6766338
1.593622,-0.3741911,-0.2209517,0.8682658,0.2266555,-0.7758541
1.57704,-0.1180268,-0.09555609,0.3487306,-0.9379393,-0.4879872
1.659887,-0.02330606,-0.2445922,-0.4505617,-1.458865,-0.05309558
1.631035,-0.068639,-0.3875941,-0.470287,-0.1182836,0.09491092
1.377888,-0.09592529,-0.2504076,-0.648837,1.077855,0.1132851
1.05929,-0.0561425,-0.1396785,-0.9919239,-0.00460413,0.3285208
0.9177997,-0.1210945,-0.2233463,-0.7447828,-1.050021,0.6492313
0.9267653,-0.1934062,-0.2062106,-0.6510759,-0.1831264,0.7233996
0.7986755,-0.1996157,-0.1789464,-0.6282477,-0.05779089,0.6356033
0.7049409,-0.2308888,-0.2251516,-0.3813748,-0.5959632,0.6852249
0.8020211,-0.2088758,-0.2170685,-0.4035425,-0.2032872,0.5928482
0.7772485,-0.1801504,-0.265572,-0.3318422,0.1616892,0.3693534
0.7622497,-0.1417708,-0.2849971,-0.2442286,0.6900857,0.3557604
0.7585476,-0.09719497,-0.2142612,-0.3485896,0.6994277,0.3596776
0.6533126,-0.1295937,-0.1570242,-0.2670924,-0.02003453,0.4013904
0.7533023,-0.1133172,-0.09650606,-0.2474346,0.01204288,0.5484979
0.928573,-0.08683887,-0.1160684,-0.2452586,0.2018137,0.5667381
1.005466,-0.09653048,-0.1758638,-0.2245678,0.4719625,0.5730193
0.9544915,-0.08488375,-0.1862559,-0.4155117,0.6261243,0.6323632
0.8043,-0.1165122,-0.1821456,-0.5446362,0.1582459,0.6051431
0.8555567,-0.1342679,-0.1494718,-0.5767733,0.1667218,0.4601401
0.9842486,-0.1110586,-0.1506483,-0.5841098,0.5228318,0.2135906
1.007923,-0.1085058,-0.1728967,-0.7139298,0.8360107,0.09797426
0.8719689,-0.1494362,-0.1935157,-1.013615,0.7625532,0.2678863
0.6518732,-0.2723684,-0.24822,-1.091383,0.1769801,0.3779603
0.8052071,-0.5693694,-0.2236234,-0.8641228,0.1060802,0.07667214
1.137417,-0.977044,-0.1433411,-0.4850144,0.4206168,-0.5688224
1.341825,-1.051152,-0.09337794,-0.1743437,0.7894856,-1.273324
1.490434,-0.7962222,-0.07413336,-0.009527616,0.8712929,-1.467219
1.409206,-0.4890661,-0.1308977,-0.02531472,0.7962924,-0.9414034
1.386388,-0.01405928,-0.1666185,-0.5300815,0.9488836,-0.424414
1.50752,0.07444225,-0.1401944,-1.272551,0.0525992,-0.1994738
1.526575,-0.3663915,-0.1540127,-1.50343,-0.8255093,-0.008444859
1.661164,-0.4426715,-0.1887884,-1.00872,-0.1286901,0.02034257
1.624373,-0.3277547,-0.2115884,-0.5655033,0.8079216,-0.003828651
1.31375,-0.2752479,-0.1890819,-0.6988774,1.55483,0.1448747
1.068097,-0.0831255,-0.1343689,-0.9384484,1.924539,0.4136616
0.7680341,-0.06511713,-0.1123416,-1.279755,1.552398,0.6546514
0.5636254,-0.07161181,-0.06428396,-1.670037,0.8609515,0.6605532
0.5642132,-0.0993487,0.03512206,-1.631716,-0.04002931,0.5193323
0.7037848,-0.2969571,0.09095132,-1.444805,-0.3413609,0.3927405
0.9616866,-0.3629263,-0.02492156,-1.215131,0.5108699,0.2537074
1.068335,-0.4379787,-0.1856351,-0.7532044,1.379026,0.0215932
1.061155,-0.4899342,-0.09632436,-0.3712128,1.453021,-0.3151428
0.9418427,-0.3950313,0.05847131,-0.2320623,0.8399896,-0.4343073
0.7909986,-0.3346406,0.1068494,-0.1575174,-0.1917472,-0.2393075
0.9079255,-0.2544904,0.1740841,-0.08668667,-0.581955,-0.06091467
1.016249,-0.1831922,0.1325339,-0.1684871,-0.0668406,0.04042164
0.9906493,-0.1366463,0.05745705,-0.3765573,0.1033655,0.1136489
0.9705982,-0.1180723,0.06107909,-0.5680021,-0.2758201,0.06757124
0.9349449,-0.160729,0.02627723,-0.7151297,-0.5310178,-0.01879132
0.9813604,-0.1767982,0.03404481,-0.6967416,-0.4397529,-0.03743043
1.02562,-0.2077628,0.02112761,-0.6030947,-0.3406288,-0.06685936
0.9698622,-0.2181076,0.0329687,-0.5720592,-0.4438735,-0.08257783
0.9350431,-0.2018177,0.1434358,-0.4877825,-0.6216794,-0.04701149
0.9954284,-0.2669127,0.1266059,-0.3824669,-1.015133,-0.05614527
1.184137,-0.4051453,0.05469727,-0.208457,-1.08878,-0.05562639
1.43582,-0.575345,-0.110576,0.02226403,-0.4482706,-0.03074338
1.455081,-0.6065543,-0.3117363,0.07206519,0.3310516,-0.06332826
1.105795,-0.443162,-0.1567191,0.002312264,0.62887,-0.1837636
0.7649724,-0.2817106,0.06110361,-0.1713339,-0.03050915,-0.3048945
0.7347539,-0.2091383,0.01005478,-0.4816076,-0.6100371,-0.114591
0.8765004,-0.2127618,-0.1362773,-0.6175242,-0.2113009,0.2780584
0.9417488,-0.2418297,-0.2769385,-0.5114155,-0.03016603,0.4807017
0.9126749,-0.3132948,-0.2678227,-0.421446,-0.2963734,0.47964
0.9714528,-0.4837354,-0.160993,-0.2518329,-0.3978888,0.1692572
1.03004,-0.5501112,-0.1622804,0.1438954,-0.6401811,-0.3221153
0.9784767,-0.3933343,-0.1423963,0.3474446,-0.8118357,-0.4437245
0.9573527,-0.2357543,-0.102347,0.1947605,-0.7162405,-0.2309483
0.9677487,-0.1988114,-0.1560557,0.08868202,-0.6528702,-0.05383029
0.9389693,-0.2046697,-0.1755495,0.09368298,-0.4512001,0.07940571
0.8903066,-0.2030262,-0.1776323,0.1083203,-0.395561,0.1834355
0.8930289,-0.1988713,-0.1906309,0.1445865,-0.6459426,0.1901574
0.949849,-0.1878239,-0.1945203,0.1037434,-0.646253,0.2111542
0.9957517,-0.175067,-0.2481369,0.04387193,-0.4756604,0.279272
1.015316,-0.1934586,-0.2522854,0.09112441,-0.1960365,0.2658898
0.955861,-0.2132082,-0.2001358,0.187896,0.114583,0.1862889
0.8334925,-0.1940083,-0.1520912,0.283736,0.1271376,0.1133002
0.7133821,-0.1571225,-0.1233339,0.3251264,0.08495126,0.1381867
0.6566282,-0.1410603,-0.155458,0.3313475,0.03556315,0.2443023
0.7075344,-0.2027484,-0.165005,0.4929857,0.05889916,0.2592055
0.7473162,-0.2904134,-0.1475333,0.7653433,0.3215407,0.1489328
