accx,accy,accz,gyrox,gyroy,gyroz
0.7631259,-0.09714747,-0.2334407,-0.366947,-0.6266853,0.1184368
0.8600017,-0.1954233,-0.1928634,-0.1033946,-0.3376596,0.1899525
0.8867061,-0.2063077,-0.1248855,0.1546055,0.2006111,0.2456456
0.8743495,-0.1936218,-0.1101277,0.1597692,0.455429,0.2586423
0.8106333,-0.1385146,-0.07651024,0.102622,0.1578225,0.2641542
0.68826,-0.05441801,-0.07298963,0.1472452,-0.003064719,0.3461998
0.6184497,-0.03254923,-0.1219958,0.01893331,-0.1560637,0.4075274
0.6527419,-0.0848169,-0.1054632,-0.2169088,-0.1394122,0.5332891
0.8064993,-0.1675923,-0.0764373,-0.2203428,0.08268026,0.5915913
0.923299,-0.2024214,-0.0627347,0.07103714,0.1226486,0.4928333
0.8761006,-0.1830486,-0.07017255,0.3471632,0.3871626,0.3544854
0.8078883,-0.1385884,-0.161657,0.2476863,0.6908263,0.178119
0.7759556,-0.1124072,-0.208315,0.02546103,0.5664608,0.1649457
0.7012941,-0.1295753,-0.1382031,0.02417711,0.3907638,0.2726553
0.629552,-0.1723341,-0.08280516,-0.01352562,0.3300849,0.2490383
0.7843517,-0.2944206,-0.1514623,-0.1277773,0.5262482,0.1422298
1.163072,-0.4537197,-0.2203632,-0.2127244,0.7661586,-0.06535926
1.461169,-0.4957714,-0.1469288,-0.2296626,0.2350546,-0.2491455
1.564412,-0.4098642,-0.1148183,-0.1339856,-0.5111387,-0.2254236
1.627034,-0.3473542,-0.1606366,-0.2102362,-0.5501437,-0.2579646
1.730887,-0.3760216,-0.1403344,-0.208892,-0.3011882,-0.3787599
1.733826,-0.4302167,-0.08607471,0.132522,-0.1219796,-0.3118513
1.631846,-0.4899531,-0.009048364,0.4851669,0.06685478,-0.1585685
1.431405,-0.4680472,0.02208855,0.6568833,0.2884021,0.01425649
1.088866,-0.3092955,-0.000539046,0.4354776,0.3424003,0.2372506
0.8696528,-0.1276782,0.01451932,0.09325399,0.04173862,0.3093171
0.7598734,-0.02916161,0.01008913,-0.248935,-0.2613058,0.2896318
0.6477658,-0.06896917,0.003986025,-0.6828755,-0.339595,0.2839965
0.6707539,-0.1526801,0.02048469,-0.6417284,-0.2493983,0.1789027
0.6692321,-0.2191055,0.01618264,-0.4436023,-0.1090227,0.05077465
0.6024045,-0.2625304,0.01815654,-0.4807207,-0.06618113,-0.1029532
0.5786772,-0.1934251,0.01118401,-0.4651134,-0.02521521,-0.3256199
0.5696511,-0.135835,0.001281111,-0.5280184,-0.08216369,-0.471962
0.6242419,-0.1464652,0.0005672214,-0.4747376,-0.2507739,-0.5263541
0.7167981,-0.156447,-0.02524033,-0.3062196,-0.3628364,-0.5255209
0.8598274,-0.2156056,-0.07194842,-0.2699055,-0.4553542,-0.5020119
1.004196,-0.2223666,-0.125247,-0.2246925,-0.3743992,-0.4864421
1.017379,-0.1790496,-0.1214731,-0.2137069,-0.1651825,-0.4387252
0.9970414,-0.1762801,-0.01837061,-0.07760271,0.007522095,-0.4003756
0.991477,-0.1698585,0.07766086,0.1538686,0.1461917,-0.3855551
0.9749783,-0.1806024,0.06837364,0.1903378,0.1304402,-0.343885
0.9813427,-0.1833062,0.01473033,0.1448304,0.08882173,-0.2595913
1.070821,-0.2164535,-0.06255013,0.1123453,-0.00622248,-0.08242498
1.296562,-0.3068416,-0.2312248,0.1680431,-0.2009405,0.1387434
1.459864,-0.3303649,-0.3527425,0.3013109,-0.07532116,0.1689522
1.372528,-0.2981425,-0.3237072,0.4018649,0.4550457,-0.05477397
1.153205,-0.2498388,-0.2137985,0.3716251,0.8902472,-0.2081029
1.030933,-0.214823,-0.07069347,0.2132705,0.614062,-0.06309152
1.220199,-0.2181744,-0.08879185,0.210586,0.1526568,0.1411318
1.597874,-0.178647,-0.1812123,0.3386498,0.2484433,0.1540291
1.692987,-0.08887096,-0.1477511,0.365474,0.1623994,0.02978927
1.385414,-0.04713058,-0.1832811,0.08118167,-0.03509981,-0.1251888
0.9961961,-0.09610122,-0.1315206,-0.3627421,-0.02204472,-0.1776664
0.7953643,-0.1534231,0.03307464,-0.3126998,-0.457223,-0.08318837
0.8340243,-0.183458,-0.02273549,-0.01523045,-0.6668284,0.03661483
0.9578898,-0.194178,-0.09745119,0.1455155,-0.4376914,0.1960731
1.02593,-0.1582563,-0.1174448,0.368588,-0.3515694,0.2926593
0.9883048,-0.1381118,-0.1415719,0.3864507,-0.05809277,0.2445874
0.8709894,-0.1358513,-0.08950582,0.3093585,0.004658919,0.271795
0.8050219,-0.130702,-0.09293355,0.3921698,-0.1710923,0.3034237
0.7363789,-0.1443295,-0.06787715,0.4762768,-0.04918242,0.279948
0.6501254,-0.1227425,-0.0325952,0.5842615,-0.03231483,0.3515975
0.6713289,-0.09544475,-0.07792538,0.4772452,0.1362755,0.4312161
0.7399291,-0.08017082,-0.06755774,0.2597925,0.4546876,0.4724444
0.8001672,-0.0488262,-0.08843451,0.2427369,0.4336713,0.4411641
0.7809322,-0.03331286,-0.1106326,0.02048324,0.4133541,0.38948
0.7315068,-0.0326706,-0.07258399,-0.3722503,0.3695174,0.4535748
0.7642404,-0.08664748,-0.05036088,-0.4452889,0.1191771,0.4737284
0.7568748,-0.1769715,-0.01281907,-0.2262359,-0.06680471,0.4044606
0.7988847,-0.2408247,-0.09649588,-0.01715767,-0.08341406,0.3015929
0.9684258,-0.3295535,-0.2510889,0.04040196,0.1341258,0.1338826
1.164382,-0.4111594,-0.2631151,0.06294002,0.4007025,-0.02398685
1.422676,-0.4015751,-0.233604,0.03436961,0.2581753,-0.215943
1.568448,-0.3321001,-0.2311418,-0.05821038,-0.1151108,-0.3450081
1.534296,-0.3150049,-0.2051821,-0.1268121,-0.3953996,-0.2121405
1.589816,-0.4652501,-0.1155144,-0.2082753,-0.5703477,-0.1047243
1.726625,-0.6794472,0.002362437,0.0240817,-0.3201777,-0.245877
1.715688,-0.6596858,0.01441551,0.4653951,0.06187906,-0.4228595
1.389333,-0.3507387,-0.02923157,0.4889006,0.06832346,-0.4639889
0.9107616,-0.04285997,-0.01524048,0.3918074,-0.04241781,-0.1474936
0.7904376,-0.0002958035,-0.004474846,0.2799704,-0.2468816,0.4178218
0.873529,-0.1275554,-0.007093286,-0.1535032,-0.3260103,0.5573287
0.7342955,-0.1538958,0.02308514,-0.4050685,-0.1256214,0.3213955
0.78443,-0.1824326,0.04029411,-0.3401858,-0.006489343,0.1679327
0.962822,-0.3195738,0.05638365,-0.2446971,0.0672634,-0.05548371
0.8302303,-0.3198593,0.07122461,-0.08879027,0.02721882,-0.2390334
0.7832791,-0.2374706,0.03012741,-0.04703169,-0.02780853,-0.2690222
0.8215838,-0.2063232,-0.008161408,-0.1417801,0.05434571,-0.3970658
0.7558585,-0.1677896,-0.02867627,-0.1721007,0.03631624,-0.4707763
0.7898618,-0.181102,-0.03833113,-0.1498837,0.04938136,-0.4670012
0.7505802,-0.1897598,-0.02142837,-0.1438407,0.02809057,-0.5033601
0.705535,-0.1742121,-0.03776941,-0.1658793,-0.07529977,-0.4206576
0.7825295,-0.1838873,-0.06681075,-0.1737438,-0.07167521,-0.2879943
0.8055483,-0.1444951,-0.08611846,-0.2016459,-0.1630904,-0.1642875
0.8292543,-0.09208541,-0.08099465,-0.3214471,-0.3301664,-0.1068613
0.8621527,-0.07394924,-0.009711231,-0.4983379,-0.3828527,-0.2862662
0.936566,-0.1165445,0.06337959,-0.5868277,-0.2544272,-0.493651
1.057975,-0.207261,0.09908719,-0.4286239,-0.04186528,-0.5084786
1.147058,-0.27236,0.07718714,-0.1424407,-0.0006779551,-0.304547
1.259424,-0.3217848,-0.02719004,0.0007973235,-0.1435171,0.1138519
1.293474,-0.3140436,-0.2480047,-0.07656551,-0.3728088,0.5592009
1.258798,-0.2909032,-0.5137133,-0.2121513,-0.4111936,0.772214
1.258902,-0.3451832,-0.505633,-0.2036023,-0.05699589,0.5909388
1.23535,-0.3967292,-0.239465,-0.0117102,0.2877172,0.1942917
1.259212,-0.4182171,-0.006383462,0.3712458,0.23318,-0.1515342
1.314411,-0.3549751,0.08297737,0.6938274,-0.004783379,-0.2738914
1.308658,-0.1501928,-0.07518636,0.6141054,-0.166359,-0.01909061
1.302003,0.04058131,-0.2694154,0.3540035,-0.3438913,0.223637
1.259239,0.08553982,-0.2752423,0.1550771,-0.3919249,0.2147831
1.095414,-0.009853916,-0.2635712,0.02904537,-0.3796381,0.154605
0.8894252,-0.09801555,-0.2554754,-0.07486296,-0.5521452,-0.03064611
0.8147297,-0.1069749,-0.2439478,-0.216602,-0.498351,-0.115425
0.9012664,-0.170824,-0.2105268,-0.03424172,-0.2799814,0.0003990844
1.002119,-0.2423475,-0.1064922,0.3814729,-0.04474487,0.06767223
1.035548,-0.2304556,-0.08001656,0.5637315,0.4379729,0.1697361
0.9429775,-0.1664006,-0.07331972,0.6343356,0.6218326,0.2176513
0.7234237,-0.04213644,-0.03558736,0.4837317,0.3913842,0.20326
0.6256093,0.03815767,-0.04420802,0.1287395,0.2113831,0.2690359
0.7160567,0.02305501,-0.04422062,-0.07837197,0.1071505,0.3272764
0.8125214,-0.01034037,-0.07300242,-0.1961375,0.1098664,0.3843559
0.9098825,-0.06133873,-0.1076893,-0.2003339,0.2751713,0.4298546
0.9497645,-0.09101382,-0.08946633,-0.2416681,0.62655,0.4306437
0.8691306,-0.06262615,-0.0288469,-0.3992746,0.8536907,0.3146202
0.831289,-0.03530703,0.06018628,-0.4713766,0.7391329,0.1626433
0.8708078,-0.02846957,0.04001033,-0.7552639,0.6474174,0.2039286
0.905432,-0.01668829,-0.02759446,-1.112281,0.5701278,0.3151634
0.937822,-0.05085637,-0.04436666,-1.10658,0.4401554,0.3806302
0.9447077,-0.1231904,-0.109442,-1.036455,0.5316001,0.3527005
0.9205736,-0.1315254,-0.1321845,-1.102981,0.6885865,0.180419
0.911099,-0.1747817,-0.1623653,-1.189059,0.6829126,0.01351185
0.906993,-0.3269311,-0.2554891,-1.33889,0.7176631,-0.04485925
0.9405821,-0.4386366,-0.1459553,-1.475901,0.7187135,0.004929867
1.068277,-0.4792149,-0.01089048,-1.356367,0.3561338,0.01452066
1.225878,-0.4915638,-0.07532482,-1.18563,-0.1115885,-0.0286893
1.454255,-0.4796904,-0.08297317,-1.190572,-0.2319859,-0.0131695
1.772965,-0.4765882,-0.0520216,-1.037372,-0.0787405,-0.04943226
1.823347,-0.4632389,-0.07790151,-0.7441087,0.0713338,-0.06551055
1.536086,-0.3849234,-0.05604213,-0.5407691,0.2463893,-0.009367864
1.368009,-0.2678616,-0.04356421,-0.4430264,0.4020964,0.03825794
1.354722,-0.2199543,-0.05918266,-0.61652,0.4208154,0.1294982
1.216385,-0.1862593,-0.06579785,-0.8884225,0.4453127,0.1418806
0.9485693,-0.07294759,-0.08144674,-1.100981,0.2733596,0.1452902
0.7439942,-0.06287375,-0.06933815,-1.318042,-0.03849672,0.2603242
0.763255,-0.1876667,-0.02456648,-1.307522,-0.1181404,0.27062
0.757183,-0.261336,0.006520356,-1.177078,-0.1325236,0.2383001
0.7035281,-0.2890443,-0.02529341,-1.140826,-0.02137262,0.2004219
0.8317891,-0.2846823,-0.1141652,-1.113108,0.1769985,0.05880741
0.8177858,-0.255417,-0.1532418,-1.122006,0.2237381,-0.009873093
0.7273541,-0.2269092,-0.07517467,-1.110368,0.2128664,-0.06174722
0.77225,-0.1513193,0.02911848,-1.120545,0.1475346,-0.1757645
0.7602298,-0.1058718,0.02971612,-1.27216,0.09751297,-0.1735974
0.8272646,-0.1156545,-0.0316894,-1.46808,-0.02765208,-0.06554131
0.8707275,-0.1365588,-0.03982019,-1.522025,-0.1405549,0.04612514
0.8564752,-0.193423,0.009290365,-1.211416,-0.03497673,0.0508682
0.9553046,-0.2159409,0.04888312,-0.9083209,-0.02898434,-0.06061817
0.9548171,-0.227698,-0.008382752,-1.046848,-0.04529836,-0.1080713
0.9601125,-0.2633061,-0.07291553,-1.120758,0.08480428,-0.0680441
1.030467,-0.2566865,0.005530818,-0.8885428,0.2613669,-0.0498051
1.063192,-0.2655534,0.1072491,-0.6598593,0.5136575,-0.1212523
1.102086,-0.277852,0.1313978,-0.4742365,0.706085,-0.2260556
0.9971113,-0.2649077,0.05871811,-0.4386454,0.7389985,-0.2098591
0.8970421,-0.288474,-0.1172893,-0.383107,0.3545232,-0.01013378
0.9935485,-0.339434,-0.2630091,-0.09508897,-0.4939759,0.3014292
1.251017,-0.4568396,-0.4328022,0.01452868,-0.7373224,0.4431098
1.599213,-0.6364522,-0.6169962,0.2247036,0.5848545,0.322363
1.67508,-0.7018648,-0.4898224,0.8178365,1.915515,0.1474927
1.498795,-0.5147448,-0.1321328,1.019115,1.1931,-0.2060824
1.388034,-0.1654557,0.02852104,0.8299351,0.109828,-0.6779657
1.253468,0.1108093,-0.1044292,0.3894792,0.02947311,-0.7837176
1.168466,0.1994477,-0.2398709,-0.460686,-0.4841326,-0.5218964
1.163061,0.1333807,-0.1606457,-0.7875809,-0.9329093,-0.1035953
0.9912185,-0.008488041,-0.1181123,-0.5305557,-0.9416514,0.3301137
0.8437422,-0.174064,-0.1919165,-0.5117922,-1.057699,0.3976765
0.8013481,-0.2668525,-0.1501948,-0.413457,-0.7515444,0.1247996
0.7294298,-0.202902,-0.1618707,-0.2290323,-0.6772647,-0.02657053
0.7930905,-0.1459293,-0.2434393,-0.2985467,-0.7215556,-0.01033718
0.8441026,-0.1218296,-0.2409928,-0.3278232,-0.493591,0.05797186
0.8126071,-0.06948691,-0.2656017,-0.3537318,-0.5010852,0.2045515
0.8534032,-0.1226897,-0.2105527,-0.3510546,-0.1243239,0.3009222
0.8306946,-0.1468209,-0.1148108,-0.2328242,0.1455475,0.2891478
0.8322732,-0.09121308,-0.0819318,-0.2567327,0.2132144,0.2407671
0.8604645,-0.09629944,-0.01172165,-0.2274405,0.5403147,0.1677423
0.8026777,-0.074854,-0.01001075,-0.1044197,0.3501175,0.1280334
0.7540484,-0.05676714,-0.02023283,-0.1013438,0.2866965,0.2143068
0.6892259,-0.05602054,-0.008753685,-0.1904565,0.4216058,0.4597263
0.7406487,-0.06458272,-0.07211014,-0.414441,0.3353531,0.688594
0.9076609,-0.1410073,-0.09280017,-0.4937061,0.592539,0.6718
0.9647056,-0.187309,-0.06472783,-0.3253484,0.7031565,0.4724998
0.9095562,-0.234297,-0.03459194,-0.2748576,0.6744398,0.2897224
0.8468869,-0.2608202,-0.03358526,-0.4167189,0.9153531,0.2415716
0.9520027,-0.2038698,-0.05632314,-0.5160476,1.053095,0.3226087
1.042145,-0.1907196,-0.09203225,-0.3002872,0.7301348,0.3707317
0.9025467,-0.2145865,-0.256649,-0.1517497,0.3371088,0.2780049
0.8364514,-0.272993,-0.3965723,-0.5318262,0.7433583,0.09404521
0.9454039,-0.3764348,-0.3027061,-0.8337055,1.061524,-0.2316878
1.147543,-0.4314841,-0.08728219,-0.6219933,0.554225,-0.5618665
1.42496,-0.459796,0.05515736,-0.4768524,0.2749333,-0.5285442
1.64449,-0.5176727,0.005532844,-0.6625966,0.1882302,-0.3466846
1.718675,-0.5624943,-0.0764831,-0.5855301,-0.2435972,-0.3275361
1.584431,-0.5358989,-0.01774421,0.005169823,-0.6311922,-0.3024193
1.357282,-0.4982652,-0.01146982,0.5960551,-0.536788,-0.2290068
1.259962,-0.4273971,-0.08882753,0.6141582,-0.01519138,-0.1169979
1.220598,-0.2558908,-0.07359282,0.2311687,0.3915902,-0.03392383
1.109163,-0.168317,-0.03111623,0.1101835,0.2827151,-0.02985664
0.953639,-0.1991564,0.01396614,0.06547491,-0.1254711,0.1234585
0.7913514,-0.1976503,0.0306059,-0.05680967,-0.38161,0.2855019
0.6625596,-0.1917388,-0.01361724,-0.05030522,-0.4886576,0.2702059
0.6029963,-0.2016434,0.008755683,-0.2233888,-0.4125073,0.2464049
0.6252473,-0.1984627,0.001541643,-0.2779489,-0.2334486,0.1675383
0.6872349,-0.1983966,-0.02415675,-0.1285555,-0.3082048,-0.01051932
0.713151,-0.2137648,0.01324912,-0.1414912,-0.2160969,-0.2474408
0.7518092,-0.2233889,-0.006214998,-0.09725451,-0.03738202,-0.4853327
0.7549253,-0.1910135,-0.001120586,-0.1800223,-0.06711112,-0.5839979
0.6518328,-0.1373049,-0.00919718,-0.3815448,0.06727998,-0.5830994
0.6081476,-0.100828,-0.05485189,-0.4249846,-0.05413569,-0.4923493
0.6085012,-0.0975897,-0.009873403,-0.3021525,-0.4634726,-0.398578
0.6544024,-0.1315103,0.003339769,-0.0336548,-0.7811724,-0.4758723
0.8161181,-0.1876474,-0.03138236,0.005513128,-0.9098391,-0.5985939
0.9027911,-0.2151153,-0.08024743,-0.03118566,-0.4846703,-0.647788
0.9374689,-0.1643645,-0.129394,-0.01096117,-0.07065986,-0.5582972
0.9961853,-0.09163779,-0.06728099,-0.1347288,-0.1210146,-0.3472335
1.041432,-0.08166802,-0.003446547,-0.08676158,-0.2354912,-0.2383657
1.105051,-0.1643524,-0.04150383,-0.03909702,-0.308937,-0.208349
1.155553,-0.3531887,-0.1016239,-0.03382117,-0.2861214,-0.05139331
1.322408,-0.5659091,-0.169836,0.3514755,-0.2524839,0.1949673
1.563891,-0.6364528,-0.2989782,0.9760821,-0.08192828,0.2634375
1.553921,-0.5304643,-0.377584,1.5242,0.5392081,0.02088545
1.270771,-0.3482432,-0.2050925,1.596328,1.074216,-0.3071836
1.097681,-0.1458243,-0.01732948,1.106483,0.6976638,-0.4158362
1.406011,0.001874436,-0.163293,0.560788,-0.05982228,-0.1841623
1.723059,0.04447118,-0.2998342,0.4276643,-0.1412423,0.1069841
1.46373,0.02691797,-0.1546552,0.5456226,-0.09534449,0.08159412
1.087024,-0.09004945,-0.07165956,0.3178306,-0.3342097,-0.1083935
0.9071961,-0.2284229,-0.04861479,0.05618728,-0.5312605,-0.2158838
0.8123975,-0.2340059,-0.0145206,0.2231196,-0.8568868,-0.1926768
0.8962699,-0.1999112,-0.125056,0.3706944,-0.7769689,-0.05239996
0.911046,-0.179391,-0.1630633,0.4243506,-0.4134235,0.005933792
0.8541374,-0.1253279,-0.1180339,0.5063645,-0.3593521,-0.02645676
0.9385096,-0.06586491,-0.1188107,0.4497501,-0.1119508,-0.01627732
0.874168,-0.05653509,-0.08028756,0.3901705,-0.02170178,0.06550588
0.7876188,-0.09735616,-0.06486735,0.3934552,-0.1822008,0.2510826
0.8139615,-0.1089744,-0.03953127,0.3779538,-0.0617615,0.3890792
0.7706871,-0.1112204,-0.00203631,0.434141,0.05548965,0.3909929
0.7986843,-0.1016524,0.004135192,0.5380257,0.1854104,0.3378733
0.8037943,-0.0475422,-0.0110585,0.5537813,0.1549044,0.3160132
0.7842079,-0.02319499,-0.1159696,0.4297911,-0.01058645,0.4254957
0.8302397,-0.03053925,-0.175302,0.2069251,0.131784,0.5630601
0.7973028,-0.1002489,-0.1145828,0.09380395,0.2336579,0.5582515
0.8064296,-0.1993345,-0.03258159,0.1763181,0.2906122,0.3179449
0.827214,-0.2095379,-0.01440835,0.3388941,0.3429248,-0.02428882
0.8112365,-0.2031841,-0.1095237,0.5487338,0.2559917,-0.09391667
0.8273781,-0.198653,-0.1919974,0.635423,0.3847677,0.1003652
0.7948636,-0.151269,-0.1981258,0.5474626,0.5541373,0.2208606
0.8444881,-0.1637574,-0.1767421,0.4932115,0.7198414,0.1324201
1.089497,-0.3011669,-0.171502,0.3523679,0.9073146,-0.1619398
1.408439,-0.4372533,-0.1490912,0.1307391,0.5961128,-0.559693
1.509729,-0.4192901,-0.08230555,0.09573887,0.1108344,-0.6274274
1.459876,-0.3763275,-0.07158978,0.03562934,-0.1760663,-0.2052205
1.629761,-0.4438265,-0.03774539,-0.08314883,-0.5209441,0.05881206
1.709763,-0.471821,0.01469904,0.1609293,-0.6245432,-0.122783
1.568104,-0.4661246,-0.01330219,0.6476586,-0.3472917,-0.2467339
1.475296,-0.510912,0.003397788,0.9666817,-0.1448923,-0.1349374
1.293278,-0.4731658,0.009426149,0.9683921,0.004812156,0.01925957
1.163039,-0.348701,-0.04413506,0.7206374,0.2036444,0.1986943
1.13402,-0.2553033,-0.05611291,0.4595951,0.04093593,0.2971277
1.002719,-0.2435668,-0.05231094,0.1629336,-0.3067022,0.2624769
0.7930761,-0.2051992,-0.03560361,-0.147211,-0.3302173,0.3348927
0.4890362,-0.08911447,-0.01555253,-0.2415727,-0.3002333,0.3169226
0.5339779,-0.1872801,0.01967426,-0.2432841,-0.3395749,0.02614572
0.7991438,-0.330952,0.07355501,-0.2278063,-0.2539044,-0.2342291
0.7303432,-0.1801361,0.05972202,-0.1579941,-0.1401189,-0.4324157
0.8657221,-0.09977753,0.04061764,-0.1409035,-0.007065062,-0.4614309
0.9622873,-0.1437851,0.05607391,-0.1716814,0.002394457,-0.3499822
0.7423897,-0.09089852,0.02090163,-0.2376268,-0.1934687,-0.3266292
0.8115037,-0.07798708,-0.01227908,-0.2766897,-0.4155561,-0.2350845
0.7545599,-0.09302483,0.004277866,-0.2289977,-0.6932764,-0.2101692
0.686277,-0.1260074,0.005528584,-0.1640822,-0.8241879,-0.2366853
0.8309505,-0.1807898,-0.01581027,-0.1258249,-0.6688394,-0.1073324
0.714896,-0.1780449,-0.0339266,-0.1456722,-0.524067,-0.01819217
0.7483527,-0.1668259,-0.03790851,-0.1751103,-0.4711083,-0.002322406
0.8442946,-0.1402276,0.002198292,-0.2017181,-0.5261218,-0.1533619
0.8475011,-0.1055649,0.03425412,-0.3427208,-0.6077857,-0.3351695
0.9847259,-0.1111244,-0.05079806,-0.60713,-0.5456203,-0.2039312
0.957168,-0.1907197,-0.1979782,-0.7929989,-0.5086231,0.07997185
1.095619,-0.3735295,-0.2859543,-0.6822996,-0.4816686,0.4127803
1.460011,-0.5705131,-0.3492423,-0.2569876,-0.08620661,0.5625402
1.598184,-0.6494519,-0.3831033,0.430623,0.8458182,0.2551486
1.516958,-0.5266626,-0.2399467,0.8758271,1.576622,-0.14616
1.30324,-0.3054979,-0.01319304,0.5551835,1.166194,-0.3448614
1.26786,-0.1466755,0.01987102,0.2207937,0.4348806,-0.3020749
1.491691,-0.03973577,-0.05224681,0.297302,0.08796009,-0.04624711
1.676957,0.0579372,-0.05256231,0.1616717,-0.4698834,0.09794199
1.477533,0.09871745,-0.08331911,-0.08669393,-0.4320648,-0.008365527
1.040128,-0.0120224,-0.1065959,-0.3478143,-0.06311888,-0.2135641
0.8885913,-0.1247787,-0.0734223,-0.5254532,-0.7987608,-0.3588934
0.771219,-0.09812023,-0.1075101,-0.3052151,-1.235158,-0.2712949
0.7096166,-0.0967127,-0.1715063,-0.2140564,-0.9433887,-0.04778062
0.8552769,-0.1215581,-0.2108762,-0.1307608,-0.7738539,0.1597889
0.8131393,-0.1442886,-0.1784064,0.1838752,-0.1876123,0.2965988
0.8128629,-0.1777804,-0.0653899,0.2063915,0.2029302,0.2658626
0.8478787,-0.09673919,-0.03090002,0.2071329,0.1564972,0.2816403
0.7942613,0.01951781,-0.04573616,0.203291,0.1842908,0.4225054
0.8458354,0.06875627,-0.04389496,-0.009154986,0.1485817,0.49054
0.7954619,0.08045004,-0.07931348,-0.2079718,0.2426205,0.5884481
0.7594809,0.06748349,-0.1181798,-0.597534,0.2890071,0.6640619
0.7714725,0.02604304,-0.1521208,-0.9979527,0.3566051,0.6030559
0.7235225,-0.07490489,-0.1474231,-1.079122,0.5142463,0.5965467
0.7819311,-0.1525725,-0.1124759,-0.9806219,0.5334313,0.5881887
0.8535802,-0.1595836,-0.09188942,-0.8490573,0.7076017,0.4722606
0.9268437,-0.1506406,-0.05443953,-0.7020099,0.8260491,0.2996736
0.9184531,-0.1156748,-0.06021878,-0.5472155,0.799403,0.07535431
0.8122256,-0.07219173,-0.09011191,-0.5411936,0.7624933,-0.02801262
0.7738723,-0.0716599,-0.154165,-0.5112488,0.4999972,0.02319038
0.7447586,-0.1747708,-0.3458233,-0.5399989,0.2014516,0.08352171
0.9474971,-0.3497108,-0.4575794,-0.8528852,0.1729743,0.1105034
1.31364,-0.4421686,-0.3802254,-0.9503529,0.182733,-0.05190967
1.458759,-0.4245947,-0.3419136,-0.8916108,-0.1153892,-0.3311256
1.674245,-0.4023092,-0.370601,-0.9876497,-0.2524768,-0.4152989
2.033207,-0.3990228,-0.3004488,-0.9551444,-0.1362109,-0.3073191
1.976215,-0.3641139,-0.2221312,-0.5833179,-0.2042973,-0.06071504
1.518911,-0.3286476,-0.2662485,-0.1436788,-0.1104026,0.2411483
1.249066,-0.3002526,-0.2865301,-0.2726279,0.2353218,0.2839825
1.270738,-0.2529439,-0.2425407,-0.5456765,0.6211689,0.109284
1.317228,-0.2097065,-0.1948626,-0.506078,0.7375191,0.07563926
1.218535,-0.1165826,-0.1189382,-0.7244129,0.4778168,0.2691226
0.9691803,-0.0338331,-0.1147119,-0.9264787,0.3122536,0.5740786
0.7676421,-0.03008963,-0.1752714,-1.094439,0.07649476,0.7507899
0.6441671,-0.018041,-0.1889842,-1.548265,-0.0478278,0.7253308
0.5895174,-0.07614586,-0.2010106,-1.703304,0.1249516,0.726886
0.6432633,-0.2132408,-0.1799523,-1.650952,0.06937402,0.7049839
0.7498409,-0.341136,-0.1044532,-1.499742,0.2098654,0.4974935
0.8858715,-0.4416186,-0.06747322,-1.068326,0.4719343,0.1987306
0.8911399,-0.4026688,-0.05236442,-0.8002636,0.3739997,-0.04053002
0.8161203,-0.2843693,-0.04943831,-0.7273813,0.3632464,-0.1087348
0.7903921,-0.1722586,-0.05886482,-0.7271355,0.3603684,-0.1130519
0.7397898,-0.07387857,-0.04710715,-0.8111024,0.2781174,-0.197954
0.7481849,-0.06656476,-0.04811579,-0.8840329,0.2693662,-0.2738339
0.7792373,-0.05034096,-0.04189817,-0.9586478,0.2191866,-0.2686263
0.7845112,-0.05324777,-0.02960941,-0.9704038,0.2197105,-0.2120907
0.7720967,-0.1238231,-0.04044413,-1.003488,0.1701974,-0.1694123
0.6847639,-0.1095943,-0.03667803,-1.041455,0.0520121,-0.2000412
0.6402616,-0.1054631,-0.04778164,-1.032335,-0.08047021,-0.2813159
0.6780771,-0.1600461,-0.07748014,-1.046864,-0.2615274,-0.362449
0.7648661,-0.213171,-0.08839307,-0.8567727,-0.2708569,-0.3960991
0.8762449,-0.2859933,-0.07947229,-0.5379692,-0.2406016,-0.3857186
0.9857191,-0.2907014,-0.04204242,-0.2499073,-0.2761506,-0.4206907
1.101124,-0.2846974,-0.01743569,0.22077,-0.1497553,-0.4676818
1.155153,-0.3355811,-0.05567848,0.6549314,0.05817985,-0.370288
1.184386,-0.3784864,-0.1995888,0.7465112,0.1907875,-0.07343242
1.279786,-0.4438801,-0.4003803,0.8286535,0.2939614,0.3505835
1.430496,-0.5161244,-0.4614415,1.056799,0.7299571,0.5059114
1.49385,-0.535659,-0.3692982,1.211104,1.230952,0.1052928
1.449876,-0.3994082,-0.2792682,1.292109,0.7994686,-0.2721044
1.534062,-0.1104611,-0.2128594,0.9960519,0.06790742,-0.180427
1.630666,0.05255225,-0.2091423,0.540983,-0.2011078,0.01583791
1.539248,-0.004928412,-0.2749498,0.6418574,-0.6635313,0.08125792
1.403875,-0.121863,-0.2459045,0.4806052,-0.5949525,-0.04984764
1.218493,-0.2146038,-0.1587495,-0.08125071,-0.09977811,-0.3819874
0.9835985,-0.2544398,-0.1254836,0.06904831,-0.6142306,-0.5283115
0.8653695,-0.2388109,-0.1255358,0.3331807,-0.8944692,-0.3168536
0.8149574,-0.2133571,-0.1848253,0.2877535,-0.5913342,-0.09062272
0.7327263,-0.1628152,-0.2082336,0.3915698,-0.779023,-0.05994268
0.7205179,-0.08529194,-0.1784679,0.3572195,-0.7092871,-0.05025794
0.783807,-0.08523695,-0.1602393,0.3677695,-0.4954004,0.02956425
0.7956669,-0.1094884,-0.08929431,0.549102,-0.4173603,0.06412748
0.7833395,-0.07182456,-0.05815339,0.5581766,-0.2422154,0.1077957
0.7904144,-0.05447873,-0.06458127,0.5409815,-0.2997748,0.1927028
0.8280426,-0.03827211,-0.02625035,0.4869135,-0.1161252,0.2172302
0.8733331,-0.01556843,0.005957518,0.4704513,0.09304469,0.2047797
0.8156977,-0.02239994,0.02798444,0.5727232,-0.04605581,0.1867045
0.7028253,-0.0149187,-0.03807086,0.5357067,-0.01722947,0.2191241
0.6552767,-0.03048505,-0.1284987,0.3733789,0.01978317,0.366492
0.7320963,-0.1011773,-0.1093785,0.1951638,0.1074474,0.5551034
0.9036015,-0.1897371,-0.07910204,0.3058088,0.4311587,0.5745376
0.9795017,-0.2110466,-0.09385976,0.6321884,0.745441,0.3149262
0.9072347,-0.1556874,-0.1627564,0.6772582,0.9154602,0.06756043
0.8408855,-0.1427542,-0.2406597,0.5592114,1.028245,0.02869636
0.8614738,-0.1628201,-0.2238774,0.3596995,1.169004,0.03051091
0.912881,-0.2175359,-0.1991126,0.08397605,0.9342878,-0.07301064
1.037192,-0.2891261,-0.2161294,-0.2516142,0.4996404,-0.2601201
1.334109,-0.2230848,-0.1296392,-0.5556401,0.2231948,-0.3251362
1.561761,-0.1674696,-0.0336909,-0.4197661,-0.3742646,-0.2137902
1.575202,-0.3304199,-0.1087425,-0.2885215,-0.8443149,-0.1509356
1.660585,-0.5652176,-0.1355155,-0.2228958,-0.5578051,-0.3003321
1.726016,-0.6991064,0.02671495,0.4317794,-0.3014461,-0.4708449
1.449959,-0.6737377,0.1390415,1.168652,-0.3681516,-0.3820822
1.125604,-0.500016,0.05556142,1.534158,-0.2897234,-0.1344043
1.020675,-0.2149123,-0.08053035,1.489351,-0.2551397,0.1895127
0.8973881,0.07970554,-0.1146665,0.9295652,-0.2935663,0.4436414
0.7273054,0.1601738,-0.106582,0.2555252,-0.2943191,0.4268024
0.6707452,0.0562142,-0.08695958,-0.1909841,-0.5056598,0.4027875
0.7056351,-0.1195453,-0.00859361,-0.3125889,-0.5670062,0.3481547
0.7311846,-0.3831554,0.08516199,-0.2490856,-0.2620767,0.08039997
0.712708,-0.4210326,0.1102402,-0.03044766,0.01962146,-0.1527286
0.7125122,-0.2013516,0.02610412,0.3028138,0.08037706,-0.2754147
0.6784628,-0.1164395,-0.02619756,0.2730151,-0.1012068,-0.3779513
0.6265087,-0.1022074,-0.004960468,0.09936121,-0.324027,-0.5186566
0.650457,-0.1096063,-0.04501289,0.08395571,-0.6403182,-0.5796773
0.6390029,-0.1946005,-0.1539739,0.009282352,-0.9996246,-0.4176405
0.6170027,-0.2187018,-0.2595469,0.06012917,-1.034858,-0.2114033
0.7235175,-0.2501945,-0.21086,0.3187442,-0.8409927,-0.04541978
0.9764841,-0.2991224,-0.1113426,0.6866669,-0.5151856,-0.009708493
1.210801,-0.3334852,-0.1586372,0.9119236,-0.3478789,-0.1025286
1.236216,-0.384588,-0.1818579,0.8062038,-0.4352254,-0.03487089
1.33827,-0.4339825,-0.2178484,0.811507,-0.235393,0.1711158
1.555677,-0.4819221,-0.3357037,0.959728,0.4038614,0.3091953
1.469542,-0.3493417,-0.3312452,0.9672658,1.017232,0.1131661
1.324635,-0.1557968,-0.1921268,0.8616222,0.697541,-0.2838563
1.354401,-0.1704465,-0.05801779,0.6333317,0.03187526,-0.2955655
1.387778,-0.2531674,-0.119002,0.5810348,0.1151853,-0.1341657
1.488947,-0.3109839,-0.2243825,0.8427897,-0.07559348,-0.09411373
1.42784,-0.2711947,-0.1605849,0.9995059,-0.3756096,-0.05471656
1.185483,-0.181178,-0.179707,0.8701261,-0.1484153,-0.2078021
1.051998,-0.1754404,-0.1916331,0.7019773,-0.3679284,-0.3747877
0.8918862,-0.1553683,-0.09018187,0.7229753,-0.5859899,-0.3200486
0.8306955,-0.1436202,-0.1152706,0.7575359,-0.5541909,-0.1540533
0.8395794,-0.1354659,-0.1494452,0.7409636,-0.7029637,0.1305698
0.7361093,-0.1219219,-0.1662478,0.8197433,-0.5602979,0.3210482
0.7331407,-0.1728357,-0.1950042,0.8759307,-0.361588,0.2713399
0.6996127,-0.1828731,-0.1202654,1.001556,-0.1593568,0.1319374
0.6613226,-0.1561538,-0.05449916,1.199414,0.06581155,0.001085134
0.6973559,-0.1011805,-0.02478963,1.228891,-0.03263,-0.006795444
0.6312449,-0.009654367,-0.06312477,1.121159,-0.1355858,0.1832325
0.6379187,0.004266421,-0.1526065,0.8855053,-0.1392369,0.3938063
0.6723709,-0.02565855,-0.1398076,0.6713046,0.1601275,0.3643435
0.6588568,-0.04553721,-0.1009873,0.6169099,0.5839469,0.1751873
0.6674909,-0.05916994,-0.07813524,0.5591225,0.4319824,0.01928877
0.6326153,-0.06986762,-0.1012593,0.442237,0.1909979,-0.009058849
0.6876499,-0.0862455,-0.1849191,0.327693,0.297622,0.1497493
0.8070371,-0.114078,-0.1941436,0.281038,0.6003967,0.2446876
0.9417452,-0.2264423,-0.162253,0.1691422,0.9921655,0.06144719
1.172189,-0.3578141,-0.1406126,-0.1173577,0.8984112,-0.29366
1.415894,-0.3661505,-0.1330576,-0.4301437,0.4108379,-0.5343039
1.596517,-0.3058425,-0.1108914,-0.5528171,-0.07756231,-0.340931
1.627738,-0.3127705,-0.02564623,-0.3490941,-0.6177247,0.05190461
1.629417,-0.4665523,-0.0002330443,-0.1118423,-0.4875516,0.1773364
1.672428,-0.6835547,-0.00933237,0.1465452,-0.05185757,0.04594273
1.570138,-0.7406082,0.0257187,0.6843599,-0.1966965,-0.1256013
1.413475,-0.5917835,0.02150997,1.134572,-0.1064272,-0.1655689
1.300162,-0.4154724,-0.02019969,1.254232,-0.0008972992,-0.1474484
1.208926,-0.2675741,-0.07688967,1.087666,-0.1621362,-0.1643518
1.103337,-0.1341477,-0.09166287,0.7591978,-0.0920769,-0.04909616
0.8864666,-0.08916172,-0.06380709,0.4481066,-0.3259313,0.1518282
0.7133981,-0.1256556,-0.04539161,0.2491684,-0.4699649,0.3368253
0.6530945,-0.1939284,0.02594001,0.3489452,-0.3540833,0.377601
0.6252882,-0.2100323,0.06060721,0.367176,-0.34492,0.0829984
0.6507992,-0.1601548,0.01629092,0.1699513,-0.05276391,-0.2717869
0.6125756,-0.123948,0.004085213,0.06024292,0.04254904,-0.4263696
0.5158619,-0.07045552,-0.01821016,-0.2642546,-0.07256062,-0.378939
0.4905299,-0.05640004,-0.03006474,-0.4895177,-0.1333961,-0.258779
0.5752774,-0.1173774,-0.008400243,-0.3557914,-0.3833572,-0.2623965
0.7566739,-0.1961698,-0.02293319,-0.2678478,-0.4988208,-0.3410047
0.8581041,-0.2961587,-0.03758761,-0.1243164,-0.4697114,-0.5251267
0.8711891,-0.314586,-0.04182769,0.018724,-0.2098812,-0.6437924
0.9418913,-0.2813667,-0.0253536,0.1811638,0.2103473,-0.5165136
1.069973,-0.3044128,-0.009407669,0.4460065,0.3325436,-0.3978501
1.274458,-0.3385725,-0.1061579,0.5590195,0.3333203,-0.2198961
1.482606,-0.3793839,-0.2141958,0.7545984,0.2554541,-0.01778577
1.52125,-0.3742593,-0.1901556,1.122925,0.191242,-0.0210245
1.379282,-0.3015483,-0.1451196,1.259003,0.5392978,-0.07968274
1.290104,-0.2357834,-0.1257603,1.034703,0.8737103,-0.1025944
1.410902,-0.1954067,-0.06385079,0.7587528,0.4839644,-0.01086914
1.498387,-0.1776662,-0.04449362,0.6853254,-0.1308244,0.22106
1.41088,-0.1634207,-0.07570276,0.6808444,-0.2977692,0.3509953
1.271553,-0.1873039,-0.05251429,0.5526769,-0.3790277,0.1403452
1.098545,-0.2319359,-0.04294959,0.1975823,-0.5260193,-0.2348265
0.9986946,-0.2182435,-0.07605184,-0.09525808,-0.7542672,-0.3002359
1.020417,-0.2348241,-0.1298665,-0.02234494,-1.05103,-0.1094156
0.9427024,-0.2886205,-0.2113438,0.1988653,-0.9291554,0.01213846
0.8046903,-0.2768174,-0.2032324,0.4756004,-0.6624867,0.01232168
0.7731318,-0.2631807,-0.155804,0.6281282,-0.5847428,-0.01806048
0.7633246,-0.2679189,-0.1400691,0.5851479,-0.3828019,0.0647152
0.7834475,-0.2420439,-0.04909957,0.7767354,-0.2594853,0.1500426
0.8117715,-0.2213561,-0.00698521,1.052173,-0.3021997,0.1498568
0.7828,-0.1885988,-0.05486303,1.062399,-0.2240478,0.1460936
0.7877195,-0.1016609,-0.03930736,0.9910376,-0.1936733,0.1299347
0.7545134,-0.007896021,-0.04498715,0.8391594,-0.3217549,0.2006095
0.6935172,0.02000843,-0.1035207,0.4944895,-0.4468679,0.3734259
0.7143553,-0.02059446,-0.1483544,0.2290753,-0.4736008,0.5494225
0.7397486,-0.09787597,-0.1991542,0.2334879,-0.3385183,0.5658249
0.7581662,-0.2080194,-0.1905687,0.3184086,-0.1000601,0.2787177
0.7473481,-0.2802695,-0.1081255,0.463166,0.1253313,-0.02743137
0.7106841,-0.260694,-0.05183523,0.670526,0.2145744,-0.0646901
0.7125705,-0.2095041,-0.09121587,0.7090833,0.2716986,0.09737887
0.7335,-0.1566182,-0.1601297,0.6345325,0.5843717,0.1815557
0.7942068,-0.1456989,-0.1569384,0.5085919,1.036354,0.01862153
0.8810925,-0.189195,-0.1715121,0.1020143,1.282724,-0.2532605
1.012004,-0.1875403,-0.1859287,-0.5060387,1.005032,-0.5145793
1.234945,-0.1412922,-0.1162594,-0.8872381,0.255813,-0.5226398
1.464736,-0.1271138,-0.08431518,-0.9120444,-0.4583342,-0.1932097
1.636495,-0.264893,-0.07033645,-0.7275093,-0.6566835,0.03063684
1.758444,-0.6374877,-0.01503149,-0.2906718,-0.1682053,-0.06724624
1.81072,-0.936902,0.04400692,0.3848682,0.2417626,-0.2989309
1.666982,-0.8568097,0.1011416,1.002151,0.1725113,-0.4066407
1.405788,-0.6155353,0.09261229,1.209435,0.1626885,-0.2748963
1.323724,-0.3855945,0.03485227,1.012693,0.05797597,-0.0719314
1.267807,-0.1190486,-0.0370883,0.6522525,-0.1328893,0.02218463
1.027792,-0.04905146,-0.07386293,0.172119,-0.25878,0.06662243
0.8151541,-0.1715948,-0.0111113,-0.0423443,-0.4665245,0.1672302
0.7023499,-0.2076238,0.0181735,0.077335,-0.4915733,0.1952164
0.6651611,-0.2697131,-0.01001693,0.03639709,-0.4388431,0.1101999
0.7051971,-0.2944579,-0.0146713,0.09844236,-0.3135203,-0.008842876
0.7286068,-0.1902202,-0.0293431,0.1918488,-0.09327483,-0.1775427
0.7418755,-0.1710167,-0.05106795,0.007149848,-0.06312738,-0.314983
0.7135973,-0.1376071,-0.07499416,-0.08044213,-0.0592727,-0.3834531
0.6299833,-0.09992862,-0.08950037,-0.200568,-0.112399,-0.3498015
0.6192895,-0.1377695,-0.08625556,-0.2734497,-0.2685827,-0.2653523
0.7102183,-0.1579622,-0.0821635,-0.1387252,-0.410212,-0.2599501
0.8183878,-0.227855,-0.07421515,-0.1000139,-0.4887058,-0.2411801
0.8251742,-0.2311322,-0.07429757,0.02080529,-0.4235729,-0.2166816
0.7583862,-0.1616304,-0.04919465,0.1158345,-0.384247,-0.1913999
0.7445196,-0.1418519,0.01370101,0.1714073,-0.3320113,-0.1754637
0.8210136,-0.1185968,-0.1107211,-0.7166505,-0.3852204,0.02875608
0.8959309,-0.1947146,-0.09336392,-0.637236,-0.3379155,-0.03979288
0.961479,-0.256269,-0.08089196,-0.480436,-0.2399241,-0.1079479
1.013948,-0.2719747,-0.07495934,-0.3967043,-0.06535454,-0.2556312
1.017316,-0.2373117,-0.06814651,-0.4769198,0.07700288,-0.3031743
1.063705,-0.1954802,-0.08107109,-0.5019323,0.1497569,-0.1291766
1.203117,-0.2565384,-0.1019463,-0.4047645,0.2734132,0.08930856
1.34969,-0.31389,-0.1446552,-0.2596295,0.3262745,0.3063797
1.411887,-0.3271304,-0.2123155,-0.07736362,0.5119543,0.3352019
1.286791,-0.3199925,-0.2143144,0.04186914,0.8191395,0.1316467
1.209479,-0.2463094,-0.1342821,0.04186448,0.8399977,0.003022008
1.398037,-0.1379763,-0.0870867,-0.01921342,0.6485094,0.0780164
1.58661,0.002327879,-0.1611253,-0.1503226,0.3580504,0.2352144
1.544208,0.09416116,-0.2274641,-0.3408092,0.0648347,0.3408611
1.31204,-0.01719911,-0.1352311,-0.5919195,0.006175361,0.285894
1.0333,-0.2312491,-0.01835845,-0.8022678,-0.180816,-0.0001231441
0.907056,-0.3085232,-0.006762606,-0.7512322,-0.5665542,-0.2649126
0.9510546,-0.2729465,-0.05834126,-0.5113408,-0.5085154,-0.1718974
0.9186809,-0.200696,-0.1474603,-0.2634838,-0.3379037,0.08554103
0.8109576,-0.05244564,-0.2196993,-0.2099106,-0.4062161,0.2630174
0.8101718,0.008832357,-0.226434,-0.408806,-0.2203798,0.3664104
0.812535,-0.0441594,-0.1868545,-0.5014681,-0.0685407,0.3334946
0.7943644,-0.04045265,-0.1419639,-0.4643724,-0.1252006,0.3458117
0.8009327,-0.04926066,-0.131569,-0.4650628,-0.07986393,0.5021818
0.75938,-0.114602,-0.09319878,-0.4098956,-0.1059221,0.5888957
0.7403667,-0.1584513,-0.0371583,-0.3164288,-0.0321027,0.6457935
0.7542348,-0.1553358,-0.04309222,-0.1349785,0.1767462,0.6408527
0.7545265,-0.1255958,-0.01877002,0.01029535,0.2087909,0.6070896
0.7607708,-0.1156027,-0.01336467,-0.1030786,0.08289402,0.7607625
0.7692171,-0.1329757,-0.1514745,-0.2235193,-0.01278878,0.8270194
0.8069136,-0.1763961,-0.2436585,-0.1357558,0.3570847,0.5855597
0.8302584,-0.2346121,-0.1253398,0.1473478,0.8758604,0.1560884
0.7925554,-0.3032423,0.03038807,0.5363779,0.9002044,-0.2046925
0.755826,-0.321369,-0.003644722,0.6712604,0.8306972,-0.1939416
0.7789755,-0.2011385,-0.1650104,0.4303413,0.9140323,-0.009485378
0.8189686,-0.1045734,-0.2844893,0.1464819,0.974198,0.1244991
0.884867,-0.190705,-0.2758256,-0.1966558,1.011472,0.1546682
1.159799,-0.265569,-0.1354179,-0.6548174,0.7836888,-0.06568913
1.544861,-0.1928082,-0.04720618,-0.9969733,0.05214135,-0.2397167
1.718196,-0.1810814,-0.04608611,-1.283818,-0.7264419,-0.05053337
1.697027,-0.3434382,-0.02517048,-1.251317,-0.7780212,0.2203538
1.672724,-0.584174,-0.01231846,-0.7284308,-0.3204837,0.2543025
1.645116,-0.7867083,0.01842184,-0.1352428,-0.1201856,0.1397551
1.467964,-0.7718209,0.03023887,0.3748258,-0.1135658,0.03325539
1.190074,-0.5928397,-0.01878396,0.4776106,0.02765189,-0.01459246
1.015363,-0.3862982,-0.06396759,0.2877482,0.1684862,0.02481028
0.9268796,-0.1339602,-0.07837724,0.2192073,0.04991707,0.09847038
0.8169205,-0.01492868,-0.06198568,-0.07969359,-0.208615,0.2605197
0.6878161,-0.04682592,-0.06490879,-0.3529826,-0.2893693,0.4249085
0.5609653,-0.08355742,-0.04412007,-0.4037591,-0.308299,0.3665973
0.4818321,-0.1578738,0.003532493,-0.5734476,-0.2839333,0.1899451
0.4982773,-0.1656838,0.01730999,-0.6135902,-0.07669725,-0.03641216
0.5419868,-0.1237781,0.02933819,-0.6149307,0.04969634,-0.2419354
0.562918,-0.1269258,0.007408517,-0.6828105,0.08062453,-0.2867639
0.6095903,-0.08549412,0.008998323,-0.6951339,0.0906426,-0.3157312
0.7069515,-0.06724701,0.0233548,-0.789314,0.01833341,-0.4092398
0.8635572,-0.1075892,-0.01503018,-0.7916678,-0.07084097,-0.5364389
0.9780624,-0.1476971,-0.02555092,-0.7858078,-0.2230781,-0.6041529
0.9792116,-0.2002315,-0.05200287,-0.8548948,-0.2383756,-0.4454153
0.9740088,-0.2440216,-0.0335607,-0.6815505,-0.1465428,-0.2220576
0.9964849,-0.2960614,0.01925407,-0.4200525,-0.1697801,-0.1390112
1.059937,-0.3506485,-0.06457357,-0.3357474,-0.1232858,-0.1115178
1.157288,-0.4073372,-0.1697244,-0.3315584,-0.2056229,-0.03145038
1.250483,-0.4887734,-0.2348216,-0.166609,-0.4375793,0.1153721
1.398832,-0.5312478,-0.2797046,0.1775455,-0.3119158,0.2552166
1.475734,-0.5277267,-0.2790345,0.4677957,0.4459514,0.2689325
1.30966,-0.4516947,-0.2480643,0.6363664,1.313103,0.04240254
1.201332,-0.2750706,-0.1495554,0.572731,1.168377,-0.2742808
1.49821,-0.1198685,-0.1055876,0.3760883,0.6324827,-0.2991839
1.751465,-0.01731278,-0.1362213,0.3807176,0.629171,-0.08205818
1.445299,0.02722679,-0.07008638,0.3415849,0.3439629,0.01608935
1.059271,-0.04918209,0.04026825,0.03662315,-0.01405018,-0.082005
0.9819522,-0.1365669,0.07556676,-0.3092501,-0.344713,-0.1890975
0.9531583,-0.1750865,-0.01747913,-0.4142645,-0.9082222,-0.1429398
0.9537836,-0.1955399,-0.1495844,-0.1573559,-0.6884504,-0.01963152
0.9672013,-0.1484983,-0.1775569,0.005086445,-0.3807753,0.06570208
0.9090504,-0.1005426,-0.1717472,-0.06204368,-0.4145394,0.05634869
0.8921192,-0.09752081,-0.1631784,-0.06099538,-0.01798647,0.01063171
0.8388359,-0.09807241,-0.1159257,-0.08792064,-0.01732643,0.1249907
0.74958,-0.1297143,-0.06447379,0.01626487,-0.07704513,0.2736068
0.7282456,-0.1528413,0.0004321813,0.2349693,0.2578032,0.3221122
0.7007039,-0.12477,0.04650398,0.2939901,0.3110296,0.3532329
0.6989386,-0.05256776,0.01529188,0.2767746,0.4272958,0.3549375
0.6918295,0.04292822,-0.06425985,0.004621831,0.3978665,0.4601486
0.6394299,0.06589236,-0.1070744,-0.4866144,0.2451442,0.6187763
0.6532789,-0.02082443,-0.06393618,-0.7819109,0.3547278,0.6387417
0.7110597,-0.1404382,-0.008020146,-0.7976683,0.288675,0.5999524
0.8174469,-0.2235447,-0.02307176,-0.6567766,0.2132848,0.4688244
0.9157546,-0.2569218,-0.086303,-0.4884099,0.2370983,0.2904382
0.8880391,-0.2270947,-0.1712019,-0.3543356,0.4095538,0.2648975
0.8696438,-0.2008689,-0.2377917,-0.3191862,0.7152221,0.3141521
0.9155188,-0.2915203,-0.2032107,-0.3802509,0.7222289,0.2405194
1.003828,-0.3902987,-0.1223478,-0.5392515,0.7709432,0.05144192
1.177216,-0.3898874,-0.03209985,-0.7241315,0.8017185,-0.1321663
1.340397,-0.3747371,0.04960532,-0.7593975,0.2411146,-0.1787745
1.593447,-0.3806468,-0.05409194,-0.9953685,-0.481413,0.03672865
1.952853,-0.415909,-0.149719,-1.322165,-0.6464489,0.2084983
1.948364,-0.5294549,0.01961983,-0.8159398,-0.4790472,0.05898651
1.714199,-0.6474627,0.1130113,0.07629103,-0.485629,-0.1157423
1.575883,-0.5749444,-0.02930595,0.2945524,-0.152501,-0.1949118
1.21131,-0.3861302,-0.1204208,0.1966287,0.439337,-0.2101155
1.044439,-0.3051644,-0.06487721,0.1097635,0.3922531,-0.09214746
1.157032,-0.235135,-0.01402252,-0.1227187,-0.008144309,0.09854576
0.823312,-0.1297482,-0.01951122,-0.2515663,-0.3235166,0.3052626
0.6272187,-0.1187695,-0.01043059,-0.344613,-0.4323434,0.3846869
0.6799083,-0.1477436,-0.0242614,-0.552588,-0.2762125,0.2683311
0.5061051,-0.1252407,-0.03410837,-0.7239718,-0.2166473,0.09044209
0.5680696,-0.08958744,-0.02050145,-0.8350935,-0.1471136,-0.1277267
0.6061789,-0.1032131,-0.0536866,-0.9102857,0.04261513,-0.2900085
0.5399949,-0.1214966,-0.04470222,-1.000562,0.1203056,-0.2873978
0.6509415,-0.1345547,-0.01917446,-1.020251,0.1030385,-0.3229727
0.6042964,-0.1544036,-0.03395397,-0.9669847,-0.04621826,-0.4147623
0.6244106,-0.1238346,-0.04818667,-0.9466771,-0.2319383,-0.3868057
0.7394274,-0.1201593,-0.09292081,-0.8509392,-0.3365052,-0.3536052
0.8007731,-0.1725943,-0.09349783,-0.6752822,-0.3411909,-0.3488794
0.9169957,-0.2392591,-0.08901049,-0.4294998,-0.2146785,-0.3032656
0.895579,-0.3025211,-0.1235604,-0.2123519,-0.1629562,-0.2793652
0.9221681,-0.291957,-0.0810001,-0.09026512,-0.1646511,-0.2552443
1.05161,-0.2841993,-0.07115353,0.08793546,-0.2249265,-0.235447
1.165177,-0.3201195,-0.1711059,0.1202652,-0.4993682,-0.1501301
1.396951,-0.3710809,-0.3137844,0.003735092,-0.7501758,0.1852034
1.59428,-0.4851906,-0.4926382,0.09093415,-0.582481,0.6195146
1.67636,-0.5631153,-0.5661168,0.4897849,0.4146321,0.7088973
1.51946,-0.5062367,-0.321891,1.017,1.398745,0.1952512
1.160146,-0.3447384,0.02245756,0.9778385,0.991151,-0.5137777
1.099005,-0.1525919,0.001587707,0.3263895,0.2811296,-0.6537535
1.348141,-0.01694361,-0.1487503,-0.04378757,0.2561381,-0.186272
1.518785,0.07583546,-0.1156788,0.0001456712,-0.04093053,0.2484709
1.419834,0.1161241,-0.1660384,-0.0400256,-0.2093171,0.2981949
1.193206,0.01880022,-0.1957679,-0.3901826,-0.01451232,0.09648507
1.019475,-0.1033584,-0.119951,-0.6978717,-0.3597382,-0.1130836
0.7954183,-0.1161545,-0.133959,-0.6442457,-0.6013344,-0.176162
0.6639443,-0.1231871,-0.1541813,-0.5601591,-0.535547,-0.01362715
0.7491406,-0.1093837,-0.2150617,-0.5111424,-0.5077436,0.2288462
0.852551,-0.05225447,-0.2591914,-0.4246504,-0.1636926,0.2880917
0.9416654,-0.08320274,-0.210468,-0.4173984,0.1395541,0.2636726
0.955759,-0.1191897,-0.171495,-0.4047282,0.4061049,0.3111807
0.9117849,-0.1167788,-0.05957318,-0.3805373,0.580639,0.3377641
0.9108305,-0.1124729,0.002025461,-0.380249,0.4690535,0.3529304
0.8605621,-0.0507679,-0.05079308,-0.5078336,0.5196372,0.353595
0.814778,-0.02349023,-0.04491591,-0.7135729,0.4841729,0.3265177
0.8325603,-0.0499874,-0.03556033,-0.759137,0.4432973,0.381595
0.8556646,-0.07926005,-0.04423858,-0.7280804,0.5677694,0.4800326
0.9020381,-0.1146068,-0.0444342,-0.700561,0.6806495,0.5079321
0.9326293,-0.08261331,-0.06199576,-0.683765,0.9750976,0.3857723
0.8755647,-0.04365751,-0.06884521,-0.7889421,1.028127,0.1814581
0.7855235,-0.06889883,-0.03132209,-0.9665053,0.8035558,0.1427374
0.7896868,-0.0722529,0.01406941,-1.011781,0.6671536,0.2236471
0.8933139,-0.05496347,-0.01798403,-0.9381102,0.6420463,0.2252729
0.9800161,-0.04906896,-0.03180124,-0.8917843,0.9618667,0.1605616
0.9570596,-0.01013236,0.05013622,-0.8428787,1.239677,0.04430657
0.8836586,0.02768425,0.07097418,-0.9681548,0.9888551,-0.03638762
0.8030402,-0.01340007,-0.08192185,-1.402458,0.4441016,0.02010702
0.7254745,-0.1234468,-0.2604322,-1.845917,-0.09292909,0.05196879
0.9711222,-0.3709778,-0.2806848,-1.974669,-0.3321154,-0.08701261
1.450058,-0.6950312,-0.2973069,-1.702653,-0.1327664,-0.3053964
1.602141,-0.7134027,-0.3427736,-1.365703,0.1417294,-0.416198
1.604937,-0.5414904,-0.2468818,-1.159498,0.2279272,-0.3024877
1.800093,-0.4995101,-0.1448255,-0.9233518,0.2221408,-0.1132974
1.954034,-0.3469642,-0.07083251,-0.7399751,0.005253279,0.02957164
1.828952,-0.2200688,-0.08796214,-0.6887692,-0.1047449,0.2419686
1.541599,-0.2682296,-0.2410517,-0.7995851,0.2599844,0.3345368
1.365768,-0.2448751,-0.1927775,-0.9092131,0.5246572,0.2292381
1.228759,-0.3598637,-0.05429996,-0.6892347,0.3937001,0.2690717
1.079119,-0.4265787,0.008380251,-0.4228977,0.2052576,0.3601761
0.95199,-0.2783934,0.06115701,-0.425641,0.1799416,0.4235063
0.6799606,-0.2374237,-0.0587349,-0.6702005,0.1190202,0.5649014
0.5048595,-0.09233151,-0.128024,-1.089028,-0.09794576,0.582099
0.5373174,-0.0300986,-0.08814183,-1.276617,-0.2736422,0.5490504
0.612531,-0.2180299,-0.08522997,-1.094121,-0.3466235,0.4566251
0.801841,-0.3170531,0.001835652,-0.8667578,-0.05851439,0.1316436
0.8914233,-0.3963387,-0.003743923,-0.6922844,0.3843235,-0.2042674
0.8461718,-0.3190399,-0.03788606,-0.6258668,0.5540376,-0.4098876
0.8233478,-0.1459453,0.003188623,-0.6967423,0.587211,-0.4214775
0.7252131,-0.07023164,-0.01193526,-0.7591825,0.41006,-0.3218173
0.6524279,0.04353778,0.02151117,-0.9189559,0.2699588,-0.2876857
0.6545581,0.02482699,0.01308901,-1.168767,0.3247022,-0.2271497
0.6737089,-0.03857018,-0.02542099,-1.227915,0.2805832,-0.2537975
0.6857538,-0.05031341,-0.01367251,-1.290698,0.2399234,-0.3938308
0.6482466,-0.0962058,-0.05826018,-1.441225,0.1800271,-0.4422292
0.6381618,-0.06016976,-0.07354263,-1.528978,0.000626526,-0.4250185
0.6876662,-0.07880232,-0.07231531,-1.68042,-0.356433,-0.2604076
0.8534465,-0.1625281,-0.06404161,-1.584205,-0.7509092,-0.0299962
1.114969,-0.2680883,-0.00813698,-1.162627,-0.7905557,-0.04766176
1.253894,-0.4337122,-0.0005557353,-0.7342924,-0.4286896,-0.2289845
1.226136,-0.4979345,-0.08130305,-0.2918311,0.0834279,-0.2882274
1.233329,-0.5156193,-0.2588559,-0.07134738,0.2109732,-0.01329113
1.40688,-0.5147997,-0.3828309,0.0999285,0.008395238,0.4245464
1.549044,-0.4488013,-0.3530942,0.4242862,0.1477183,0.4632428
1.506637,-0.4000679,-0.3008568,0.467815,0.7495877,0.03249145
1.470977,-0.3348529,-0.2379194,0.3033413,1.200215,-0.292768
1.525853,-0.2219039,-0.128525,0.1939994,0.5700274,-0.1889281
1.492965,-0.09670788,-0.06146408,0.3651116,-0.245939,-0.06236138
1.28501,-0.1012072,-0.1078179,0.5258552,0.07880906,-0.1755551
1.01226,-0.1630727,-0.1522212,0.02559333,0.1199838,-0.2482025
0.8579234,-0.09487495,-0.1162841,-0.4261851,-0.5899671,-0.2815428
0.8786491,-0.1287967,-0.1188642,-0.2853985,-0.8719092,-0.1689511
0.8622286,-0.1986699,-0.1499646,-0.1771022,-1.021463,0.1393577
0.7807179,-0.1172867,-0.1901989,-0.2398044,-1.008841,0.1264209
0.7771205,-0.106568,-0.2743931,-0.2187863,-0.808378,0.02924822
0.7703708,-0.1095404,-0.267795,-0.1524984,-0.7403958,0.1369193
0.7976013,-0.1074362,-0.1864412,-0.08505702,-0.3322124,0.1267607
0.8288953,-0.1593791,-0.1560846,0.07753007,-0.09901188,0.1925481
0.7868414,-0.1256529,-0.1449504,0.1128509,-0.2319392,0.2664366
0.7746841,-0.1036545,-0.1452071,-0.007678684,-0.1849433,0.2103821
0.7314959,-0.1025872,-0.1247586,0.0415116,-0.1522865,0.2572662
0.7240392,-0.0882704,-0.07127137,0.2026565,0.006577019,0.26084
0.7513269,-0.1118686,-0.06308544,0.4302266,0.1637035,0.3006538
0.6884683,-0.07670951,-0.08038176,0.4774653,0.1536259,0.4692684
0.6810617,-0.05617663,-0.1120771,0.2102809,0.2625819,0.6210394
0.7242038,-0.104738,-0.1353154,0.12493,0.4280121,0.7052091
0.7953945,-0.1601259,-0.08542564,0.3324113,0.5788193,0.5216851
0.8768978,-0.2184089,-0.05491902,0.633881,0.5440262,0.2322759
0.8571369,-0.219862,-0.1291035,0.7852767,0.5436916,0.1120212
0.844319,-0.2068218,-0.2239876,0.7388189,0.8478887,0.06401946
0.874487,-0.227722,-0.2464305,0.6564363,1.121417,-0.004952771
0.968066,-0.2502565,-0.2470552,0.2382194,1.171721,-0.1763016
1.201612,-0.2854707,-0.2397039,-0.4421685,0.8670238,-0.3088055
1.428304,-0.3172548,-0.122895,-0.7430516,0.2658095,-0.2208721
1.541797,-0.3692553,-0.00596947,-0.5550513,-0.2961997,-0.08875511
1.666085,-0.4698663,-0.02412544,-0.3558738,-0.4076432,-0.06438107
1.807201,-0.5419801,-0.0399934,-0.125586,-0.1155084,-0.1557032
1.734889,-0.5150398,0.008277478,0.406055,-0.01373034,-0.2544494
1.499785,-0.4310488,0.006935723,0.5118964,0.07247866,-0.1560473
1.288157,-0.3362574,-0.03156623,0.1570659,0.2150521,0.03120017
1.074187,-0.2493349,-0.03578745,0.09934712,-0.08192693,0.1277262
0.9546891,-0.2732073,-0.01188223,0.1128949,-0.4193926,0.2287753
0.8698411,-0.3564502,0.03851775,0.2854589,-0.4107788,0.2565598
0.6908437,-0.3628452,0.04757855,0.5858538,-0.3548932,0.1635666
0.5833629,-0.3333651,0.006288181,0.5096873,-0.3211303,0.09362558
0.5423727,-0.2431335,-0.003497455,0.4170727,-0.2059425,-0.02332064
0.5425008,-0.1212492,-0.01905898,0.3614052,-0.1329085,-0.1630754
0.6200187,-0.05894745,-0.03326376,0.1436975,-0.09028524,-0.2894476
0.6774688,-0.02327476,-0.03373782,-0.07627538,0.0008519781,-0.4489405
0.700961,-0.04910532,-0.04913209,-0.3831421,-0.2103861,-0.4795232
0.6481611,-0.09692783,-0.05454033,-0.5912447,-0.5592107,-0.3691886
0.5994727,-0.1300651,-0.09003032,-0.4884557,-0.5798574,-0.2129037
0.6824836,-0.1760914,-0.1374941,-0.3735169,-0.5739427,-0.1066309
0.7946622,-0.1812354,-0.1487961,-0.3767594,-0.4960617,-0.1736344
0.875568,-0.2252619,-0.1207918,-0.3097054,-0.2212703,-0.3187967
0.8654977,-0.2752937,-0.07436366,-0.262077,-0.1888908,-0.4365239
0.8186447,-0.258417,-0.09557653,-0.3048109,-0.2613105,-0.424952
0.8719175,-0.3224314,-0.1584552,-0.2583364,-0.3087355,-0.2039332
1.028797,-0.4404754,-0.2627715,-0.1661061,-0.6668299,0.11647
1.36345,-0.5133888,-0.4443366,0.03345116,-0.7989981,0.3736989
1.616371,-0.531123,-0.4963327,0.3882909,0.1886458,0.3442383
1.517349,-0.5197182,-0.2606068,0.7604583,1.260414,0.05596939
1.461212,-0.4852419,0.001748654,1.088667,0.8806234,-0.1371003
1.517205,-0.263106,-0.0218263,1.191747,0.3166186,-0.09586397
1.418086,-0.00784757,-0.08467015,1.193425,0.5396342,0.02240673
1.347211,-0.02708972,-0.004526551,0.9783413,0.3604125,0.03172405
1.308444,-0.01403412,-0.04021567,0.2519292,-0.0262755,-0.01356002
1.21787,0.1259057,-0.07877196,-0.2162474,-0.4445179,-0.00317002
1.164337,-0.03330048,-0.08547258,-0.1623403,-0.9270226,0.04397235
0.9726806,-0.2541662,-0.1897772,-0.2119162,-0.6267689,0.1201463
0.7934872,-0.2316705,-0.1384405,-0.2227142,-0.5205559,0.0870841
0.856329,-0.2561386,-0.05144516,0.002241797,-0.675007,0.007626842
0.8826516,-0.2735794,-0.07986337,0.2666631,-0.2097216,0.02273392
0.8720032,-0.2051397,-0.06460265,0.5103014,0.07600091,-0.01316878
0.892758,-0.1623812,-0.08587516,0.6173984,0.3030903,-0.007394158
0.7897969,-0.05528822,-0.08203359,0.6044407,0.366091,0.06705743
0.6534027,0.008641979,-0.04371856,0.6484264,0.09279263,0.1439342
0.5861179,0.01256197,-0.06972806,0.6434654,0.1188295,0.3178542
0.5827126,0.03750275,-0.06231109,0.4794445,0.09270078,0.3888539
0.577704,0.02433207,-0.07120573,0.2790141,0.2293507,0.323973
0.5853615,0.01029904,-0.07873683,0.1260254,0.4654835,0.2556781
0.661486,-0.0495853,-0.04222378,0.06222156,0.3696887,0.1154665
0.6506292,-0.09103527,-0.04614755,-0.02886401,0.308975,0.01072573
0.6234367,-0.06701123,-0.07417725,-0.1323683,0.1118123,0.05738286
0.6928203,-0.1173876,-0.1443312,-0.04516949,0.06420519,0.2012808
0.757882,-0.2035911,-0.2229552,-0.01781329,0.5266237,0.274328
0.9734863,-0.2847092,-0.2558098,-0.1733275,1.211636,0.0285496
1.373306,-0.303266,-0.2486324,-0.4111616,1.509601,-0.4825171
1.671367,-0.2477317,-0.2167321,-0.8502221,0.7207365,-0.7566035
1.713958,-0.2522791,-0.2208847,-1.150649,-0.1807821,-0.5296306
1.663274,-0.3294264,-0.1621289,-0.9974577,-0.4008566,-0.1130531
1.718463,-0.5046371,-0.06352017,-0.6170925,-0.5896609,0.2106496
1.708974,-0.6952686,-0.0863055,0.01162987,-0.4802597,0.2237812
1.578277,-0.6847502,-0.09692983,0.7515561,0.07711323,0.01426035
1.419103,-0.4775575,-0.0612735,0.8784226,0.368349,0.02931871
1.196465,-0.2457339,-0.08697495,0.4407157,0.4691371,0.108478
1.08951,-0.1161636,-0.1116422,0.00396447,0.3962041,0.1557784
0.9783232,-0.004814297,-0.1141989,-0.6466252,0.02765099,0.4107469
0.7564214,0.07308746,-0.1014204,-1.288528,-0.03438001,0.5818679
0.7502524,-0.06164045,-0.05314625,-1.412135,-0.01759231,0.5761861
0.7682279,-0.2322492,-0.006832278,-1.340541,-0.116882,0.4342778
0.6966349,-0.2856622,0.001538745,-1.19897,0.09659909,0.1813388
0.7133295,-0.3117571,-0.03066146,-1.019692,0.2051791,0.1705954
0.6313775,-0.254586,-0.05438038,-0.9661398,0.232487,0.2407345
0.5888014,-0.1660637,-0.01825149,-0.9795179,0.2509641,0.1952153
0.6729744,-0.1186529,0.03814582,-1.034064,0.04380602,0.1795502
0.6641213,-0.07495191,0.03511919,-1.053521,-0.09717683,0.1395618
0.6664353,-0.08362422,-0.06612273,-1.12848,-0.2504708,0.147842
0.6988841,-0.08420007,-0.1690879,-1.225744,-0.1585693,0.1919676
0.7628624,-0.1065869,-0.1277623,-1.183408,0.04978301,0.169045
0.8918603,-0.2209664,-0.05671725,-1.025155,-0.01632939,0.07111889
0.935423,-0.2744996,-0.04083622,-0.6917407,0.2652316,-0.18336
0.9099578,-0.2633181,0.03787662,-0.4490586,0.6608874,-0.4423792
0.8538672,-0.2704172,0.00407474,-0.4440635,0.6668351,-0.4749088
0.8454928,-0.3322058,-0.2522047,-0.441034,0.3664816,-0.1789614
1.11371,-0.4883557,-0.5079704,-0.3009493,-0.2683514,0.3307029
1.628881,-0.6316452,-0.6432485,0.2534215,-0.372271,0.4988404
1.906737,-0.6938797,-0.556734,0.9068937,1.048717,-0.001990301
1.656335,-0.6875505,-0.2680415,1.018118,2.509923,-0.5965205
1.439263,-0.4844597,-0.01207789,0.937586,1.622006,-0.6557119
1.522654,-0.07497661,-0.01769324,0.9138311,-0.07216546,-0.4893802
1.457701,0.1619436,-0.1373885,0.4522776,-0.3531129,-0.4131372
1.274259,0.08713195,-0.02299902,-0.3739282,-0.373635,-0.2149559
1.121834,-0.01701716,0.00374988,-0.9812052,-0.6674292,-0.05113079
0.9990636,-0.1585812,-0.1626756,-1.01184,-1.135393,0.01791094
0.9977736,-0.3244412,-0.1792656,-0.6481516,-1.350479,0.1437644
0.9052846,-0.3237226,-0.2189964,-0.3859587,-0.8883084,0.07755853
0.6968002,-0.2844237,-0.2405604,-0.155656,-1.003865,-0.09758819
0.5770734,-0.2738167,-0.2303104,-0.05673359,-0.9390284,-0.1884231
0.5821761,-0.2404572,-0.2446301,-0.1034649,-0.3918509,-0.2584658
0.7146774,-0.2272812,-0.1017856,0.3019258,-0.361621,-0.1816702
0.8014779,-0.192374,-0.06963722,0.7165031,0.03509637,-0.1070243
0.8391186,-0.1088867,-0.118433,0.7596257,0.2735586,-0.110656
0.8965278,-0.01268265,-0.1069306,0.6988258,0.31672,0.01419513
0.8519302,0.02768632,-0.1199066,0.4816702,0.5272115,0.1280668
0.7938125,0.02986242,-0.02422323,0.3396191,0.268652,0.1597972
0.7450906,0.06825194,0.02664959,0.1353001,0.3435951,0.1521435
0.7052451,0.04304127,0.002447874,-0.1569015,0.2666575,0.1448654
0.7016569,-0.03019112,-0.006188248,-0.2927154,-0.05116687,0.2435936
0.6775926,-0.04798521,-0.03394392,-0.5103741,0.1205002,0.3698759
0.7768131,-0.1200061,-0.03025747,-0.5694229,0.2807114,0.4647217
0.9098036,-0.2194278,-0.05396154,-0.3080061,0.675593,0.4484458
0.9133191,-0.2465,-0.05034294,0.02751606,0.7400269,0.3393247
0.8763221,-0.3062671,-0.07776762,0.2247242,0.5712353,0.2317443
0.7856245,-0.3619718,-0.1823956,0.1418623,0.9000243,0.0006289814
0.7816788,-0.3249946,-0.2772137,-0.208399,0.9014378,-0.2706814
1.090342,-0.2932514,-0.3635567,-0.6567667,0.7650374,-0.4747593
1.476405,-0.2816391,-0.2383668,-0.5479841,0.4562496,-0.5312629
1.510252,-0.3071057,-0.07675848,-0.2998609,-0.1241743,-0.2798647
1.455042,-0.4193556,-0.1214125,-0.4945157,-0.2599324,-0.09008686
1.654898,-0.516319,-0.09544423,-0.1314617,-0.4328084,-0.2532012
1.693431,-0.5576433,-0.03593435,0.6109138,-0.5321648,-0.3603188
1.564008,-0.5346272,-0.07782976,0.9741995,-0.1964983,-0.1640141
1.4915,-0.4231244,-0.07661236,1.083969,0.09819939,-0.01533039
1.3114,-0.2845324,-0.02287528,0.96159,0.3420405,-0.06770867
1.118917,-0.1283889,-0.001643175,0.8232779,0.04242902,-0.0550919
0.903722,-0.02093158,-0.02410014,0.4287231,-0.6639992,0.0486548
0.6905415,-0.0139316,-0.04486142,-0.02397753,-0.6336266,0.2092845
0.6180915,-0.03152986,-0.03133276,-0.1241125,-0.4729957,0.3609665
0.6088473,-0.08716885,-0.0198111,-0.3274491,-0.6600367,0.3075107
0.6758045,-0.1862521,-0.04353595,-0.2441349,-0.5114131,0.1622527
0.6995947,-0.2718714,-0.05017161,-0.02096974,-0.2805779,-0.008276706
0.6698198,-0.2802055,-0.0376484,-0.1190074,0.01494746,-0.2352874
0.6103745,-0.1975849,-0.0364217,-0.05674969,0.2627768,-0.384803
0.4628124,-0.1080798,-0.01787051,-0.1401099,0.02822293,-0.4214896
0.4285475,-0.01400311,-0.02547324,-0.3232984,-0.4201941,-0.3574921
0.3976954,0.06695157,-0.115641,-0.4514856,-1.253725,-0.2413707
0.3915712,0.04333476,-0.2324329,-0.6915603,-1.831646,-0.1187587
0.6967904,-0.096185,-0.2499811,-0.5752851,-1.528013,-0.06473387
1.042183,-0.2875728,-0.2204411,-0.3867402,-1.208084,-0.163081
1.138172,-0.4506329,-0.2875262,-0.2485939,-0.679533,-0.1772723
1.136663,-0.5840566,-0.3595054,0.08749815,-0.0350517,0.02216524
1.285329,-0.6553411,-0.3964405,0.5620102,-0.02646693,0.2425245
1.580297,-0.637484,-0.4194248,1.536953,0.3090398,0.2731651
1.818509,-0.6174099,-0.3549034,2.25633,1.285007,-0.0117086
1.75553,-0.5287344,-0.2653471,2.017034,1.627075,-0.2956465
1.552411,-0.2755965,-0.2204128,1.848547,0.9661468,-0.3143343
1.56414,-0.004245251,-0.1862586,1.810262,0.1042971,-0.2877228
1.384503,0.09155813,-0.1391096,1.204173,-0.3131849,-0.1996948
1.048178,-0.007612524,-0.1466263,0.6029032,-0.418228,-0.03547185
0.9732627,-0.1192669,-0.186654,0.4667339,-0.7651244,-0.0718932
0.8661541,-0.1839152,-0.1729822,0.5370265,-1.170049,-0.1670101
0.8904757,-0.2998309,-0.2096459,0.681137,-0.7512532,-0.1501363
0.9525408,-0.3252872,-0.2253031,0.8008205,-0.15459,-0.2203231
0.7634676,-0.2035404,-0.1891194,0.9256331,-0.3529015,-0.1988707
0.7105368,-0.09717702,-0.2401586,0.8883185,-0.4418047,-0.009657311
0.685578,-0.02212779,-0.2444122,0.5902367,-0.2924715,0.07186448
0.7051215,-0.02978093,-0.2140438,0.463067,-0.3428307,0.1806346
0.7934037,-0.09388962,-0.1881041,0.4729078,-0.1879399,0.2862353
0.7255871,-0.1165162,-0.1088366,0.5301502,-0.2110748,0.3136385
0.7474085,-0.1479797,-0.07983065,0.7428155,-0.3052775,0.398886
0.7455592,-0.1317685,-0.03597131,0.944483,-0.06239135,0.3760735
0.7151308,-0.09715588,-0.01087879,1.050427,0.06363369,0.3804394
0.7700554,-0.1067746,-0.1096671,0.8911986,0.1578397,0.5155095
0.7285582,-0.09250645,-0.1772493,0.6873092,0.2624032,0.5519068
0.7236503,-0.1137116,-0.1258711,0.6329286,0.3979903,0.4421183
0.705656,-0.1682497,-0.06808818,0.5753353,0.6517606,0.1906763
0.6832427,-0.2377259,-0.1202811,0.7492724,0.6694462,0.07241542
0.7570286,-0.3003631,-0.1999353,0.8731119,0.802726,0.1219391
0.8117877,-0.2798814,-0.2716465,0.6267755,1.321826,-0.01168854
0.9245333,-0.2738953,-0.3047599,0.1713039,1.670489,-0.3876844
1.084059,-0.2689437,-0.1780433,-0.4705844,1.325765,-0.8810537
1.344456,-0.2471187,-0.06465611,-0.9517088,0.3641797,-0.9687757
1.574237,-0.3270716,-0.02780971,-1.058202,-0.4643698,-0.425676
1.519,-0.4312081,0.0215732,-0.7753384,-0.7214021,0.08929534
1.541897,-0.5578882,3.865479e-05,-0.1890342,-0.4442475,0.1681602
1.653545,-0.7538961,-0.03214356,0.2913962,-0.1726797,-0.04871099
1.567075,-0.8054024,-0.03102669,0.6800258,-0.3154317,-0.2088388
1.432832,-0.6738798,-0.01712853,1.021846,-0.3026543,-0.1638847
1.236591,-0.5638097,0.0113289,1.114994,-0.2477255,-0.1240343
1.056841,-0.4172441,-0.02104277,1.030831,-0.3624089,-0.08128873
1.009902,-0.1982848,-0.05408493,0.9056858,-0.3022853,-0.02250336
0.8859131,-0.09089395,-0.03732674,0.7324079,-0.4139306,-0.02652731
0.7501208,-0.05612516,-0.02917293,0.4837867,-0.5254866,-0.04120834
0.6615187,-0.06562476,-0.008510799,0.2796433,-0.4125343,-0.1329072
0.5178419,-0.1149186,0.02015771,0.1016962,-0.3334378,-0.2262208
0.4877892,-0.09129326,-0.000608932,-0.1384831,-0.1736179,-0.2073113
0.5378292,-0.05558912,-0.03904523,-0.3761587,-0.2002489,-0.2028268
0.5106351,-0.01216081,-0.03510361,-0.6052165,-0.4610289,-0.2565637
0.5294704,-0.01582781,-0.03010281,-0.6870817,-0.7405138,-0.3379958
0.5861028,-0.1021804,-0.06234207,-0.6347095,-0.9953903,-0.373465
0.6398753,-0.1567065,-0.1555326,-0.5662697,-1.001261,-0.3187603
0.7843848,-0.2629888,-0.2844865,-0.3917242,-0.8886022,-0.2882326
0.9254328,-0.3175104,-0.283204,-0.2499347,-0.6475732,-0.3524664
0.9796762,-0.2643261,-0.1823094,-0.1559039,-0.272474,-0.4607056
1.005416,-0.2708459,-0.1435154,-0.09306999,-0.1629609,-0.476195
1.016068,-0.2678556,-0.1327943,-0.196294,-0.2406892,-0.2599803
1.091336,-0.3536907,-0.1364959,-0.1392101,-0.228553,0.1026238
1.305713,-0.5116963,-0.1520767,0.3576605,-0.0698019,0.2741643
1.527842,-0.4960045,-0.1728649,1.011,0.318511,0.1691082
1.601847,-0.4350484,-0.2446349,1.17472,0.8157501,0.01199379
1.566157,-0.3884882,-0.2580477,0.8320226,0.8335831,-0.1636147
1.573379,-0.2037238,-0.1857341,0.7648766,0.2890286,-0.340356
1.601541,0.03138096,-0.1189072,0.8355245,-0.0103742,-0.4809756
1.454818,0.07644714,-0.04830136,0.5421203,0.1340104,-0.5587985
1.216063,-0.01767992,-0.05154004,0.120957,0.147984,-0.4596845
1.144614,-0.03069484,-0.1135548,-0.1093003,-0.2821914,-0.2577621
1.161929,-0.08823742,-0.1482027,0.1201379,-0.7088361,0.05182013
1.093199,-0.2332496,-0.2274842,0.4502824,-0.6255197,0.2564524
0.9621227,-0.2697332,-0.2477986,0.5287795,-0.4469255,0.09062732
0.8126085,-0.2494191,-0.175408,0.7016567,-0.3783604,0.00423875
0.6737459,-0.2171967,-0.1744977,0.7962993,-0.2449711,0.01745182
0.5737395,-0.1647043,-0.1683121,0.7607315,-0.3108299,-0.02496897
0.5191574,-0.1670237,-0.1603344,0.8207961,-0.4802812,0.1071162
0.5336264,-0.1962141,-0.1953889,0.7846478,-0.5004436,0.1166339
0.6090899,-0.211497,-0.1519965,0.8619957,-0.4244102,0.03980948
0.6462915,-0.1901226,-0.1077342,1.220775,-0.3214631,-0.07469752
0.5887175,-0.1513424,-0.1144707,1.554119,-0.327891,-0.3895747
0.5388376,-0.1346882,-0.1752834,1.526751,-0.2832804,-0.3804206
0.6103992,-0.09664065,-0.2669865,1.216083,-0.04962129,-0.2038122
0.7596394,-0.04936948,-0.2103028,1.158207,0.0933779,-0.2560939
0.8572071,-0.003077965,-0.1479766,1.307778,0.1558515,-0.3452962
0.8610806,0.06661626,-0.195682,1.342623,0.2471442,-0.5351621
0.8383424,0.08882627,-0.1810007,1.133095,0.4082798,-0.607517
0.921083,0.01954324,-0.165473,0.7154451,0.8157257,-0.5224931
1.189081,-0.06142464,-0.1843359,0.4738625,1.078791,-0.591346
1.566023,-0.0744022,-0.1902613,0.0825241,0.7916856,-0.5937824
1.831869,-0.06738945,-0.2326812,-0.6648752,0.2232122,-0.3785253
1.833822,-0.1560426,-0.2266775,-1.028551,-0.324097,0.02224958
1.759344,-0.4238598,-0.1122998,-0.7925387,-0.5292871,0.4487529
1.744748,-0.7602391,0.003223009,-0.1159084,-0.3539362,0.4948869
1.685012,-0.8161691,0.0001554863,0.7258958,-0.1445466,0.1537175
1.521905,-0.5030639,-0.07919598,1.127565,0.09984767,-0.1607935
1.267602,-0.1599627,-0.1004541,0.9709845,0.2075765,-0.1221525
1.151467,-0.03414559,-0.09836536,0.7539602,-0.1559577,0.1280541
1.159133,-0.06749664,-0.1079621,0.5337934,-0.5265067,0.3633728
0.9880084,-0.1141094,-0.09423858,0.1659525,-0.5519266,0.6184187
0.798486,-0.1632985,-0.08430241,0.168969,-0.5135384,0.6859474
0.7558646,-0.2278051,-0.0631332,0.3580273,-0.4533407,0.553876
0.6875912,-0.2198526,-0.05083913,0.3067167,-0.3064591,0.4553908
0.5462835,-0.2040381,-0.05454982,0.3083959,-0.05239183,0.2376295
0.5333005,-0.2278988,-0.03939106,0.1960045,0.1907867,-0.0326254
0.6384508,-0.1728659,-0.04331029,0.06944958,0.1875939,-0.1630624
0.617806,-0.09737955,-0.03704413,-0.01409469,0.02767131,-0.225528
0.6239929,-0.0718835,-0.02845642,-0.2590679,-0.2094781,-0.2188427
0.6758773,-0.08501114,-0.04635461,-0.2626399,-0.4858401,-0.2143068
0.6572004,-0.151524,-0.04413315,-0.1611246,-0.725327,-0.1615676
0.7311337,-0.1861806,-0.06494868,-0.05193475,-0.8294164,0.03576621
0.7597489,-0.1848904,-0.1053079,0.1740685,-0.650683,0.1258766
0.8097024,-0.1911242,-0.1220411,0.2021118,-0.3996042,-0.001579737
0.9684028,-0.1890873,-0.0972357,0.2746828,-0.1884601,-0.2133853
0.9724951,-0.1898106,-0.03947857,0.4440459,-0.01399038,-0.4417195
0.9559867,-0.1759548,-0.05529747,0.3815827,-0.03659636,-0.5228359
0.9849718,-0.1854216,-0.1109075,0.3258382,-0.1412084,-0.2319887
1.079375,-0.2559432,-0.1809284,0.4089949,-0.1981297,0.2457045
1.364221,-0.3746789,-0.3017956,0.5495895,-0.007060026,0.4112309
1.526232,-0.4855595,-0.3038612,1.009465,0.4676764,0.1752522
1.368068,-0.4943603,-0.1796511,1.56106,0.7381249,-0.1013045
1.169106,-0.4273604,-0.1040968,1.532231,0.6589285,-0.152426
1.239803,-0.2897544,-0.1397379,1.194331,0.38925,-0.006948433
1.521088,-0.07706083,-0.2661707,1.07178,0.03687128,0.2052497
1.705492,0.04920288,-0.3151282,1.084639,-0.1314512,0.2793187
1.47996,-0.06749952,-0.1706356,1.013662,-0.06824354,-0.02430144
1.010241,-0.2642763,-0.004525436,0.7250905,-0.171801,-0.4880834
0.9004103,-0.2557449,-0.03606129,0.5543097,-0.5953039,-0.5959898
0.950088,-0.1901192,-0.1485184,0.6518412,-0.8585819,-0.2680176
0.8931689,-0.1638255,-0.1925003,0.6926637,-0.8135785,0.07204621
0.9506572,-0.07853566,-0.2731647,0.7043112,-0.7296491,0.1235569
0.916033,-0.09921111,-0.2763926,0.6540211,-0.5741883,0.1054309
0.8822368,-0.1646858,-0.2026287,0.5500059,-0.3457909,0.1572476
0.9141371,-0.1832658,-0.1927982,0.6339533,-0.1507047,0.1570517
0.8249602,-0.2092572,-0.09092657,0.705532,-0.0801267,0.1537271
0.7980766,-0.1423728,-0.04509454,0.6238374,-0.05621737,0.1591381
0.777614,-0.07576667,-0.1023566,0.5130905,0.07047403,0.1595658
0.7963177,-0.05073398,-0.05314456,0.407525,0.1155227,0.2075763
0.839446,-0.01680602,-0.04213561,0.4560562,0.001106871,0.2684512
0.7224785,-0.01232308,-0.04960002,0.5234575,-0.1675252,0.3311034
0.6362913,0.02172706,-0.05538064,0.2929502,-0.2010518,0.3533319
0.6244755,0.0115883,-0.1061972,0.01943839,0.04350134,0.3215305
0.7197735,-0.08329564,-0.04729296,0.01918158,0.2267675,0.3025493
0.861391,-0.1915595,-0.006425,0.226891,0.137122,0.2925341
0.8601898,-0.2456127,-0.07195098,0.4553587,0.09730661,0.3133803
0.856216,-0.1568834,-0.1274705,0.4761885,0.361207,0.3399607
0.8473369,-0.0709347,-0.1514484,0.3962696,0.6850831,0.2862313
0.8152194,-0.07903043,-0.1278398,0.3578833,0.8783263,0.1798816
0.8666873,-0.1345859,-0.1090652,0.07814382,1.177252,0.05069723
1.081347,-0.2605667,-0.1142339,-0.4429041,1.426964,-0.0994493
1.525903,-0.3271179,-0.1210782,-0.8279795,1.174546,-0.157123
1.904109,-0.3230418,-0.1421289,-0.9413565,0.5973517,0.05141326
1.983144,-0.4407677,-0.1165033,-0.942684,0.269973,0.3665785
1.872121,-0.63678,-0.03324065,-0.7427728,0.2510653,0.379071
1.524432,-0.7089098,0.0518479,-0.1643868,0.1576669,0.15421
1.082816,-0.6697385,0.09125813,0.1923645,0.04170913,-0.04189236
1.051352,-0.6129899,0.04901652,0.0519659,0.2977639,-0.2119127
1.226785,-0.4325912,-0.006924341,-0.008629607,0.6040111,-0.2567334
1.113742,-0.2009883,-0.03177424,-0.04408826,0.2505019,-0.1451616
1.012773,-0.1576949,-0.05239297,-0.1906948,-0.2583037,-0.005699137
0.732036,-0.3779124,-0.1618575,-1.628305,0.5462536,0.560892
1.107477,-0.4142484,-0.08841283,-1.390627,0.6504981,0.09674543
1.443695,-0.3299493,-0.09454704,-1.362504,0.7849915,-0.08417578
1.617473,-0.3623467,-0.1191211,-1.406,0.576156,0.1309565
1.667549,-0.5829101,-0.1484184,-1.411333,0.1707819,0.3006246
1.655702,-0.8733532,-0.09110019,-0.9638836,0.2608697,0.1838186
1.569876,-0.8800307,-0.05834366,-0.2946609,0.2746286,-0.04990906
1.310868,-0.5678551,-0.08798866,0.02330293,-0.01038868,-0.2884422
1.085307,-0.2823283,-0.116917,-0.1351966,0.04467206,-0.1434297
1.00765,-0.178075,-0.1504845,-0.2520249,0.1511767,0.2356442
0.8679993,-0.1744093,-0.1210005,-0.2584559,0.1876036,0.2808884
0.7551314,-0.2032178,-0.07565065,-0.7540859,0.04014483,0.3143296
0.8097131,-0.3184036,-0.02528865,-1.065351,-0.3022538,0.3048692
0.8648168,-0.492327,0.04153669,-0.6313746,-0.1261591,0.007242641
0.8353445,-0.5058233,0.01029008,-0.2803572,0.1289137,-0.1935261
0.8183701,-0.3783001,-0.06732616,-0.2881581,0.2430756,-0.2870693
0.7655647,-0.2371882,-0.08986095,-0.3574303,0.4608546,-0.2465978
0.6363828,-0.05788802,-0.09153027,-0.4480611,0.2791805,-0.1895467
0.5722744,0.01048574,-0.05221997,-0.6993893,0.1571952,-0.2796289
0.5356492,-0.04639762,0.03976847,-0.9317828,0.2342216,-0.260638
0.4928818,-0.05605047,0.0655483,-0.9654852,0.1379706,-0.3336553
0.5191463,-0.07485642,0.03327981,-1.089517,0.1685891,-0.4107985
0.5947622,-0.0903297,0.0194983,-1.28358,0.03792908,-0.365845
0.778403,-0.0889573,-0.03811782,-1.515632,-0.2895312,-0.4671067
1.011613,-0.2014696,-0.1193122,-1.635486,-0.4097954,-0.4583101
1.165595,-0.3570329,-0.1309121,-1.345261,-0.2764873,-0.3576001
1.241189,-0.4533124,-0.104006,-0.9782274,-0.008045768,-0.2157888
1.266494,-0.5136089,-0.1250815,-0.5845862,0.0733159,0.0999863
1.380388,-0.5418249,-0.183484,-0.08685866,0.1759848,0.3093801
1.522636,-0.5270072,-0.2850751,0.2035847,0.5330469,0.3642844
1.493151,-0.4547093,-0.3842002,0.2434071,1.031288,0.2856502
1.45526,-0.3273585,-0.2631701,0.2643114,1.444508,0.1160572
1.534427,-0.1569957,-0.1066045,0.3474534,1.09368,-0.04193569
1.526991,-0.03716158,-0.1444183,0.0893107,0.5608495,-0.1716995
1.345955,-0.06035775,-0.0640805,-0.328177,0.6537323,-0.111799
1.111677,-0.1452385,0.06458552,-0.3716614,0.2634093,-0.05864119
0.981084,-0.2203498,-0.03273928,-0.4328778,-0.5632758,-0.1051724
0.9858826,-0.2430375,-0.1163387,-0.5505502,-0.6614736,-0.007219589
0.9542122,-0.2122047,-0.125718,-0.4155447,-0.56623,0.09923118
0.9007718,-0.2180785,-0.1601797,-0.3042155,-0.7151365,0.1558916
0.9031519,-0.2182351,-0.1627272,-0.3777363,-0.732844,0.203353
0.8627534,-0.1968189,-0.1901882,-0.4313197,-0.5730075,0.2253893
0.8639773,-0.2230894,-0.1650308,-0.3096224,-0.253033,0.2899426
0.8950336,-0.227687,-0.06224344,-0.2018283,-0.01940792,0.2705252
0.8537157,-0.1605461,-0.05243248,-0.1580289,0.05276835,0.234655
0.8309971,-0.07529513,-0.05397176,-0.138507,0.1091171,0.3023539
0.8084114,-0.04784125,-0.04475566,-0.2653909,0.01662357,0.3757152
0.8123346,-0.07498921,-0.08751452,-0.3988033,-0.06861815,0.520345
0.8574937,-0.07020175,-0.08398419,-0.4488666,-0.001044806,0.5796357
0.8389116,-0.06165287,-0.04052403,-0.3192836,0.03282894,0.4457521
0.7760099,-0.08374965,0.005785289,-0.1088818,-0.007647604,0.4076991
0.6695101,-0.09497378,-0.016579,-0.1610001,-0.05925905,0.4740202
0.6100079,-0.1357958,-0.1163948,-0.2984658,-0.01931647,0.4868754
0.6887149,-0.2122897,-0.1399331,-0.3252168,0.3342424,0.3649365
0.7841619,-0.2596064,-0.05449358,-0.09534707,0.8852106,0.131548
0.8496744,-0.2630074,0.03441264,0.3038205,0.9912317,-0.01687607
0.8489281,-0.2241298,-0.06074645,0.3054171,0.747285,-0.04589139
0.7923234,-0.1564967,-0.2357831,0.06887932,0.7959234,-0.02837242
0.8130367,-0.1178428,-0.2470376,-0.06920985,0.9449644,-0.02558172
0.9115378,-0.1628667,-0.2354595,-0.3053743,0.9982509,-0.1064505
1.107884,-0.2393971,-0.2148158,-0.7146324,0.9509098,-0.2989534
1.383678,-0.2752855,-0.1257982,-1.190886,0.5702983,-0.4590853
1.626717,-0.3388818,-0.07621911,-1.301159,0.04090907,-0.2318798
1.834597,-0.4876698,-0.05164603,-1.025216,-0.2572015,0.1308522
1.840718,-0.5980675,-0.04191641,-0.6909364,-0.1747201,0.1305268
1.557499,-0.5474617,0.02381381,-0.0977129,-0.05653061,0.07693246
1.272426,-0.4776255,0.07732406,0.1781084,-0.01695588,0.05979223
1.179302,-0.4739472,-0.007183645,-0.2046908,0.3560528,-0.1219526
1.205771,-0.3770844,-0.04744227,-0.2867817,0.5564764,-0.1173544
1.147063,-0.2471899,-0.02501649,-0.2317902,0.1304168,0.125956
0.9665286,-0.1757494,-0.03431361,-0.394537,-0.2718316,0.323772
0.7600811,-0.149643,-0.04023889,-0.3643181,-0.2034767,0.3402418
0.5492935,-0.186254,-0.03773697,-0.4457247,0.02521145,0.1757996
0.4513175,-0.1315746,-0.02163348,-0.6477849,0.01026296,0.07283279
0.4494075,-0.09849068,-0.01500477,-0.7315964,0.02670663,-0.005063646
0.487063,-0.1630305,-0.009284647,-0.8073622,0.1465763,-0.1758835
0.577507,-0.1144765,-0.01490767,-0.8285527,0.1601871,-0.3164727
0.5754758,-0.120939,-0.05105739,-0.9379361,0.1437827,-0.3866377
0.5353987,-0.1573945,-0.09059089,-1.03401,-0.1972343,-0.2371225
0.5505871,-0.1274301,-0.1299649,-0.9934852,-0.6604044,0.03694721
0.6191582,-0.2020072,-0.1205832,-0.9839831,-0.8714641,0.1339301
0.7882402,-0.2638709,-0.1105091,-0.8533424,-0.9338246,0.04606393
0.8905869,-0.2995735,-0.1308718,-0.602521,-0.7216431,-0.1604407
0.9202203,-0.2982206,-0.1116044,-0.4524114,-0.4458284,-0.2794927
1.004385,-0.2417881,-0.1102663,-0.5057397,-0.3486835,-0.1906984
1.020531,-0.2633119,-0.1297907,-0.7161608,-0.3905484,-0.0328977
1.082191,-0.2757789,-0.1621896,-0.851933,-0.4476001,0.09587031
1.412622,-0.3682721,-0.2251039,-0.7846566,-0.3292886,0.2098078
1.686514,-0.5112392,-0.2261462,-0.4915165,0.1930285,0.3718558
1.627123,-0.5287556,-0.2131297,0.04265888,1.374281,0.4318648
1.607444,-0.5796487,-0.2414213,0.5707451,2.161481,0.220774
1.679867,-0.5055959,-0.2229337,0.5315503,1.702071,-0.2722502
1.538404,-0.07393338,-0.1606118,-0.07300887,1.050539,-0.670563
1.370577,0.3009251,-0.09455372,-0.6793342,0.5410285,-0.3400472
1.202192,0.1429032,-0.06110107,-0.986488,-0.1866928,0.2286875
0.9673356,-0.2075998,-0.08733973,-0.7623613,-0.7612963,0.3001504
0.9402866,-0.316504,-0.1245861,-0.3975737,-0.9014878,0.2616239
0.9511914,-0.3861068,-0.1733944,-0.2535167,-0.4597426,0.1365272
0.829628,-0.2660815,-0.214503,-0.01190912,-0.04687318,-0.1553942
0.7978685,-0.01262069,-0.2083443,-0.07116219,-0.3159476,-0.1140597
0.8312879,-0.02996026,-0.2364548,-0.3462984,-0.4014213,0.08138151
0.8575119,0.05285162,-0.272905,-0.4499752,-0.1364994,0.2076336
0.8628852,0.09842331,-0.2334184,-0.6643714,-0.0666627,0.3592337
0.8598714,-0.118887,-0.1561548,-0.5930811,0.1676419,0.3575257
0.9052801,-0.1440873,-0.05430965,-0.4381802,0.4366594,0.3427835
0.8987343,-0.1708103,0.01097938,-0.4307593,0.6190143,0.3839544
0.8496232,-0.1746271,0.004825652,-0.1536406,0.7922563,0.3788108
0.7979288,-0.005862178,0.01316519,-0.1271025,0.684392,0.4281431
0.7134986,0.05069635,0.01480853,-0.3523191,0.5400436,0.5311671
0.6868686,0.1067422,-0.02910468,-0.6121178,0.3469852,0.8011013
0.7287426,0.02474691,-0.06585924,-0.9086469,0.1630244,1.097435
0.8084385,-0.1808474,-0.07793361,-0.7955139,0.314912,1.074594
0.8897323,-0.2245006,-0.08288569,-0.6340362,0.5347396,0.7500107
0.911574,-0.2405554,-0.08557538,-0.6304167,0.8469,0.2619362
0.8658591,-0.1845501,-0.07591678,-0.6326784,1.085454,-0.01782017
0.7796972,-0.1466589,-0.06512206,-0.7509458,0.8912192,0.06385058
0.7718785,-0.2091205,-0.08093893,-0.72173,0.6798972,0.09032592
0.8622868,-0.2566842,-0.1301647,-0.6879695,0.6121311,-0.06901942
1.065069,-0.3831675,-0.1805591,-0.792709,0.6763784,-0.2884978
1.376179,-0.4509688,-0.1750451,-0.8359468,0.834907,-0.5991912
1.5089,-0.430389,-0.1440577,-0.9301878,0.6027482,-0.7512611
1.465677,-0.3853157,-0.1180613,-1.030728,0.1766001,-0.4667004
1.50909,-0.290387,-0.03608036,-1.062169,-0.08898972,-0.0677408
1.573295,-0.3230068,0.03043505,-0.9862293,-0.2359963,0.0829675
1.562563,-0.3541182,0.0166479,-0.7988448,0.05874802,-0.003593032
1.470415,-0.276379,0.01239967,-0.7306836,0.3960899,-0.0549971
1.296985,-0.2258604,-0.002035557,-0.7719089,0.2493179,0.2047129
1.17936,-0.1655988,-0.03551475,-0.8802902,0.1507893,0.5437143
1.054258,-0.1560322,-0.04327523,-1.073619,0.0900237,0.6989959
0.7593389,-0.1818597,-0.06203048,-1.206709,-0.2269651,0.6887408
0.574491,-0.1765553,-0.03749997,-1.24943,-0.4816602,0.5935901
0.6143638,-0.2348689,0.02597939,-1.134074,-0.5379824,0.5791439
0.6245743,-0.2696549,0.03386037,-0.8970682,-0.3923788,0.5023791
0.6891477,-0.2505832,0.02491772,-0.781399,-0.1357094,0.2528948
0.820845,-0.2385417,-0.003213093,-0.7759842,0.03120629,-0.02610352
0.8542808,-0.152209,-0.05216201,-0.8440866,0.1046384,-0.2584589
0.8476937,-0.06547514,-0.03648525,-1.075832,0.122936,-0.3189095
0.8141081,-0.03339414,-0.007079336,-1.368143,0.1002561,-0.3156137
0.785619,-0.01060033,-0.01853701,-1.533013,-0.06987757,-0.3011064
0.7576565,-0.04534865,-0.03440603,-1.611102,-0.3264701,-0.1837481
0.7263361,-0.1067895,-0.08002874,-1.690296,-0.3190708,-0.1106725
0.7950417,-0.1967982,-0.1282373,-1.563478,-0.1490537,-0.08494492
0.8548889,-0.2871554,-0.1247588,-1.287665,-0.0734318,-0.08667537
0.8942055,-0.2948959,-0.09890311,-1.170497,0.01200722,-0.1215005
0.9735612,-0.309661,-0.07202474,-1.069266,0.1209263,-0.2053266
1.036241,-0.3372345,-0.0725456,-1.008656,0.2884041,-0.3713831
1.142086,-0.3581403,-0.06862082,-0.9489403,0.5707701,-0.4153601
1.183404,-0.4361623,-0.0520295,-0.5247672,0.6323251,-0.3563754
1.046776,-0.5342173,-0.1873314,-0.1825124,0.208516,-0.1208661
1.013514,-0.6043345,-0.4703723,-0.07130826,-0.3395396,0.4336943
1.390554,-0.6173359,-0.6273414,0.4318209,-0.1147493,0.5887692
1.774863,-0.6007448,-0.465007,1.151117,1.546978,-0.1820764
1.570165,-0.4896069,-0.0842618,1.529021,3.105696,-1.040029
1.29175,-0.1342879,0.1420054,1.101673,2.137835,-1.025787
1.361747,0.2912126,-0.08124118,-0.1417179,0.249427,-0.5527038
1.329776,0.4676112,-0.4089438,-1.214728,-0.2714108,-0.1686425
1.294113,0.3170273,-0.3407916,-1.596627,-0.7901626,0.4613541
1.299644,-0.006286137,-0.222397,-1.73681,-1.10673,0.8750926
1.074774,-0.3676592,-0.2165506,-1.52419,-0.6198198,0.5101396
0.8802486,-0.5643509,-0.03862035,-0.7170174,-0.6127298,0.1652765
0.7605354,-0.4054436,-0.07126295,-0.2336238,-0.4296302,0.1654265
0.6957829,-0.2101441,-0.2162203,-0.2802745,-0.175134,0.1124638
0.7753218,-0.07111851,-0.1594719,-0.1774511,-0.3139468,0.1627128
0.7994208,0.08776446,-0.2233324,-0.2657992,-0.0829774,0.3454211
0.8157307,-0.0345721,-0.2161883,-0.4017406,-0.06082075,0.3860168
0.834699,-0.1426255,-0.1411251,-0.3419668,-0.0503605,0.3532521
0.7968862,-0.1300299,-0.1358901,-0.3867084,0.03119306,0.3277754
0.8028082,-0.246345,-0.009536,-0.07988687,-0.1121435,0.2852065
0.7970939,-0.1888655,-0.0558406,0.2417221,0.1973921,0.2613098
0.8427095,-0.1024189,-0.1577824,0.1238424,0.5307289,0.1959515
0.8988749,-0.08274641,-0.09798238,-0.05800532,0.649418,0.1598675
0.8279341,-0.04015931,-0.04908232,-0.2507855,0.4309184,0.2746982
0.7788973,-0.1417296,0.06393791,-0.3099386,-0.03115647,0.5011336
0.8210087,-0.1411311,0.06000176,-0.3331172,0.06123663,0.7607421
0.9049353,-0.1560335,-0.01750785,-0.3392112,0.2522714,0.8018067
0.9870251,-0.2497496,0.03562511,-0.1787298,0.5417077,0.497966
1.001415,-0.1782223,0.01291716,-0.1190741,0.9670723,0.1000344
0.9226046,-0.1394229,-0.02289024,-0.2186912,0.8605845,-0.09556039
0.7734527,-0.04244971,-0.09544396,-0.4963121,0.6705977,-0.02592507
0.649845,0.04483794,-0.2491296,-0.8035118,0.5205851,0.09281368
0.6673677,-0.08633441,-0.2538785,-0.8953368,0.3226846,0.1330877
0.745077,-0.2373845,-0.2673085,-0.7976859,0.5208369,0.03851332
0.7955363,-0.3680657,-0.3297389,-0.6598397,0.7798128,-0.2705699
1.058506,-0.3895015,-0.2646998,-0.6612225,0.6794255,-0.4868943
1.387909,-0.3436912,-0.2026643,-0.6760805,0.4978099,-0.3709845
1.454414,-0.3784329,-0.1575873,-0.7563041,0.3330141,-0.2656934
1.618346,-0.3913441,-0.1114572,-0.7724662,-0.08616818,-0.3273484
1.831597,-0.4082948,-0.0546206,-0.2782389,-0.8596014,-0.2625692
1.572737,-0.4330991,0.06577422,0.218454,-1.379857,-0.04679453
1.182483,-0.4485841,0.004821782,0.2469945,-0.6981552,0.1872856
1.183374,-0.484958,-0.1394032,0.2919246,0.3298673,0.3254128
1.257613,-0.4354469,-0.09374048,0.4490392,0.2852727,0.1877541
1.120185,-0.3326457,-0.04308742,0.3675517,-0.2062292,0.08339046
0.9694455,-0.2832436,0.0225561,0.2756676,-0.491358,0.1561179
0.7594284,-0.2321083,0.06682144,0.1315921,-0.4112076,0.07273599
0.6114337,-0.1525544,-0.03426812,-0.3479654,-0.1212793,0.03346783
0.682133,-0.08846415,-0.05928174,-0.5829703,-0.2421195,0.09740362
0.7036183,-0.07092951,-0.03297964,-0.5273763,-0.222974,0.03554783
0.7671596,-0.1281447,0.0001365353,-0.4629021,-0.02902346,-0.0895672
0.8332641,-0.1807914,0.07475965,-0.2412581,-0.04624065,-0.3274802
0.7307933,-0.150686,0.05388448,-0.2731924,0.09051315,-0.4979017
0.6947957,-0.09162458,0.0009773488,-0.5528888,0.1076775,-0.4969505
0.687193,-0.03852806,-0.03974113,-0.7915628,0.1330404,-0.5283482
0.6784554,-0.04471796,-0.06231658,-0.9247552,0.007230052,-0.4824826
0.6977081,-0.1268498,-0.06301947,-0.7666609,-0.5754504,-0.3352282
0.6826223,-0.2136652,-0.1115309,-0.5937948,-0.7881924,-0.1971364
0.7764877,-0.2853413,-0.12114,-0.3415646,-0.693898,-0.1587708
0.9266136,-0.3067585,-0.1380936,-0.0566391,-0.4952832,-0.2183049
1.011674,-0.3139886,-0.1995148,-0.1429282,-0.1399441,-0.1801589
1.020729,-0.3732884,-0.182548,-0.1124992,-0.04589805,-0.1304722
1.050247,-0.4281614,-0.1949328,0.1075091,-0.0940687,-0.04757825
1.305042,-0.4833393,-0.299762,0.2542693,-0.09465245,0.1533384
1.545811,-0.503306,-0.33789,0.6231052,0.115142,0.1383122
1.446011,-0.4003302,-0.2351753,0.9486411,0.4553115,-0.05605105
1.340659,-0.2331286,-0.130127,0.9189833,0.5818374,-0.1503426
1.528281,-0.05207867,-0.1617118,0.741125,0.3886592,-0.1094948
1.600968,0.05159687,-0.182794,0.5651131,-0.03087465,0.05641144
1.390913,-0.03989952,-0.1004581,0.5131374,-0.1632437,0.1340906
1.205577,-0.177612,-0.05474558,0.435322,-0.1309058,0.04561214
1.087507,-0.1818583,-0.05515063,0.1318375,-0.3291935,-0.04221076
1.07118,-0.1241267,-0.1149479,-0.03749627,-0.5103528,-0.05966812
1.089289,-0.07877819,-0.2324849,0.08562343,-0.5411844,0.05050966
1.001771,-0.06185202,-0.2478477,0.1101138,-0.4621818,0.1962768
0.9101498,-0.1052463,-0.1972001,0.039339,-0.4567341,0.2199332
0.7777725,-0.1576088,-0.149094,0.09195407,-0.3561385,0.1621136
0.6564312,-0.205367,-0.06906692,0.1940572,-0.1606371,0.1389605
0.6133383,-0.2241961,-0.04270006,0.3659816,-0.2130648,0.162763
0.5817434,-0.1620838,-0.06438998,0.5393674,-0.1867758,0.1633266
0.565763,-0.1090988,-0.06367972,0.6134397,-0.1553972,0.1702681
0.4767825,-0.07507985,-0.06912823,0.7038011,-0.2510042,0.1994988
0.4356656,-0.04839432,-0.08321274,0.6311239,-0.1893716,0.2275679
0.5284374,-0.05623658,-0.07845216,0.3218029,0.005212615,0.2707559
0.5969383,-0.03773265,-0.07127211,0.1075504,0.3250245,0.2758078
0.6590226,-0.04956879,-0.08594342,0.07844584,0.4043673,0.2398509
0.7523652,-0.122483,-0.1110549,0.1417226,0.3159928,0.1884298
0.8581117,-0.1790045,-0.1514573,0.1830686,0.4935716,0.1382276
0.8559475,-0.1846332,-0.1709051,0.2021126,0.6602121,0.1128452
0.816101,-0.1526266,-0.1577152,0.2174169,0.7847791,-0.00489869
0.9741999,-0.1446192,-0.1962747,-0.04335921,0.7423731,-0.2852805
1.154197,-0.1272361,-0.2370019,-0.591668,0.393484,-0.5887434
1.426901,-0.1600894,-0.2308474,-1.076835,-0.1052902,-0.6468765
1.919211,-0.3714569,-0.2754607,-1.116151,-0.8529184,-0.2956053
2.076054,-0.5809146,-0.3439754,-0.5426386,-1.079324,0.2018898
1.846195,-0.6621251,-0.3090019,0.5088587,-0.3902376,0.3686439
1.659692,-0.7701165,-0.1788034,1.577753,0.2052389,0.1061665
1.402736,-0.8244049,-0.0788584,1.670214,0.5631689,-0.1652496
1.173597,-0.566156,-0.07703202,1.082159,0.7837813,-0.1593629
1.128704,-0.2032165,-0.08966057,0.9326782,0.2965416,-0.01629099
0.9727007,-0.03068207,-0.03712196,0.6449187,-0.426175,0.1942228
0.8456136,0.01665263,-0.02658106,0.06690864,-0.4813893,0.3647026
0.7491035,-0.03415091,-0.07252471,-0.2698234,-0.2883913,0.3425362
0.5325878,-0.08475006,-0.05404577,-0.4181834,-0.3019436,0.2667391
0.5443569,-0.1081066,-0.03844697,-0.1730031,-0.1216007,0.1356982
0.5609771,-0.1714075,-0.03859946,-0.09932859,-0.009582312,-0.1403236
0.4790672,-0.1377935,-0.03956583,-0.3167965,-0.1025068,-0.3613604
0.5471183,-0.1052682,-0.09474961,-0.3572356,-0.03780802,-0.370402
0.5072446,-0.1207228,-0.1031533,-0.5359148,-0.3276901,-0.2278325
0.4912344,-0.126496,-0.1032787,-0.4164195,-0.873472,-0.05292634
0.5389732,-0.2237093,-0.1526387,-0.1732892,-1.060269,0.05519602
0.5342291,-0.2817448,-0.1821004,-0.2451864,-1.094626,-0.03825512
0.6781372,-0.3117351,-0.20905,0.07133839,-1.008622,-0.2377492
0.8035256,-0.3873814,-0.2056382,0.5121042,-0.7711319,-0.2753135
0.9303476,-0.4174322,-0.2295834,0.6708005,-0.4930242,-0.2177245
1.167115,-0.4574643,-0.3080493,0.7146743,-0.1923689,-0.06542733
1.435204,-0.4709173,-0.3269586,0.7940123,0.1295903,0.2342485
1.672873,-0.4565328,-0.3038628,1.057962,0.7196328,0.4065567
1.689557,-0.4470952,-0.2565103,1.168611,1.269095,0.391901
1.741111,-0.3292572,-0.2089133,1.098362,1.048124,0.2822123
1.829517,-0.09102971,-0.187869,1.002565,0.4959794,-0.03374229
1.532763,0.09724454,-0.09383056,0.8617354,0.3479651,-0.4115828
1.13566,0.01926408,0.07302843,0.6083433,0.1489538,-0.459582
0.966728,-0.1050694,0.1425961,0.05147061,-0.3741302,-0.4051563
1.002158,-0.05134338,0.02133258,-0.2573082,-0.8878819,-0.423391
1.067207,-0.07152079,-0.1536385,-0.001984393,-1.101224,-0.04021189
0.9666396,-0.1083778,-0.2403394,0.1255217,-0.8072092,0.2892162
0.8939952,-0.07534567,-0.2516782,-0.05226698,-0.6133465,0.1348194
0.8670107,-0.1039645,-0.2238256,-0.1226677,-0.6546431,0.07597492
0.855029,-0.08422961,-0.2002329,-0.1256876,-0.4058778,0.06206708
0.9412909,-0.07494842,-0.1717814,-0.1828674,-0.0008388883,0.04313598
0.8899816,-0.09188669,-0.09892584,-0.08910383,0.489348,0.1208039
0.8142277,-0.04050642,-0.06013166,-0.02375308,0.5653738,0.08510603
0.7670646,-0.0315331,-0.1025028,-0.1046652,0.262896,0.17056
0.5924522,-0.006065419,-0.1282169,-0.1096849,0.2631832,0.3644643
0.5778949,0.01500834,-0.08039535,-0.07948173,0.08878602,0.5221168
0.6783596,-0.0375094,-0.03979818,0.08873321,-0.0446712,0.689786
0.7434588,-0.05216553,-0.05015544,0.3427709,0.2949802,0.6969446
0.7905415,-0.05157475,-0.05047214,0.3462355,0.7344689,0.5403909
0.715744,-0.03996765,-0.04729118,0.06104127,1.087751,0.3125921
0.6724339,-0.02942645,-0.06941442,-0.3252916,0.8184274,0.2070266
0.7044602,-0.0473974,-0.07916299,-0.4791304,0.4518717,0.3044579
0.8289808,-0.0611246,-0.07820676,-0.3842251,0.6802464,0.325251
1.004747,-0.1226711,-0.1315999,-0.4210309,0.7302629,0.200183
0.9581239,-0.2231138,-0.3231034,-0.8207508,0.6553233,0.02964143
0.9422341,-0.3549743,-0.514413,-1.464976,0.5054257,-0.1554796
1.212016,-0.5483716,-0.4738204,-1.797664,-0.2857211,-0.3209075
1.527815,-0.7527753,-0.4367688,-1.463056,-0.8296351,-0.4063814
1.714955,-0.7846013,-0.5067548,-1.019645,-0.3335773,-0.3466315
1.835412,-0.6076125,-0.2979814,-0.6892036,0.2871975,-0.1909225
1.978398,-0.5428519,-0.05834732,-0.1115494,0.4308746,0.02021225
1.782161,-0.5238038,-0.1730892,-0.01280346,0.5807868,0.2727868
1.226595,-0.3486151,-0.2114348,-0.4367917,0.4648733,0.3912032
0.9786154,-0.2486689,-0.07043446,-0.4377547,-0.09703705,0.3485315
0.932529,-0.2228483,-0.05048572,-0.5502604,-0.1951795,0.3713745
0.8175492,-0.2121451,-0.05598838,-0.7998957,0.008927556,0.4512283
0.8208164,-0.231157,-0.05260912,-0.8181527,0.01252911,0.5137956
0.7566119,-0.1901373,-0.08019719,-1.069388,-0.02334913,0.5759341
0.6902136,-0.1770189,-0.09523215,-1.127039,-0.1322819,0.528305
0.7191404,-0.1914259,-0.1282131,-1.080832,-0.04882746,0.4147968
0.6909654,-0.2283939,-0.1215434,-1.164777,0.09648965,0.2481136
0.7540159,-0.3125119,-0.06280278,-0.8970758,0.193865,-0.01422005
0.8163017,-0.322339,-0.005827854,-0.6538133,0.4345116,-0.169862
0.8264137,-0.2640946,0.02272762,-0.5849498,0.4178231,-0.2037351
0.8493881,-0.167521,-0.009004441,-0.6099472,0.4369013,-0.2305023
0.8019579,-0.0721248,-0.02176029,-0.7407315,0.6283442,-0.293644
0.7785256,-0.03234824,-0.01788513,-0.882732,0.5752,-0.4398646
0.7264715,-0.01228761,-0.04256452,-1.22122,0.5555786,-0.5933835
0.6615296,-0.001459944,-0.01785669,-1.346682,0.4810742,-0.7406622
0.5831471,0.01618527,-0.008545764,-1.314994,0.1575736,-0.7756079
0.4108868,0.02417403,-0.08915343,-1.625523,-0.2387272,-0.4838963
0.4207849,-0.003048187,-0.1485665,-1.884987,-0.5845634,-0.03925129
0.6672918,-0.08917462,-0.1050474,-1.848991,-0.6784342,0.1523402
1.020825,-0.2545321,-0.05746534,-1.539382,-0.5890952,-0.02552143
1.295427,-0.4115962,-0.1046197,-1.160483,-0.2296378,-0.2052461
1.283601,-0.5129208,-0.126177,-0.8868898,0.4593137,-0.1891589
1.230682,-0.5790751,-0.1456737,-0.3601147,0.7715752,-0.164015
1.29329,-0.5894579,-0.3531287,0.2447396,0.544955,0.03602273
1.459474,-0.5035105,-0.5524413,0.5465885,0.5995195,0.2883488
1.658544,-0.4077538,-0.4484185,1.029072,1.109937,0.1314604
1.608237,-0.4072596,-0.213938,1.68268,1.402735,-0.03444449
1.503984,-0.310748,-0.1122544,1.688469,1.060578,-0.009596132
1.524408,-0.08257343,-0.07234615,1.441791,0.4000418,-0.2862105
1.342287,-0.001531789,-0.04533886,1.361116,0.0348448,-0.577329
1.147282,-0.01421944,-0.04888026,0.7879394,-0.1334785,-0.4514001
1.230036,0.05399236,-0.05601443,0.1533411,-0.5086711,-0.2654799
1.269317,0.1361331,-0.1628056,-0.1278272,-0.8865176,-0.1191719
1.177478,0.1156504,-0.2754778,-0.4548603,-0.983415,0.1649007
1.094769,-0.1487717,-0.2568082,-0.5743913,-0.9123823,0.2644734
0.9439848,-0.4713566,-0.205808,-0.2516701,-0.9347775,0.07631311
0.7891181,-0.4424811,-0.1688063,0.2683872,-0.7442156,-0.04803036
0.6674632,-0.2564987,-0.1497277,0.396066,-0.2297547,-0.07773778
0.5360462,-0.1997444,-0.1322022,0.3039156,-0.1407049,-0.03428813
0.5411568,-0.07898273,-0.1569894,0.4321709,-0.4205634,0.1329153
0.5989485,0.0437791,-0.24098,0.191162,-0.5909907,0.2732258
0.616406,0.01484153,-0.2649314,-0.05699901,-0.6576484,0.3812031
0.7509748,-0.05046911,-0.2027565,0.09277236,-0.5695976,0.4510762
0.8343451,-0.1390698,-0.08483842,0.2855945,-0.3452372,0.4089865
0.7739464,-0.1661385,-0.02399122,0.7369853,0.004952275,0.3337196
0.7267638,-0.1023465,-0.05327738,0.9558895,0.1556538,0.2760965
0.6807963,-0.09792617,-0.04806123,0.6887239,0.1447695,0.3267712
0.7635463,-0.1300351,-0.02359533,0.6132294,0.4286178,0.3999986
0.9093626,-0.1617506,-0.01880115,0.8710571,0.616646,0.2846938
0.8821369,-0.1625296,-0.06939495,1.086198,0.6734727,0.09947011
0.8561755,-0.1129932,-0.1804162,0.9078711,0.8000351,-0.09230085
0.9122565,-0.1077106,-0.2637635,0.528396,0.7546289,-0.2769924
0.9878729,-0.1738414,-0.2970844,-0.0164055,0.6378098,-0.3529529
1.13775,-0.258982,-0.2691621,-0.5606654,0.2055784,-0.3772558
1.381104,-0.3218493,-0.1760673,-0.5665255,-0.48007,-0.2488493
1.786133,-0.5038329,-0.08142288,-0.3694303,-0.6738628,-0.03043939
2.017677,-0.7098312,-0.07556358,0.03340132,-0.5441371,-0.002337947
1.668639,-0.5715419,-0.0913258,0.7837347,-0.4415093,0.06439651
1.24208,-0.3744981,-0.01760647,0.9888465,-0.05373843,0.2106053
1.079624,-0.3641554,0.03523626,0.7489907,0.2686081,0.2085723
0.9406593,-0.2586998,0.06087134,0.7934243,0.06955924,0.2908413
0.8924417,-0.1508589,0.07159056,0.650858,-0.1627933,0.3877899
0.8205404,-0.1056603,0.01425334,0.2803903,-0.3693574,0.3331213
0.7026825,-0.1105882,0.02741539,0.2801692,-0.5484654,0.3292921
0.7219037,-0.251043,0.03442108,0.2724077,-0.3440114,0.2657623
0.6845032,-0.2599863,-0.01484351,0.157683,-0.1848649,0.08333143
0.7090684,-0.2079795,0.02237966,0.338889,-0.1387973,-0.1220453
0.7651155,-0.2252696,0.01373483,0.4491829,-0.01805494,-0.336573
0.6404684,-0.1141676,-0.03187924,0.3207498,-0.03981272,-0.4373967
0.5791369,-0.05374528,-0.03643061,0.1347625,0.003720559,-0.4919274
0.5488367,-0.04836841,-0.06906128,-0.09300991,-0.01833295,-0.5792971
0.5646038,-0.01631821,-0.08255532,-0.1868709,-0.3273418,-0.6064858
0.630713,-0.101957,-0.1321542,-0.204344,-0.6350127,-0.4757916
0.5817558,-0.1998389,-0.1861102,-0.1978594,-0.7076742,-0.275418
0.6343286,-0.2818555,-0.1565868,0.06906071,-0.477227,-0.3119172
0.7805357,-0.296145,-0.1086804,0.3930393,-0.2405773,-0.5212808
0.9765173,-0.2453841,-0.05189229,0.4226401,-0.04905297,-0.6394411
1.179988,-0.2922185,-0.07784674,0.3869152,0.02867467,-0.5041983
1.271427,-0.3592859,-0.207897,0.5566974,-0.3984016,0.03339482
1.533818,-0.4469764,-0.3255617,0.8780718,-0.572212,0.6005278
1.708927,-0.5170797,-0.3296821,1.420496,0.3476124,0.5747634
1.453907,-0.5347554,-0.1465542,2.013959,1.177243,-0.0285612
1.21378,-0.5787413,0.03473376,2.131614,0.573497,-0.6424601
1.227994,-0.480513,0.02756044,1.871343,-0.07586932,-0.82091
1.534146,-0.2212985,-0.1035555,1.683161,0.3697487,-0.514288
1.853163,0.09565728,-0.2029151,1.455269,0.3618954,-0.1829696
1.56271,0.2707927,-0.1488843,0.8861328,-0.007944485,-0.2266633
1.074897,0.1335625,-0.02802679,0.1214703,-0.1126064,-0.2451199
0.9582695,0.02074592,0.03376537,-0.2395378,-0.9155705,-0.07757314
0.8352995,-0.0608466,-0.03946071,-0.1126106,-1.469468,0.0739158
0.7349304,-0.21973,-0.210985,-0.0825463,-1.273948,0.2507773
0.7577418,-0.2109093,-0.2847557,-0.04111613,-1.251973,0.2318235
0.6820111,-0.2328485,-0.2781064,0.2003975,-1.05632,0.1067632
0.7243494,-0.3027973,-0.2498975,0.408087,-0.6263147,0.07566312
0.766988,-0.259057,-0.1568528,0.7472305,-0.1784571,0.05751308
0.7113114,-0.2615246,-0.06915033,1.010081,0.2075526,0.1292595
0.7652355,-0.1728405,9.251651e-05,1.139062,0.3757762,0.1277512
0.7351746,0.007037003,0.009878984,1.325738,0.3803618,0.09422502
0.645709,0.1162887,-0.06748612,1.063735,0.09631484,0.1454398
0.5605538,0.165028,-0.1213774,0.5469965,-0.142572,0.2215111
0.5180987,0.04412297,-0.1323523,0.1957082,-0.1815793,0.4579342
0.6750678,-0.1494205,-0.09510831,0.05875047,-0.1454734,0.5935495
0.8123608,-0.2508037,-0.06306804,0.44013,0.1063822,0.5115929
0.9037291,-0.2500216,-0.1150433,0.7788605,0.4668233,0.3383964
0.9756375,-0.2176388,-0.1650176,0.5738671,0.8725873,-0.007794901
0.9449992,-0.2775031,-0.1797825,0.1954847,1.07048,-0.3295111
0.9975821,-0.3159927,-0.1613275,-0.1713941,1.034254,-0.5974259
1.151485,-0.2900291,-0.1009061,-0.3176631,0.7322465,-0.7525337
1.408345,-0.2687101,-0.05974196,-0.3621402,-0.02361137,-0.5313023
1.755018,-0.2584886,-0.0512314,-0.6342897,-0.4853404,-0.1899186
1.890609,-0.4101651,-0.007586751,-0.620101,-0.5724373,-0.01892641
1.722642,-0.6154754,0.09249182,0.1098622,-0.6352676,-0.02169273
1.519923,-0.6260205,0.08753233,0.896846,-0.3780436,-0.06653748
1.380657,-0.5567757,-0.04507267,0.9797002,0.01915594,-0.005041514
1.187724,-0.4461379,-0.09547125,0.7299609,0.3216197,0.03895216
1.042,-0.2055395,-0.03031545,0.7429673,-0.01165056,0.1150913
0.9516949,-0.08885442,0.03364444,0.5995036,-0.8037706,0.2828847
0.8261043,-0.1779745,-0.009104795,0.347962,-0.8232424,0.2940154
0.7499829,-0.1660976,-0.05654888,0.3705305,-0.5101234,0.2392902
0.6907321,-0.125721,-0.004042255,0.2028575,-0.4075395,0.1697197
0.6522672,-0.1570054,-0.01037545,0.08624188,-0.1967466,-0.01858763
0.6342595,-0.1102733,-0.02708233,0.1673552,-0.1451484,-0.1637166
0.6069769,-0.1004932,0.00228934,-0.008024874,-0.07441907,-0.3374743
0.6246055,-0.1220095,-0.01346814,-0.1623889,-0.0074363,-0.5630311
0.6173484,-0.1198418,-0.009306686,-0.2719519,-0.1506729,-0.6318271
0.6147569,-0.1730005,-0.04190769,-0.2239943,-0.236463,-0.5497273
0.6418662,-0.1716436,-0.1181198,-0.02333219,-0.4714806,-0.4301962
0.6827215,-0.1690664,-0.1457843,-0.0640229,-0.5997657,-0.3477085
0.8030427,-0.2469239,-0.1489301,0.06429557,-0.3563845,-0.3036147
0.8709328,-0.2920478,-0.1167001,0.2649733,-0.1464279,-0.3424554
0.8478334,-0.2914256,-0.10697,0.2126653,-0.01152149,-0.3590759
0.9052326,-0.2958725,-0.1322226,0.1130344,-0.03293442,-0.2196849
1.139423,-0.3692549,-0.1396646,0.07786247,-0.09196542,-0.05204577
1.480168,-0.4732504,-0.1501948,0.5490257,0.1496668,0.1324503
1.640327,-0.5230489,-0.1712232,1.303737,0.6555457,0.2111572
1.463474,-0.4815271,-0.1754955,1.616619,1.139429,0.02319403
1.327872,-0.3163255,-0.02481937,1.546647,1.099836,-0.1986154
1.5629,-0.1438283,0.155734,1.232837,0.5921151,-0.2222944
1.714629,-0.03275398,0.06737843,0.7024171,-0.0225297,-0.1002127
1.531405,0.1060494,-0.105136,0.262573,-0.4286373,-0.06162143
1.421336,0.2276549,-0.1562585,-0.04710776,-0.3965309,-0.1308786
1.314576,0.03213749,-0.1367035,-0.3458117,-0.6448925,-0.1434335
1.030628,-0.3956571,-0.08275992,-0.1761036,-1.076698,-0.03570785
0.8879536,-0.4725278,-0.1156238,0.3236736,-0.8205473,0.07052523
0.9429636,-0.3576282,-0.1607127,0.5550423,-0.5660303,-0.03291311
0.9017841,-0.341513,-0.1329069,0.7472206,-0.6281065,-0.1326826
0.7806757,-0.1464377,-0.1952613,0.7392283,-0.5224402,-0.03330812
0.7406196,-0.03542622,-0.2360824,0.5824384,-0.5516857,0.08053311
0.6822268,-0.134479,-0.1764195,0.7008275,-0.6500331,0.2319311
0.6337405,-0.157606,-0.1453018,0.7406906,-0.6084233,0.3626444
0.6548753,-0.1825372,-0.1063103,0.8551282,-0.5176762,0.3464617
0.6794716,-0.1897097,-0.09443432,1.037733,-0.2606438,0.3056756
0.7250115,-0.1243899,-0.08556272,1.007638,-0.1233685,0.2227418
0.6586506,-0.02928992,-0.04820909,0.9552936,-0.1863015,0.1559375
0.5530629,0.03010296,-0.1100074,0.60244,-0.1663089,0.2886057
0.6088422,-0.03466345,-0.1738142,0.3271718,-0.2307934,0.4729603
0.7245136,-0.1385632,-0.1491775,0.6097291,-0.2826038,0.4774727
0.886162,-0.2306509,-0.1293684,0.9692583,0.0297532,0.2506246
0.9722005,-0.243945,-0.1423752,1.159132,0.604374,-0.09886162
0.8644186,-0.1890606,-0.1826922,0.9891176,1.0881,-0.2961472
0.7740654,-0.1992606,-0.2091563,0.5876278,1.303832,-0.3050727
0.7812901,-0.1957959,-0.1333983,0.2638105,1.293251,-0.4097011
0.9807265,-0.1295735,-0.03674286,-0.159229,0.7852852,-0.5740219
1.430473,-0.04884826,-0.09123133,-0.6650161,-0.1753875,-0.5090304
1.782111,-0.03219716,-0.1594552,-0.936438,-0.6761925,-0.2492222
1.866027,-0.2564093,-0.1271884,-0.8005573,-0.4896955,0.05544526
1.835735,-0.6616012,-0.07735331,-0.520938,-0.2304439,0.2327459
1.68115,-0.9089806,0.0738566,-0.01816988,-0.08623016,0.1060827
1.383548,-0.8258854,0.1860116,0.8309183,-0.0790255,-0.003239025
1.164877,-0.5866877,0.06599652,1.18179,-0.1413946,0.0527004
1.181208,-0.3198262,-0.05160574,0.9112282,-0.02011822,-0.006895122
1.173907,-0.06173788,-0.05912538,0.6278753,0.01802412,0.04300385
0.9787992,-0.01980703,-0.05629093,0.3028641,-0.2259721,0.2230856
0.8414529,-0.1159071,-0.04519588,0.0402801,-0.4461644,0.2136493
0.7255532,-0.1472913,-0.03606012,0.01223081,-0.525275,0.1432915
0.5434167,-0.2144618,-0.039682,-0.05090449,-0.4617309,0.02702197
0.5033985,-0.2382133,-0.03666645,-0.1769832,-0.3280566,-0.09246873
0.5611369,-0.1814953,-0.02056976,-0.1017956,-0.1860074,-0.1205123
0.6008078,-0.1679561,-0.01080211,-0.006159554,-0.08609118,-0.2315539
0.626684,-0.1483586,-0.03279095,-0.0491674,-0.1809313,-0.311466
0.6180784,-0.1771404,-0.07671697,-0.1210741,-0.4375231,-0.2393353
0.6179054,-0.2340907,-0.09787066,-0.2399283,-0.7906672,-0.101134
0.6724541,-0.2319592,-0.08205537,-0.05672559,-0.8561816,-0.006054115
0.7997868,-0.2414248,-0.06875542,0.2989472,-0.5947807,-0.1256028
0.93824,-0.2421098,-0.06793477,0.318344,-0.431197,-0.3610922
0.9874897,-0.2320647,-0.06833687,0.3212044,-0.04894702,-0.5341361
0.9123484,-0.2358687,-0.1130371,0.3611496,0.2062254,-0.6024798
0.8000237,-0.2343521,-0.2674802,0.2784848,0.003489305,-0.4109604
0.8869768,-0.2621247,-0.4043789,0.1829558,0.0965176,0.03902865
1.339867,-0.3409792,-0.2772894,0.2123472,0.2960339,0.2983991
1.810404,-0.4261307,-0.08398946,0.7826825,0.4900386,0.07567201
1.680806,-0.4082233,-0.1231891,1.34201,0.7939778,-0.2335421
1.366378,-0.3528536,-0.1619269,0.950229,0.6730433,-0.2167767
1.445878,-0.3748098,-0.1330787,0.5559529,0.2406968,0.0606099
1.427286,-0.3602184,-0.1857036,1.022796,-0.2443811,0.3424923
1.367999,-0.3016306,-0.1679102,1.226316,-0.3673705,0.2528932
1.393058,-0.2583315,-0.1223442,0.8613761,-0.06919697,-0.2876938
1.14325,-0.2179979,-0.129359,0.6922477,-0.1500531,-0.7568286
0.9806527,-0.1995682,-0.1043779,0.4987285,-0.4826316,-0.7544672
0.9274551,-0.1296942,-0.1241466,0.3848202,-0.7745477,-0.4100888
0.8993462,-0.06420666,-0.1756404,0.5543454,-0.8947714,-0.05679438
0.9830527,-0.08600066,-0.2403029,0.5636169,-0.6151513,0.1767656
0.8520253,-0.1087263,-0.2764521,0.4979988,-0.5688893,0.2474927
0.7300179,-0.1925847,-0.2027109,0.4963928,-0.7778856,0.1368885
0.6706525,-0.3082478,-0.1679166,0.6962015,-0.8087303,0.1499184
0.616289,-0.3371268,-0.1603745,1.100736,-0.677811,0.2308758
0.7276716,-0.3397907,-0.1084943,1.325215,-0.3117411,0.1943015
0.7343985,-0.2857033,-0.08304476,1.410911,-0.07552245,0.2157539
0.7869775,-0.1532953,-0.07041343,1.367231,-0.0521284,0.1672339
0.8190776,-0.06016591,-0.1052323,1.133253,-0.09983981,0.1589733
0.8197654,-0.2411406,-0.08109813,-0.07521876,0.2592915,0.4901769
0.7741291,-0.1794065,-0.1636921,-0.1957189,0.3393354,0.42422
0.8037432,-0.1738602,-0.2031355,-0.2766828,0.5931554,0.2223393
0.7641442,-0.2204761,-0.1968771,-0.3595447,0.7292965,0.006718292
0.8940267,-0.2878402,-0.1698775,-0.6255081,0.7446912,-0.0810123
1.179096,-0.3653281,-0.1547504,-0.8688812,0.4163697,-0.1401799
1.442692,-0.3051558,-0.1626189,-1.033132,-0.2392526,-0.09765706
1.703113,-0.262176,-0.2340039,-1.189207,-0.6597908,-0.008579771
1.868586,-0.4572357,-0.3140677,-0.9093733,-0.5547791,-0.03769637
1.787838,-0.6849974,-0.1794343,-0.1775124,-0.2842094,-0.06982986
1.489579,-0.7469521,-0.01559432,0.3319773,-0.2415522,-0.07114645
1.215588,-0.6625909,-0.0782623,0.4819404,0.03652693,-0.150339
1.112798,-0.5213394,-0.1101485,0.4202983,0.4410694,-0.1770835
1.15062,-0.4074168,-0.06615824,0.2010318,0.4215584,-0.09361097
1.121224,-0.3596474,-0.08575437,-0.06442481,0.2018652,-0.009850612
0.8714209,-0.2088805,-0.03891144,-0.3300375,-0.06442448,0.01812135
0.6647546,0.0707049,0.01978358,-0.5707569,-0.09175456,-0.07865177
0.6303574,0.03969677,-0.01693507,-0.8693799,0.07404549,-0.1973563
0.5787373,-0.08920934,-0.03864838,-1.019717,0.05240158,-0.2120371
0.4933771,0.03275325,-0.04336711,-1.018011,0.009527544,-0.1957881
0.5019491,-0.07863348,-0.0624653,-1.172333,-0.1352806,-0.2188681
0.5480256,-0.2519254,-0.04706499,-1.059026,-0.3715018,-0.3239765
0.598566,-0.2434769,-0.04109329,-0.7351654,-0.4989808,-0.4269214
0.7939121,-0.3502188,-0.09651385,-0.5672472,-0.4298102,-0.3928201
0.9243367,-0.3346439,-0.1425887,-0.2405126,-0.1201869,-0.2814424
0.9437981,-0.2701983,-0.1133867,-0.05034248,0.05211594,-0.1864372
1.034277,-0.2861978,-0.06788912,-0.1215282,0.07364609,-0.1158372
1.018434,-0.2448731,-0.06948884,-0.07410972,0.0371817,-0.06628983
1.067552,-0.3310589,-0.1138377,-0.04720378,-0.1687583,0.02706388
1.303319,-0.4019492,-0.1997642,0.06958842,-0.1634568,0.1578818
1.482479,-0.4245226,-0.2753756,0.5579109,0.4186291,0.1609968
1.485025,-0.4602791,-0.2697785,1.101021,1.081341,0.1048964
1.228956,-0.3429121,-0.1925176,1.058757,0.8341332,0.08975267
1.092772,-0.1990397,-0.1364352,0.5845659,0.3269912,0.03895686
1.323102,-0.07518374,-0.2227681,0.421952,0.3116345,0.1150724
1.514365,-0.02368491,-0.2992432,0.504838,0.01612726,0.2333826
1.411856,-0.05862714,-0.1321843,0.490532,0.03235693,0.08555544
1.15707,-0.08865528,0.04107163,0.1870528,0.3111706,-0.1608409
0.9604789,-0.1568585,0.004325246,-0.3129747,-0.1958629,-0.2884755
0.8644339,-0.1198742,-0.07139464,-0.4268142,-0.6380188,-0.1954261
0.915553,-0.05603664,-0.149404,-0.2210337,-0.8211251,0.06040546
0.935582,-0.09265121,-0.2375673,-0.08518253,-0.7770946,0.1807055
0.8197768,-0.08044781,-0.2157085,-0.04028292,-0.4440727,0.1872477
0.8018899,-0.1109323,-0.1634075,-0.04333887,-0.5229025,0.209796
0.7656233,-0.1979545,-0.138592,0.05323903,-0.2743696,0.2400961
0.76734,-0.2118224,-0.02007841,0.2872715,0.2153003,0.2704683
0.8206214,-0.1411034,0.06514171,0.592927,0.2217808,0.2000645
0.6963187,0.00500256,-0.03808504,0.6571849,0.2530382,0.14034
0.6332483,0.1110448,-0.1310506,0.2084064,0.2134692,0.2382096
0.6326652,0.08827175,-0.1029734,-0.3245892,0.2060718,0.41441
0.6743259,-0.04637746,-0.1045344,-0.4769819,0.1058552,0.632796
0.8352845,-0.1932387,-0.1714051,-0.359142,-0.133895,0.8014167
0.8997795,-0.2131177,-0.2085731,-0.248992,0.2421755,0.7953455
0.8635472,-0.1662652,-0.2174998,-0.112523,0.6326879,0.5769032
0.7233746,-0.1968935,-0.2377579,-0.05206623,0.6171735,0.2509528
0.6332589,-0.3033686,-0.2201828,-0.2030837,0.6365778,0.03813127
0.8079193,-0.4169968,-0.09962452,-0.2278977,0.6915305,-0.07572758
1.150706,-0.4504986,0.07904727,-0.165157,0.7309461,-0.2136008
1.480599,-0.3711406,0.08759815,-0.2698866,0.5742011,-0.2526199
1.664736,-0.2390726,-0.2113729,-0.6101614,0.3146782,-0.07540439
1.852358,-0.1971605,-0.4271855,-1.005837,-0.09527591,0.149543
1.790911,-0.5733561,-0.1097105,-0.6918068,-0.6399617,0.2050421
1.405165,-1.102472,0.2602286,0.2748931,-0.6622083,0.06946856
1.332571,-0.9687205,0.1171859,1.003497,-0.2216619,-0.04729718
1.239654,-0.4742367,-0.04139087,1.080959,0.1798784,0.0216221
0.9399371,-0.1891643,-0.04079133,0.7139322,0.3357094,0.1159223
1.005318,-0.02394161,-0.1601274,0.3903205,0.2111721,0.1657129
1.030693,-0.1321714,-0.0957687,-0.1485179,-0.03182859,0.1844295
0.8278574,-0.2023194,0.04374787,-0.6255932,-0.3340989,0.0479382
0.7963245,-0.1147447,0.05823158,-0.416286,-0.4348659,-0.1542539
0.8054454,-0.2419432,0.09068637,-0.4321042,-0.1538313,-0.352895
0.7645603,-0.202906,-0.00144986,-0.5794346,0.09674156,-0.477289
0.6941754,-0.1419473,-0.05205917,-0.4342092,0.1597634,-0.3667925
0.6110377,-0.2553881,-0.02714557,-0.596323,0.1624064,-0.257013
0.6100275,-0.1918198,-0.05754893,-0.5895839,-0.07465096,-0.3207164
0.6495738,-0.1982427,-0.0005360281,-0.4323483,-0.4366439,-0.4450695
0.7183849,-0.2006185,-0.04426617,-0.4372373,-0.5019698,-0.5400722
0.7831603,-0.1531339,-0.1420735,-0.3661183,-0.31796,-0.3546012
0.7896646,-0.1999549,-0.1835371,-0.4561764,-0.1768707,-0.00125819
0.7810897,-0.1018506,-0.2248157,-0.4941158,-0.1630462,0.06610162
0.7983444,-0.07999598,-0.1041944,-0.51156,-0.2534452,-0.06507491
0.8812497,-0.2199212,0.001106235,-0.4908861,-0.312801,-0.2596166
0.9795563,-0.3560308,0.01420249,-0.2247204,-0.1220788,-0.4602025
1.007425,-0.4400266,-0.03524326,-0.1880705,0.1022502,-0.1894533
1.082596,-0.4251112,-0.2181454,-0.1123395,0.07214809,0.443855
1.347505,-0.4657296,-0.3383402,0.1744036,0.1520989,0.6653485
1.566585,-0.4315958,-0.3620951,0.3051982,0.5089626,0.3054767
1.549147,-0.3224325,-0.2196997,0.3325382,0.8301599,-0.1129078
1.627607,-0.2671004,-0.04299899,0.3317257,0.8936028,-0.1410606
1.775492,-0.1163404,-0.1156858,0.4342743,0.6755044,-0.06132665
1.535904,-0.006418589,-0.1188953,0.3833243,0.4690689,-0.1962959
1.123924,0.01816839,0.005495819,-0.05749321,0.2060561,-0.3173971
0.929582,0.02663769,0.02015334,-0.6285381,-0.3647191,-0.4011036
0.9010889,-0.01626371,-0.005500155,-0.8369394,-0.856237,-0.315388
0.9907841,-0.06206714,-0.08753571,-0.4436213,-0.9555632,0.03376237
1.037729,-0.08957794,-0.2093334,-0.2200374,-0.6856906,0.2323317
0.9350023,-0.06065025,-0.2520168,-0.2967575,-0.3268614,0.2505394
0.8484743,-0.09652138,-0.1908188,-0.2406699,-0.1493776,0.2235597
0.8003515,-0.1789033,-0.08755423,-0.267899,0.03438315,0.2063287
0.7869851,-0.1764655,-0.01651368,-0.1819373,0.1801708,0.2481578
0.797619,-0.1472277,0.01708322,-0.0480922,0.2174059,0.2270096
0.7622045,-0.04551709,0.0001819119,-0.09515816,0.2780917,0.3195886
0.7348813,0.01736247,-0.03314033,-0.1671859,0.2519854,0.512172
0.7173901,0.005218195,-0.04927373,-0.390965,0.2632962,0.5988864
0.717083,0.01945681,-0.05638741,-0.5907897,0.440741,0.6141192
0.7290948,-0.01600322,-0.03046146,-0.6697185,0.6013686,0.478375
0.7031802,-0.02637148,-0.02003333,-0.7746076,0.6075646,0.3438101
0.7043265,-0.02320245,-0.02775962,-0.8465628,0.512357,0.3597561
0.7316191,-0.0505258,-0.05390599,-0.899871,0.4213505,0.3954112
0.7588747,-0.08103014,-0.1522538,-0.8563306,0.2317119,0.4147576
0.7772309,-0.1833632,-0.2448802,-0.7822224,0.1685038,0.3945461
0.7873977,-0.3016832,-0.3146138,-0.7877873,0.5281111,0.3067979
0.930197,-0.4203155,-0.3379167,-0.803174,0.9896162,0.07074819
1.233511,-0.4800942,-0.2309338,-0.8309161,1.156332,-0.2880309
1.485848,-0.4489839,-0.1396532,-0.8428208,0.7628248,-0.6201293
1.54156,-0.4589712,-0.1598387,-0.835537,0.1403625,-0.7179549
1.611266,-0.4686585,-0.1260407,-0.7912567,-0.1459871,-0.4028141
1.786843,-0.4815518,-0.01339455,-0.669334,-0.2549569,-0.1384967
1.751418,-0.5187355,-0.0093974,-0.3670285,-0.1221024,-0.2642955
1.586945,-0.4597854,-0.05413441,0.0388845,0.2639354,-0.288166
1.378583,-0.25791,-0.02702909,0.04089035,0.4544972,-0.04293795
0.9771626,-0.01087955,-0.05265683,-0.3559159,0.4622889,0.1992054
0.889664,0.02609894,-0.0738265,-0.7991469,0.2164957,0.3964061
1.025133,-0.09294962,-0.03913809,-1.248855,-0.2209926,0.4909596
0.7957605,-0.1415288,-0.04932745,-1.404216,-0.466809,0.4934154
0.7199667,-0.2461541,-0.0457192,-1.278314,-0.5429172,0.5190634
0.8456178,-0.3411428,-0.04287698,-1.172024,-0.3867316,0.4325269
0.7678455,-0.3341624,-0.05814622,-0.9521342,-0.06584612,0.2598875
0.8018436,-0.3488395,-0.05998144,-0.8736259,0.2185447,0.1485423
0.8287116,-0.2404083,-0.08121876,-1.019097,0.4923818,0.04470701
0.7569512,-0.09086437,-0.07865528,-1.026832,0.5103644,0.03083396
0.7375102,-0.04616581,-0.07723809,-1.151997,0.2065956,0.09649998
0.6281645,-0.003297351,-0.0874782,-1.410994,-0.2192828,0.1834717
0.612395,-0.06684407,-0.06357236,-1.438423,-0.508446,0.3385319
0.7149758,-0.1605438,-0.04130456,-1.154082,-0.3634092,0.3857426
0.8591402,-0.2411704,-0.03697291,-0.6946374,-0.0681896,0.2517241
1.076035,-0.3482168,-0.1041693,-0.5413923,0.1859262,0.02813787
1.089994,-0.3056517,-0.1624166,-0.6649376,0.4418134,-0.2122005
0.9753108,-0.2469375,-0.0301637,-0.6226284,0.4282792,-0.3194487
0.9637206,-0.2160917,0.1143353,-0.5463472,0.4580104,-0.2777618
0.9897285,-0.1848265,0.08030174,-0.5276524,0.7734554,-0.2478464
1.004475,-0.2504639,0.04804847,-0.4006992,0.9277076,-0.2476614
0.9624673,-0.2915009,0.02224958,-0.2652568,0.7891391,-0.1339907
0.9851668,-0.3596445,-0.1908206,-0.3155927,0.3052466,0.09099113
1.298358,-0.4361145,-0.4428078,-0.3652935,-0.02892493,0.3440081
1.722779,-0.4997004,-0.5139481,-0.09621491,0.6156517,0.4506979
1.798433,-0.5759025,-0.377073,0.4385827,1.414383,0.2150227
1.56717,-0.3441513,-0.136506,0.6996457,1.260373,-0.2022645
1.341076,-0.0001321559,-0.03413407,-0.1374815,0.6356682,-0.5492105
1.090821,0.08049089,-0.09031055,-1.442473,-0.1402632,-0.571261
1.038659,0.04909468,-0.1767146,-1.675127,-1.107338,-0.2741274
1.203697,-0.07503587,-0.2541042,-1.369882,-1.311485,-0.0782157
1.124076,-0.2820684,-0.2708787,-1.169579,-0.7688878,-0.01661399
0.9401486,-0.3854199,-0.2438964,-0.6105154,-0.5525453,-0.03467673
0.7527374,-0.3348077,-0.1855876,-0.3802222,-0.5180683,-0.1006215
0.5964742,-0.2497661,-0.15409,-0.4620178,-0.4896045,-0.0247875
0.7426912,-0.1870616,-0.1609557,-0.1507326,-0.4321623,0.004024275
0.7920629,-0.1010077,-0.1204042,-0.03673789,-0.1438805,0.07264793
0.7253115,-0.06592324,-0.1144886,-0.09244773,-0.04670755,0.276208
0.8083704,-0.04221802,-0.1207956,-0.08707126,-0.05511147,0.3082615
0.7653437,-0.009802063,-0.08474298,-0.2202805,-0.0004321296,0.2760171
0.7337017,-0.05308257,-0.04461404,-0.09627794,0.04618329,0.2183971
0.71757,-0.05751641,0.0161256,0.03020095,0.2270008,0.1330073
0.6180043,-0.05290335,0.02710167,-0.1105092,0.3867155,0.165331
0.6380017,-0.07604806,0.0216608,-0.1837833,0.4853791,0.186208
0.6476972,-0.06254472,-0.01480051,-0.3537126,0.3175752,0.215735
0.6844736,-0.08662834,-0.1106035,-0.5298823,0.01797343,0.2733055
0.7757432,-0.1062626,-0.1161009,-0.4589675,0.104248,0.2712292
0.7825112,-0.1491184,-0.1600839,-0.3496929,0.1753106,0.2589959
0.8091165,-0.278687,-0.2849303,-0.2596122,0.1617065,0.2326322
0.840571,-0.3881265,-0.3244875,-0.125566,0.3907095,0.1176993
0.9302353,-0.4209828,-0.3519612,-0.1351005,0.6927407,-0.1983395
1.182559,-0.3402122,-0.3207261,-0.4137555,0.9594073,-0.6574484
1.512235,-0.221491,-0.2039345,-0.8214651,0.685344,-0.900725
1.804324,-0.1833567,-0.1854226,-1.364436,-0.2172099,-0.7278835
1.856408,-0.2330126,-0.1921237,-1.631549,-0.7323124,-0.483241
1.734165,-0.3850773,-0.09475791,-0.9428972,-0.538513,-0.164868
1.666499,-0.55196,-0.01439264,-0.1064855,-0.2797487,0.5166626
1.486545,-0.6302143,-0.05743714,0.01792046,-0.1273184,0.7690163
1.254522,-0.6405731,-0.1159937,0.2022961,0.2360073,0.4507508
1.175933,-0.4967844,-0.08043359,0.3361693,0.3447815,0.4745045
0.9626334,-0.1543928,-0.07707052,-0.2245627,-0.1952374,0.4868084
0.7554126,0.02381445,-0.1124973,-0.5960795,-0.6536451,0.3811741
0.781335,-0.1036322,-0.0795858,-0.6602662,-0.7940327,0.5296512
0.714421,-0.1747893,-0.07615729,-0.7611846,-0.7385953,0.4221408
0.699022,-0.2030301,-0.07539263,-0.5615462,-0.5434156,0.2169029
0.7805885,-0.2797137,-0.05153882,-0.4656207,-0.499603,0.09439793
0.7283,-0.2460107,-0.07168744,-0.3123818,-0.3423685,-0.1128718
0.7464634,-0.2344189,-0.05199961,-0.05515962,-0.07553057,-0.1521175
0.7627882,-0.2167468,-0.0321245,-0.138801,0.2689157,-0.3277327
0.6786753,-0.0704149,-0.03758095,-0.1566444,0.62336,-0.5909626
0.557959,0.02329046,-0.03284197,-0.4638018,0.4105081,-0.6425824
0.3473768,0.03017587,-0.05498636,-0.9723991,-0.02516127,-0.7060628
0.3048394,-0.02566423,-0.05088036,-1.010512,-0.7197368,-0.6501783
0.4780758,-0.1223445,-0.08226421,-0.9475026,-1.677393,-0.5427598
0.7274162,-0.1821749,-0.1896637,-0.9044088,-1.736176,-0.3854854
1.115672,-0.2819211,-0.2506576,-0.7741073,-1.028245,-0.1105787
1.348955,-0.447917,-0.2734125,-0.3142171,-0.2907726,-0.06085019
1.308417,-0.5783604,-0.386521,0.2535745,0.174099,0.07159656
1.375904,-0.5926319,-0.5474375,0.4178159,0.3425918,0.4490065
1.509531,-0.5373515,-0.503855,0.7402576,0.8485458,0.5578323
1.489134,-0.4857218,-0.3469798,1.244673,1.352472,0.2497703
1.420434,-0.3858971,-0.2664493,1.230807,1.309844,-0.2101316
1.341192,-0.2871236,-0.175768,0.8723245,1.079616,-0.4320847
1.349792,-0.1939739,-0.1876387,0.8555415,0.6126423,-0.347055
1.39792,-0.0354697,-0.1939874,1.182578,0.3189186,-0.2105182
1.208268,0.004197081,-0.08100641,1.262075,0.4428153,-0.1850578
1.037491,-0.05792367,-0.1342613,0.7008419,0.06852594,-0.2452855
1.000767,-0.0318558,-0.2083488,-0.05758418,-0.6173377,-0.2603502
0.8623849,-0.06576652,-0.2245537,0.0635937,-0.8423234,-0.1159133
0.8285984,-0.1367887,-0.2914769,0.4164866,-0.7142098,0.1233516
0.8867107,-0.09610578,-0.2241922,0.2411781,-0.5291692,0.1589155
0.8363272,-0.09710315,-0.1830322,0.3899064,-0.4505309,0.1019368
0.8125995,-0.1270193,-0.2325795,0.4617241,-0.3421714,0.2058604
0.8216756,-0.1341056,-0.1958324,0.4851479,-0.1776679,0.2568741
0.7634927,-0.195757,-0.1437748,1.001482,0.01408062,0.2340612
0.6685159,-0.1901518,-0.08721536,1.105361,0.1530191,0.2373404
0.5802777,-0.09872227,-0.1028283,0.8805209,0.09780459,0.2655084
0.5644389,-0.01843584,-0.1499977,0.6961191,0.2275029,0.3333419
0.7152132,0.01495807,-0.08956159,0.5570416,0.3819489,0.3336641
0.8780402,-0.01680752,-0.08296978,0.623685,0.3070489,0.2513907
0.8409031,-0.01441205,-0.1374991,0.4349128,0.329555,0.1518362
0.741367,0.002413929,-0.1440816,0.129553,0.2966143,0.1499861
0.7090558,-0.03331474,-0.09591892,0.08030654,0.2350636,0.2055258
0.7183431,-0.0905665,-0.04245022,0.1775727,0.277702,0.1999814
0.780865,-0.2182814,-0.1542273,0.2320852,0.3965585,0.2192144
0.8933643,-0.3408283,-0.3371891,0.02346972,0.8009757,0.04964689
1.085947,-0.3521653,-0.3480879,-0.2960025,1.084264,-0.4073453
1.358522,-0.2823677,-0.1887021,-0.5664913,0.6466272,-0.7019775
1.545943,-0.1683783,-0.0452609,-0.6395633,-0.1699443,-0.558769
1.56591,-0.1417833,-0.1035893,-0.6622393,-0.6064619,-0.1319961
1.604526,-0.2919975,-0.1547722,-0.696024,-0.5893273,0.1599368
1.710285,-0.58695,-0.02643288,-0.1238364,-0.3729077,0.09345367
1.647303,-0.8173308,0.01602102,0.6193529,-0.05915188,-0.02703305
1.35925,-0.6948926,-0.02835875,0.789762,0.05571928,0.05812214
1.06666,-0.4782,-0.03945999,0.7352788,-0.03333317,0.141056
0.9656323,-0.3751856,-0.09353993,0.564868,-0.1477072,0.1691259
0.9602429,-0.1290928,-0.1345653,0.1883624,-0.2616566,0.2579163
0.8748906,-0.02897758,-0.135213,-0.08193058,-0.2738306,0.2720629
0.8008101,-0.2162084,-0.1080025,-0.08181362,-0.2082562,0.2998938
0.7224806,-0.2804243,-0.04780509,-0.0230206,-0.07386665,0.2226049
0.6261868,-0.2951708,-0.006597617,0.008622898,0.1176253,-0.07571635
0.6369107,-0.2370096,0.000224627,0.02310207,0.2304751,-0.1922786
0.5865347,-0.04343224,-0.04211,-0.09850806,0.1338585,-0.2477352
0.5309568,-0.02566522,-0.07997273,-0.261109,-0.09337396,-0.2885638
0.6036661,-0.09272718,-0.08237808,-0.3433584,-0.3101646,-0.2160912
0.645937,-0.1596945,-0.09675319,-0.236581,-0.5785769,-0.2962187
0.7253364,-0.2594038,-0.1379786,-0.05204542,-0.6362612,-0.3418453
0.7832673,-0.2644818,-0.1868196,0.000210287,-0.3968089,-0.3719137
0.7912606,-0.2628842,-0.1188101,0.1796492,-0.157157,-0.509862
0.8646483,-0.2782511,0.000126583,0.3508814,0.0192901,-0.6038539
0.8794697,-0.286642,-0.03102626,0.2964864,-0.1307357,-0.590651
1.029268,-0.3434035,-0.1901535,0.3085488,-0.5338684,-0.1223318
1.45102,-0.4345229,-0.4243877,0.4324547,-0.6309092,0.5888017
1.743474,-0.5136812,-0.5136764,0.8336761,-0.07510337,0.7648645
1.664936,-0.4707115,-0.2782295,1.350888,0.8140932,0.2553674
1.535923,-0.3367727,-0.03907502,1.237425,0.9850924,-0.3524805
1.599155,-0.1623493,-0.03037255,0.758832,0.6457308,-0.4690011
1.562689,0.03981833,-0.1120092,0.5742751,0.5257623,-0.3167862
1.410074,0.1206019,-0.1518484,0.4197924,0.1728894,-0.2211618
1.242239,0.08045018,-0.1372613,0.07629635,-0.04500303,-0.1828078
1.027749,0.02735041,-0.1269393,-0.2830125,0.05083666,-0.2576691
0.9167501,-0.0369111,-0.1183603,-0.4817456,-0.353968,-0.2957972
0.7242846,-0.1415318,-0.09742817,-0.4298453,-0.816309,-0.1329837
0.6527653,-0.1712073,-0.1353698,-0.2956942,-0.8217555,0.1290983
0.9150182,-0.08091549,-0.2044064,-0.08517538,-0.5684186,0.2245728
0.9752756,-0.07176422,-0.2171159,0.05032375,-0.08225881,0.1909247
0.9313472,-0.08719585,-0.1836656,-0.05470095,0.3657727,0.2667645
0.8416257,-0.07300685,-0.09925202,-0.03153873,0.4790982,0.3557239
0.6050395,-0.1186932,0.02210006,0.03560451,0.3266864,0.4281984
0.6584074,-0.08135317,0.06348608,0.03126235,0.1327108,0.5207163
0.7793781,-0.02302199,0.02152532,0.11547,-0.05107776,0.6101007
0.7782334,-0.005799164,-0.02791861,0.0690741,-0.01183111,0.6923153
0.7795976,0.01843429,-0.0967921,-0.08015574,0.2693784,0.6632151
0.6795976,-0.04270297,-0.1033818,-0.2723966,0.3198723,0.5044624
0.6981302,-0.06970409,-0.01637972,-0.4718811,0.4665702,0.2485832
0.8326823,-0.0389849,0.02993905,-0.4890752,0.7056343,0.1415206
0.9617042,-0.0302399,0.02604292,-0.4684839,0.4741942,0.2546388
1.039103,0.001193873,-0.04591013,-0.5150791,0.3384078,0.2377536
0.9367037,-0.001096666,-0.1640133,-0.6469861,0.5078094,0.1243379
0.872304,-0.07088683,-0.2286384,-0.9028148,0.5341893,-0.07644993
0.888708,-0.2387641,-0.3744384,-1.189743,0.3818222,-0.3864142
1.016403,-0.4479473,-0.5131465,-1.392004,0.2416935,-0.466502
1.372652,-0.6226293,-0.4176925,-1.406415,0.3439429,-0.529129
1.697418,-0.7848228,-0.3104509,-1.183096,0.4174379,-0.7939225
1.929641,-0.7718002,-0.2564979,-0.559906,0.2214193,-0.8290124
1.987192,-0.5173258,-0.1549267,0.1301901,0.2395148,-0.4805559
1.784832,-0.2522611,-0.2120732,0.1937567,0.8284496,-0.01664669
1.537876,-0.1979852,-0.2947997,-0.0137242,1.205255,0.2140256
1.177016,-0.2333267,-0.1198165,-0.1040065,0.9586879,0.2125206
0.8496415,-0.1203882,0.07275661,-0.3034322,0.7757265,0.3437862
0.8058589,-0.05210971,0.101534,-0.4770968,0.2069287,0.5371017
0.7144811,-0.07654965,-0.005387022,-0.7999945,-0.4767791,0.664914
0.544376,-0.02170644,-0.173662,-1.305672,-0.3478552,0.7824403
0.5718863,-0.1030605,-0.1865637,-1.451691,-0.4180939,0.7523876
0.6555394,-0.3083789,-0.1294781,-1.299051,-0.5017932,0.6902208
0.6539068,-0.4214118,-0.1404624,-1.07612,-0.1471486,0.5773997
0.6814158,-0.4742225,-0.1333982,-0.8475007,-0.002918078,0.2470105
0.7341426,-0.4084015,-0.1311137,-0.6903431,0.3371592,-0.07658137
0.771059,-0.2648663,-0.09446026,-0.5486043,0.5429786,-0.2982496
0.8508702,-0.1476594,-0.03742165,-0.4559194,0.453309,-0.3759916
0.8545514,-0.0148595,-0.03044875,-0.4037171,0.5164599,-0.3426385
0.7868972,0.05451477,0.01526374,-0.4911336,0.4174138,-0.3937947
0.7870889,0.03702255,0.06568632,-0.7398462,0.2754309,-0.469129
0.7676365,-0.03941877,0.04864245,-0.9420259,0.03333552,-0.5171942
0.7564424,-0.1656582,0.02885843,-1.017325,-0.1336774,-0.4715563
0.775504,-0.1962645,0.04338654,-0.8976939,-0.1619737,-0.3311118
0.8260437,-0.1902789,0.02914568,-0.7185649,-0.5084609,-0.226025
1.018058,-0.2985557,-0.009903609,-0.4231174,-0.5485106,-0.0798082
1.160882,-0.3776837,-0.008734997,0.07983853,-0.1506183,-0.01180571
1.07909,-0.3418752,-0.02129519,0.3070611,0.2305931,-0.1362813
0.9148021,-0.3257875,-0.04254297,0.3261866,0.3902584,-0.2046578
0.8493052,-0.3552699,-0.07619521,0.3689089,-0.1008065,-0.08637432
0.9537382,-0.353072,-0.2770544,0.1551043,-0.8411652,0.2189529
1.225949,-0.3693297,-0.6208705,0.03656396,-0.9332733,0.5289824
1.518726,-0.452033,-0.7435341,0.4323238,0.1930343,0.4887369
1.624211,-0.5657754,-0.4396028,0.9048627,1.520142,0.2032744
1.736387,-0.6296625,-0.1540382,1.021133,1.335408,-0.03843457
1.874268,-0.4504341,-0.184532,0.9805825,0.7854452,-0.3731371
1.615325,-0.07768629,-0.2204256,0.7966655,0.7109845,-0.6670533
1.153574,0.1358417,-0.1742926,0.06828824,-0.1140389,-0.6077328
