accx,accy,accz,gyrox,gyroy,gyroz
1.520563,-0.3220635,0.2832761,-0.2006309,0.1253854,-0.111842
1.462259,-0.3250475,0.3558172,-0.1918422,0.119602,-0.1879465
1.197865,-0.2411898,0.333891,-0.1431415,0.2292177,0.0356194
0.9969763,-0.190854,0.2563622,-0.03472945,-0.08200724,0.2696994
0.8951427,-0.1169453,0.2406535,0.06816791,-0.1883097,0.3300007
0.7488537,-0.03894962,0.1835796,-0.02942187,-0.299485,0.3089209
0.6751254,0.01000807,0.1162424,-0.3050611,-0.4530016,0.2885913
0.6132169,0.0311007,0.1087839,-0.4869823,-0.4635592,0.3189101
0.5910946,-0.07219838,0.08914206,-0.5781975,-0.6041013,0.1784284
0.6217769,-0.2193998,0.1255748,-0.5205231,-0.5298164,-0.1249736
0.5437696,-0.3365449,0.1624117,-0.2736827,-0.4591387,-0.3650246
0.5493841,-0.372849,0.1736522,0.05425695,-0.6594999,-0.5669636
0.6460763,-0.2834098,0.1583157,0.4335203,-0.8210468,-0.591927
0.7563725,-0.1869378,0.05366745,0.5086077,-1.1177,-0.3985509
0.9611924,-0.1091664,-0.00655365,0.3482689,-1.167672,-0.09207154
1.014993,-0.09629613,-0.02986182,0.2920046,-0.8612679,0.2199457
0.9580251,-0.1694046,-0.000209268,0.1036487,-0.6556528,0.2788844
0.9519257,-0.2468179,0.1155712,-0.01431933,-0.4357764,0.152113
0.8916696,-0.3142751,0.1648481,0.1024483,-0.3906188,-0.01327122
0.872083,-0.2774219,0.1848758,0.107533,-0.4610964,-0.2767061
0.9216042,-0.206839,0.1913641,0.09334627,-0.4056903,-0.5148254
0.9602072,-0.2369422,0.1641068,0.1230279,-0.3440277,-0.5341069
1.01669,-0.2766304,0.07838304,0.09668543,0.05527228,-0.3200399
1.218484,-0.345637,-0.1454613,0.05465369,0.8827174,-0.04566363
1.598335,-0.4311609,-0.3434926,-0.02390307,1.647396,0.008832115
1.792953,-0.4603769,-0.3848427,-0.05909039,1.84548,-0.2678051
1.562639,-0.481554,-0.2208449,0.05499474,1.452127,-0.5216826
1.215388,-0.4345652,0.1177908,0.4135196,0.6942369,-0.4282945
1.122968,-0.3227804,0.2790307,0.9196914,-0.1709899,-0.1791696
1.274014,-0.1909511,0.06547109,1.029538,-0.2414776,-0.01886735
1.349482,0.006547257,-0.1256944,0.6261663,0.05897893,-0.004703534
1.100473,0.1399827,0.06158063,0.2404086,-0.5724203,0.06120017
0.7968687,0.1601645,0.1925849,0.00885799,-1.199744,0.4337176
0.8478978,0.1371055,0.0342861,-0.1024372,-1.140036,0.8002728
1.016936,0.009676094,-0.0420697,-0.004299349,-0.8855097,0.7807616
1.048793,-0.1050461,-0.1003921,0.01647435,-0.3611244,0.6032585
1.000604,-0.05918141,-0.1363766,-0.1248483,-0.04117212,0.5027714
0.8505909,-0.01297263,-0.05180364,-0.2596835,0.001741653,0.3825635
0.7599248,-0.05277797,-0.0669697,-0.3954537,0.1160422,0.2896126
0.713182,-0.05864388,-0.07226619,-0.4177899,0.08240484,0.3241496
0.6191595,-0.07861332,-0.08327578,-0.3768404,0.1855754,0.3327901
0.6462364,-0.1626387,-0.1527758,-0.3590083,0.4712268,0.2711416
0.7321109,-0.1721722,-0.05949016,-0.256025,0.6244265,0.1945424
0.8355307,-0.1628471,0.02060504,-0.1815466,0.4658019,0.09351738
0.9167631,-0.1901458,-0.009767031,-0.1918659,0.166365,0.1100496
0.8970411,-0.1507321,-0.01864226,-0.1739797,0.2393946,0.2238279
0.9168034,-0.1380429,-0.04764388,-0.1171286,0.2654005,0.2780151
0.8871271,-0.2285885,-0.1117811,-0.07505421,0.2413062,0.2655094
0.8101502,-0.4203984,-0.1950254,-0.06945022,0.7245025,0.04029189
0.9186182,-0.6687299,-0.1738576,0.04071908,1.160068,-0.4618619
1.130645,-0.7113691,0.01070914,0.3205871,1.057679,-0.9317679
1.389264,-0.419531,0.1900344,0.4078954,0.4438089,-0.9555369
1.692998,-0.02829667,0.2260307,-0.1035172,-0.04737426,-0.5285776
1.782939,0.05465637,0.2023167,-0.8384847,0.1614813,-0.1913074
1.561927,-0.2607232,0.3615972,-0.9358877,0.2787717,-0.2062849
1.260699,-0.4911141,0.5290919,-0.3509228,-0.08685116,-0.2673196
1.072395,-0.3642426,0.3977357,0.1852553,-0.2469596,-0.1101777
1.015968,-0.2043799,0.2354718,0.3131209,-0.078726,0.1727942
0.9804728,-0.1328511,0.2180254,0.263039,-0.0273721,0.3287915
0.8585295,0.000935473,0.1828931,0.1456985,-0.1621353,0.273425
0.7322201,0.06774333,0.1469263,-0.1821209,-0.3228087,0.1338981
0.6918415,0.03103377,0.1509964,-0.4864291,-0.4901336,0.05666401
0.6343042,-0.03207153,0.143921,-0.5547569,-0.5914334,-0.04013269
0.5220237,-0.1830378,0.1232019,-0.572614,-0.6517185,-0.1668393
0.467025,-0.2951271,0.1124067,-0.3582292,-0.7734939,-0.2086661
0.4767561,-0.3458226,0.1023742,0.1079653,-1.015185,-0.2456678
0.5938068,-0.3680254,0.03715549,0.3390003,-1.206892,-0.1916834
0.8807755,-0.2861969,-0.07022872,0.3460185,-0.932679,-0.07902766
1.079235,-0.2347232,-0.1090587,0.280172,-0.5110885,-0.06515287
1.073951,-0.2098198,-0.02791438,0.1356352,-0.4263087,-0.04962921
1.052445,-0.201575,0.08582082,0.07942503,-0.3152173,-0.1037147
1.007131,-0.2367387,0.1396179,0.0365219,-0.1396168,-0.2192222
0.9618579,-0.1894976,0.173053,-0.05496351,-0.1764165,-0.3376885
0.9836146,-0.1777791,0.1811659,-0.1126404,-0.1355963,-0.4108503
1.02993,-0.209138,0.06736265,-0.2709475,0.1392236,-0.232004
1.220699,-0.2153307,-0.1552186,-0.4809041,0.6037331,0.0279583
1.598717,-0.3173387,-0.3813773,-0.5955312,1.258778,0.1327919
1.7804,-0.4416619,-0.4117638,-0.6288672,1.701298,0.006256575
1.408168,-0.4989906,-0.1268221,-0.3867575,1.468524,-0.2911473
0.9499256,-0.4935288,0.2007106,0.2759814,0.4846153,-0.4397648
0.9748479,-0.4371324,0.2285854,0.9720788,-0.6482257,-0.3579171
1.194843,-0.2361251,0.03005748,1.19588,-0.997186,-0.1837197
1.399914,0.1446215,-0.124766,0.9906885,-0.7657333,-0.01803992
1.515755,0.341006,-0.1717044,0.5320927,-0.5397841,0.2138846
1.226066,0.2606799,-0.107235,-0.2475992,-0.2119871,0.4831476
0.8530809,0.1689196,0.02568299,-0.8230375,-0.2998181,0.531676
0.8416577,0.07858412,0.05479056,-0.7749551,-0.7379248,0.5261468
0.9576526,-0.04327538,-0.0246809,-0.7036518,-0.5469768,0.5721057
0.962099,-0.1395365,-0.1001188,-0.725428,-0.1820157,0.4939696
0.8871982,-0.1156392,-0.09461022,-0.5894198,0.04392958,0.4064049
0.8352358,0.005457582,-0.06880274,-0.5620994,0.2044706,0.3533709
0.8931302,0.04078535,-0.1245746,-0.6195843,0.2190152,0.3103707
0.9515977,0.02167432,-0.155132,-0.7573348,0.7957891,0.3292768
0.8882114,0.01229766,-0.1571034,-1.025906,1.124685,0.3608237
0.7855901,-0.04087521,-0.0945927,-1.151593,0.7150315,0.3729868
0.704618,-0.08107235,0.06201921,-1.159708,0.4402699,0.3853979
0.7108936,-0.09528779,0.06130937,-1.144084,-0.07901311,0.4044929
0.877985,-0.05680785,-0.02241953,-1.029421,-0.1788159,0.4059436
1.046606,0.0208517,-0.07539193,-0.9215555,0.5273973,0.3928568
1.05038,-0.008325962,-0.1767665,-1.057385,0.7931959,0.334532
0.8864065,-0.08830687,-0.2052207,-1.2868,0.5461321,0.2616885
0.7403477,-0.2182632,-0.2174224,-1.247532,0.1593676,0.2525451
0.8246226,-0.480775,-0.2812518,-1.083443,0.1902382,0.08415324
1.022893,-0.7212845,-0.2664283,-0.8302281,0.9637349,-0.3651673
1.236738,-0.8132142,-0.08461947,-0.3856852,1.86073,-0.7467505
1.390868,-0.6981357,0.2360464,-0.03685371,1.92098,-0.8145411
1.3381,-0.407976,0.4338617,-0.007442434,0.662779,-0.708513
1.321187,-0.1729244,0.4055588,-0.5209918,-0.4212433,-0.4718895
1.429514,-0.2049672,0.2824653,-1.416133,-0.264548,-0.07264859
1.47059,-0.3148568,0.1678604,-1.975358,0.1642945,0.07093494
1.458463,-0.2260973,0.1955756,-1.940922,0.2554956,-0.1902157
1.253106,-0.216695,0.2317886,-1.597252,0.2710365,-0.2904659
0.9238007,-0.267783,0.1321382,-1.243239,0.4637942,-0.09686212
0.8318475,-0.1548368,0.09532029,-1.10905,0.5284069,0.08047029
0.8232756,-0.153281,0.1074504,-1.313653,0.3689247,0.1847004
0.709777,-0.1335415,0.07167512,-1.521322,0.2222369,0.1666417
0.7098852,-0.09471235,0.08188609,-1.408803,0.1187813,0.04294123
0.793914,-0.2328644,0.08836945,-1.198313,0.1427058,-0.08470531
0.7674476,-0.2533934,0.07010938,-0.9272938,0.1073548,-0.1835098
0.7533443,-0.2366931,0.07724376,-0.6928357,0.09237072,-0.1735162
0.7624883,-0.2139077,0.09093754,-0.7093683,0.1651795,-0.1704015
0.7085924,-0.1251438,0.1256779,-0.713322,0.07851397,-0.2876078
0.747038,-0.1454653,0.1391351,-0.7154093,-0.0601925,-0.4029895
0.8241772,-0.1233214,0.1237069,-0.8074748,-0.2387205,-0.4844005
0.8787938,-0.1117661,0.1276311,-0.8518614,-0.1829709,-0.5132389
0.9708291,-0.1676773,0.1384834,-0.8951498,0.1563792,-0.5849554
0.9867461,-0.1868875,0.174029,-0.863062,0.2913697,-0.8118451
0.9325036,-0.1967791,0.2434765,-0.8049864,0.1658468,-0.953924
0.8305517,-0.06829735,0.2834401,-0.8270678,-0.1289058,-0.8576552
0.778084,0.1077341,0.1985843,-0.9100481,-0.2466518,-0.5191439
0.8629814,0.1555804,0.02743006,-1.084618,-0.1027444,0.05010029
0.8929033,0.05579146,-0.1049021,-1.115112,-0.06031284,0.4459567
0.9199182,-0.1980003,-0.2465158,-0.9492263,0.1030832,0.3979084
1.186676,-0.5547215,-0.4351934,-0.7718228,0.7994576,0.2969803
1.681507,-0.9314745,-0.571304,-0.487102,1.825241,0.2126864
1.936191,-1.022262,-0.5466203,-0.09645739,2.162845,-0.2089751
1.643474,-0.7555271,-0.2145346,0.1892064,1.442622,-0.5911191
1.348848,-0.3861529,0.3261037,0.3326772,0.1422779,-0.550695
1.321374,-0.02694716,0.5160377,0.2825329,-1.111161,-0.4327085
1.318484,0.1998953,0.1747521,-0.3144658,-0.8523505,-0.268812
1.300105,0.2718319,-0.07608751,-1.159333,-0.131485,0.1171268
1.1233,0.185917,-0.003316707,-1.380634,-0.8329138,0.4592026
0.8714589,-0.02781777,0.02054853,-1.116783,-1.046036,0.5553895
0.7646071,-0.172253,-0.007764469,-0.867546,-0.9066692,0.5677009
0.6983652,-0.1967622,-0.009691503,-0.5560395,-1.435467,0.5822907
0.6922651,-0.1035686,-0.08329864,-0.3806656,-1.032613,0.4889948
0.7419334,-0.0005373131,-0.1430035,-0.5483613,-0.6703351,0.3300227
0.7563303,0.012062,-0.1643147,-0.6007044,-0.6309641,0.2578635
0.7795244,0.02133205,-0.212864,-0.5358874,-0.07634945,0.286605
0.796097,-0.006693684,-0.2365568,-0.7221984,0.1701653,0.297208
0.8422008,-0.03687433,-0.1558348,-0.8206235,0.7329544,0.2886578
0.8954757,-0.02455193,-0.01959724,-0.837987,1.057832,0.3419413
0.8515558,-0.05269059,0.02935153,-0.984203,0.7311542,0.4019826
0.7913163,-0.09945884,0.04202202,-0.9900317,0.6810075,0.4604133
0.774211,-0.1695819,0.08448664,-0.8758383,0.0834047,0.4717419
0.8083596,-0.2461483,0.03309383,-0.6419041,-0.4134035,0.4194246
0.9070569,-0.2947161,-0.1064983,-0.3975053,-0.1264873,0.3860478
0.962597,-0.3206276,-0.2360165,-0.3422201,0.1546697,0.2685959
0.9235865,-0.3550526,-0.3274357,-0.3293308,0.667045,0.09476502
0.9018307,-0.5297742,-0.3614139,-0.3472469,1.265519,-0.1034533
0.9889554,-0.73243,-0.2797925,-0.3110491,1.533271,-0.3860304
1.178834,-0.7362514,-0.02178281,-0.1206329,1.344945,-0.5418639
1.412673,-0.5794169,0.2339098,0.04943111,0.722167,-0.5545844
1.53371,-0.3700648,0.2759672,-0.07527981,0.1941209,-0.5111489
1.510191,-0.2393538,0.2367214,-0.4609046,0.2010028,-0.3756809
1.543483,-0.249125,0.3006089,-0.6257086,0.1682425,-0.3030577
1.537155,-0.3136867,0.3771353,-0.4277414,-0.3495573,-0.2825648
1.27778,-0.3399079,0.309695,-0.1199135,-0.1846928,-0.1171181
0.9581498,-0.246779,0.2235543,-0.004189952,0.1958158,0.2012972
0.7523879,-0.09282475,0.2048636,-0.08955968,-0.1510093,0.4352547
0.6304958,-0.0465948,0.1415953,-0.1276654,-0.06190785,0.4655017
0.5815308,-0.1153238,0.1302862,-0.196552,-0.01543583,0.4707769
0.5888046,-0.1869313,0.1435377,-0.1933031,-0.3489894,0.3102604
0.5760804,-0.2345043,0.07017039,-0.01928233,-0.3285495,-0.0851649
0.5118724,-0.2832278,0.07125317,0.16302,-0.4877597,-0.4172519
0.5053084,-0.3489529,0.1026915,0.4134777,-0.5458642,-0.7491726
0.5290219,-0.4154449,0.08201691,0.6728977,-0.5337397,-0.9669058
0.5549049,-0.3912991,0.07675831,1.001505,-0.8590414,-0.8225604
0.7096461,-0.2688915,0.005317426,1.398956,-1.034848,-0.5912717
0.9338872,-0.1456857,-0.08653553,1.509093,-1.086088,-0.354949
1.121481,-0.08393654,-0.07040112,1.306296,-0.7863069,-0.1415819
1.169049,-0.08697319,0.03412527,1.029637,-0.4083537,-0.1596643
1.088437,-0.08298819,0.1558699,0.833738,-0.4682992,-0.1566922
1.041622,-0.08505276,0.1942953,0.6675297,-0.4046162,-0.09440159
0.9530127,-0.1256728,0.177271,0.5983095,-0.2870635,-0.2298298
0.8898963,-0.1610271,0.1816913,0.6535662,-0.3027257,-0.2913459
0.9992139,-0.2503861,0.1215319,0.5827131,-0.1169836,-0.1564098
1.176964,-0.3257205,-0.04719631,0.5429949,0.2002739,0.06680103
1.517926,-0.3279832,-0.2400539,0.5346629,0.5911541,0.3465295
1.837819,-0.4470444,-0.338599,0.4103248,1.240327,0.3118257
1.6655,-0.5944725,-0.2481468,0.4235425,1.611051,-0.09850505
1.414175,-0.546413,-0.1259353,0.6288812,0.7195816,-0.3947719
1.464932,-0.4263267,-0.11289,1.096824,-0.6696936,-0.2826901
1.356274,-0.349833,-0.04628857,1.485718,-1.073386,-0.1012422
1.25733,-0.246574,-0.01807893,1.349871,-0.656008,-0.1611873
1.294769,-0.07123264,-0.1025961,1.120874,-0.4130728,0.002249751
1.037796,0.1447142,-0.071196,0.8576147,-0.6825796,0.3984413
0.9569203,0.1790891,-0.05924051,0.458158,-0.7455471,0.5981028
1.041272,0.01835778,-0.08684287,0.2944334,-0.5062331,0.6473212
0.8126182,-0.03637099,0.006175758,0.3251966,-0.4964971,0.4828965
0.7479303,-0.08556976,0.04922858,0.4654404,-0.3816803,0.3102616
0.8006409,-0.1138045,0.02698539,0.6509659,-0.2078566,0.3221913
0.7599635,0.01788263,-0.07472855,0.5884192,-0.102833,0.3340311
0.7921951,0.01444029,-0.1995461,0.3268159,0.2917821,0.4039483
0.7619853,-0.01842233,-0.1446691,0.07683693,0.8581355,0.4259837
0.7727573,0.004549025,-0.0832142,-0.08262832,1.133844,0.4274478
0.8178318,-0.04481904,-0.05717701,-0.1575554,0.6136384,0.4861621
0.8464462,-0.04445491,0.002323398,-0.2321041,0.04907792,0.4620474
0.9220283,-0.1218515,-0.03098866,-0.1727955,0.2546743,0.4997621
0.9186997,-0.1772224,-0.08227553,-0.01159519,0.370875,0.4792962
0.8816049,-0.1977183,-0.1300557,-0.04051711,0.4819948,0.2333327
0.7942393,-0.4192817,-0.2072303,-0.05847111,1.212172,-0.201379
0.751647,-0.6253572,-0.1378056,0.09370063,1.568716,-0.7693621
0.9083809,-0.7476428,0.05607444,0.3428594,0.8281671,-1.083958
1.234345,-0.6988309,0.2068497,0.584554,-0.1285811,-1.008896
1.690081,-0.4145843,0.3049988,0.3925712,-0.2939533,-0.7298232
1.83032,-0.2284216,0.3013183,0.09714887,-0.02246713,-0.441651
1.595669,-0.2611175,0.3148113,0.1776396,-0.006371781,-0.2864165
1.443546,-0.3202038,0.4291325,0.1969682,-0.06720872,-0.1138244
1.245699,-0.1797446,0.3231899,0.1943712,-0.02171332,0.122885
0.9645877,-0.02470009,0.1257219,0.2449886,0.04058366,0.2912822
0.8504234,0.02861506,0.1226255,-0.008785849,0.1299385,0.3149913
0.7760805,0.117931,0.1287276,-0.2861395,0.1704132,0.1993031
0.666398,0.05800111,0.1429276,-0.3965197,-0.003118007,0.04933686
0.567425,-0.03574527,0.156993,-0.5690404,-0.4176208,-0.1031161
0.4298621,-0.1068582,0.1372055,-0.6350775,-0.9890521,-0.208373
0.3817985,-0.2814568,0.1557033,-0.3451608,-1.573238,-0.1407636
0.4961542,-0.3359638,0.08548561,0.1302532,-1.736924,0.06484263
0.6769099,-0.3688424,-0.03211193,0.5816608,-1.312637,0.1923028
0.9094524,-0.3979701,-0.09480336,0.8068842,-0.8286649,0.1392539
1.031221,-0.3024781,-0.07622107,0.6579665,-0.6506958,0.0605688
1.016771,-0.2293845,0.01919706,0.49887,-0.6769713,0.05499212
1.083045,-0.1838745,0.06453049,0.3979837,-0.5837162,0.002233482
1.105288,-0.2053539,0.08420424,0.1897329,-0.2565842,-0.06785096
1.009614,-0.2290734,0.07923781,0.1335692,-0.0563008,-0.03835249
0.9967007,-0.2256717,0.02736543,0.04347707,0.05218158,-0.03205614
1.182847,-0.3012108,-0.09966258,-0.1451169,0.5059456,0.01697843
1.55684,-0.3426214,-0.3488431,-0.2373754,1.342279,0.1144831
1.743433,-0.4144683,-0.3964295,-0.3287316,2.013884,-0.03787368
1.489429,-0.5298705,-0.09851758,0.08825,1.740645,-0.3344758
1.2156,-0.5491339,0.2205825,0.9868644,0.5807943,-0.5903624
1.217471,-0.4655723,0.2552658,1.374731,-0.5280593,-0.686209
1.29894,-0.1387016,-0.008491697,1.101051,-0.7049895,-0.4948287
1.323393,0.2692909,-0.2120444,0.5288142,-0.2454338,-0.2320247
1.265259,0.3025484,-0.1877521,-0.2095964,-0.2609275,0.0476691
1.100157,0.09976036,-0.1005682,-0.6702617,-0.3564543,0.3256199
0.9471711,0.02265607,-0.05118525,-0.5216589,-0.1786114,0.4720876
0.8938731,-0.08032788,-0.02605567,-0.239341,-0.4098519,0.539325
0.8785517,-0.1966232,0.02585911,-0.03646387,-0.545562,0.4793071
0.8942073,-0.09434729,0.01619314,0.1183709,-0.4883211,0.3986073
0.976959,0.0008525113,-0.08721199,-0.1518136,-0.3309256,0.388156
1.033034,0.04440161,-0.1820761,-0.5151256,0.2619849,0.3595496
0.9275709,0.1006737,-0.2108666,-0.7282986,0.4185626,0.4559294
0.7699901,0.02023949,-0.1422659,-0.9194983,0.2411544,0.5577961
0.7545917,-0.04493353,-0.08085865,-0.8141047,0.2965675,0.4882521
0.8701195,-0.08204146,-0.08707212,-0.7582115,0.2783417,0.4253567
1.014446,-0.1306979,-0.1278714,-0.758969,0.4122306,0.3774322
1.054302,-0.09141406,-0.1747711,-0.5975739,0.624823,0.3485259
0.9498523,-0.06920851,-0.1142608,-0.6712623,0.5968519,0.4032794
0.8489424,-0.01036684,-0.03595961,-0.6843082,0.1612387,0.4939228
0.8605229,0.07913277,-0.07536745,-0.5618032,-0.3335784,0.6245714
0.9580622,0.1101515,-0.151666,-0.587592,-0.1487333,0.6899021
1.037947,0.1339431,-0.2357407,-0.6782227,0.2700196,0.6328361
0.9992171,0.05050736,-0.2682354,-0.935205,0.5286859,0.5446634
0.8537279,-0.122722,-0.2403248,-1.095097,0.7107173,0.4104426
0.7086267,-0.3467503,-0.2653824,-1.04448,0.6627,0.2480663
0.716061,-0.6968086,-0.2556092,-1.029941,0.973764,-0.07400974
0.9695664,-1.109783,-0.125745,-0.8300045,1.779498,-0.7680446
1.197376,-1.371525,0.05403673,-0.4607455,1.93749,-1.415183
1.164918,-1.093468,0.161348,-0.4194212,0.9251552,-1.46991
1.309902,-0.4737814,0.08203687,-0.9430642,-0.1482646,-1.004363
1.729446,-0.2242927,0.001696776,-1.745955,-0.05389477,-0.446778
1.778718,-0.3018914,0.009918962,-2.300757,0.4900009,-0.2895873
1.485754,-0.2831682,-0.04457137,-2.278351,0.6503763,-0.41298
1.250755,-0.1162706,0.01753148,-2.006551,0.9224699,-0.2346588
0.9752723,-0.03207661,0.1478483,-1.963299,0.8526623,0.1474891
0.810768,-0.1539636,0.09170579,-1.984443,0.5486374,0.3654246
0.9352532,-0.2506881,0.07869496,-1.984054,0.8775435,0.3985153
1.011302,-0.3259426,0.1413127,-1.968094,0.9251084,0.2713775
0.9140214,-0.4123712,0.1233088,-1.712291,0.6584266,0.08636907
0.8253368,-0.3673555,0.1137243,-1.325042,0.6608099,-0.08226235
0.753512,-0.3172724,0.06795994,-1.030831,0.5690185,-0.2661523
0.6789709,-0.2554676,0.002072782,-0.9522814,0.6056185,-0.3908897
0.6700678,-0.2213251,0.006706981,-0.9037171,0.4812277,-0.4378654
0.6802279,-0.2787583,0.02490495,-0.7224873,0.08384421,-0.4901765
0.7296298,-0.2634001,0.04251126,-0.582903,-0.1856224,-0.5123716
0.8730766,-0.2835833,0.03757264,-0.3379002,-0.3633981,-0.4512821
0.9287752,-0.340112,0.01658233,-0.009003114,-0.2434084,-0.374621
0.881428,-0.3245546,0.01213219,0.1994688,-0.237882,-0.3306098
0.8417404,-0.2987559,-0.0008978389,0.3392162,-0.4414501,-0.2706669
0.8037819,-0.2346296,-0.01179789,0.3855544,-0.5185701,-0.1937385
0.8309403,-0.1946904,-0.03259227,0.4064542,-0.6594496,-0.178284
0.8669045,-0.1780287,-0.0478328,0.3321011,-0.5540105,-0.1997365
0.8454837,-0.1433062,-0.02412647,0.1840868,-0.4476723,-0.1729576
0.8380345,-0.1468097,0.02571946,0.185975,-0.6749371,-0.09815074
0.8415005,-0.1339965,0.1119674,0.2352218,-0.8963673,0.0178794
0.8417533,-0.1217022,0.147795,0.3046777,-1.144618,0.1333965
0.8648957,-0.1167752,0.08357507,0.3873986,-1.128716,0.2053098
0.902321,-0.09535921,0.02566388,0.4376149,-0.8040684,0.2906278
0.9047411,-0.1640567,-0.003981836,0.4927009,-0.6319453,0.3187395
0.8764497,-0.2792234,-0.01394377,0.4966392,-0.6502255,0.1740627
0.8592279,-0.3082064,0.002223185,0.5023544,-0.6853291,-0.03892596
0.8769656,-0.2977827,-0.006055111,0.4882698,-0.4314996,-0.1997368
0.9733151,-0.3242988,-0.06590019,0.4377095,0.0332418,-0.2221439
1.192454,-0.3564912,-0.2219483,0.3433019,0.5842334,-0.0775982
1.539225,-0.3847385,-0.4074082,0.1085309,1.385763,0.02583254
1.745305,-0.4222837,-0.3881146,-0.06924274,2.019078,-0.07076761
1.477723,-0.4428719,-0.1113604,0.006724334,1.783607,-0.2719668
1.043141,-0.515968,0.2919585,0.5706618,0.3282259,-0.4284903
0.9628596,-0.6068046,0.5077684,1.379837,-1.085524,-0.4592098
1.12683,-0.4838136,0.2284488,1.449135,-0.7837088,-0.4262732
1.20866,-0.1867865,-0.09158569,1.109577,-0.3880271,-0.3958607
1.158272,0.04481344,-0.04048072,1.055311,-1.14776,-0.1809735
1.06869,0.1345167,-0.07123653,0.6570126,-1.195018,0.2800098
1.021519,0.1250689,-0.2231924,0.1954924,-0.8050504,0.60273
0.973363,0.06138543,-0.2060031,0.1834538,-0.8558939,0.5987844
0.9080967,-0.06344462,-0.1777107,0.1139181,-0.5709105,0.52899
0.8322844,-0.1365719,-0.1319667,0.1783888,-0.5221513,0.456868
0.7836319,-0.1089088,-0.05922381,0.3768944,-0.5082368,0.2645106
0.8383873,-0.1202935,-0.0749131,0.3630872,-0.1273083,0.1806576
0.8436092,-0.1019274,-0.1330827,0.3467921,0.09932356,0.3367478
0.8031003,-0.06326605,-0.1922199,0.2141642,0.6150228,0.4699195
0.7946069,-0.08701378,-0.158621,0.04602258,0.7349078,0.5469347
0.7352574,-0.07236235,-0.0803101,-0.04549411,0.3553581,0.5853681
0.7656969,-0.1035293,-0.05284728,-0.1667988,0.3873446,0.5089299
0.8400483,-0.1922309,-0.01495258,-0.1156925,0.3780187,0.421952
0.8395488,-0.2383573,0.0006590724,-0.01192263,0.3668494,0.2852304
0.8456919,-0.2757931,-0.00850978,0.1302219,0.2431577,0.1582936
0.817069,-0.3586082,-0.07065534,0.3537252,0.1362347,0.08714614
0.8314004,-0.5878625,-0.1703957,0.539071,0.7733554,-0.2248591
0.9718921,-0.8172297,-0.1110871,0.868224,1.28127,-0.6597208
1.2256,-0.7977299,0.07732652,1.171415,0.8343818,-0.7947856
1.510429,-0.5141524,0.2233214,1.15946,0.04658783,-0.5618805
1.664986,-0.1803274,0.2427864,0.7270031,-0.1878146,-0.2204093
1.715953,-0.1724244,0.2262456,0.2141461,-0.0523078,-0.09063695
1.556295,-0.354282,0.3296854,0.3435737,-0.1186878,-0.2191278
1.24343,-0.3559422,0.3808502,0.692539,-0.24577,-0.3475622
1.146938,-0.2593249,0.3022994,0.7355563,-0.2852787,-0.2415408
1.080377,-0.105138,0.2313022,0.7851216,-0.08410339,-0.05323062
0.8670533,0.03279017,0.1403382,0.6637198,0.0447374,0.07851945
0.7533327,0.009084481,0.1009922,0.357468,-0.1853668,0.1719188
0.6895205,-0.02318665,0.1249553,0.1633639,-0.4431354,0.1080608
0.5886,-0.0507801,0.10637,0.05435156,-0.6400346,0.07355484
0.5330484,-0.1783734,0.09625359,0.09189899,-0.6591023,0.007605363
0.488131,-0.3092266,0.1130304,0.2470682,-0.7212375,-0.3085354
0.463718,-0.3483917,0.1243257,0.574714,-0.9992488,-0.4169841
0.566523,-0.3060928,0.07344,0.8872007,-1.132626,-0.2929005
0.7665436,-0.2664599,-0.02245038,0.9248535,-1.054155,-0.2024237
0.9122374,-0.2378526,-0.04829782,1.036085,-0.8672648,-0.03464048
0.9488049,-0.2140257,0.01135914,1.067823,-0.8177205,0.05860969
0.9387388,-0.1913496,0.09251793,0.8929281,-0.9348188,-0.04174043
0.9916539,-0.1167979,0.1005403,0.7452547,-0.9841245,-0.1887002
1.093736,-0.1225273,0.08276245,0.5227422,-0.7368715,-0.2277717
1.114794,-0.2061932,0.1003772,0.4721596,-0.1978405,-0.1806524
1.121345,-0.2642263,0.06046718,0.5124883,0.1730516,-0.09729482
1.256541,-0.3754324,-0.07537063,0.4118146,0.5846684,0.06867755
1.497055,-0.390833,-0.2949848,0.2765835,1.25293,0.08777191
1.589641,-0.3018313,-0.3544066,-0.009028871,1.555057,-0.22277
1.337177,-0.3102589,-0.05170637,-0.05433135,1.133118,-0.64838
1.059576,-0.3448993,0.2122931,0.4627056,0.002199445,-0.7712024
1.123388,-0.3472683,0.1075524,1.136353,-1.313222,-0.5480605
1.509468,-0.1959766,-0.1167683,1.385757,-1.569669,-0.3655546
1.786231,0.06565061,-0.2138148,1.093019,-0.3002379,-0.1730306
1.36265,0.1231523,-0.1623153,0.80155,0.6006776,0.1176271
0.7256161,0.07159817,-0.0006426385,0.5442236,-0.2394097,0.4050676
0.7563097,-0.009763409,0.07373678,0.3752608,-1.163166,0.8078266
1.021106,-0.2090791,-0.04152551,0.5713291,-1.171704,1.017419
1.020579,-0.2829768,-0.1255863,0.6671253,-0.741804,0.8077061
0.8665802,-0.1792484,-0.07286498,0.7102511,-0.176083,0.6015403
0.6434393,-0.1064134,-0.02195289,0.8266524,-0.1709176,0.4687367
0.7110647,-0.06972434,-0.06455077,0.7002208,-0.3477858,0.2979988
0.9443748,-0.07070221,-0.1666509,0.5914242,0.09778875,0.2838061
0.9601484,-0.1042419,-0.2439183,0.4104431,0.7314681,0.3179361
0.893901,-0.06977949,-0.1402246,0.1434234,1.161336,0.2886079
0.695921,-0.01718971,0.101767,0.0946976,0.9161391,0.3456396
0.6098344,-0.000128946,0.1492275,-0.1176975,0.2437292,0.393452
0.7765073,-0.02009987,0.0758967,-0.3373509,0.1099074,0.3966137
0.8226599,-0.1020187,0.07091534,-0.245244,0.1118494,0.4355246
0.8973727,-0.1901224,-0.007557897,-0.1562319,0.06536054,0.4623356
0.9984955,-0.3118906,-0.09427438,0.06244793,0.1257042,0.4769839
0.9547056,-0.3697844,-0.1081687,0.4097817,-0.0255631,0.4455619
0.8989573,-0.3113676,-0.1485826,0.5153364,0.07421505,0.3329759
0.8592007,-0.4085987,-0.2627805,0.4709675,0.5038927,0.02927835
0.8985568,-0.5112655,-0.2981915,0.518604,1.084904,-0.5260795
1.022413,-0.4166733,-0.0814997,0.6422061,1.309942,-0.9838164
1.28378,-0.3008387,0.2333981,0.6627377,0.4367784,-0.954221
1.502535,-0.1890323,0.4229593,0.3766352,-0.1729276,-0.3531129
1.400457,-0.2201848,0.3328115,-0.2629415,0.3127127,0.3795262
1.306844,-0.4051578,0.2458031,-0.6581863,0.5012991,0.4803359
1.280793,-0.5427615,0.4783363,-0.2407777,-0.1960282,0.02181917
1.15311,-0.6180466,0.5563779,0.3923636,-0.7195389,-0.1901864
1.119897,-0.4912394,0.3397492,0.6715337,-0.3915697,-0.0610507
1.084187,-0.2709058,0.1829407,0.7688201,-0.09419024,0.001977426
0.9551795,-0.1804692,0.1677909,0.7232107,-0.07469627,-0.00592424
0.8689622,-0.07389554,0.1999071,0.5298925,-0.03320065,-0.07520798
0.69092,0.006166446,0.1162071,0.2604739,-0.3629285,-0.217698
0.5221451,-0.01283163,0.1003222,0.1403699,-0.6717339,-0.2551731
0.5447639,-0.1097111,0.1382879,0.3046287,-0.6686036,-0.2529675
0.5036615,-0.2958937,0.05027843,0.4749261,-0.7756861,-0.3217881
0.4918546,-0.3723637,0.06530511,0.7899378,-1.01284,-0.3276056
0.6870484,-0.3446519,0.05619585,1.189461,-1.107338,-0.3033633
0.8469467,-0.3370962,-0.02252353,1.23045,-0.8533036,-0.3243855
0.8935989,-0.2796511,-0.009898851,1.217798,-0.6515133,-0.2227859
0.8786683,-0.1804066,-0.01632015,1.173565,-0.8859892,-0.06600269
0.8877521,-0.07025742,0.03790858,0.926051,-1.057196,-0.05392177
0.9204481,-0.01527704,0.08303939,0.7373462,-0.7872553,-0.1120897
0.9518618,-0.04902031,0.06509858,0.5066406,-0.472711,-0.1631897
1.040729,-0.07230359,0.1183965,0.3373362,-0.3809913,-0.1697976
1.049015,-0.1059896,0.143825,0.3497235,-0.2723379,-0.1214656
1.086735,-0.2288765,0.09633209,0.3159317,0.0892989,-0.01159888
1.312411,-0.3732043,-0.0563385,0.2731862,0.7721467,0.1641128
1.565001,-0.4114594,-0.27075,0.1553166,1.432627,0.1536
1.683316,-0.3792961,-0.3484679,-0.05946561,1.675155,-0.2034664
1.464362,-0.3858423,-0.1987,-0.06774277,1.378424,-0.5215449
1.139241,-0.3948459,0.07802715,0.3554258,0.3998635,-0.3678973
1.102388,-0.382713,0.1735408,0.9615318,-0.6403459,-0.07497074
1.217461,-0.376876,0.000157682,1.175191,-0.7747082,-0.04519941
1.253437,-0.312606,-0.1538675,1.066965,-0.5050914,-0.009722612
1.06549,-0.1428623,-0.0800718,0.9807046,-0.8675275,0.0834295
0.8911148,0.0427059,-0.01694838,0.7899897,-1.208882,0.2454726
1.064402,0.1092307,-0.1213512,0.5556752,-0.7655362,0.5540771
1.218675,0.04977666,-0.1237784,0.3752582,-0.2665266,0.6472223
1.114744,-0.01498128,-0.1040183,0.1450898,0.0308308,0.632238
1.001715,-0.06427927,-0.1074341,0.0532051,0.05606791,0.7268905
0.8820628,-0.1469437,-0.01224108,0.1073032,-0.2741817,0.7156946
0.765492,-0.2093997,-0.03518848,0.1410904,-0.2880447,0.579421
0.7613681,-0.2320168,-0.06164129,0.3208506,-0.1192401,0.3517973
0.7706868,-0.2034419,-0.02757415,0.5265022,0.1094189,0.2155061
0.7794977,-0.1373394,-0.06814235,0.4920089,0.4232343,0.2517784
0.7863144,-0.1280077,-0.05848246,0.3434713,0.4647761,0.2838205
0.7383981,-0.1031019,-0.05234075,0.1785147,0.4849074,0.3325325
0.709578,-0.07441158,-0.005839073,0.08066557,0.1091885,0.3582884
0.7111771,-0.1291485,0.07520597,0.1331277,-0.4768478,0.3891078
0.8458939,-0.1433238,-0.01724543,0.2365114,-0.2006761,0.4363515
1.074512,-0.1576809,-0.1376715,0.3129234,0.4036065,0.3416762
1.081615,-0.2043619,-0.1546612,0.3234379,0.670418,0.2168274
0.951435,-0.2047026,-0.1162774,0.3696554,0.5892016,0.1270161
0.8816662,-0.2912963,-0.08228304,0.5338885,0.3825823,-0.02705168
0.8860315,-0.5066043,-0.1063062,0.6115823,0.6144757,-0.3380787
1.054642,-0.6955886,-0.08069093,0.6111405,0.7040534,-0.7906421
1.362129,-0.6382427,0.07173856,0.6351759,0.1668099,-0.9077288
1.634896,-0.3649662,0.2182797,0.4386356,-0.1232457,-0.455165
1.678236,-0.1707618,0.226978,-0.02270341,0.1400591,-0.05200086
1.525446,-0.1407099,0.2657993,-0.3754971,0.3160225,-0.1032638
1.356228,-0.2680799,0.4094958,-0.2445035,-0.1048384,-0.2174376
1.151148,-0.3657637,0.3911465,0.1432986,-0.5134791,-0.1439437
0.9923653,-0.2975992,0.2876197,0.2998391,-0.2721672,-0.02222715
0.9974582,-0.2782134,0.2517067,0.3780213,-0.04349515,0.1771882
0.3306664,0.1664577,0.04983407,-1.421061,-0.3601501,0.3254288
0.1929703,0.1056573,0.05113741,-1.727646,-0.5412114,0.2894695
0.1820312,-0.1871824,0.07969698,-1.8126,-1.029795,0.1575813
0.2864817,-0.3081408,0.087911,-1.494605,-1.358839,-0.02897733
0.5933893,-0.4072333,0.02718226,-0.9593295,-1.876007,-0.07429481
1.034568,-0.5239765,-0.090116,-0.5469186,-1.918581,-0.0306115
1.283464,-0.4985338,-0.136484,-0.2509651,-0.9662554,0.02981288
1.215943,-0.4402131,-0.07598484,-0.1740611,-0.158165,0.04789171
1.130219,-0.3363902,-0.0009890016,-0.1805304,0.1668353,-0.01978854
1.182331,-0.3111364,0.004506022,-0.1889031,0.03642971,-0.1445131
1.414257,-0.3159015,-0.1913081,-0.4812707,0.3471448,-0.2220612
1.706153,-0.2957372,-0.39652,-0.8489835,1.070691,-0.09386782
1.587678,-0.3760955,-0.2070502,-0.8952045,1.446143,-0.03270108
1.242191,-0.3838195,0.1817343,-0.6038446,1.532446,-0.3384615
1.195602,-0.2828498,0.30712,-0.2287397,0.1193988,-0.56399
1.41757,-0.1710712,0.09106745,-0.05041617,-1.159546,-0.2200189
1.639433,-0.1614348,-0.3101855,-0.3209972,0.5807802,0.1954902
1.283304,-0.2657123,-0.438976,-0.7282575,2.074589,0.128195
0.5578256,-0.2782695,-0.0232044,-0.5670763,0.3132492,0.050637
0.3987654,-0.260192,0.3102385,-0.2053262,-1.66804,0.1421189
0.6235997,-0.2389686,0.05906529,0.04707172,-1.783782,0.09108243
0.8640883,-0.1471432,-0.2570849,0.2956974,-1.159493,0.09464584
1.034218,-0.001324982,-0.2264453,0.1328709,0.03167878,0.1689983
0.9782836,0.1907604,-0.1669159,-0.05250041,1.087534,0.2493416
0.8804199,0.2312284,-0.1100341,-0.2168591,1.118754,0.4322955
0.7355345,0.1411856,0.002466679,-0.6644581,0.9207974,0.5237231
0.7038525,0.05346621,-0.03531345,-0.7299835,0.7650494,0.5941082
0.84742,-0.09959752,-0.0207134,-0.6762872,0.9166851,0.7039592
0.8631512,-0.229181,0.03374624,-0.809681,1.036452,0.615258
0.8204887,-0.2849014,-0.004332183,-0.7703341,0.4860594,0.4592347
0.7522333,-0.3410737,-0.001337567,-0.7007366,-0.06960012,0.3711551
0.7508691,-0.4301167,-0.1196809,-0.4627978,-0.3894454,0.2674641
0.8378407,-0.5034424,-0.224313,-0.1272371,0.04462303,0.09944179
0.9853628,-0.5188429,-0.142554,0.01223837,1.038266,-0.3685801
1.287448,-0.5623102,-0.04032647,0.06544375,1.424155,-1.088729
1.363521,-0.4864204,0.07340179,0.00443999,0.9700214,-1.34584
1.351563,-0.09391191,0.1282652,-0.3376545,-0.1429831,-0.816678
1.541469,0.2609677,0.1641844,-0.9188421,-0.5962655,-0.05849171
1.509172,0.1247791,0.2064439,-1.192011,-0.1703368,0.3167267
1.41386,-0.2621671,0.2387151,-1.059568,-0.06576543,0.0651269
1.442167,-0.4954724,0.3906387,-0.6528511,-0.1453639,-0.3312382
1.287906,-0.5732409,0.4175255,-0.001719075,-0.08907769,-0.2434541
1.024246,-0.3321095,0.1957177,-0.01777727,0.338385,-0.009320265
0.6913953,0.04989643,0.03792263,-0.3380433,0.6962656,0.1529262
0.3936419,0.1541062,0.06031578,-0.3564703,0.3895858,0.2628159
0.3279475,0.2228152,0.151503,-0.9348374,-0.1965192,0.107377
0.2808596,0.1526389,0.1676964,-1.208255,-0.8708894,0.0451709
0.3110403,-0.1461882,0.1145504,-0.8954354,-1.122975,-0.08076595
0.4360298,-0.2731791,0.07962356,-1.028875,-0.9833498,-0.4533769
0.4979054,-0.3423703,0.05186641,-0.7355485,-1.189205,-0.4894247
0.822886,-0.4213934,0.01047689,-0.06945268,-1.392862,-0.3969043
1.190085,-0.4359404,-0.056874,0.2087362,-0.9599207,-0.3873296
1.171122,-0.3066068,-0.07633403,0.3268617,-0.1181707,-0.3479118
1.037469,-0.01521723,-0.05240598,0.1259972,0.3307777,-0.2661628
0.9523404,0.02322722,-0.07446613,-0.2508411,0.186828,0.00197665
0.9948463,-0.1607867,-0.1113925,-0.7288478,0.09223532,0.167573
1.338039,-0.3672098,-0.278847,-0.9881708,0.5238132,0.2218048
1.844453,-0.5832959,-0.5114581,-0.7939065,1.24644,0.1564004
1.903565,-0.6677623,-0.4211314,-0.6687661,1.961374,-0.2485831
1.344836,-0.6885318,-0.003502347,0.03954147,2.001797,-0.5924433
1.041309,-0.5275305,0.3352862,1.113654,0.3239331,-0.6263885
1.383733,-0.1062573,0.1914414,1.2259,-1.519969,-0.3030898
1.655747,0.2855289,-0.2997128,0.6892369,-1.197031,0.1437707
1.296368,0.3869173,-0.510413,-0.1396298,0.3224252,0.3236503
0.7460515,0.2097232,-0.1852938,-0.9763081,0.8927333,0.4805331
0.5650977,0.06750025,0.2150934,-1.000963,-0.1841265,0.7810654
0.7276066,-0.1012311,0.1155999,-0.4551552,-1.425881,0.9239233
1.036438,-0.2604346,-0.1488534,-0.1880615,-1.038515,0.613833
1.036717,-0.08331113,-0.1505444,-0.2247252,-0.01086266,0.2206925
0.8466683,0.1550534,-0.189288,-0.3071551,0.5152552,0.2087737
0.8307637,0.3197145,-0.1720292,-0.6671917,0.9162222,0.3279443
0.7466508,0.4021725,-0.1260875,-1.268077,0.9003852,0.5148915
0.7403643,0.2140468,-0.202646,-1.757778,0.9832956,0.6863827
0.7228655,0.05365215,-0.1190557,-1.919992,1.27477,0.6608567
0.6567117,0.03722574,-0.09877298,-1.878112,0.6718055,0.6564646
0.815523,0.002491899,-0.1393763,-1.889494,0.3079023,0.715994
0.8625913,-0.008267944,-0.1743246,-1.761692,0.5993264,0.8207225
0.8907293,-0.04742932,-0.3726361,-1.674541,0.9246917,0.8783996
0.8851615,-0.198683,-0.382612,-1.865881,1.690796,0.7854061
0.7263033,-0.5653731,-0.3090244,-1.971831,2.147694,0.5611548
0.7759744,-1.012328,-0.1561947,-1.790202,2.196299,-0.004506435
0.9470436,-1.14599,0.2535592,-1.266118,1.812704,-0.7915677
1.301943,-0.9488687,0.4073441,-0.6215389,0.5937961,-1.25755
1.662861,-0.5696093,0.2661542,-0.3541167,-0.142193,-1.207695
1.694487,-0.0949274,0.08421185,-0.9036421,0.1806281,-0.9783103
1.610754,0.1634509,-0.05423101,-2.01567,0.8010422,-0.7283628
1.399734,0.04036062,0.0479454,-2.790289,0.9706914,-0.417193
1.22216,-0.07055636,0.2065351,-2.89081,0.6595391,-0.3483846
1.129324,-0.01416627,0.1467095,-2.541899,0.3100223,-0.3349529
1.014416,-0.05094346,0.07294043,-2.39866,0.2689874,-0.0439842
1.012069,-0.0515901,0.05735729,-2.571173,0.7419789,0.2783143
0.8635282,-0.08044637,-0.06662175,-2.590141,1.053141,0.5710357
0.6355456,-0.2530763,-0.04161446,-2.694369,1.039083,0.6287744
0.585703,-0.2949086,0.07211199,-2.624485,0.8762959,0.394613
0.5386067,-0.3699592,0.05321861,-2.151901,0.4987853,0.113347
0.4953154,-0.4289113,0.1563429,-1.666162,0.210766,-0.3521595
0.5176777,-0.2500673,0.1947577,-1.257451,-0.3000844,-0.569988
0.6276038,-0.0986316,0.1071458,-1.278056,-0.7640614,-0.3114247
0.8720991,-0.02927234,0.0613868,-1.497777,-0.818907,-0.1609754
1.146406,-0.05283931,-0.08111425,-1.615751,-0.6782929,-0.0604412
1.280251,-0.1372435,-0.1357806,-1.83014,-0.1799697,0.007612885
1.268091,-0.1830647,-0.09788154,-1.792698,0.1534024,-0.1135344
1.197341,-0.26619,-0.03010298,-1.554396,0.2015842,-0.2327372
1.067706,-0.2970988,0.1460152,-1.211195,0.310759,-0.4299464
1.00047,-0.2257367,0.1713111,-0.8368863,0.3076495,-0.5018345
1.019606,-0.08779671,0.09747683,-0.869344,0.2543898,-0.3355921
0.9578812,-0.01529166,0.07759081,-0.9765971,0.2556165,-0.290641
0.8298486,-0.08309271,-0.002309747,-0.9852107,0.3121727,-0.2467767
0.7939911,-0.2062684,-0.1668245,-1.055702,0.2544821,-0.1509173
1.065882,-0.540642,-0.4767602,-0.9841343,0.2873166,-0.09446183
1.606444,-0.9270984,-0.7810537,-0.7643679,1.074778,0.00293725
1.832912,-1.003061,-0.6931866,-0.4139856,3.158658,-0.2082377
1.347739,-0.7762401,-0.1586568,-0.1119484,4.53194,-0.7186812
0.893324,-0.3956086,0.391253,0.01007803,1.509008,-0.8660753
1.155296,-0.1203285,0.3723878,0.08925786,-1.955359,-0.405359
1.414986,0.02661013,-0.132546,-0.2242844,-0.5038896,0.06876787
1.29044,0.05886119,-0.339127,-0.9153323,0.7414707,-0.0157161
1.044275,-0.07580872,-0.02318144,-1.140406,-0.3143758,0.01357901
0.6335985,-0.1699964,0.2592242,-0.8094478,-0.3665244,0.4228881
0.6253053,-0.2407374,0.1617713,-0.4118161,-1.479284,0.4721747
0.9113689,-0.2581981,-0.05360401,0.01997184,-2.275194,0.4768611
0.8013302,-0.1108502,-0.1244244,0.1911625,-0.9636243,0.5168986
0.8293827,0.04459036,-0.164741,-0.04659609,-0.9097294,0.3307246
0.9728768,0.154154,-0.1567933,-0.1467226,-0.8168473,0.4691122
1.003349,0.1274309,-0.1951317,-0.214965,-0.01485758,0.6601938
1.133068,-0.03105446,-0.3073747,-0.5395482,0.5759089,0.668887
0.8971156,-0.1909698,-0.1278842,-0.696384,1.708329,0.6433773
0.6184974,-0.2759722,0.08607126,-0.5464291,1.257741,0.3485655
0.6175179,-0.1883526,0.09349065,-0.3886531,0.1539342,0.1654961
0.556222,-0.1511007,0.08525635,-0.3872118,-0.3566108,0.1601689
0.6485037,-0.2089321,0.0110479,-0.3649722,-1.067648,0.211432
0.7782422,-0.1796768,-0.06200772,-0.2664744,-0.4973876,0.3790787
0.9205482,-0.2113555,-0.2274129,-0.3104159,0.1303869,0.2837459
1.111098,-0.2736226,-0.4190117,-0.3353395,0.623448,0.1168373
0.9422347,-0.3249535,-0.326846,-0.2988657,1.658386,-0.07725913
0.7300728,-0.4735042,-0.17986,-0.3189407,1.471306,-0.44616
0.8532228,-0.6090019,-0.06572134,-0.1935406,1.374992,-0.6871132
1.055513,-0.6002257,0.1798829,0.01888539,1.434498,-0.8627437
1.289469,-0.3828511,0.3326532,0.1345581,0.3619415,-0.7679501
1.565155,-0.1533632,0.242573,-0.02910584,-0.3123584,-0.3770296
1.563627,-0.1919746,0.2340073,-0.5206946,-0.2274923,-0.1184807
1.41256,-0.3921081,0.3582198,-0.7789642,-0.08439143,-0.03609335
1.308345,-0.4848378,0.3405132,-0.3862343,-0.2943395,-0.1363776
1.012654,-0.3354314,0.2250159,0.2303514,-0.4534527,-0.1219494
0.8488446,-0.1096148,0.07162909,0.4796794,-0.05110464,-0.02840308
0.9147472,-0.05740068,0.04754171,0.5011297,0.2110902,-0.1657393
0.8095109,-0.07848266,0.1882532,0.4163573,0.3143445,-0.2815918
0.6414028,-0.01160525,0.2125537,0.0637074,0.1197562,-0.4707843
0.5093081,0.03812922,0.2105959,-0.2192758,-0.4281431,-0.536707
0.4456905,-0.00596279,0.1771837,-0.3788089,-0.9120084,-0.2352033
0.4579829,-0.1096331,0.06170615,-0.3808332,-1.633463,-0.01130863
0.5747514,-0.2834815,0.01854966,0.0006116023,-1.88922,0.1546593
0.8588458,-0.429865,-0.02569881,0.4273309,-1.455906,0.1893931
1.008308,-0.4273182,-0.03620425,0.8099434,-1.290927,0.07388224
1.050012,-0.3582733,-0.00856655,1.02503,-1.37146,0.05379962
1.127905,-0.3046562,-0.008586591,0.9954007,-1.352496,-0.05106396
1.115207,-0.2596933,-0.00829725,1.052979,-0.9802947,-0.06612669
1.157665,-0.2506134,-0.0401822,1.032983,-0.3371503,-0.07817344
1.231487,-0.2509617,-0.0308692,0.8875742,0.3026574,-0.3083122
1.245022,-0.2130123,-0.05696968,0.6168858,0.768566,-0.3179758
1.349816,-0.1854787,-0.1776873,0.09984527,1.083712,-0.1322082
1.442229,-0.189113,-0.2357089,-0.2729292,1.437162,-0.01791513
1.390241,-0.2450624,-0.1808831,-0.1849666,1.273064,-0.05671034
1.297485,-0.416715,0.008513738,0.1620146,0.6381886,-0.1961255
1.251804,-0.5756082,0.1589057,0.4642046,-0.06890324,-0.210186
1.266534,-0.4990861,0.06998777,0.9018706,-0.7967082,-0.1910252
1.261903,-0.2580352,-0.1106721,1.047015,-0.7713075,-0.1554591
1.10267,-0.08171357,-0.1688353,0.4779585,-0.5350884,-0.09361803
0.8547402,-0.01023399,-0.07652373,0.1326265,-0.7686019,-0.05388595
0.7157363,0.008118025,0.01081526,0.1187253,-0.8460091,0.1461479
0.6979649,0.02811846,0.01756488,0.1544299,-1.060839,0.324554
0.7977516,0.05738442,0.009129517,0.331764,-1.188162,0.311857
0.9718428,0.07292294,-0.06875705,0.3305205,-0.8048143,0.332152
0.9806851,0.1028497,-0.2565221,0.2754314,-0.2991212,0.4721912
0.8325713,0.07879647,-0.3186981,0.06307291,0.4266801,0.6680425
0.7159961,0.02807474,-0.2035099,-0.1579746,0.7767163,0.872829
0.6829906,-0.01390093,-0.148488,-0.116644,0.6975548,0.9795744
0.7540608,-0.1618774,-0.03992056,-0.1904161,0.8449432,0.7672438
0.8283142,-0.2842218,0.1343496,-0.1305846,0.4658851,0.3944845
0.8501562,-0.2702061,0.08025745,-0.03764166,-0.1934815,0.1929765
0.8829499,-0.2898573,-0.1150309,-0.05733845,-0.1340076,0.1369789
0.8988142,-0.4240692,-0.2469006,0.1686533,0.2250463,0.1495912
0.9008137,-0.4988344,-0.2644886,0.4120808,0.587868,0.03509152
0.9271412,-0.5216579,-0.1832058,0.578016,0.9823741,-0.2937466
1.055009,-0.6567921,-0.04910005,0.7032848,1.118406,-0.7301842
1.250831,-0.6213497,0.1173264,0.8606057,0.6118253,-1.041211
1.386082,-0.3424467,0.1953513,0.8210261,-0.3186267,-0.8544205
1.561002,-0.04068529,0.210154,0.1948089,-0.5798426,-0.365511
1.638301,0.1498989,0.2459183,-0.3940159,-0.2227423,0.08386852
1.482351,-0.09866714,0.2130483,-0.3970891,-0.25118,0.1507574
1.3417,-0.4263857,0.2542287,-0.07387523,-0.6504421,-0.2454193
1.134465,-0.3923629,0.3379446,0.1271987,-0.8030774,-0.2946229
0.9757554,-0.3089166,0.2113082,0.2649274,-0.1457158,0.064546
1.035274,-0.1999232,0.1055949,0.4963458,0.6811997,0.3193985
0.8407658,-0.1146771,0.1052227,0.4344426,0.452346,0.3329667
0.5281616,-0.1020678,0.07931484,0.206716,-0.1707806,0.05482224
0.4378259,-0.02468403,0.1036521,-0.04065146,-0.5183807,-0.0795361
0.343747,-0.07190599,0.1004036,-0.2764143,-0.8969056,-0.1087238
0.3097412,-0.1580184,0.0830045,-0.191842,-0.9803009,-0.2148092
0.367726,-0.1962385,0.07073441,0.01221661,-1.130375,-0.1727921
0.5299045,-0.2683707,-0.02019136,0.339517,-1.502769,-0.114892
0.9115761,-0.2557796,-0.1321708,0.5889002,-1.272463,0.0429257
1.253368,-0.271003,-0.2004071,0.4907607,-0.7600496,0.1138735
1.326774,-0.2865191,-0.1165466,0.4892005,-0.2838581,0.06553341
1.153443,-0.2133929,0.0282358,0.4681675,-0.01080081,0.1770134
0.9950769,-0.1968469,0.1010931,0.2934563,-0.2279961,0.01553663
0.9867604,-0.1934807,0.1258174,0.08062176,-0.175132,-0.2170516
1.058088,-0.2470686,0.02176943,-0.1613945,0.1028365,-0.1472046
1.40034,-0.3679047,-0.153975,-0.146695,0.6136097,0.05075361
1.78761,-0.4120669,-0.3166353,-0.1069045,1.895342,0.2351397
1.662153,-0.4113765,-0.3287118,-0.1698221,2.454185,0.005496798
1.225405,-0.3870512,-0.05900939,0.03284075,1.360001,-0.2841195
1.091717,-0.366308,0.1726643,0.5802272,-0.3186017,-0.1507017
1.454543,-0.3144051,0.1066034,1.123761,-1.204368,-0.02258393
1.77684,-0.1302106,-0.1878298,0.9113335,-0.1802263,0.03422416
1.315189,0.05680603,-0.3725198,0.276133,0.8153647,0.1463377
0.5694111,0.06409836,-0.1049546,0.103513,-0.5431043,0.2315511
0.5021911,-0.04884422,0.1706775,0.1451582,-1.722213,0.3463427
0.7640484,-0.07367857,0.005207562,0.3006275,-1.156074,0.3546828
0.9953273,-0.01334806,-0.1627731,0.424744,-0.687742,0.2791236
1.208329,0.05857158,-0.1581732,0.2254287,-0.07828688,0.3455898
1.154118,0.1480401,-0.2314038,-0.03171694,0.6489154,0.4162615
1.010302,0.1769688,-0.1957446,-0.4816467,0.5418927,0.5096481
0.8286477,0.2035094,-0.09308408,-0.8850692,0.4429029,0.6581895
0.7256595,0.2005329,-0.1168488,-0.9940886,0.4420198,0.6537548
0.8611107,0.08398142,-0.1139336,-1.180454,0.5609129,0.6499475
0.873048,-0.001740914,-0.1591689,-1.214789,0.96184,0.6490391
0.858558,-0.1002908,-0.1618565,-1.142477,0.8797199,0.547916
0.9200712,-0.1879162,-0.05264172,-1.044778,0.6078251,0.4147041
0.9695644,-0.1311017,-0.04576465,-0.7680495,0.3517431,0.1777093
1.079122,-0.03511764,-0.0405231,-0.7436949,0.1298975,0.06475513
1.06316,0.1164187,-0.06933681,-0.9389166,0.221402,0.1263212
0.9971292,0.288696,-0.1242983,-1.212992,0.1672115,0.1598324
0.9787777,0.3037538,-0.1810638,-1.694852,0.119389,0.2798619
0.949694,0.0383194,-0.388632,-2.128579,0.2654557,0.3696586
1.033212,-0.5698982,-0.5127095,-2.22929,0.5982733,0.1807479
1.159873,-1.19181,-0.501337,-1.911942,1.451624,-0.3639467
1.205553,-1.484876,-0.3937141,-1.355002,1.991293,-1.080603
1.199357,-1.447453,-0.0550282,-0.6249127,1.504923,-1.387088
1.27334,-1.141401,0.2646933,0.01388759,0.7272409,-1.186187
1.443542,-0.7588067,0.2246481,-0.1221579,0.3294113,-0.9799059
1.53968,-0.3825418,-0.03254066,-0.8491209,0.4302567,-0.6404863
1.553029,-0.006658431,-0.09843053,-1.540306,0.7358141,-0.01834523
1.429071,0.09138761,-0.06430313,-2.05513,0.7097722,0.260102
1.103422,-0.1563397,-0.01662997,-2.213305,0.4057597,0.3515647
0.8225352,-0.3677016,0.1480723,-1.938369,0.1338026,0.6581854
0.7044025,-0.3779736,0.1819794,-1.519815,0.07004444,0.6636322
0.6148448,-0.3258782,0.1584263,-1.29662,0.3656982,0.3168284
0.4809148,-0.1995035,0.1858509,-1.209181,0.5077846,-0.1870386
0.3346818,-0.06624588,0.1854473,-1.078708,0.3556579,-0.7168348
0.3008809,-0.06124067,0.1820741,-1.112357,0.32605,-0.8808265
0.3716717,-0.08809567,0.09037484,-1.099946,0.1648934,-0.807445
0.4785654,-0.1047699,0.03563149,-0.8419199,-0.2569362,-0.6736551
0.7337155,-0.1367785,-0.01547024,-0.5957915,-0.8115141,-0.3690478
1.03603,-0.1929559,-0.1484028,-0.2446986,-1.025667,0.06479961
1.127474,-0.279162,-0.1612231,-0.06157439,-0.630378,0.2555608
1.071886,-0.364589,-0.03273623,-0.1574317,-0.4930253,-0.06657457
1.032161,-0.3896041,0.1141376,0.01776573,-0.8680223,-0.3764058
0.945935,-0.2634514,0.07249549,0.2909292,-1.177217,-0.391109
0.8396994,-0.1405005,0.01054972,0.3299214,-1.120168,-0.3407102
1.018765,-0.1416688,0.06180702,0.05252978,-0.8437438,-0.2490671
1.329116,-0.1141115,-0.06685726,-0.4049163,-0.4807249,-0.1992404
1.353741,-0.1117626,-0.1852567,-0.6335885,0.2645965,-0.1624989
1.390543,-0.2410155,-0.2664465,-0.776465,1.244281,-0.1823777
1.610687,-0.3747575,-0.5006584,-0.9513395,2.165382,-0.3199297
1.603725,-0.4495888,-0.4999389,-0.8405647,2.38681,-0.4347481
1.328484,-0.5808249,-0.1157925,-0.2076137,1.145962,-0.620832
1.119956,-0.7331902,0.2467664,0.8165517,-0.3696757,-0.6965529
1.216317,-0.6584859,0.1786302,1.337627,-0.6765847,-0.4514521
1.392177,-0.3333223,-0.1831843,0.9630743,-0.1328529,-0.1566677
1.305208,-0.02987339,-0.3232973,0.6535748,-0.02303421,0.08791087
1.011173,0.04492152,-0.1013953,0.6258328,-0.8665117,0.2579332
0.6665926,0.005445112,0.1393498,0.4089409,-1.640258,0.3014282
0.6499395,0.03721858,0.03957099,0.4072205,-1.580826,0.3646358
0.9177005,0.04722516,-0.1092068,0.4597417,-1.042758,0.5361442
0.9642174,0.04011516,-0.09141318,0.2018366,-0.3946017,0.6402498
0.9851024,0.07976316,-0.1696908,0.05653059,0.2501114,0.5389272
0.9024493,-0.01896197,-0.1040967,0.006040658,0.5544845,0.4654669
0.6356158,-0.1370031,0.03889261,0.1756863,0.3126826,0.4812079
0.6835698,-0.1068334,-0.03113448,0.4172394,0.2267191,0.4463121
0.7336025,-0.1002264,-0.03354833,0.273715,0.4373563,0.4446797
0.6977029,-0.08986083,-0.05284103,0.2064447,0.4205132,0.433405
0.811631,-0.0509126,-0.08457296,0.1454376,0.2870109,0.3885366
0.8011705,-0.07582951,-0.04507739,-0.0735592,-0.186157,0.3840705
0.8633966,-0.1833752,-0.185136,-0.06986913,-0.6773029,0.3525467
0.9880624,-0.4482284,-0.3591884,0.0963907,-0.1186203,0.2709649
0.9790364,-0.7265656,-0.4497346,0.5214314,0.9351114,-0.033526
1.05424,-0.8563359,-0.3600765,1.162934,1.36179,-0.6205043
1.161734,-0.9257414,-0.0712338,1.664647,1.102756,-0.9685189
1.256816,-0.6793824,0.1870724,1.677038,0.1351417,-0.7854726
1.379117,-0.08723133,0.3677377,1.01746,-0.9955891,-0.4238266
1.455228,0.05589416,0.2920034,0.3664947,-0.9931684,-0.1399755
1.384048,-0.1636682,0.20001,0.3691163,-0.4573601,-0.05182074
1.171803,-0.09206525,0.3200394,0.6857364,-0.5164457,-0.1698026
0.9999453,-0.06598921,0.2661307,0.7855581,-0.470597,-0.1196522
0.8986034,-0.07967963,0.1989296,0.7598879,-0.3308841,0.0764108
0.8884374,0.0375053,0.2041277,0.7224514,-0.4116958,0.1260305
0.8533227,-0.01070733,0.1298531,0.4645922,-0.2924743,0.1031542
0.6351714,-0.03500196,0.112662,0.1310651,-0.4747844,0.0170562
0.4289312,-0.0433339,0.03433329,-0.1116606,-0.8952702,0.02335635
0.3508952,-0.157297,0.02126712,-0.09556584,-1.166403,0.09467936
0.4453423,-0.2247194,0.07541042,0.2754715,-1.597474,0.07635068
0.7167017,-0.3081974,-0.01886741,0.6400403,-1.602933,0.1671752
1.069464,-0.3844362,-0.02213656,0.8582672,-0.9530279,0.07765694
1.26627,-0.4220348,0.0115258,0.965541,-0.3644065,-0.2044917
1.114891,-0.3401376,0.0344303,1.005571,-0.2322265,-0.3368122
1.085298,-0.1624737,0.1197045,0.8968671,-0.3995833,-0.4187256
1.281054,-0.1645047,0.02952492,0.6064567,-0.1405039,-0.2325268
1.395309,-0.2744957,-0.173288,0.4559173,0.6805971,0.1636368
1.55514,-0.3874846,-0.3608794,0.3100971,1.645326,0.3454242
1.458847,-0.4715866,-0.343327,0.2090178,2.131546,0.1062012
1.068243,-0.4116178,0.07285336,0.4425419,1.405611,-0.3383187
0.8776147,-0.3736101,0.3827068,0.8442029,-0.08186263,-0.3230803
1.016109,-0.4147207,0.1732746,1.378107,-1.298786,-0.06250767
1.390175,-0.3690862,-0.1298352,1.727006,-1.184002,0.07325999
1.495368,-0.202168,-0.1640535,1.722034,-0.2506728,0.1851087
1.267822,0.07234216,-0.1897808,1.445601,-0.3233621,0.1379923
1.029081,0.2591811,-0.1863843,0.7084096,-0.6738509,0.2906172
0.7392441,0.1882653,-0.04685005,0.0833799,-0.8338867,0.6018222
0.6993166,0.02753833,-0.07817275,-0.01627824,-1.180213,0.6157963
0.8416243,-0.1392246,-0.07611029,0.1401294,-0.7735942,0.5252711
0.8684372,-0.2200598,-0.0001156743,0.4440431,-0.4067558,0.3932601
0.878298,-0.09653597,-0.1167109,0.6101067,-0.1464958,0.3413528
0.7624615,-0.02132984,-0.1676069,0.5811549,0.5333469,0.4435946
0.6166953,-0.05949064,-0.1744944,0.388735,0.7638988,0.5135396
0.572962,-0.1052204,-0.1146968,0.1366921,0.9641844,0.5200497
0.5979693,-0.2226199,0.08020337,0.222396,0.7305509,0.3338487
0.6823682,-0.2461725,0.08780217,0.4381171,0.09053265,0.09144295
0.8143854,-0.1744986,-0.04090108,0.5359126,0.05580113,0.02753185
1.021161,-0.175078,-0.178473,0.5012693,0.08255454,0.06431827
0.994861,-0.2143436,-0.2175308,0.3860866,0.2571535,0.07217682
0.9102444,-0.4179447,-0.1326185,0.4784378,0.4988819,-0.05052257
1.126266,-0.7101237,-0.08842331,0.5789662,0.7560304,-0.3741795
1.246761,-0.7433993,0.03309886,0.6440591,0.9383854,-0.8301586
1.376065,-0.530696,0.1853159,0.7380799,0.149802,-0.826886
1.680642,-0.202799,0.2909689,0.4368966,-0.6330317,-0.2116646
1.735492,0.06093955,0.339904,-0.0325845,-0.7164467,0.23023
1.597395,-0.1374745,0.2801578,-0.1485985,-0.6153374,0.1857287
1.462367,-0.4883256,0.3269685,0.1503289,-0.5141471,-0.05640579
1.238038,-0.3752581,0.2964731,0.4981344,-0.4166143,-0.1064695
1.016407,-0.1876876,0.1190138,0.4516482,0.07472719,0.07217163
0.9517926,-0.1024035,0.1141609,0.3163852,0.4270919,0.1530702
0.8356929,0.04114585,0.09832897,0.241481,0.4028032,0.1097024
0.5634739,-0.01558406,0.07520769,-0.02256996,0.256616,0.01462389
0.3865838,0.003738303,0.125767,-0.1979574,-0.3119496,-0.008922773
0.2883773,0.02026662,0.101763,-0.1856785,-0.7397356,-0.03128849
0.2596733,-0.2351577,0.1299954,-0.1176148,-0.9626634,-0.1788186
0.3634448,-0.3463244,0.1365121,0.1689305,-1.299032,-0.219493
0.5083425,-0.4176762,0.0653719,0.7102136,-1.652875,-0.1894783
0.7843348,-0.4515007,-0.03302281,1.140072,-1.894822,-0.1439727
1.085124,-0.35277,-0.1747805,1.153661,-1.22466,-0.1170957
1.175793,-0.3033849,-0.1303167,1.044754,-0.156887,-0.1937692
1.075302,-0.1405547,0.03800018,0.9620254,0.1175166,-0.227899
0.9485815,-0.1229761,0.1559797,0.7647142,-0.0336207,-0.2525248
1.034221,-0.2798887,0.1864845,0.701357,0.07183329,-0.2093386
1.373822,-0.3539729,-0.03454127,0.74648,0.616495,-0.1413109
1.773184,-0.4792063,-0.2792435,0.625952,1.217546,-0.203975
1.767158,-0.4117818,-0.2301021,0.4737548,1.504666,-0.3031032
1.303307,-0.2335339,0.04851008,0.5167493,1.047116,-0.4702423
1.028762,-0.1852909,0.2701089,0.7988221,-0.2823893,-0.4934566
1.118562,-0.07944714,0.1164014,1.028949,-1.199071,-0.2028686
1.485023,-0.06288618,-0.1577859,0.8763567,-0.8525127,0.252156
1.75764,-0.1472795,-0.1849926,0.5828405,0.3095061,0.6336666
1.261858,-0.2050294,-0.1161991,0.5366848,0.850819,0.5852441
0.5487071,-0.2587483,0.03348547,0.663692,-0.6057763,0.4591639
0.459671,-0.2172317,0.1777308,0.8522271,-2.261702,0.5159943
0.7225919,-0.1870361,0.02396394,1.053103,-1.745274,0.3320117
0.865224,-0.1762778,-0.1683459,1.130379,-0.5379201,0.1079041
0.841603,-0.07443498,-0.1461169,1.169312,-0.0312491,0.06966566
0.8112342,0.05316695,-0.1343157,1.128664,0.5625176,0.1802767
0.7969369,0.1733999,-0.1729437,0.8537181,0.8320198,0.5185588
0.7701192,0.1068521,-0.1263736,0.5058174,0.9368105,0.7087119
0.7410737,-0.075831,0.007638422,0.3656091,1.061957,0.6450569
0.7161971,-0.07012649,0.1307155,0.4315279,0.1576649,0.5738092
0.7465784,-0.0750672,0.08321177,0.2948475,-0.4567148,0.4867576
0.7929661,-0.1807308,-0.107753,0.09798717,-0.2969266,0.3840011
0.8323891,-0.249787,-0.2693495,0.2257543,0.005546603,0.1541097
0.8794532,-0.412657,-0.3376171,0.358882,0.9408497,-0.279958
1.0522,-0.674325,-0.1987589,0.5736953,1.285866,-0.8414905
1.412334,-0.843507,0.134439,1.016244,0.6177888,-1.084375
1.583109,-0.6330365,0.3917329,1.076211,-0.3516389,-0.5488244
1.507454,-0.1728193,0.4084225,0.5491345,-0.9613886,0.07448749
1.539048,-0.04865966,0.2822823,0.02709779,-0.7543152,0.08555256
1.570513,-0.2560543,0.2747525,0.0803099,-0.7270037,-0.1264115
0.5104237,0.05458354,0.1370805,0.1084641,-1.688982,0.8919078
0.8168641,-0.1301368,0.05628185,0.1659937,-1.506149,0.8660812
1.018295,-0.2475356,-0.1753208,0.4342917,-0.7913171,0.6261462
0.9555221,-0.1029489,-0.2161086,0.4958342,-0.394688,0.5487506
0.9113416,0.013726,-0.0788089,0.358427,-0.1504439,0.3277032
0.8324229,0.02560489,-0.09149877,0.3112666,-0.06645668,0.1518568
0.7163094,0.05918305,-0.1071171,0.09399294,0.06134113,0.2258434
0.6778145,-0.01109023,-0.1213005,-0.09439043,0.6898649,0.2820849
0.6966326,-0.1048578,-0.09959735,-0.0225275,0.898482,0.3534229
0.7191354,-0.1318771,-0.03167359,-0.03317162,0.5788721,0.354436
0.8085026,-0.1547451,-0.08442503,-0.09093321,0.2877509,0.2412856
0.9018819,-0.1849119,-0.1023536,-0.1116168,0.05407447,0.1987171
0.818652,-0.2837672,-0.143283,-0.1568152,0.1748384,0.1204449
0.7333059,-0.470172,-0.2273971,0.03073681,0.5451988,-0.001344878
0.8590039,-0.6806328,-0.1571925,0.400641,1.390453,-0.3489032
1.020366,-0.7142811,-0.04815927,0.7035455,1.943626,-0.9482309
1.245697,-0.4434868,0.1403755,0.7525179,0.7002342,-1.063273
1.584455,-0.09040256,0.3661252,0.3005984,-0.9359724,-0.4615739
1.592737,0.05757142,0.2898108,-0.249854,-1.082732,0.2516005
1.415886,-0.06848701,0.1452057,-0.2286584,-0.4224709,0.4136722
1.42064,-0.2447943,0.2770923,0.1753603,-0.1742613,-0.1004535
1.211564,-0.3307574,0.321821,0.5052476,-0.2071045,-0.5797425
0.9821876,-0.287461,0.2187423,0.6738275,-0.1333497,-0.4781434
0.957212,-0.003993928,0.2161227,0.549912,-0.1287892,-0.1388229
0.7275436,0.202727,0.1299315,0.3153537,-0.1669102,0.04218365
0.6747373,0.1215929,0.1163091,0.1858879,-0.3137078,0.03348201
0.7458396,0.02815792,0.1791121,-0.05302316,-0.6700851,-0.07670194
0.443852,-0.09005127,0.06756192,-0.1739429,-0.9863507,-0.1106359
0.327113,-0.2692366,0.06153964,-0.08411837,-1.062684,-0.1674649
0.4988033,-0.2829603,0.0720485,0.08260077,-1.178258,-0.2675719
0.7029208,-0.2337002,-0.04578019,0.4485436,-1.390362,-0.1838795
1.002537,-0.310046,-0.1014071,0.5995709,-0.9714744,-0.1493656
1.11211,-0.3129182,-0.09856848,0.5510803,-0.2140281,-0.199545
1.156048,-0.2748023,-0.02835111,0.5854838,-0.0155361,-0.1922423
1.1684,-0.2820921,0.01431642,0.3515484,-0.1717749,-0.2502352
0.9018639,-0.1654994,0.07826844,0.1076505,-0.2012482,-0.2088896
0.837726,-0.1752746,0.1461694,0.1307717,0.1521868,-0.1170089
1.110297,-0.296996,0.0001171754,0.06479047,0.694896,-0.09017215
1.423864,-0.3311226,-0.1708442,-0.1022994,1.157429,-0.04110679
1.649136,-0.4361768,-0.2493253,-0.1088541,1.672341,-0.1462551
1.480043,-0.4303841,-0.1783683,0.151874,1.761271,-0.3535544
1.100917,-0.365484,0.09987052,0.7437318,0.3324617,-0.4220207
0.9422949,-0.3556587,0.300074,1.423779,-1.723608,-0.230452
1.18296,-0.1978818,0.1796816,1.390658,-1.583208,0.1006698
1.563156,0.009386636,-0.2472334,0.6811284,0.1862727,0.2003315
1.293936,0.151412,-0.469735,0.08287207,0.667345,0.1623201
0.6217967,0.1289529,-0.07581075,-0.2343327,-0.479124,0.3328612
0.2820184,0.08562293,0.329069,-0.1051422,-2.06896,0.5838497
0.4461219,0.06387277,0.1388166,0.2245986,-2.157367,0.5715434
0.9539423,-0.1377754,-0.1053934,0.4492477,-0.7835726,0.3673398
0.9956794,-0.1392003,-0.07256565,0.7156666,0.09604588,0.2972823
0.871438,0.02353482,-0.2441649,0.4910513,0.7399475,0.3683446
0.9925639,0.05099477,-0.2936323,0.003017422,1.133478,0.5358377
0.7489766,0.1048125,-0.1104431,-0.2689131,1.202131,0.7201133
0.6898454,0.03200029,-0.1268259,-0.5922555,0.9692815,0.7156805
0.7897727,-0.1155219,0.007903434,-0.5625818,-0.0483291,0.6122885
0.74722,-0.1955174,0.08759381,-0.362234,-0.3855667,0.4827795
0.961459,-0.2918592,-0.05715209,-0.2727001,-0.2576697,0.2614205
0.9395076,-0.3213406,-0.1334034,-0.03539549,-0.04680493,0.02349527
0.8850324,-0.4034959,-0.2997036,0.1241648,0.9298583,-0.2120093
0.9684096,-0.4958393,-0.2767096,0.3468442,1.36974,-0.5102469
0.9208748,-0.512589,-0.1160589,0.3852704,1.374611,-0.824323
1.133332,-0.5048595,0.02749476,0.1367737,0.7471961,-0.8928539
1.364466,-0.2829125,0.3071069,-0.00995798,-0.5203487,-0.4752218
1.46279,-0.04865197,0.3070632,-0.3489724,-0.5008711,0.1214193
1.491206,-0.09036402,0.2101563,-0.4958079,-0.0829129,0.2627531
1.423631,-0.316076,0.2950365,-0.3043609,-0.1642262,-0.009701637
1.372961,-0.4930147,0.2980568,-0.1466014,-0.128818,-0.2711989
1.17415,-0.3518818,0.3064713,0.2041998,-0.127899,-0.4429582
1.032212,-0.1030032,0.2385389,0.3200166,0.1012884,-0.2484871
0.9030177,0.04582835,0.06300101,0.05704534,0.3479812,0.210583
0.6139658,0.2007231,0.03713489,-0.2152916,0.1888618,0.3277358
0.4554966,0.2282225,0.06986687,-0.6398456,-0.2233199,0.2850889
0.4029183,0.1069729,0.05486992,-1.006044,-0.7730682,0.2335961
0.4169764,-0.07317605,0.07514807,-0.9904424,-1.11848,-0.04269501
0.4788051,-0.2996844,0.09441698,-0.6316057,-1.191392,-0.3331189
0.6340087,-0.4381223,0.04306206,-0.06271344,-1.369778,-0.4371694
0.8938656,-0.4505834,-0.06555488,0.5247224,-1.460971,-0.1913758
1.037035,-0.3992609,-0.1892413,0.8628579,-1.009755,0.1485902
1.105577,-0.310546,-0.2149522,0.7917698,-0.5207327,0.1314345
1.061343,-0.2066378,-0.08421887,0.5462896,-0.467701,0.06741944
0.9724501,-0.1307046,0.0564415,0.3894832,-0.5867084,0.07885253
0.9953193,-0.148185,0.07205419,0.3246702,-0.6266483,0.01651673
1.094708,-0.2150762,0.004736039,0.1684452,-0.300602,0.05244401
1.37575,-0.2556666,-0.1091348,-0.2086473,0.4360215,0.1491418
1.594889,-0.2794161,-0.258516,-0.6062544,1.426607,0.1737852
1.583579,-0.2929542,-0.284271,-0.8471386,2.090127,-0.01825858
1.478469,-0.3078637,-0.1527036,-0.8554564,1.747504,-0.3586564
1.286061,-0.3467254,0.04950583,-0.4081109,0.7149539,-0.4343795
1.250916,-0.4118127,0.2418624,0.3763155,-0.37513,-0.2961428
1.328633,-0.4081418,0.0765535,0.7924847,-0.6061825,-0.221751
1.267477,-0.2390277,-0.2404961,0.6295352,-0.2188248,-0.1210364
1.109189,-0.03992513,-0.1617208,0.4317588,-0.6551929,0.07137747
0.9364626,0.01711393,-0.1085276,0.2772585,-1.016332,0.2640357
0.9802967,-0.03877705,-0.2218562,0.07919049,-0.5568614,0.3313772
1.074295,-0.04489244,-0.1589194,0.02076975,-0.2449403,0.2311362
0.9618311,0.03229661,-0.1453586,-0.1193144,0.07489256,0.185405
0.9154293,0.07721095,-0.1088929,-0.4123817,0.2316052,0.2726387
0.8810163,0.1036838,-0.03452108,-0.6840255,0.105044,0.3276456
0.8101736,0.1000158,-0.1027595,-0.9169895,0.2238399,0.3735766
0.8463494,0.05625269,-0.08635532,-0.9828353,0.1637532,0.409847
0.7792326,0.005118144,-0.0721268,-0.9486181,0.03219187,0.3952733
0.7228861,-0.0823756,-0.09988584,-0.8620887,0.05806973,0.3906877
0.8743479,-0.04328453,-0.08725861,-0.7564548,0.07572495,0.37674
1.03414,0.04250047,-0.1810363,-0.8897718,0.5147709,0.3999116
1.063245,-0.02265739,-0.2426715,-1.088139,1.137738,0.4558479
0.9262302,-0.03517773,-0.1602828,-1.120151,1.189453,0.4462287
0.8230674,-0.03237354,-0.01081591,-1.043721,0.5398176,0.3620154
0.9025986,-0.0771168,0.05108721,-0.8972413,-0.04055325,0.1534531
0.9843894,-0.02115084,-0.08869301,-0.83116,0.1554474,-0.0532825
1.013469,0.02995306,-0.2464557,-0.9160303,0.542803,-0.04816621
0.9811314,0.04394794,-0.2711173,-1.052919,0.6254182,0.02858248
0.8613442,-0.005862606,-0.1938059,-1.168347,0.5106518,0.03458442
0.7941308,-0.2336719,-0.1619114,-1.387197,0.4327428,-0.008436702
0.9119144,-0.5822016,-0.2229493,-1.761244,0.9752924,-0.3354108
1.14022,-0.8908,-0.2175384,-1.917778,1.665829,-0.9824859
1.350567,-0.8907971,-0.05919583,-1.810396,1.506298,-1.287561
1.570888,-0.6698753,0.1387462,-1.820938,0.9751485,-1.009112
1.702845,-0.5841322,0.1486233,-1.833397,0.6592545,-0.6841969
1.675878,-0.5876135,0.0918755,-1.58674,0.3904965,-0.5158599
1.593147,-0.5217942,0.1446203,-1.360533,0.2751402,-0.4865968
1.374112,-0.2685485,0.09633623,-1.352993,0.5178332,-0.4161887
1.136165,0.1086586,0.01189529,-1.457528,0.8844572,0.1198227
1.049019,0.2165777,0.02486246,-1.797015,0.8749136,0.6449116
0.9274242,0.02378527,0.02422931,-2.204398,0.7229063,0.6142896
0.7558619,-0.1558763,0.09305627,-2.139676,0.6566001,0.4451329
0.6477234,-0.2524666,0.1821622,-1.762927,0.2595453,0.2387685
0.6283277,-0.2811874,0.1236298,-1.525339,0.1721735,-0.06482739
0.6224097,-0.1899598,0.05150836,-1.38047,0.4300648,-0.2904149
0.5386799,-0.1170984,0.06215758,-1.315609,0.2585488,-0.5308134
0.4798633,-0.1577949,0.07574069,-1.273086,0.1861667,-0.7222658
0.4553335,-0.1674609,0.0831208,-1.094619,0.07126434,-0.7229854
0.5756328,-0.2001823,0.08696547,-0.8999928,-0.2263053,-0.5885616
0.8528778,-0.2849319,0.07463794,-0.6209175,-0.3079941,-0.4299872
0.9043697,-0.2658947,0.06501742,-0.3461155,-0.563654,-0.2992282
0.8722967,-0.2226519,0.005243422,-0.3417848,-0.5976267,-0.1657362
0.9680784,-0.218112,-0.0777464,-0.3320053,-0.3666688,-0.07030741
0.9495837,-0.2035039,-0.05725045,-0.2769088,-0.3631044,-0.01841727
0.9325791,-0.2109539,0.02733212,-0.3458567,-0.3402064,-0.08571539
1.036176,-0.2250456,0.1207694,-0.3919353,-0.3802209,-0.2724917
1.086239,-0.2248234,0.1911588,-0.4188501,-0.3767467,-0.3400244
1.043199,-0.2230099,0.1569861,-0.4383085,-0.3307352,-0.2089676
0.9579149,-0.2160625,0.1014495,-0.416824,-0.3767812,0.002778812
0.8958772,-0.2388686,0.06516248,-0.3733675,-0.2219454,0.04133562
0.8929942,-0.3370827,-0.0414741,-0.3082967,0.04498892,-0.1594745
0.9940087,-0.4450246,-0.1632092,-0.3081496,0.5508185,-0.3735367
1.28437,-0.4638339,-0.2610142,-0.3027173,1.260777,-0.4460843
1.705236,-0.4542576,-0.339166,-0.08816643,1.745449,-0.3536546
1.854723,-0.4816031,-0.2874436,0.3878357,1.660531,-0.3092774
1.400858,-0.4507298,0.01721206,0.9505563,0.3714525,-0.3581783
1.037238,-0.2956895,0.3457212,1.043118,-0.9692565,-0.3171896
1.471992,-0.006231764,0.1868547,0.2839575,-0.5261491,-0.2479266
1.772009,0.2671031,-0.107376,-0.6512937,0.0007073125,-0.1393252
1.201377,0.2591623,0.0142102,-0.8489417,-0.8319277,0.1201606
0.677372,0.1472812,0.09184295,-0.5788463,-1.439098,0.5819878
0.7248461,0.08147098,0.06581954,-0.5033444,-1.694139,0.931698
0.9138671,-0.09603792,0.03786446,-0.3850123,-1.384267,0.6786385
1.002726,-0.1409924,-0.1690919,-0.1578487,-0.1859332,0.3256856
0.8998743,-0.01814068,-0.1259597,-0.1894474,-0.0534955,0.346035
0.7123131,-0.007660245,-0.0520144,-0.1862241,-0.08343755,0.3538209
0.6412426,-0.003638864,-0.1978792,-0.1735403,0.6367118,0.4025273
0.632475,-0.04291862,-0.1458582,-0.3639266,0.6199803,0.4892214
0.6958415,-0.1840934,-0.09398118,-0.3633831,0.5847329,0.3842902
0.7937959,-0.2479791,-0.06598204,-0.2844913,0.3381411,0.2739708
0.7974243,-0.2653704,-0.05966712,-0.2246149,-0.191858,0.1420392
0.7699843,-0.3433648,-0.2032066,0.02709429,0.04258036,0.06532415
0.7801019,-0.5415165,-0.2007705,0.3779041,0.4660294,0.04485875
0.9213996,-0.6872893,-0.1458645,0.7871577,1.093499,-0.2731558
1.239974,-0.5500699,-0.01075944,0.8259447,1.123277,-0.7142123
1.542601,-0.3049844,0.2246317,0.1681293,0.09628181,-0.765531
1.648076,-0.1552392,0.2556882,-0.5613507,-0.6504016,-0.143253
1.59401,-0.2269907,0.276788,-0.6333553,-0.7170839,0.4468065
1.521788,-0.4558478,0.3588354,-0.2297473,-0.2104319,0.1343228
1.327244,-0.4799329,0.3402146,0.068767,-0.01202739,-0.3037731
0.9861435,-0.2781819,0.2728662,0.3695805,-0.1519787,-0.2417512
0.8437209,-0.06051045,0.2029769,0.5441824,0.08346603,-0.02064113
0.8351418,0.005290101,0.156326,0.475852,0.1486752,0.2652177
0.7241884,-0.05239277,0.1649642,0.5879395,0.01604667,0.1561035
0.6466355,0.02573328,0.2019291,0.4748083,-0.3914398,-0.1685738
0.569037,0.05932438,0.1445227,0.1312645,-0.8915884,-0.07492613
0.4900522,-0.04618049,0.09962529,-0.005429752,-0.9388874,-0.1096581
0.5298976,-0.09046067,0.1314013,-0.1078898,-0.9690703,-0.2540996
0.6194072,-0.1875089,0.0805707,0.07182056,-1.128424,-0.2404336
0.8161958,-0.2613874,0.02540638,0.3139657,-1.253095,-0.3451797
1.069464,-0.2701195,-0.004583202,0.3068795,-1.052158,-0.2288206
1.176331,-0.294447,-0.005994179,0.3683245,-0.7275208,-0.08046399
1.160105,-0.2574869,0.02804588,0.3805595,-0.6832667,-0.08683291
1.069651,-0.2627703,0.02811586,0.3833029,-0.3622687,-0.02167168
1.007199,-0.2612698,0.02690754,0.3780351,0.1387472,-0.1248434
1.166682,-0.263228,-0.1603981,0.2470121,0.4199736,-0.1278945
1.558366,-0.3687501,-0.431026,-0.0166712,0.9006227,0.01248148
1.803813,-0.4161084,-0.3699168,-0.4711905,1.817303,0.06406027
1.495395,-0.4362402,-0.08626196,-0.4299246,2.10275,0.0493671
1.068626,-0.4524094,0.1829677,0.2538912,0.7026131,-0.2188921
1.118602,-0.3912665,0.2701791,0.9513388,-1.113338,-0.3795079
1.333135,-0.2647899,0.04377775,1.337174,-1.660622,-0.1975468
1.448069,-0.1046291,-0.2505173,1.048206,-0.6626857,0.04360777
1.466895,-0.02198831,-0.3381006,0.6863675,0.1764558,0.1991067
1.177571,0.0507427,-0.1798216,0.647312,-0.7267665,0.3287489
0.896305,0.1588217,-0.003655203,0.3075326,-1.281928,0.559491
0.9430475,0.1585135,-0.07768951,0.03350259,-0.6393121,0.5513899
0.9587027,0.06997671,-0.1194659,-0.005768592,-0.4024215,0.3669685
0.8074018,0.03541948,0.005414486,-0.01684428,-0.1544067,0.3558746
0.716842,0.0631181,-0.01303942,0.10007,0.07970904,0.375071
0.7554961,0.05634033,-0.06461434,-0.07149131,0.1387386,0.5054115
0.7650017,0.04446231,-0.1136193,-0.2791584,0.7155691,0.6579809
0.74366,0.02711202,-0.187727,-0.3164101,0.979492,0.680619
0.8235257,-0.00610793,-0.09386321,-0.5106026,0.6673383,0.6601257
0.9128238,0.03632135,-0.04706456,-0.7375317,0.4345728,0.5820251
0.9635784,0.06268702,-0.09298154,-1.090497,0.2164367,0.5417853
0.9378806,0.0002849376,-0.08476158,-1.225936,0.06341371,0.464851
0.8748399,-0.05461029,-0.1167442,-1.000268,0.07815294,0.375112
0.9172334,-0.07132732,-0.1973092,-0.9574288,0.2778164,0.3484297
0.9152218,-0.1587347,-0.3708695,-0.9673982,0.8159633,0.1915405
0.861057,-0.3592658,-0.4845411,-0.9727058,1.471582,-0.06737304
0.8764482,-0.5521351,-0.3159387,-0.9471896,1.717991,-0.3900226
0.9264575,-0.7713638,-0.002274447,-0.6518169,1.480524,-0.6910395
1.063295,-0.8666804,0.2637267,-0.2315164,0.8570153,-0.8080269
1.23776,-0.4641374,0.3093571,-0.04606836,-0.006789957,-0.7437288
1.38545,0.0765885,0.1316084,-0.4108944,-0.2117366,-0.5422069
1.470613,0.1183107,0.03094074,-1.066963,0.2040008,-0.4273155
1.497177,-0.1520984,0.1452832,-1.723149,0.2634597,-0.4629505
1.562685,-0.3121248,0.2319827,-1.983334,0.4093564,-0.4770615
1.38574,-0.3405435,0.1925294,-1.492557,0.7861653,-0.3879194
0.9626185,-0.1903374,0.1819986,-1.091144,0.8580164,-0.214109
0.77304,0.05876946,0.1374267,-1.178337,0.7964513,-0.09640673
0.759121,0.09303673,0.0269691,-1.465621,0.470045,-0.008237779
0.7963054,-0.09222526,-0.003735526,-1.900795,0.1935022,0.1429439
0.8948678,-0.3410133,0.008817211,-1.914158,0.2753611,0.2335052
0.8588026,-0.4881925,0.01925414,-1.505771,0.4688729,0.09773246
0.7017179,-0.4283091,0.1058959,-1.053981,0.7859919,-0.1755603
0.5179998,-0.3112748,0.2032425,-0.5149727,0.5004566,-0.3658934
0.4710572,-0.1621665,0.1930987,-0.3823166,-0.198292,-0.462863
0.6029806,-0.02969877,0.1614902,-0.6538344,-0.5441712,-0.3820396
0.7915064,-0.08358126,0.1277348,-0.8106297,-0.7879893,-0.2081619
1.095005,-0.1289522,0.02671259,-0.9363219,-0.4748569,-0.1648267
1.173299,-0.0806477,0.02485315,-0.9489751,0.07649645,-0.1910053
0.9812764,-0.1212248,0.143006,-0.8240472,0.266745,-0.363721
0.957803,-0.1431622,0.2141888,-0.7225647,0.4440682,-0.5947419
0.8683809,-0.09200463,0.2484054,-0.5825795,0.1918022,-0.6803282
0.7582542,-0.032817,0.200219,-0.6770763,-0.1825891,-0.5768099
0.7743741,0.06632591,0.04382055,-0.9561101,-0.2478757,-0.2942162
0.6923252,0.04109341,-0.1252924,-1.025476,-0.3612203,0.007141364
0.9662555,-0.225372,-0.3953641,-0.9935163,-0.1830703,0.5523222
1.658762,-0.7829153,-0.8597443,-0.6816686,0.3065957,0.9249591
2.00595,-1.316814,-1.005312,-0.01307894,0.553243,0.1930773
1.507314,-1.085401,-0.189442,0.7456691,-0.1121148,-0.8100844
0.9225013,-0.5254671,0.5966422,1.538356,-1.160932,-0.9340295
1.344416,-0.242754,0.2155249,1.454621,-1.068531,-0.6095526
1.64952,0.1767344,-0.1812933,0.4155836,-0.4877472,-0.4795086
1.216259,0.3528782,-0.02943548,-0.459797,-0.2400293,-0.344076
1.034225,0.1436981,-0.09791727,-1.298869,-0.07296712,0.06656249
0.7384828,0.01023592,-0.02388971,-1.456723,-0.734686,0.4676248
0.5890341,-0.3377124,0.1406148,-0.5445136,-1.652539,0.6783485
0.8930267,-0.4984431,-0.009082949,0.1779225,-1.627954,0.6902402
0.8345493,-0.2316252,-0.03364018,0.7742124,-1.286758,0.430764
0.850903,-0.07472835,-0.07003053,0.879713,-0.9953527,0.1789109
0.8738036,0.1020455,-0.1206781,0.3946231,-0.7094922,0.1864853
0.6971049,0.1604138,-0.03213183,0.3263664,-0.6525995,0.2681246
0.9427967,0.02398376,-0.115606,0.1334584,-0.559309,0.2834685
1.100872,0.004567123,-0.1458527,0.007034982,0.01732831,0.2880512
1.012728,-0.03944714,-0.1176417,0.02715566,0.9241893,0.2391644
0.9354212,-0.06872626,-0.1073502,-0.3262825,1.161731,0.1008651
0.694876,-0.031751,0.04985528,-0.4214452,0.4173485,-0.00465614
0.5462201,-0.03172441,0.06737367,-0.5597249,-0.3664033,0.0003287163
0.559023,-0.04605949,0.01283839,-0.6338049,-0.6616662,0.08093373
0.6863405,-0.1058283,-0.02642707,-0.3042937,-0.6098186,0.2072928
0.9011344,-0.146796,-0.1785496,-0.07116434,-0.2686229,0.3460181
1.060243,-0.1357288,-0.251919,0.1617162,0.2030117,0.3985039
1.093925,-0.1263799,-0.2718345,0.1503956,0.4246564,0.3113916
0.9732927,-0.1599123,-0.3110856,0.002321406,0.4835651,0.1576173
0.9382583,-0.3112303,-0.3271226,-0.02806274,0.6264238,0.009183727
1.000653,-0.6033586,-0.2951848,-0.04552783,0.8243981,-0.1469776
1.115127,-0.8285069,-0.1518876,0.2727255,1.284012,-0.414854
1.361828,-0.7341283,0.08867858,0.6378689,1.518729,-0.7025988
1.460515,-0.4737292,0.3000859,0.7013103,0.7512561,-0.6104155
1.40469,-0.2043395,0.3040098,0.3238199,-0.4217877,-0.1267619
1.403764,-0.06468502,0.2687521,-0.1060421,-0.9492659,0.2022671
1.421134,-0.2735056,0.333288,0.1105311,-0.423371,0.02497824
1.371744,-0.398097,0.3243875,0.3021176,0.1629586,-0.2129647
1.18246,-0.1914929,0.2675547,0.2521339,-0.1044159,0.0146584
0.9091216,-0.04177304,0.195126,0.3319108,-0.1611603,0.2440876
0.7136216,0.003769985,0.1645865,0.2136807,0.07336008,0.2424344
0.6547345,-0.04292077,0.1952084,0.08749915,-0.07777521,0.2590973
0.5781299,-0.1207962,0.1638185,0.0598127,-0.03778492,0.118257
0.4799281,-0.08530214,0.1445385,0.03018165,-0.1072932,0.1031111
0.4640328,-0.1146284,0.1207571,0.1601186,-0.4374059,0.1451761
0.4640987,-0.1838708,0.08486628,0.3505309,-0.5793386,-0.1232162
0.5446075,-0.2089683,0.08619939,0.6203909,-0.8654345,-0.3271601
0.6786971,-0.2570923,0.02694467,0.765939,-1.08161,-0.5096212
0.7707324,-0.2505139,-0.005416608,0.6939599,-1.108256,-0.5246896
0.8427532,-0.224275,0.010439,0.7689967,-1.252657,-0.2277573
0.8901701,-0.1809833,0.02398379,0.7996885,-1.385187,-0.01367565
0.978071,-0.1187225,0.08181273,0.7394266,-1.369885,0.1298547
1.022516,-0.2069052,0.0854585,0.7346809,-1.052447,-0.01446782
1.016061,-0.3415566,0.0615261,0.6323711,-0.6239623,-0.2794653
1.107095,-0.3456597,0.03041521,0.6480739,-0.3324006,-0.3283357
1.383271,-0.3180077,-0.1966646,0.6659535,0.0125172,-0.3704007
1.829988,-0.3129205,-0.5401779,0.4529502,0.7760533,-0.2235627
1.874684,-0.3006238,-0.5674598,0.1994353,1.985146,-0.1451272
1.353886,-0.3421602,-0.1017916,0.0588186,2.319304,-0.3658005
0.9807348,-0.4388916,0.3373695,0.5157111,0.7701134,-0.4683364
1.01528,-0.4679807,0.2945036,1.411449,-1.149695,-0.357806
1.245924,-0.3356706,0.03196648,1.694221,-1.314686,-0.1109159
1.368704,-0.05537467,-0.1932603,1.1232,0.08865705,0.03356824
1.218909,0.145718,-0.3212743,0.5037028,0.8471547,0.1446343
0.8955965,0.05659908,-0.1056638,0.5350068,-0.1857638,0.4205486
0.5782768,-0.09657864,0.1809205,0.7918075,-1.509019,0.6393994
0.6561515,-0.1106541,0.04770759,0.8458558,-1.463746,0.717857
0.8918783,-0.1014751,-0.0999735,0.9471306,-0.5358497,0.5945194
0.8383449,-0.02674329,-0.0730795,0.9501598,0.1266269,0.4461303
0.8242497,0.09315191,-0.1067101,0.8666649,0.08600556,0.423167
0.8217494,0.1026897,-0.04829066,0.7135625,-0.09863111,0.375041
0.7502657,0.06397256,-0.1061644,0.3142225,0.4605039,0.4146744
0.7701229,-0.01124711,-0.2264076,0.1154024,0.9842062,0.4309509
0.6808216,-0.1016114,-0.09393156,0.1677461,0.8983076,0.3102329
0.6787215,-0.1193247,0.007661129,0.1586859,0.6657895,0.2386093
0.8343535,-0.09918056,0.06612793,0.1433262,0.2736265,0.248264
0.9493122,-0.08228029,0.02677571,0.08767598,0.3134441,0.2811441
1.048879,-0.1366787,-0.1579611,0.05423027,0.5214417,0.2334962
0.9112738,-0.2532752,-0.1762399,0.1670836,0.4792209,0.1496644
0.7368921,-0.442476,-0.1613793,0.4255711,0.8147028,-0.03709116
0.8072425,-0.6908862,-0.1146978,0.8081907,0.9144591,-0.4416496
0.9974824,-0.7310826,0.08275766,1.189569,0.7553754,-0.6932609
1.30992,-0.497795,0.2340802,1.289802,0.4676465,-0.5127502
1.456487,-0.1723113,0.2476921,0.9463185,-0.3331239,-0.06289461
1.43221,0.04422217,0.1493825,0.4136982,-0.5479577,0.3202264
1.437421,0.002074924,0.1524198,-0.006448783,-0.3209643,0.3251152
1.21738,-0.1802556,0.2677053,-0.06362198,-0.594508,-0.04211903
1.006159,-0.2993849,0.3182954,0.09199097,-0.6660551,-0.3003572
1.076413,-0.2473011,0.2868588,0.1620456,0.03869081,-0.186102
1.08383,-0.1279551,0.1977376,0.5422515,0.9108765,-0.1485171
0.847226,-0.08476115,0.2178633,0.8670539,0.872344,-0.2702953
0.5475313,-0.02345304,0.242237,0.5669417,-0.01645778,-0.2831636
0.4370787,0.002335716,0.1906785,0.3509114,-0.9753665,-0.2932095
0.5447475,-0.09207075,0.2034566,0.3390022,-1.695649,-0.1967691
0.7323315,-0.1945086,0.07789486,0.3289817,-1.744589,0.102612
0.990984,-0.3208664,-0.1020294,0.5383728,-1.265205,0.2871664
1.196844,-0.4191313,-0.1283641,0.8096451,-0.7075441,0.1175246
1.12097,-0.4166096,-0.08841389,1.128062,-0.259252,-0.2152141
1.012735,-0.4185712,0.02474077,1.286954,-0.3816411,-0.3932351
1.014816,-0.363768,0.14251,1.196646,-0.5419468,-0.3923062
0.8570945,-0.2144078,0.1701209,1.173326,-0.2599097,-0.1733873
0.8219444,-0.1597407,0.02098177,0.9296248,-0.0180351,0.08522477
1.000734,-0.1952969,-0.1979994,0.4947918,0.476505,0.03649854
1.172836,-0.2001862,-0.2595139,0.3695304,0.9741992,-0.08946771
1.52181,-0.2916952,-0.2497751,0.54263,1.08958,-0.1544714
1.605386,-0.4782407,-0.1364659,0.9572251,1.089045,-0.2807739
1.201002,-0.4936492,0.1287831,1.54425,-0.0878644,-0.330318
1.013281,-0.2442242,0.2524314,1.74049,-1.898623,-0.3151094
1.248286,0.08396506,-0.0138731,1.166465,-1.85447,-0.2587827
1.465454,0.2185629,-0.3429692,0.4319358,-0.3785594,-0.117426
1.273305,0.161404,-0.2363174,0.08975011,0.4238773,0.04357558
1.000407,0.1705794,0.002854034,0.06985487,0.08924768,0.2944884
0.9383152,0.19061,0.1245653,0.2806221,-0.2823533,0.4918238
0.8777467,0.08736734,0.2287887,0.4065648,-0.1375691,0.4660063
0.9160373,0.0140231,0.1286027,0.4017044,-0.3556945,0.4793726
0.8913127,0.03842853,0.0114952,0.3406417,-0.5687957,0.5772108
0.8033764,0.04653066,-0.08985391,0.0863494,-0.04862976,0.6546664
0.8588325,-0.01591739,-0.2646381,-0.07573169,0.3346521,0.7632399
0.7878876,-0.1051924,-0.1769088,-0.144013,0.3678917,0.7396462
0.7348406,-0.2364442,-0.08823492,-0.1722044,0.07940782,0.5424837
0.7199648,-0.3916898,-0.1454354,0.07319739,-0.4355902,0.2882784
0.6384009,-0.4777255,-0.1374805,0.4854062,-0.3101759,0.02729493
0.6934925,-0.5461962,-0.2383157,0.9346643,0.4982363,-0.1977267
0.7781356,-0.5889637,-0.2169499,1.231467,1.72952,-0.5740761
1.020013,-0.5378114,0.09355808,1.387076,2.143212,-0.9116924
1.334426,-0.413251,0.364314,1.3238,0.5423846,-0.7127906
1.454928,-0.1577812,0.3720252,0.6725397,-0.9190692,-0.1128342
1.570346,0.01917995,0.1848579,0.0574431,-0.5681194,0.4030721
1.494515,-0.1386628,0.1592092,0.2393139,-0.03108151,0.3452675
1.188319,-0.2561527,0.2282348,0.6789346,-0.1686139,-0.1431143
1.052674,-0.09538361,0.2415803,0.6935948,-0.1238082,-0.4034418
1.132348,-0.005326032,0.3055384,0.4474916,-0.01002424,-0.4492888
1.161405,-0.02655033,0.2430604,0.1563109,0.00821888,-0.288642
0.8856078,0.02542049,0.1489311,0.04443374,0.1806191,0.08842801
0.5118046,0.03479899,0.1211121,0.2102074,-0.2920432,0.2670324
0.3958783,-0.04521785,0.07105813,0.1595226,-1.085418,0.3164785
0.4807883,-0.158363,0.09475183,0.1098068,-1.291648,0.2898597
0.6596993,-0.2610787,0.06610284,0.2439585,-1.249151,0.180128
0.9008016,-0.292306,0.01131085,0.2167138,-1.02654,0.08597518
1.0237,-0.332794,0.01263946,0.3381233,-0.8240339,-0.0928857
0.9542185,-0.3768858,-0.009372496,0.5251655,-0.7114083,-0.07950296
0.8865401,-0.3842917,0.01751197,0.7350905,-0.5110616,-0.04465974
0.8726975,-0.4127079,0.02842757,0.9898537,-0.4174104,-0.2249573
0.9943185,-0.3729322,-0.020242,0.8691081,-0.2278082,-0.2374532
1.461128,-0.2436351,-0.2213165,0.5415184,0.3778927,-0.2201494
1.821097,-0.1764842,-0.4711434,0.05776219,1.498303,-0.2332557
1.60435,-0.2756735,-0.2859398,-0.1173319,2.013031,-0.251161
1.294833,-0.4348284,0.06911404,0.5088354,0.9293381,-0.3524613
1.260324,-0.4088052,0.09713114,1.23284,-0.6201,-0.3024883
1.264397,-0.1906603,-0.08200562,1.535883,-1.342705,-0.2452706
1.320263,0.02840006,-0.2884681,1.157245,-0.7168804,-0.1137637
1.403639,0.08268699,-0.2796678,0.5985349,0.1409407,0.2543196
1.220991,0.02748177,-0.1150629,0.5203991,-0.1220847,0.5461198
0.9637315,0.03698792,-0.05093988,0.3713821,-0.5567531,0.7001972
0.8893735,-0.007644895,0.02283687,0.2580764,-0.777961,0.7458628
0.8978759,-0.1127006,-0.01119355,0.3740038,-0.8480966,0.6777081
0.905479,-0.1330292,-0.1084271,0.386558,-0.359634,0.5109827
0.8671397,-0.09127682,-0.04921155,0.5178834,-0.05065203,0.3259964
0.8602154,0.03840967,-0.09020824,0.467103,0.1975199,0.2920034
0.8195326,0.08307365,-0.1464024,0.1837659,0.5782391,0.3567837
0.7367063,0.01665026,-0.09408436,0.03716879,0.6997403,0.485546
0.780243,-0.009493267,-0.0849491,-0.20347,0.8726821,0.6340363
0.7895348,-0.136351,-0.02572004,-0.2978816,0.5438489,0.6916785
0.7988747,-0.2021122,-0.003371987,-0.195783,0.01082834,0.6058526
0.8747019,-0.1510294,-0.01188222,-0.1861896,0.04422848,0.4124441
0.8729896,-0.183466,0.02214226,-0.06419017,-0.007354632,0.2754129
0.8924233,-0.1768553,-0.02743907,0.09675276,0.02239555,0.1840243
0.8988309,-0.2003691,-0.125236,0.2549056,0.2063937,0.1385548
0.8820646,-0.3235406,-0.3100973,0.3942756,0.3846051,0.09615247
0.9374677,-0.4213927,-0.3784722,0.3693053,0.954517,-0.1438215
1.082297,-0.4749215,-0.05084028,0.4144643,1.310362,-0.5323683
1.3257,-0.5001178,0.2806034,0.5282701,0.9363851,-0.8549468
1.413879,-0.492704,0.2793585,0.5260593,0.328502,-0.8317168
1.396054,-0.3324509,0.2049313,0.3145578,-0.02896591,-0.4980896
1.538832,-0.1725876,0.2631167,-0.139448,-0.1965684,-0.153344
1.570607,-0.2252923,0.2695673,-0.3767827,-0.1226117,0.01145255
1.388641,-0.3313688,0.2314478,-0.1493885,0.2294871,-0.0951145
1.212579,-0.4023159,0.2951973,0.07794456,0.3731964,-0.1454715
1.060315,-0.3692239,0.2935542,0.07401327,0.3419861,-0.08874753
0.9816745,-0.2166451,0.214141,-0.04030267,0.3049665,-0.07871404
0.9144456,-0.07099506,0.1349683,-0.2588907,0.2856331,0.07683244
0.7660968,-0.002838931,0.07561076,-0.3906099,0.1791301,0.1151392
0.6852128,-0.0485503,0.1089293,-0.3223389,-0.3387355,0.01646278
0.6482291,-0.1235726,0.09424583,-0.2518668,-0.677139,0.01308884
0.66152,-0.2446726,0.05466564,-0.1657916,-0.5241622,-0.07560407
0.7440073,-0.3749835,0.07778269,-0.0202799,-0.3649879,-0.1131599
0.7134589,-0.3402768,0.06407217,0.1855461,-0.3544329,-0.1366354
0.7252366,-0.2898782,0.07144729,0.3868323,-0.495334,-0.2267209
0.8501931,-0.2619922,0.07438538,0.3743823,-0.6164541,-0.1375477
0.9337474,-0.1470359,0.04639462,0.3194286,-0.6097776,0.03245139
1.012359,-0.04984104,0.04920193,0.2973488,-0.4852868,0.2308042
0.9903934,-0.003322717,0.04178479,0.1465016,-0.3587656,0.320802
0.921424,-0.03021745,0.07791916,-0.01275028,-0.3193821,0.1792951
0.8936863,-0.08639137,0.1567165,-0.1986984,-0.3852742,0.1220206
0.8520408,-0.1250531,0.2077872,-0.3068645,-0.6918449,0.08667281
0.9835412,-0.2461205,0.2205413,-0.1435295,-0.8664317,-0.07364244
1.175646,-0.3048404,0.1673679,0.1060091,-0.7213485,-0.2367251
1.184507,-0.2241326,0.1025433,0.3247906,-0.4559101,-0.354762
1.114302,-0.2025006,0.07552308,0.3601836,-0.1383454,-0.270725
1.109852,-0.2868933,0.02616121,0.273386,0.02927529,-0.1312052
1.327121,-0.4683384,-0.1296866,0.3390282,0.3699844,-0.0865811
1.590073,-0.649557,-0.3558673,0.3257222,1.280714,-0.001923538
1.543212,-0.6447365,-0.4289597,0.3008641,2.194763,-0.1435898
1.313624,-0.5441095,-0.2608859,0.5319447,1.97345,-0.4919458
1.243833,-0.449336,-0.09205034,0.797525,0.4314046,-0.5972861
1.477015,-0.2604668,-0.1173109,1.056395,-1.015543,-0.3685313
0.8335938,-0.01824003,0.01380124,-0.3757442,-0.5966541,-0.02495536
0.8039636,0.02009377,-0.01052712,-0.6464753,-0.9284435,-0.1946389
0.8541747,-0.002756202,-0.07649179,-0.8303106,-0.5198872,-0.3552919
0.8290586,-0.01978995,-0.09024997,-0.9450784,0.03064223,-0.5540046
0.7544532,-0.07108656,-0.05919035,-0.8641353,-0.1050832,-0.5312349
0.6759541,-0.2235711,-0.01183924,-0.6483182,-0.5793616,-0.4053653
0.6695862,-0.2974534,-0.1010202,-0.3931399,-1.095467,-0.3609878
0.8690678,-0.2157668,-0.2855299,-0.1851278,-1.232758,-0.2425746
1.176835,-0.1886828,-0.4851531,-0.1376197,-0.1853147,-0.2396727
1.236432,-0.2121413,-0.5929023,-0.2172597,1.211283,-0.2928716
0.9665632,-0.2027929,-0.4388762,-0.324559,1.55074,-0.2392177
0.6381041,-0.1957409,-0.2370442,-0.4181187,0.9548725,-0.2189506
0.4616441,-0.1564253,-0.2066554,-0.3973613,0.2851707,-0.1107709
0.5015563,-0.062412,-0.2607736,-0.1934132,-0.2469618,0.2179709
0.8247939,-0.004571437,-0.3907383,0.02833845,-0.6426578,0.7843166
1.441925,-0.09192896,-0.5759391,0.2514425,-0.2721645,1.171499
1.868001,-0.2414642,-0.6440195,0.4732722,0.8694453,0.6119344
1.745216,-0.293239,-0.5486057,0.3650306,2.253987,-0.4521004
1.454641,-0.1952677,-0.3303476,0.03675292,2.813082,-0.8574221
1.102572,0.05288882,-0.02938339,-0.05168809,0.9212232,-0.3885183
0.7401245,0.253854,0.05396242,-0.009258607,-1.535832,0.1609646
0.8061084,0.1980194,-0.1866216,-0.087121,-1.657126,0.07853028
0.9505107,0.06770838,-0.2878304,-0.1134785,-0.6727164,-0.0286672
0.832572,0.0610572,-0.1228694,0.1559628,-0.2753909,0.2211443
0.8564716,0.05215283,0.01015761,0.5897237,-0.4719357,0.2603267
0.816296,-0.01824603,0.03288135,0.759429,-0.5602965,0.3301227
0.6354627,-0.06870774,-0.08142707,0.7297994,-0.1761928,0.5403251
0.6924742,-0.05748489,-0.232879,0.7530783,-0.04956359,0.7175195
0.7807698,-0.01323186,-0.3048668,0.6310402,-0.02253287,0.8324772
0.837388,-0.0563938,-0.415848,0.3830142,0.2468251,0.4182629
0.8155366,-0.09397296,-0.5036608,0.1120047,0.6018314,-0.06390337
0.6350655,-0.08066119,-0.4422694,-0.03261683,0.9653338,-0.0834991
0.6143503,-0.2432,-0.2993801,0.06512677,0.534564,0.01972752
0.7929713,-0.4808426,-0.1609691,0.0247172,-0.3436344,0.08651459
1.200994,-0.5096136,-0.1414219,-0.03569426,-0.5281331,0.005424394
1.667533,-0.2459131,-0.2476132,-0.007289326,-0.302747,-0.06837204
1.787969,-0.05685649,-0.2875237,-0.2119439,-0.2312292,-0.1805619
1.699543,-0.3839639,-0.2384389,-0.3827543,-0.4661622,-0.4320552
1.560886,-0.6733318,-0.2331471,-0.3905443,-0.4677732,-0.4022471
1.320902,-0.3861232,-0.222628,-0.3527241,0.4374203,-0.05235222
0.9490189,0.01521583,-0.1412212,-0.3451216,1.18592,0.2841266
0.6913642,0.2694309,-0.04493166,-0.5581778,0.4098303,0.2025053
0.7244951,0.3959934,-0.05327336,-1.036676,-0.6980436,-0.02447506
0.6889897,0.2434768,-0.1737374,-1.718365,-0.6145111,-0.06974117
0.6265031,0.007760691,-0.2253426,-2.070722,-0.4262621,-0.3620778
0.6694509,-0.2064021,-0.1970858,-1.910423,-0.6434221,-0.4342973
0.6386821,-0.4475437,-0.1791676,-1.600161,-0.5792427,-0.1366019
0.7155951,-0.4271768,-0.1927508,-1.02848,-0.7598805,-0.05841525
0.9177143,-0.2820054,-0.2424664,-0.5310387,-0.9034088,0.08280884
1.083672,-0.2180981,-0.3102076,-0.4675384,-0.4730393,0.1154068
1.186376,-0.1047782,-0.4206022,-0.4981784,0.06996668,-0.04776239
1.170578,-0.09771984,-0.4631298,-0.612828,0.6388528,-0.03683554
1.038251,-0.1170084,-0.4075,-0.7208452,0.919639,-0.05913071
0.8210411,-0.07755418,-0.4026569,-0.5949991,0.895188,0.1242827
0.8104943,-0.09618214,-0.4375602,-0.4195396,0.7448984,0.551247
1.13233,-0.1104789,-0.5042157,-0.2564317,0.6699824,0.7147681
1.381496,-0.2325445,-0.5225827,-0.02255583,1.582613,0.470877
1.328419,-0.2904586,-0.2939678,0.1445963,2.765791,0.01557196
1.118296,-0.04784027,0.1185719,0.1484468,2.43327,-0.06710719
1.068619,0.2636646,0.3224963,0.1981353,0.6254026,0.2562337
1.300353,0.5968243,0.09640072,0.09654497,-0.79145,0.4625944
1.456157,0.8524803,-0.2397937,-0.6637318,-0.4003931,0.3311101
1.15157,0.4614264,-0.3565083,-1.333186,0.01194444,0.127619
0.7172211,-0.2662369,-0.1281284,-0.8367181,-1.034944,0.2262566
0.7510201,-0.2491282,0.164554,-0.03502494,-1.415324,0.2414003
0.9021684,-0.07229418,-0.01487817,0.08586172,-0.6320271,0.1600918
0.8458211,-0.2605782,-0.2643022,0.188205,-0.1590986,0.2954594
0.8260683,0.04393169,-0.2346433,0.244736,0.1198908,0.4756158
0.7019372,0.381099,-0.2955128,-0.1080829,0.1011812,0.93983
0.5863344,0.3751873,-0.2628562,-0.325044,-0.1614007,1.297692
0.6347675,0.337578,-0.1919638,-0.6627798,-0.212585,1.159156
0.7192315,0.1181795,-0.2810111,-1.031979,-0.1297649,1.110271
0.8814641,0.1331356,-0.2424252,-0.9959865,0.1860846,1.110583
0.8885662,0.1940675,-0.2477134,-1.020719,0.1785701,1.084383
0.7975858,0.08481718,-0.3175512,-0.9698164,0.02786618,1.133357
0.7635104,0.05111302,-0.371897,-0.8725398,0.08392115,1.037898
0.6050885,-0.2932672,-0.5224155,-0.898878,-0.1732944,0.7920882
0.6202148,-0.6746358,-0.5077599,-0.8222878,-0.1387501,0.3051515
0.940973,-0.7805402,-0.3880575,-0.8100838,0.192871,-0.261883
1.33137,-0.6515338,-0.3417153,-0.753176,0.4593082,-0.4268907
1.645635,-0.2947813,-0.3920404,-0.9617256,0.6810738,-0.1633316
1.711317,-0.08729725,-0.4868769,-1.580174,0.5274784,0.04548618
1.688527,-0.05171913,-0.3687764,-1.951427,0.5644031,-0.06927222
1.618201,-0.1928622,-0.257635,-1.988571,0.7458737,-0.03842627
1.320403,-0.2976529,-0.2425865,-1.845661,0.8056372,0.3147187
0.9549363,-0.1201473,-0.08938977,-1.857365,0.9953513,0.6593401
0.652337,0.01404439,-0.007317524,-2.094251,0.5865311,0.9458799
0.5433252,0.08508716,-0.05575184,-2.29091,-0.3882644,1.047944
0.6698813,-0.06383576,-0.1030829,-2.391495,-1.101064,0.9687843
0.780441,-0.3850515,-0.1783983,-2.148373,-1.210705,0.8749096
0.8485696,-0.4978447,-0.2430074,-1.852922,-0.6939664,0.6151629
0.8974375,-0.5587852,-0.2274631,-1.643619,-0.09468563,0.2063697
0.8521538,-0.4904437,-0.1919838,-1.32496,0.2924731,-0.09854432
0.7936212,-0.2375355,-0.1871351,-1.32044,0.4087815,-0.1221902
0.755511,-0.04969246,-0.1334166,-1.417638,0.02764928,-0.03259946
0.7766822,-0.03906395,-0.1194922,-1.325738,-0.3402051,-0.07818207
0.9170876,-0.1027413,-0.1597519,-1.329543,-0.1809361,-0.06104433
1.06322,0.002837057,-0.126139,-1.30078,0.04011749,0.008185483
1.08403,0.01166104,-0.1305396,-1.209065,0.05481746,-0.008726745
0.9891398,-0.07218245,-0.1543985,-1.199568,0.1013352,0.01017558
0.9183632,0.01495179,-0.1648497,-1.211633,0.1927451,0.02886698
0.9238417,-0.0423034,-0.2365884,-1.222756,0.4451176,0.07755511
0.8708956,-0.1527305,-0.3046272,-1.161628,0.6646202,0.1930325
0.7604827,-0.2046127,-0.5007297,-0.8715705,0.4278339,0.5150859
0.8032653,-0.2793778,-0.9461669,-0.5088033,0.08387798,1.257539
1.200543,-0.2668268,-1.468511,-0.4363134,0.3584281,1.663272
1.786022,-0.4036313,-1.606901,-0.4495668,2.159594,0.884515
1.943566,-0.494916,-1.028591,-0.333834,3.859894,-0.1858727
1.566436,-0.2864473,-0.3837839,-0.4278427,1.935899,-0.3484752
1.206296,-0.148087,-0.2495966,-0.6825366,-0.61789,-0.1802502
1.064133,-0.1804567,-0.200004,-0.8377823,0.2280584,-0.285725
1.095094,-0.1958819,-0.092941,-0.8204463,0.6017905,-0.1650174
1.13763,-0.02910866,-0.1033196,-0.6747208,-0.4624241,0.03808654
0.9331209,0.09849694,-0.0641123,-0.6610986,-0.4758557,0.03579884
0.7187726,-0.009880759,-0.04760456,-0.5109217,-1.131655,0.1620022
0.6756832,-0.05108045,-0.1269594,-0.208206,-1.624502,0.2788515
0.6934509,0.01427602,-0.1335584,-0.1704745,-1.01697,0.113108
0.7293469,0.06409744,-0.1718602,-0.01719215,-0.9785112,-0.0265633
0.639468,0.08133464,-0.2077881,0.1451631,-0.6085031,0.1365235
0.5803352,0.07128683,-0.1597526,0.1014697,-0.3143169,0.3832752
0.6649895,0.04330047,-0.1997,0.215988,-0.5403658,0.5877607
0.7403524,-0.04416753,-0.219395,0.2422707,-0.2265053,0.7514408
0.881317,-0.0794247,-0.2393638,0.2798044,-0.05916623,0.719805
0.9355676,-0.08537224,-0.3814895,0.3755083,0.1462395,0.561742
0.8012301,-0.1146185,-0.4466732,0.2072772,0.4814903,0.2793261
0.6495145,-0.0958883,-0.4183649,0.160896,0.623319,-0.02550941
0.5146341,-0.1010745,-0.3595483,0.2813061,0.7473135,-0.07819702
0.4252914,-0.1294029,-0.3245157,0.3230856,0.223535,-0.06828508
0.48333,-0.1768919,-0.3769559,0.1354348,-0.4218192,-0.08796725
1.035333,-0.2759917,-0.4932536,-0.3740477,-0.4679223,-0.09397529
1.775192,-0.366188,-0.6549152,-0.667036,-0.06309333,-0.1415954
1.769961,-0.4085089,-0.612745,-0.4760948,0.5091236,-0.1673362
1.433312,-0.5500746,-0.3086814,-0.1966468,0.5665006,-0.3640438
1.411702,-0.8027775,-0.04800516,-0.07270611,0.1819273,-0.7136279
1.255521,-0.679591,-0.01306415,0.05728803,-0.1304545,-0.7760324
1.085352,-0.1695923,-0.09583079,0.1268995,-0.1147964,-0.4863641
1.097228,0.2013411,-0.01412091,-0.08685598,-0.07030228,-0.1767196
1.013934,0.2666698,0.05444375,-0.3645084,-0.2468086,-0.1386922
1.014705,0.1779064,-0.08295644,-0.7196701,-0.1798129,-0.3946558
0.8646124,0.268297,-0.1918355,-1.03688,-0.1410249,-0.6269566
0.624982,0.2562783,-0.2618297,-1.025409,-0.2679613,-0.5687683
0.7584666,-0.1740128,-0.2570235,-0.8916738,-0.4302685,-0.5036406
0.7832471,-0.4589917,-0.2418106,-0.5393274,-0.7336873,-0.5898664
0.8050534,-0.47605,-0.3522296,-0.05832404,-0.4067415,-0.5877252
1.04047,-0.4379686,-0.3760452,0.1447765,0.2810736,-0.6881963
1.00387,-0.4344247,-0.3704525,0.1840399,0.4745378,-0.9113023
0.8412653,-0.4309937,-0.3610282,0.2003578,0.4628312,-0.9323706
0.6478782,-0.2329818,-0.233106,0.2393816,0.2552419,-0.8498055
0.487995,-0.09203396,-0.1485568,0.4113222,-0.2806965,-0.6365624
0.6002289,0.0698108,-0.1418362,0.5941395,-1.216744,-0.1106363
0.9509226,0.2286749,-0.3578673,0.4304037,-1.676407,0.4236212
1.548256,0.09610702,-0.7897239,0.1331716,-0.1003534,0.4387391
1.861687,0.04148013,-0.9105584,0.1371926,2.151244,0.05327532
1.519402,0.04131305,-0.5540199,0.1519696,2.386329,-0.02973786
1.148509,0.1116473,-0.1244006,0.1342947,0.7194572,0.341588
1.052576,0.2683117,-0.03935228,0.1911114,-0.5585319,0.6691799
1.055322,0.06715806,-0.2306413,0.1465078,-0.1769311,0.5100505
1.056573,-0.106843,-0.2887743,0.2008336,0.4389025,0.1840069
0.8201236,-0.0105853,-0.1114952,0.34811,0.2406006,0.1886135
0.515867,-0.008812853,0.07310365,0.4695242,-0.1873501,0.2991752
0.5088159,-0.04968909,0.05925915,0.7270407,-0.9519599,0.5279502
0.6397654,-0.04549252,-0.103085,0.997559,-1.325805,0.7123221
0.8386649,-0.09262265,-0.3019098,1.061617,-0.6876382,0.5057396
1.021381,-0.1435823,-0.4831235,0.8700491,-0.2081534,0.2795949
0.9906093,-0.07373318,-0.5469067,0.5897937,0.349003,-0.0008529703
0.8724053,0.01366229,-0.5653511,0.4539588,0.8929709,-0.1657494
0.7215855,0.04318839,-0.5538851,0.3744554,0.5461231,0.02961387
0.5835585,0.05836823,-0.4444539,0.3309477,0.3077524,0.07657076
0.5402422,0.0002125855,-0.3410684,0.3512169,0.07627991,0.1718991
0.6593684,-0.1407265,-0.2135733,0.1934289,-0.539867,0.4016914
1.031011,-0.345479,-0.1483129,-0.006198785,-0.5483339,0.4099503
1.472522,-0.4458626,-0.3117241,-0.01743831,0.0274228,0.2618398
1.681287,-0.393696,-0.4292462,-0.1240848,0.5821441,-0.1478513
1.477792,-0.4282274,-0.2932607,-0.313643,0.5213829,-0.6543252
1.172366,-0.4693168,-0.07418516,-0.2447494,0.1471048,-0.8897523
1.077198,-0.38436,0.04036527,-0.1098326,0.1872035,-0.815149
0.9788098,-0.2050943,0.03998071,-0.2082508,0.1610109,-0.6975682
0.9157386,0.05369475,0.09109137,-0.4359798,0.005411904,-0.7334269
0.9045357,0.1198287,0.1685214,-0.6909544,-0.2333288,-0.6523292
0.7763471,-0.0002604425,0.01334599,-0.7625947,-0.6664692,-0.5804759
0.6264944,-0.001705025,-0.2251376,-0.6526369,-0.8110629,-0.5039168
0.5543596,-0.04827096,-0.2435935,-0.6384515,-1.057005,-0.09973621
0.6849894,-0.1616146,-0.2799698,-0.4671219,-1.532365,0.1574913
0.9504031,-0.198286,-0.4637567,-0.295855,-1.453342,0.130119
1.242336,-0.3004517,-0.5840759,-0.3797146,-0.6142997,-0.03260469
1.397279,-0.3134568,-0.6091293,-0.2685771,0.725328,-0.3934686
1.045651,-0.2307698,-0.4732688,-0.1975655,1.556649,-0.5312691
0.5867141,-0.2136962,-0.2508058,-0.3067879,1.199691,-0.4131318
0.5091348,-0.07827402,-0.1737696,-0.2419156,0.4236894,-0.1584912
0.6652122,0.08519636,-0.2433601,-0.0440548,-0.4380555,0.4945563
1.100845,0.1237817,-0.4610008,0.2339226,-1.055002,1.177495
1.703995,-0.02477151,-0.725113,0.2620397,-0.2919174,1.145844
1.92986,-0.3255478,-0.741379,0.1717138,1.204248,0.3811729
1.635289,-0.3747674,-0.4853751,0.3860518,1.836758,-0.3314469
1.335821,-0.1794325,-0.2421035,0.5332832,1.328802,-0.4583887
1.138909,-0.06277567,-0.1723525,0.5448706,0.2450517,-0.3803456
0.870988,-0.07800063,-0.1944506,0.5572271,-0.270742,-0.5007884
0.8439521,-0.07931729,-0.1531445,0.5751967,-0.4366474,-0.3794801
0.8555101,0.0264894,-0.05636438,0.7519965,-0.8549348,0.01327004
0.7668874,0.04801022,-0.1354826,0.9179885,-0.7284375,0.01600211
0.8015507,0.06741639,-0.2839067,0.9724772,-0.4400345,-0.02166486
0.6765619,0.1643684,-0.2703588,0.9350656,-0.317741,0.146866
0.5405807,0.1717229,-0.20111,0.8079191,-0.3386714,0.2428454
0.5148161,0.2303153,-0.1187086,0.6859449,-0.8367004,0.550748
0.6036815,0.2407218,-0.1478387,0.5576105,-0.9281827,0.7420496
0.9979534,0.144756,-0.2898998,0.4464422,-0.3369268,0.5959491
1.168478,0.1670585,-0.3540517,0.1506246,0.615908,0.5033959
1.068594,0.2119779,-0.3790377,-0.3733679,1.144066,0.3848681
0.9374668,0.2823344,-0.2570871,-0.7370687,0.7007721,0.3629807
0.6748607,0.3367086,-0.06915554,-0.9828334,0.234397,0.5380475
0.6748612,0.3060362,-0.05291741,-1.231142,-0.3466249,0.6972136
0.8118792,0.3385125,-0.1372263,-1.383522,-0.7347972,0.7641042
0.8049829,0.2554284,-0.3466506,-1.410449,-0.6299188,0.6784004
0.8596591,-0.09810986,-0.6369067,-1.255826,-1.082394,0.5395426
0.928472,-0.5857592,-0.8446692,-1.018745,-1.178402,0.348599
1.095734,-0.9455413,-0.8369175,-0.7782042,-0.2147669,-0.00222686
1.347241,-0.9993103,-0.7449852,-0.6481982,0.9022171,-0.3003127
1.46405,-0.9025843,-0.8231926,-0.7665466,1.515736,-0.3450152
1.534456,-0.632727,-0.8118727,-0.9934533,1.30805,-0.2514801
1.63905,-0.2642721,-0.7091636,-1.219041,1.106715,-0.1501731
1.654906,-0.05666453,-0.628249,-1.403298,1.121117,0.0855419
1.395209,0.1570576,-0.393537,-1.691459,0.8366044,0.6130519
0.9575912,0.2349109,-0.2487238,-1.982965,0.4913074,1.208462
0.7213729,-0.02797017,-0.1511245,-1.859683,-0.1793533,1.506793
0.7581561,-0.2532989,-0.05725799,-1.746738,-0.6434705,1.486937
0.8674408,-0.3764068,-0.1643038,-1.842797,-0.1984441,1.233115
0.9617405,-0.4289249,-0.1517901,-1.714764,0.4223686,0.82641
0.9010655,-0.3116605,-0.07602669,-1.677328,1.128205,0.4194812
0.6709369,-0.2369813,-0.06621147,-1.73774,1.431668,-0.001108395
0.4874073,-0.1457199,0.0102146,-1.637506,0.8342779,-0.3485622
0.3594334,-0.01184339,-0.07365949,-1.655806,0.5630514,-0.417552
0.3560724,-0.05504019,-0.1770739,-1.666688,0.5391043,-0.3530111
0.4834042,-0.1180529,-0.1433582,-1.601484,-0.02331258,-0.3753243
0.617309,-0.1685238,-0.1600684,-1.476158,-0.5798862,-0.397323
0.8616598,-0.2398388,-0.1785432,-1.079535,-0.8107418,-0.383523
1.03128,-0.2610941,-0.2131983,-0.6852174,-0.7140121,-0.4549134
1.066024,-0.359398,-0.252147,-0.4099641,-0.5607597,-0.5308849
1.150366,-0.4036975,-0.2410825,-0.1198505,-0.486081,-0.5430663
1.142578,-0.3229391,-0.3033911,0.0009270913,-0.1483636,-0.5566749
1.039535,-0.255925,-0.4074718,-0.06033946,0.2912615,-0.5695079
0.8271935,-0.1392292,-0.4360995,-0.04478129,0.6071125,-0.5592531
0.5981672,-0.0197949,-0.410517,0.1082247,0.4645395,-0.3386335
0.7208899,0.0437871,-0.4401586,0.2345524,-0.3026027,0.1710666
1.246521,0.0539186,-0.5648881,0.4042347,-0.74449,0.5240379
1.818481,-0.06803103,-0.7152018,0.7914026,0.2377221,0.344826
1.766661,-0.2118258,-0.6985328,1.192641,2.070178,-0.09646377
1.15941,-0.1779264,-0.3229331,1.268839,2.360141,-0.3049374
0.8890664,0.08403825,0.0262404,1.257984,0.5607241,-0.07463395
1.087229,0.4624042,-0.09719664,1.264676,-0.8534649,0.2654057
1.232375,0.6168955,-0.2740215,0.4489972,-0.5694729,0.2031896
1.051325,0.3323249,-0.1830805,-0.5413115,-0.2638278,0.09678884
0.8574908,-0.03976924,-0.07248341,-0.1937264,-0.8963991,0.2395769
0.9000188,-0.2028776,0.03606237,0.4827089,-1.012359,0.1907225
0.8840352,-0.2486763,-0.02748521,0.7442656,-0.9301707,0.1895053
0.8707597,-0.1515973,-0.3441009,1.107037,-1.063303,0.2661557
0.8803748,-0.02988417,-0.4711745,0.8913273,-0.3709271,0.1778765
0.7894818,-0.04523911,-0.4606193,0.5310215,-0.03976655,0.2334092
0.7896246,-0.052626,-0.4437464,0.7397829,-0.09198738,0.1608166
0.7210666,-0.06442715,-0.3406416,0.6353359,0.06304988,-0.02358586
0.6250689,-0.1126493,-0.3173469,0.6225165,-0.2055184,-0.08058893
0.6101021,-0.1540708,-0.2611138,1.099284,-0.2283066,-0.2483012
0.5206847,-0.2317506,-0.2341281,1.422793,-0.3851284,-0.2920476
0.5507665,-0.2916958,-0.2823569,1.586681,-0.4952445,-0.2336369
0.6376713,-0.3385834,-0.2269704,1.422097,-0.2481427,-0.2538181
0.8379995,-0.3066471,-0.2949792,1.115852,-0.5545075,-0.3169911
1.334075,-0.1430426,-0.4442914,0.7228402,-0.4791457,-0.5453454
1.607692,-0.09257301,-0.5038057,0.2375909,-0.02126433,-0.7363123
1.490437,-0.265771,-0.3598227,0.3486026,0.1652774,-0.7800305
1.384287,-0.5350762,-0.02457152,0.5168337,-0.01396866,-0.7680482
1.310738,-0.6155214,0.04038165,0.5157196,-0.5223051,-0.5703738
1.115869,-0.2693123,-0.06244134,0.6305674,-0.3717451,-0.1871648
0.985934,0.2118096,-0.05489902,0.4027545,-0.4052773,-0.02115641
1.004023,0.3591235,-0.06053399,0.1929915,-0.7320228,-0.1644632
0.9737735,0.1501351,-0.08735774,0.018152,-0.3246752,-0.2690616
0.8673391,-0.08942913,-0.1782452,-0.2464424,-0.2028194,-0.4682196
0.7212615,-0.2118608,-0.2142299,-0.234458,-0.3588458,-0.6125024
0.6926452,-0.2660901,-0.1200079,-0.1181017,-0.6494811,-0.4687941
0.7914208,-0.2471371,-0.09556836,0.1701692,-1.105701,-0.4255974
0.8180238,-0.2614739,-0.2356132,0.4153964,-0.6911475,-0.335723
0.9110149,-0.3140831,-0.4119459,0.4132582,-0.0853884,-0.2269268
0.9706879,-0.3118675,-0.3861267,0.4529615,0.1105476,-0.3043207
0.8417776,-0.2784626,-0.3247075,0.453398,0.3513147,-0.1923396
0.7784575,-0.1587936,-0.3938616,0.4948701,0.2412177,0.02299721
0.8404151,-0.08192028,-0.464005,0.5888166,-0.09897155,0.2445959
1.099358,-0.1624234,-0.6489746,0.6838856,0.03253508,0.3639939
1.477341,-0.3072876,-0.7624834,0.9477583,0.7951192,-0.03184783
1.565071,-0.4270712,-0.5582118,1.245985,1.431412,-0.3777502
1.448716,-0.2022246,-0.4398272,1.431416,0.6859244,-0.03863337
1.430525,0.2140131,-0.6061438,1.353668,-0.2019203,0.1874035
1.267517,0.2757661,-0.659398,0.8069956,0.6530027,-0.3151324
0.7886716,0.1528443,-0.3017007,0.2102027,0.9969111,-0.6120473
0.5344757,0.09630471,0.145961,0.3528383,-0.7069295,-0.1531579
0.8569173,0.0006544239,0.1707423,0.8029436,-2.211507,0.2586347
1.289561,-0.1510243,-0.1538562,1.003122,-2.177093,0.2136735
1.405081,-0.289431,-0.4241946,1.478244,-0.6630823,0.04606092
1.237413,-0.2665559,-0.4386096,1.624811,1.099589,-0.04953242
0.7465025,-0.07958429,-0.227301,1.224452,1.474173,-0.07099745
0.1816758,0.06610004,-0.0224327,1.167663,0.5816622,0.009387008
0.2187443,0.08672825,0.01336962,1.018797,-0.6369434,0.131636
0.5106812,0.0737249,-0.06419665,0.8616753,-1.288525,0.1664844
0.6249409,0.06060808,-0.317066,0.9398583,-1.210982,0.1271137
1.007235,-0.03242201,-0.6627261,0.8842533,-0.4807048,0.03270464
1.084197,-0.1294149,-0.6813785,1.17559,0.504607,-0.08767292
0.7400173,-0.2213683,-0.5165059,1.388228,0.6210223,-0.2524426
0.8716203,-0.4145858,-0.4960647,0.9456055,-0.01965937,-0.4740043
1.135208,-0.4170273,-0.3882207,0.3374557,-0.4276037,-0.5570883
1.49551,-0.1249937,-0.3511824,-0.03548122,0.02875834,-0.4764992
1.881013,0.003987485,-0.4400164,0.03339299,0.5024403,-0.4216927
1.6943,-0.2675036,-0.2556297,0.2485202,0.1461188,-0.5236223
1.575859,-0.6586204,-0.1323674,0.491298,0.1230585,-0.5387948
1.418135,-0.685479,-0.1842523,0.7093606,0.3699355,-0.1336017
0.9238774,-0.3441502,-0.1108776,0.6502468,0.2018968,0.2834529
0.7449224,0.01720214,-0.08882738,0.503229,-0.1456216,0.2921275
0.6165388,0.2510619,-0.06448656,0.1638329,-0.7600953,0.2255061
0.5451389,0.22352,-0.03122051,-0.2581181,-0.8859977,0.2181166
0.6855325,0.07493783,-0.1136739,-0.4657755,-0.4655967,-0.08680279
0.6516863,-0.05442188,-0.1614813,-0.6397186,-0.261899,-0.4923492
0.6103948,-0.2405483,-0.1741512,-0.6790373,-0.08308428,-0.5892327
0.5924078,-0.2709259,-0.1606999,-0.4753638,-0.2489586,-0.5572227
0.6168771,-0.2067528,-0.1569349,-0.06962053,-0.8336373,-0.488562
0.8116227,-0.2307397,-0.2044691,0.3561932,-1.083478,-0.4596701
1.020826,-0.2627831,-0.2898489,0.4907134,-0.660123,-0.5558704
1.155501,-0.3361264,-0.3961016,0.5404756,0.3706122,-0.6348211
1.031283,-0.3524024,-0.3268693,0.6404253,0.9771821,-0.6780927
0.8036044,-0.2969358,-0.2103818,0.6277125,0.3403292,-0.4791603
0.791423,-0.2611559,-0.291256,0.7149092,-0.4049934,-0.07180984
1.022806,-0.1976078,-0.506567,0.8575034,-0.2356749,0.257041
1.494505,-0.1385704,-0.7955105,0.7182225,0.4688675,0.349631
1.727772,-0.09571572,-0.822551,0.6113769,1.393726,-0.0426823
1.479,-0.1850236,-0.4237668,0.7369405,1.784956,-0.5040363
1.232275,-0.3097035,-0.06094132,0.9117019,0.6805408,-0.4477006
1.150715,-0.1458483,-0.07573164,1.265861,-0.4470603,0.002054847
1.232375,0.03268817,-0.4843984,1.458724,-0.1960639,0.3249875
1.3089,0.008404728,-0.7913206,1.113022,0.135156,0.08904379
0.9626904,0.05073113,-0.4223742,0.8514745,-0.09979583,-0.1464258
0.5426694,0.08516587,0.08162983,1.028677,-0.7114448,0.10707
0.5650382,-0.02557578,0.09024026,1.194807,-1.427918,0.2107435
0.7384167,-0.1435118,-0.0932492,1.29686,-0.9813696,0.07687139
0.7566895,-0.2082416,-0.2367594,1.485413,0.04715199,0.129156
0.6782773,-0.1300488,-0.302099,1.441376,0.1416618,0.1889155
0.5987832,0.0292004,-0.2420466,1.249177,-0.1754622,0.2613375
0.6270862,0.04563699,-0.2445298,1.154349,-0.4682997,0.3664804
0.7417201,0.0001516743,-0.3096582,0.969585,-0.5488454,0.2126604
0.8559904,-0.01992587,-0.3446086,0.8572698,-0.2287805,-0.00473424
0.9156716,-0.04837019,-0.4124694,0.911221,-0.1071932,-0.09519749
0.8238108,-0.1011877,-0.458311,0.9814883,-0.01322791,-0.1726139
0.7597744,-0.2522888,-0.4645653,0.9851667,0.07786936,-0.3005253
0.9533818,-0.3364809,-0.4610639,0.6016913,-0.04680258,-0.5111856
1.299082,-0.1900464,-0.4432355,0.06024804,0.02395126,-0.554924
1.637198,-0.0008089555,-0.4267647,-0.0950456,-0.004670707,-0.3561246
1.715742,-0.01885691,-0.3336493,-0.02606591,-0.1062395,-0.1828817
1.532439,-0.3680808,-0.2334017,0.1192965,-0.1113895,-0.2002261
1.446687,-0.7950132,-0.2625076,0.4586153,-0.1601515,-0.5196274
1.364076,-0.8043402,-0.311085,0.632754,0.1317825,-0.7716682
1.079837,-0.3946987,-0.2849161,0.4631761,0.6726692,-0.4247501
0.751849,0.02348932,-0.1884378,0.3106282,1.067048,0.08250708
0.4926904,0.2863668,-0.04026094,0.04542899,0.7106204,0.1449243
0.3682737,0.340207,0.01389101,-0.2977471,-0.2627232,0.0730714
0.3804226,0.2113743,-0.08354883,-0.4493085,-0.858282,0.05789869
0.4318317,0.09418936,-0.1333336,-0.7229516,-1.035682,-0.158422
0.5295833,-0.149114,-0.1314807,-0.8701567,-0.7029235,-0.4396782
0.6723289,-0.4862325,-0.2102471,-0.6795207,-0.3753448,-0.600208
0.741529,-0.4854894,-0.24258,-0.4300514,-0.6685768,-0.6059365
0.8555098,-0.3315301,-0.2226908,0.1095564,-0.6403995,-0.5498896
1.077431,-0.3138513,-0.2725346,0.5458693,-0.1911871,-0.6275433
1.009596,-0.1657241,-0.3206633,0.4325529,0.549123,-0.6402283
0.8508801,-0.0162115,-0.3054002,0.3215851,1.158908,-0.451178
1.045385,-0.05515323,-0.347457,0.3650029,0.3611801,-0.0237267
1.310622,0.04484842,-0.6008022,0.4996988,-0.5978689,0.6828031
1.580693,0.06698268,-0.8463001,0.7076581,-0.09495685,0.9711007
1.737024,-0.2141591,-0.7464075,0.6170803,1.286142,0.3804684
1.706996,-0.4040698,-0.5098963,0.5510233,2.338824,-0.1407032
1.752216,-0.389535,-0.4417024,0.9327123,1.580577,0.1191296
1.441433,-0.1538222,-0.4445134,1.176951,0.1837826,0.1978924
0.9449542,0.06925301,-0.411026,0.9915523,0.1466729,-0.3362775
0.8302646,-0.01241673,-0.3327959,0.8619314,-0.6549258,-0.5845207
0.7579802,-0.09936759,-0.25303,1.013121,-2.220097,-0.5328978
0.7059752,-0.1191202,-0.2514991,1.197193,-1.963656,-0.5042206
0.8032048,-0.1336422,-0.3202875,1.326439,-1.058233,-0.4013326
0.9515577,-0.0495043,-0.4186935,1.476196,-0.110537,-0.189306
0.936749,0.06267921,-0.3274525,1.455919,0.6697314,0.1672096
0.759299,0.1389141,-0.1229241,1.241818,0.1212769,0.2778015
0.7672621,0.1137046,-0.1614143,0.9114801,-0.1651133,0.2199429
0.6946144,0.060191,-0.2338574,0.5538981,0.003898423,0.2860297
1.008358,-0.003150959,-0.3301055,1.119455,0.1675982,0.1413857
0.9233918,0.01658661,-0.3948009,0.8103396,0.2256999,0.1283702
0.6695204,0.09150701,-0.2703129,0.742754,0.1395116,0.2204246
0.354637,0.1180362,-0.2112452,0.5725481,-0.1901837,0.3828856
0.4028103,-0.1068779,-0.2570605,0.4172719,-0.7450552,0.4039733
0.5666879,-0.2191232,-0.2851058,0.5724703,-0.7308372,0.2294248
0.7952662,-0.2862337,-0.404199,0.704276,-0.5110335,-0.03260561
0.9055289,-0.2563704,-0.493606,0.9752269,0.1237492,-0.284842
0.7548174,-0.2190978,-0.4507121,1.204786,0.1659463,-0.5048137
0.7785223,-0.3653491,-0.4052611,1.051985,-0.2433207,-0.6433094
1.01142,-0.356724,-0.3836437,0.719193,-0.1640092,-0.5533309
1.401092,-0.2308353,-0.3819508,0.2742614,-0.07213562,-0.4719526
1.691491,-0.1352963,-0.38347,0.04884487,0.2343899,-0.4249989
1.62303,-0.2592169,-0.3361119,0.1733042,0.1529164,-0.2771856
1.500907,-0.5504676,-0.2398701,0.193088,-0.03977092,-0.4004523
1.289377,-0.5188547,-0.1316541,0.2247826,0.2503916,-0.5972574
0.9901771,-0.3501909,-0.06434943,0.458806,0.117564,-0.5018058
0.9079224,-0.2033004,-0.02343291,0.4760457,0.02875691,-0.4245321
0.9274366,-0.05744543,-0.01134926,0.2684111,0.005374319,-0.4044931
0.8068484,0.01321801,-0.05421167,0.07530147,-0.1110082,-0.4308474
0.6501416,0.1436736,-0.05313067,-0.2012567,-0.1106984,-0.6114631
0.6132916,0.07125545,-0.05694924,-0.4255459,-0.6599329,-0.6770471
0.5915165,-0.1340786,-0.1615007,-0.4497721,-1.13618,-0.573557
0.6370001,-0.2204207,-0.2253641,-0.3222506,-1.137096,-0.5014305
0.8142556,-0.324819,-0.2506045,-0.07157971,-1.065683,-0.5117512
0.9627652,-0.3431198,-0.3257117,0.1854241,-0.7269881,-0.5591545
1.037914,-0.3823661,-0.3987919,0.3934789,-0.129323,-0.5609079
0.9781697,-0.4022546,-0.4148596,0.4861383,0.4682368,-0.5469925
0.8315053,-0.2810862,-0.3547802,0.4872594,0.529036,-0.4657356
0.7686142,-0.2104328,-0.3487703,0.5364955,0.1996834,-0.162619
0.88272,-0.05590948,-0.5184391,0.5939379,0.07015385,0.3065589
1.208349,-0.007433272,-0.7750048,0.5564293,0.2900313,0.5462407
1.444811,-0.1933424,-0.8308157,0.4898728,1.021683,0.2294922
1.407763,-0.2637634,-0.5453375,0.5964194,1.474627,-0.08395657
1.376056,-0.1953964,-0.3337168,0.6994599,0.8133358,0.03022698
1.462612,0.01358973,-0.439667,0.5807669,0.1445348,0.05244544
1.439145,0.1664793,-0.5015622,0.3383994,0.6646989,-0.07844932
1.071108,0.06162896,-0.3457091,-0.005680336,0.9945249,-0.2001058
0.6168412,-0.02672942,-0.1125176,-0.1005383,-0.08893919,-0.3982237
0.6120777,0.01247914,0.088391,0.1610795,-1.229984,-0.3591015
0.8882451,0.03193287,0.0279283,0.4236885,-1.593568,-0.1414399
0.9557927,-0.00286591,-0.2403152,0.7547641,-1.001479,-0.01785985
0.8851521,0.04019646,-0.3297285,0.9156333,0.1341445,0.1378003
0.7620618,0.08576911,-0.3200599,0.6871391,0.4619798,0.2126273
0.553596,0.06357497,-0.2556618,0.512531,0.2973999,0.2532701
0.5027692,0.07589302,-0.1228696,0.3975773,0.06765937,0.3664214
0.5852858,0.01894256,-0.1705028,0.210054,-0.2433957,0.3166769
0.6583748,-0.02110697,-0.1885384,0.1240733,-0.2689828,0.2811246
0.8199286,0.03163728,-0.2423351,0.09732504,-0.12496,0.3608779
0.9204122,0.03820718,-0.4680188,0.138571,0.2509145,0.3312874
0.8375057,-0.03068068,-0.4795059,0.2613634,0.3121812,0.2103478
0.7221157,-0.2158712,-0.4375539,0.3404704,-0.08031447,-0.01042049
0.6786877,-0.3966136,-0.4756779,0.3134764,-0.3888257,-0.2095904
0.8846049,-0.4417858,-0.4553508,0.05827984,-0.4588666,-0.263762
1.345673,-0.3195852,-0.4765752,-0.2349935,0.3387981,-0.2418893
1.58305,-0.1111353,-0.4653967,-0.2454743,1.047237,-0.05611534
1.445676,-0.09628751,-0.3777385,-0.2602435,0.509005,0.1023028
1.319714,-0.3125481,-0.2733093,-0.3933101,-0.1012789,-0.03973841
1.220496,-0.4992972,-0.2428578,-0.3039179,-0.1118719,-0.1712155
1.04551,-0.3646191,-0.258459,-0.1592422,-0.03853836,-0.02229341
0.9251784,-0.1266754,-0.1686599,-0.18577,-0.06487907,0.1832259
0.8195348,-0.1174,-0.1163892,-0.296054,-0.0212566,0.2612149
0.7456516,-0.07262789,-0.1321368,-0.5267758,-0.05343428,0.1530625
0.7212536,-0.02527806,-0.09749551,-0.6899921,-0.2393587,-0.1797541
0.6466143,-0.09299878,-0.09972122,-0.7435166,-0.4988244,-0.4710136
0.6007413,-0.1418303,-0.1662078,-0.8530938,-0.7807247,-0.5320268
0.6133053,-0.273441,-0.2275581,-0.7410088,-0.7734045,-0.4527848
0.6756274,-0.3132505,-0.2381862,-0.3922782,-0.7845462,-0.3619607
0.8459009,-0.2594133,-0.2862141,-0.1041978,-0.8106165,-0.3853068
1.033689,-0.2692199,-0.420242,-0.0805317,-0.2701367,-0.3822466
1.106912,-0.141688,-0.4865441,-0.2721142,0.5053595,-0.3267523
0.9928227,-0.05430176,-0.4939482,-0.2824913,0.8709479,-0.2258547
0.817139,-0.0911307,-0.5021904,-0.256978,0.5247104,0.2228443
0.8401121,-0.05964915,-0.512338,-0.2786699,0.05028989,0.8717543
1.167061,-0.0959128,-0.6717557,-0.144328,0.1551755,1.146666
1.653548,-0.263371,-0.8278801,-0.1247902,0.9644626,0.6576924
1.761174,-0.4548259,-0.6509216,-0.01122191,1.958621,-0.1976309
1.357489,-0.441633,-0.3207074,0.2851856,1.507825,-0.5658543
1.122493,-0.1337658,-0.1770895,0.331043,0.006779781,-0.4033039
1.22761,0.2328543,-0.2538775,0.1908995,-0.5911038,-0.2222687
1.237007,0.4107934,-0.4080071,-0.1023253,-0.1564689,-0.2389144
1.026025,0.2358611,-0.440441,-0.4575318,0.4266518,-0.1725444
0.7350064,0.03430855,-0.2364391,-0.5310332,-0.1506049,0.09203917
0.6040192,0.06171466,0.009031638,-0.3596008,-1.009384,0.348266
0.8544792,0.0211699,-0.03575488,-0.2392358,-0.6696551,0.5211851
1.20079,0.01351847,-0.2171635,-0.2384641,-0.153062,0.4268127
1.139525,0.1039502,-0.2351124,-0.276944,0.5991827,0.3728632
0.8478619,0.1455637,-0.237503,-0.4625361,0.8200962,0.5265775
0.6229207,0.2597098,-0.2461751,-0.6858414,-0.06489469,0.6323395
0.5378363,0.2353799,-0.2181643,-0.7872925,-0.3024812,0.9435222
0.7269343,0.05496261,-0.224346,-0.8079554,-0.4070252,1.02455
0.8475521,-0.02450111,-0.180159,-0.7307443,-0.3259386,0.7985748
0.8213148,-0.05728887,-0.1982794,-0.6727689,0.1503804,0.8491876
0.930968,-0.001034475,-0.2605608,-0.6151764,0.05755935,0.7666056
0.9842657,0.06864868,-0.2658472,-0.6390021,0.2331806,0.5733003
0.9691342,0.1435051,-0.3537271,-0.8281962,0.2583905,0.4488204
0.9056433,0.2828379,-0.4118462,-0.9226748,0.03966128,0.3376522
0.7611501,0.2140446,-0.455256,-1.001873,-0.04253981,0.4755394
0.7364537,-0.08019335,-0.6362942,-1.06608,-0.7157387,0.4980264
0.8746741,-0.5614776,-0.8313761,-1.079786,-0.7322455,0.3075704
1.167355,-0.9760424,-0.8993288,-1.208988,0.3324727,0.08098135
1.443701,-0.8820337,-0.8200517,-1.248433,1.227717,-0.0970078
1.566536,-0.6428848,-0.701123,-1.212782,1.142462,0.05902351
1.590154,-0.5325349,-0.576985,-1.265842,0.5433615,0.2005524
1.543076,-0.3878168,-0.5782079,-1.347415,0.7327412,0.1778003
1.456519,-0.2299105,-0.6395967,-1.444272,1.16699,0.3572502
1.157404,-0.04763977,-0.4165748,-1.544364,1.400468,0.6819675
0.7727028,-0.06318108,-0.1840418,-1.645306,1.064558,1.02801
0.6148754,-0.2379789,-0.1576823,-1.599012,-0.06013272,1.213525
0.6078686,-0.2865971,-0.1724951,-1.496726,-0.3702318,1.136201
0.731215,-0.3510728,-0.2329406,-1.553468,-0.2280029,1.021164
0.8741003,-0.3177033,-0.2279811,-1.530337,-0.02154815,0.8545526
0.8778243,-0.1848458,-0.176389,-1.488075,0.7334581,0.538879
0.7751771,-0.1419184,-0.1195599,-1.636986,0.8117336,0.1683712
0.6140723,-0.06990848,-0.07811296,-1.733518,0.4873682,-0.1518275
0.5430064,-0.1274917,-0.1245201,-1.662825,0.3169282,-0.2554037
0.5714923,-0.2372508,-0.1138075,-1.521256,0.04354436,-0.2631962
0.6430532,-0.225327,-0.1490088,-1.389271,-0.1181215,-0.3655449
0.7652853,-0.2396529,-0.26251,-1.275773,-0.4162946,-0.3320721
0.857258,-0.1942643,-0.3248135,-1.08316,-0.4991606,-0.203422
0.9365218,-0.1929554,-0.3953731,-0.8494334,-0.2793562,-0.1374373
0.9930016,-0.2478826,-0.3875932,-0.7466148,-0.04717259,-0.09217478
0.9430684,-0.223081,-0.3348409,-0.7709346,0.1999574,-0.1829616
0.8664546,-0.2311597,-0.2490109,-0.7877652,0.07328725,-0.284092
0.8744522,-0.1920703,-0.1512681,-0.8387026,-0.1870676,-0.330348
0.9201399,-0.1835707,-0.2339201,-0.8962587,-0.3825274,-0.3636063
0.9303673,-0.262356,-0.343009,-0.8175898,-0.3778419,-0.244801
0.8943191,-0.308317,-0.3947581,-0.6754342,-0.04337364,-0.1343086
0.8289798,-0.3469499,-0.4354782,-0.4350472,0.1501497,-0.023281
0.8633029,-0.2411432,-0.4906048,-0.1111856,0.2647634,0.2325502
1.077093,-0.09517573,-0.7178677,-0.006996441,0.3752221,0.5325961
1.414316,-0.1232996,-0.8560771,-0.03850762,0.9044932,0.6487641
1.596549,-0.2563207,-0.6068135,0.08413571,1.901151,0.1974913
1.356111,-0.3726762,-0.2568202,0.3204749,1.822639,-0.3505468
1.201412,-0.2040564,-0.1910254,0.6500449,0.6412876,-0.2952875
1.498228,0.2040016,-0.3900047,0.8693874,-0.0674383,-0.1895922
1.587692,0.429501,-0.5073173,0.5351962,0.3348689,-0.391825
1.125461,0.3193209,-0.4204177,-0.1304292,0.9801786,-0.4500619
0.7148397,0.1563442,-0.3125072,-0.494435,0.5982114,-0.3168664
0.8162795,0.1197113,-0.1651856,-0.2396305,-0.6747128,-0.1076071
0.9154765,-0.05341396,0.0539873,0.3216177,-1.995497,0.1656035
0.7621684,-0.1512385,-0.006561377,0.5982327,-1.949321,0.2139275
0.8626332,0.008146303,-0.3002968,0.7409654,-0.3332413,0.02926188
0.9351435,0.02497624,-0.3813749,0.6806567,0.5983132,-0.01140808
0.7871283,0.07980064,-0.3401262,0.3564449,0.5216175,0.2104165
0.7145352,0.134439,-0.2647605,0.3766564,0.06701003,0.5036848
0.5543355,-0.0177705,-0.166268,0.2724702,-0.5612993,0.5533466
0.6510952,-0.01877547,-0.1797412,0.01767842,-0.4821599,0.3631127
0.9314424,-0.04383782,-0.1860385,0.1683641,-0.4497739,0.2057329
0.8578807,-0.08082217,-0.2785483,0.1733062,-0.5628318,0.1374968
0.8469426,0.002860504,-0.433135,0.18356,-0.3977492,0.1743439
0.8769209,-0.07647128,-0.4857484,0.3786119,-0.4505276,0.2024866
0.7637464,-0.1123901,-0.557755,0.5452059,-0.238044,0.09793897
0.7243885,-0.1705427,-0.5544188,0.8577107,-0.1267281,0.02335935
0.6208073,-0.3413835,-0.4782904,0.8949432,-0.1622875,-0.09212535
0.6037333,-0.398171,-0.4124673,0.5629077,-0.00116948,-0.4094436
0.8342659,-0.3978574,-0.338575,0.3049371,-0.09699184,-0.6068854
1.292665,-0.214367,-0.3641496,0.3970375,0.01941904,-0.4036074
1.686759,-0.07036464,-0.3740261,0.6093924,0.1379975,-0.2266999
1.498283,-0.2321583,-0.2905353,0.5546332,-0.002238806,-0.4098862
1.23956,-0.4351359,-0.2129118,0.6214901,-0.2175727,-0.5311075
1.264736,-0.5176799,-0.1575966,0.7003574,-0.604842,-0.4572775
1.155566,-0.3064541,-0.150293,0.5282368,-0.6181448,-0.3045324
1.159273,0.001502632,-0.1677397,0.3301827,-0.4668368,-0.03746611
1.240908,0.04955228,-0.1732607,-0.07896268,-0.2521097,-0.06576469
1.042683,0.01050175,-0.1660468,-0.4242288,0.4110004,-0.3778855
0.8014395,0.004555286,-0.1350426,-0.5431277,0.7566931,-0.5509272
0.5133479,-0.08381862,-0.0791078,-0.657203,0.2256645,-0.6208681
0.3289721,-0.2597332,-0.0248696,-0.5775684,-0.7275118,-0.5597717
0.473282,-0.3237068,-0.03010715,-0.3502818,-1.611648,-0.4516212
0.6668887,-0.2691003,-0.1563166,0.0007251297,-2.081587,-0.3599218
0.9850809,-0.2966188,-0.4014159,0.2646431,-1.409194,-0.2729301
1.220002,-0.3176411,-0.6018258,0.1903206,0.07709902,-0.4141231
1.046479,-0.238289,-0.5979166,0.1103326,0.9616633,-0.4804266
0.8750096,-0.1370934,-0.4487954,0.04920305,0.971873,-0.2704776
0.7851566,-0.03648624,-0.3922077,-0.03297644,0.4559931,0.06499213
0.8779667,0.02117912,-0.6241383,-0.0599066,0.2032764,0.5630103
1.282356,-0.06792121,-0.8833834,-0.1121507,0.6448697,0.7316278
1.467832,-0.229098,-0.7449729,-0.04640672,1.145924,0.3066046
1.403753,-0.2502793,-0.3712423,0.1679049,1.380408,0.02918404
1.415544,-0.1629497,-0.1802393,0.4670249,0.758628,0.3862636
1.424965,0.01900302,-0.344758,0.4815686,0.1128069,0.6256986
1.297293,0.2359362,-0.592918,-0.2067045,0.9590856,0.09509763
0.9788736,0.1553976,-0.4233335,-0.7988373,1.434337,-0.3088702
0.6372796,-0.008635087,-0.07801136,-0.5905741,0.145284,-0.08041101
0.5851672,0.02126284,0.04178116,-0.2837208,-0.8416459,0.1093188
0.940835,-0.05561938,-0.07339216,-0.1468685,-0.3062447,0.155261
1.226047,-0.07798656,-0.3787236,0.2055704,0.4112945,0.1966845
0.9925734,0.095766,-0.3740874,0.2525347,0.6948354,0.2142529
0.7600723,0.1396427,-0.2439323,-0.006287149,0.9138632,0.4383205
0.7288998,0.1660171,-0.3285664,0.01452606,0.2520128,0.7869273
0.5405294,0.2083429,-0.1409849,-0.2496515,-0.7460471,0.9035541
0.5720226,0.132498,-0.08963443,-0.536848,-0.7940507,0.8036257
0.8689857,0.07375042,-0.291766,-0.4336849,-0.5067299,0.7286016
0.9485972,0.05518032,-0.3528656,-0.6718304,-0.05352847,0.709704
0.9732225,0.06834569,-0.4826311,-0.7756391,0.3135836,0.589118
0.9034666,0.04436098,-0.4450075,-0.5294838,0.0703678,0.4468417
0.6303997,-0.05458803,-0.4344448,-0.3801455,-0.2529768,0.4702944
0.5656633,-0.2509221,-0.5676863,-0.1850759,-0.4877486,0.4525833
0.7360283,-0.5866663,-0.4754086,-0.2636098,-0.4241002,0.2432698
1.098737,-0.7146317,-0.4816128,-0.4459028,0.174347,-0.0347855
1.544167,-0.5484339,-0.5275123,-0.4916449,0.9166816,-0.1608869
1.658548,-0.3236014,-0.4745992,-0.6140922,1.120374,0.03197029
1.546513,-0.1190027,-0.4265217,-0.79433,0.4473974,0.1903807
1.487598,-0.1497628,-0.302637,-1.108444,0.01468134,0.2098749
1.460537,-0.3127393,-0.2953551,-1.068932,0.4618582,0.3706525
1.309558,-0.3183075,-0.2761613,-0.7993394,0.750625,0.4903541
1.064423,-0.2494433,-0.1337592,-0.8843219,0.5170894,0.5268029
0.8682752,-0.1218522,-0.09051244,-0.9265002,0.3378643,0.5830086
0.668659,0.01417523,-0.1413212,-1.089342,0.09873303,0.5474352
0.5808427,-0.01913171,-0.2346956,-1.380786,-0.371094,0.4695351
0.578579,-0.1403392,-0.2446587,-1.31575,-0.4782399,0.3652726
0.5401973,-0.2914694,-0.2049105,-1.139996,-0.3887273,0.1825123
0.5668911,-0.434475,-0.2394761,-0.8948514,-0.5243723,0.01330284
0.6460047,-0.407678,-0.2580091,-0.7265916,-0.5153143,-0.1049131
0.8407625,-0.3012203,-0.2935941,-0.7568588,-0.3441391,-0.2302447
1.015202,-0.2079227,-0.3120527,-0.6790023,-0.02566571,-0.2972741
1.007668,-0.1149552,-0.2683464,-0.6596314,0.3501434,-0.2921628
0.9604043,-0.09678286,-0.2451498,-0.7135193,0.3314284,-0.3118934
0.9040399,-0.09733161,-0.1629106,-0.7192949,0.005287,-0.3240246
0.9333767,-0.1181745,-0.0835228,-0.7077828,-0.2265049,-0.3379923
0.9979328,-0.1762393,-0.0969446,-0.6006631,-0.1102454,-0.3097653
1.005348,-0.1809527,-0.09324677,-0.5270285,0.1042682,-0.1948758
