accx,accy,accz,gyrox,gyroy,gyroz
1.96768,-0.09013913,-0.08115033,-1.163789,0.1896175,-0.4610138
1.914111,-0.2682089,0.05465774,-1.311677,0.2817572,-0.3054088
1.738488,-0.572088,0.2179914,-0.8604905,0.2529291,-0.1889988
1.675816,-0.6779401,0.1805453,-0.3301294,0.1332754,-0.1395042
1.472645,-0.4917253,0.1029419,0.08194725,-0.04511077,-0.003563098
1.202201,-0.2636164,0.001947613,0.064169,0.1886936,0.393139
1.021086,-0.1637166,-0.03158281,-0.3769966,0.3730045,0.5762096
0.739928,-0.05514596,0.02641445,-0.7091178,0.290491,0.547301
0.5662318,-0.01457023,-0.02881178,-0.9714861,0.2511831,0.5903614
0.5648212,-0.1370152,-0.0101742,-1.112991,0.1931611,0.4844604
0.5051122,-0.198221,0.0414589,-1.006085,0.2585435,0.2836296
0.5136633,-0.2037851,0.03648886,-1.022463,0.282757,0.1047594
0.555294,-0.2048582,0.1329405,-0.8425335,0.05168658,-0.1087561
0.564178,-0.1361352,0.1297675,-0.5012935,-0.2392203,-0.2607892
0.6064464,-0.07109447,0.08307242,-0.4245578,-0.3314768,-0.4154169
0.5746707,0.04872482,0.0876933,-0.4287016,-0.1684115,-0.5709292
0.547786,0.1613697,0.04381269,-0.8130737,-0.1233662,-0.600191
0.6056371,0.1441376,0.04442427,-1.490312,-0.2057954,-0.5456287
0.6369534,0.05621375,0.02964054,-1.77589,-0.2094731,-0.4271488
0.6332706,-0.2076539,0.04329906,-1.442676,-0.2544033,-0.2279612
0.6325761,-0.52234,0.07430007,-0.682416,-0.465645,0.1065526
0.7738533,-0.6082039,-0.07158439,0.2062677,-0.8295954,0.5351946
1.296184,-0.6475329,-0.3630159,0.8079846,-0.7921813,0.7226701
1.898879,-0.7409865,-0.6477386,0.4750213,0.0580569,0.3694381
1.868058,-0.6148729,-0.5985419,0.113959,0.9677365,-0.2673027
1.505597,-0.4236515,-0.2137562,0.4727869,0.9375695,-0.5013687
1.545678,-0.5054536,0.03009604,0.573987,0.329309,-0.2318537
1.712366,-0.5370574,-0.03171041,0.8968924,0.2005855,-0.06961339
1.73664,-0.3753631,-0.1103814,1.272388,0.4566031,-0.3148374
1.429009,-0.1848857,-0.002239459,0.6990136,0.503735,-0.6924077
0.7448724,0.08441274,0.04185631,0.3304857,-0.05357525,-0.8405438
0.5344806,0.09850313,0.005442499,0.4293623,-1.050584,-0.4741845
0.708478,-0.07952714,0.006906415,0.4632716,-1.318825,0.3530477
0.6596822,-0.0725424,-0.1284254,0.6981176,-0.7675111,0.9247139
0.7045207,-0.2055605,-0.1848187,1.031489,-0.3076939,0.8925325
0.7862113,-0.3736071,-0.1799209,1.333522,-0.1410183,0.6455115
0.7638849,-0.2857067,-0.2192255,1.47011,-0.223177,0.395659
0.8021199,-0.2053872,-0.0758458,1.612335,-0.2939702,0.268232
0.9015184,-0.1251711,-0.05140104,1.736601,-0.166811,0.181919
0.9983655,0.008144104,-0.08627487,1.499678,0.2776629,-0.04888421
0.9304805,0.09705801,-0.00560895,1.143588,0.9957233,-0.2572506
0.753242,0.1942507,-0.04926412,0.5910035,1.109839,-0.2781363
0.5227538,0.2818795,-0.02413773,-0.05713647,0.5558601,-0.1011294
0.3809594,0.2495795,-0.02130667,-0.4093873,0.1419043,0.06642988
0.4892512,0.07608419,-0.1046425,-0.5934574,-0.08577455,0.2303884
0.577011,-0.1776988,-0.1015091,-0.6067622,-0.07171667,0.4973823
0.6617628,-0.4448175,-0.1616011,-0.4217408,0.3248682,0.5379205
0.7579592,-0.5585016,-0.1303463,-0.04020072,0.6084381,0.163974
0.7195113,-0.4769984,0.01346582,0.3733195,0.3751205,-0.5067078
0.9045227,-0.3112676,0.08767707,0.4545691,-0.1833491,-0.8976724
1.468723,-0.01835635,0.08419564,-0.1538274,-0.4528587,-0.5689882
1.96669,0.16817,0.02798749,-1.207304,-0.04891741,-0.1381267
1.941009,-0.1040766,0.0945277,-1.383895,0.4921962,-0.0002018753
1.726076,-0.5293682,0.2130994,-0.866294,0.4594569,0.01303489
1.773965,-0.6818612,0.2948331,-0.5943789,0.09087681,-0.1660529
1.654239,-0.6352847,0.2930758,-0.0536474,-0.04531555,-0.2908632
1.442557,-0.4729251,0.1111233,0.2214668,0.06641597,-0.07907573
1.274561,-0.2159956,0.03068196,-0.157565,0.2430411,0.1606197
0.7419538,-0.0248639,0.0697331,-0.3660578,0.2270045,0.280086
0.4488036,0.0762603,0.06209354,-0.6760666,-0.01217369,0.4093283
0.5470571,0.08769781,0.04638592,-1.157821,-0.1019831,0.4679375
0.5500119,0.01574225,-0.009781587,-1.470792,0.1262639,0.3443062
0.648178,-0.03067675,-0.003673238,-1.697873,0.5324918,0.09858493
0.6362565,-0.0599025,0.06534765,-1.680463,0.6209418,-0.1068323
0.5788858,-0.08979195,0.1296406,-1.473762,0.3629742,-0.3061507
0.6563912,-0.08036379,0.1559235,-1.243559,0.1550675,-0.5592333
0.5849415,-0.04795411,0.06815328,-1.199799,-0.1714082,-0.6553235
0.5863984,-0.05801889,-0.01139312,-1.522254,-0.3795325,-0.535979
0.6125666,-0.1112834,-0.06238936,-1.791466,-0.2868735,-0.3406225
0.5540579,-0.2427622,-0.03360622,-1.684083,-0.1987416,-0.1099006
0.5510469,-0.465087,0.06694675,-1.319751,-0.1868502,0.1331258
0.5076306,-0.5002852,0.02509657,-0.6792458,-0.6538116,0.3589883
0.6998825,-0.4358175,-0.1324922,0.1686391,-1.322383,0.5960583
1.29961,-0.575566,-0.4679508,0.5527503,-1.160992,0.6880301
1.816895,-0.6561315,-0.7354709,0.312631,-0.1340742,0.4588134
1.709255,-0.6100144,-0.5160784,0.2881921,0.7791856,0.08352405
1.487479,-0.6198782,-0.2394357,0.5746943,0.6784049,-0.1922609
1.728548,-0.5521214,-0.1618721,0.7676015,0.1261453,-0.1626066
1.769325,-0.3424322,-0.05467838,0.8634596,0.09690848,-0.08145044
1.73483,-0.0799337,-0.02518415,0.4308259,0.2097682,-0.3278709
1.782921,0.09103957,-0.05159447,-0.4580799,0.181552,-0.543601
1.278619,0.09377809,0.00548641,-0.8020802,0.02910926,-0.5756018
0.8591295,0.03224889,0.05068253,-0.4973902,-0.5666467,-0.3013708
0.7806124,-0.05747169,0.04028839,-0.2260238,-0.9775675,0.3531468
0.6889864,-0.1956374,-0.03568342,-0.02491014,-0.6612025,0.6603867
0.8000076,-0.2873823,-0.1496884,0.4173363,-0.1703494,0.6089723
0.8725936,-0.2765539,-0.1853209,0.7419167,0.1388009,0.4705957
0.8489276,-0.2651497,-0.1478918,0.73256,0.223675,0.1686306
0.794834,-0.2564157,-0.1028821,0.9138351,0.2142504,0.08071226
0.6948226,-0.1613242,-0.05628002,1.189359,0.3013933,0.03897917
0.664947,-0.005628274,-0.02835942,1.194118,0.3842778,-0.1547302
0.5962136,0.1728619,-0.03286,1.072996,0.3747959,-0.2101643
0.5958737,0.2879425,-0.03335901,0.7200327,0.3630057,-0.1462896
0.5992296,0.2822799,-0.05177531,0.1188405,0.4068264,0.04720131
0.5821621,0.2150812,-0.1038801,-0.3573748,0.513406,0.2418594
0.6376044,0.06508633,-0.1179556,-0.5943037,0.6964671,0.2384048
0.611491,-0.174579,-0.1215308,-0.6880831,0.7519069,0.1166034
0.6305273,-0.3819934,-0.06851395,-0.4056862,0.649062,-0.1127651
0.7085876,-0.4329532,0.1053324,0.09697414,0.3804705,-0.5619114
1.023715,-0.3220743,0.1599084,-0.003642643,-0.1253691,-0.9552697
1.683633,-0.1746907,0.006713206,-0.6803521,-0.2046597,-0.7917277
2.046881,-0.1223234,-0.1005953,-1.33657,0.2473151,-0.4172502
1.930057,-0.167467,-0.008046061,-1.514374,0.6237586,-0.2007851
1.725692,-0.2544398,0.1365603,-1.259815,0.8431007,-0.06953505
1.573828,-0.333949,0.1865251,-1.345867,0.7443442,-0.2311497
1.438641,-0.2538604,0.2126865,-1.468951,0.5070835,-0.2829897
1.306564,-0.07303779,0.1640269,-1.326634,0.3251903,0.03951313
1.077619,-0.02353226,0.03893278,-1.46504,0.01949666,0.3085591
0.829859,-0.02672966,-0.03779362,-1.531561,0.1013736,0.4766649
0.7429144,-0.01266702,-0.1156507,-1.585644,0.4106714,0.4530348
0.5854269,0.002001628,-0.1346743,-1.816703,0.4445804,0.3677053
0.4091641,0.04729587,-0.09026933,-1.916485,0.5779479,0.3925729
0.3832165,0.03466323,-0.08823305,-2.206443,0.5689969,0.3316402
0.3680715,-0.01158748,-0.06789266,-2.492865,0.3825021,0.2992464
0.4543126,-0.04726567,-0.03570681,-2.49711,0.3167213,0.2137549
0.5510132,-0.08447429,-0.007387201,-2.353466,0.1123682,0.1240779
0.6161886,-0.09054213,-0.001379735,-1.986501,0.05932376,0.1905135
0.7379615,-0.1282866,-0.02404988,-1.66606,0.1104213,0.1246083
0.7716958,-0.1869834,-0.01582128,-1.535085,0.03892851,0.09690231
0.7829613,-0.2598797,-0.04514366,-1.421879,0.1211041,0.2507416
0.7686529,-0.3618291,-0.1036265,-1.139958,0.1423541,0.3757316
0.8049871,-0.4134659,-0.152522,-0.8711109,0.1568217,0.4985131
1.142759,-0.5294187,-0.2377114,-0.9077614,0.3130895,0.6825529
1.491584,-0.7390018,-0.3114663,-0.6728665,0.5760282,0.6949773
1.508194,-0.8925523,-0.2928397,-0.06383681,0.8856021,0.02148732
1.551099,-1.011962,-0.1632616,0.4610921,0.6917703,-0.6937711
1.835636,-0.9344179,-0.0008387384,0.9048163,0.4203171,-0.4775241
1.87285,-0.5447308,0.142359,0.6604131,0.676137,-0.2835674
1.68602,-0.1727442,0.1904855,-0.2555355,0.6779205,-0.6116043
1.46195,0.08025527,0.1474196,-0.7480872,0.1129789,-0.5673327
1.036606,0.1737128,0.1395688,-0.9911957,-0.5265243,-0.3151928
0.8612867,-0.05627752,0.03392193,-1.1909,-0.7712484,-0.09789904
0.9485319,-0.3223542,-0.1019132,-0.7845303,-0.4957664,0.2151341
0.8642993,-0.4260146,-0.0697029,-0.1650995,-0.3643996,0.1498293
0.7618234,-0.3995927,-0.06552376,0.1234052,-0.4899866,0.005109174
0.6505672,-0.2476758,-0.09508087,0.04095194,-0.4291356,0.0863527
0.545297,-0.1365851,-0.08425798,-0.1578651,-0.4328034,0.05401111
0.5500322,-0.08945695,-0.107104,-0.118527,-0.4607015,0.1391635
0.6462978,-0.1238052,-0.09191065,0.1923661,-0.3944893,0.2398622
0.8392992,-0.163911,-0.04179667,0.7573508,-0.4661815,0.2972947
0.9891611,-0.08967324,-0.0227605,0.943207,-0.4273213,0.4511724
1.063781,-0.06447795,-0.06314195,0.4745974,-0.1368777,0.3175264
1.05876,-0.0122442,-0.1254895,-0.001508091,0.3290338,0.02656626
0.9167288,0.0557122,-0.1123242,-0.4752757,0.6346937,-0.300623
0.674939,0.03730234,-0.04296215,-0.7270488,0.4664367,-0.4762968
0.4836603,0.07749021,0.05311916,-0.5530725,0.2556465,-0.1803431
0.5124886,0.08507247,0.1192232,-0.4351191,-0.02734187,0.09166501
0.6481529,0.06976308,0.04684655,-0.3570999,-0.3950468,0.33558
0.8430987,0.06093203,-0.1146328,-0.3923644,-0.2517616,0.6634308
1.060934,-0.1007173,-0.2779822,-0.7264241,0.1621895,0.7049742
1.081065,-0.3288679,-0.3666896,-1.121356,0.5408922,0.6209743
1.000548,-0.5071439,-0.3152285,-1.332023,0.8785129,0.3283206
1.000507,-0.6381175,-0.2289261,-1.208842,0.9193487,-0.4120536
1.134525,-0.7137857,-0.05454922,-0.9330198,0.8167348,-1.21794
1.404168,-0.6604841,0.2271221,-0.6584054,0.5412627,-1.407461
1.587843,-0.493209,0.2500117,-0.5101694,0.01681273,-0.7646935
1.571827,-0.2697986,0.08995132,-0.7391808,-0.1505321,-0.04484153
1.576268,-0.1132413,0.05522579,-1.13349,0.1987469,0.2153738
1.658804,-0.3093026,0.03013734,-1.393931,0.5360627,0.1427252
1.568122,-0.5480405,0.03997414,-1.219261,0.5319642,-0.111638
1.307665,-0.4932071,0.08908224,-0.6913374,0.3977624,-0.2648645
1.025921,-0.429251,0.06799195,-0.489657,0.3543327,-0.1439489
0.7519617,-0.2992901,0.0544531,-0.4638296,0.2990112,0.1178123
0.6134744,-0.1047562,0.01625233,-0.4972133,0.3056797,0.3027383
0.5481782,-0.06311491,-0.01574837,-0.8453696,0.3067986,0.4103136
0.4910299,-0.07407414,-0.006254366,-1.11484,0.23082,0.4432811
0.5318258,-0.1419964,-0.01261214,-1.305621,0.2503793,0.2799759
0.5467904,-0.2702646,0.05373913,-1.287908,0.1405339,0.06926582
0.5772343,-0.3652032,0.1142604,-0.8804903,-0.1922421,-0.2169652
0.6844192,-0.3444005,0.08831585,-0.3909339,-0.4913349,-0.5388553
0.7503554,-0.2397903,0.06895539,0.1616154,-0.5460195,-0.6146971
0.792203,-0.1824735,0.05194702,0.2653948,-0.3414441,-0.6260943
0.7424829,-0.0721943,0.04427101,-0.1137514,-0.2322042,-0.6933384
0.6789969,0.0124204,0.04712322,-0.4496015,-0.2961794,-0.6984738
0.7527867,-0.06850037,0.06513447,-0.7116649,-0.3341112,-0.5651077
0.8123524,-0.2031902,0.1395141,-0.4524493,-0.3898879,-0.283149
0.838738,-0.3753156,0.1914138,0.1839688,-0.5807619,0.003007504
0.9380567,-0.4393742,0.06916929,0.649628,-0.7695336,0.1911135
1.138119,-0.3761614,-0.2155494,0.7638278,-0.5421461,0.2341172
1.337761,-0.4053344,-0.3849231,0.4620285,-0.05506507,0.2706851
1.346093,-0.4478662,-0.3165093,0.4110594,0.1444789,0.1795984
1.354054,-0.4591897,-0.209591,0.5942304,0.05829252,-0.1998407
1.533567,-0.5198709,-0.1784441,0.7378667,-0.1424284,-0.2743134
1.616997,-0.5379626,-0.185324,1.141089,-0.1803206,0.1024148
1.529205,-0.4491303,-0.1670768,1.289929,0.2504221,0.2648354
1.323505,-0.2074293,-0.04636249,1.097646,0.6518905,-0.1961159
1.057947,0.09513005,0.09350677,0.8177156,0.2513242,-0.7205496
0.983368,0.1053978,0.06178171,0.326777,-0.6378199,-0.4826291
0.9504034,-0.03171086,-0.03381822,0.1221614,-1.2309,-0.0166319
0.779865,0.0277828,-0.08150296,0.2124075,-1.313541,0.307989
0.7982408,-0.02987182,-0.173294,0.2654187,-0.7358863,0.7358946
0.905187,-0.2179796,-0.1934024,0.5140288,-0.06449055,0.7097612
0.8430456,-0.2892935,-0.1739156,0.7970171,-0.08565574,0.5115287
0.8465726,-0.3489415,-0.1995793,0.9634557,-0.1246059,0.4891886
0.8616198,-0.3149473,-0.1119864,1.288264,0.1123648,0.2096604
0.7752287,-0.2700705,-0.03092457,1.638821,0.153233,0.01022157
0.7307495,-0.1838131,-0.002905116,1.684727,0.1729015,-0.180778
0.6664288,0.08138226,0.03683143,1.426927,0.2245011,-0.34405
0.6637047,0.1947532,-0.03607092,1.03251,0.2660662,-0.007694202
0.7123541,0.1936197,-0.1010588,0.6556439,0.3555963,0.3349236
0.6790505,0.1309774,-0.1019861,0.3835685,0.4729084,0.4309669
0.7049973,-0.0361959,-0.09898495,0.3289619,0.5590499,0.2613341
0.667238,-0.06263853,-0.04602872,0.3353674,0.379876,-0.1257525
0.5745682,-0.08124883,-0.02516247,0.08665697,0.09898738,-0.307672
0.6320437,-0.1702813,-0.01718969,-0.0262085,-0.007030903,-0.3806175
0.7550164,-0.2520219,0.03134908,0.2750323,-0.1128906,-0.4026772
1.107749,-0.2771978,0.05474616,0.3867881,-0.1993995,-0.4302676
1.689119,-0.2057329,-0.0176641,-0.06360328,-0.03436082,-0.497517
1.979815,-0.2299904,-0.1046131,-0.6090123,0.1607477,-0.3672601
1.810133,-0.3138723,0.0242875,-0.5788626,0.1648714,-0.2598682
1.692782,-0.4558661,0.2000423,-0.2023833,0.1704134,-0.2058044
1.85533,-0.5947068,0.2071617,0.109649,0.1166848,-0.1222344
1.832105,-0.4629178,0.1769519,0.6459842,-0.02357582,-0.09906682
1.638192,-0.2688811,0.09006596,1.008159,0.05593446,-0.02056064
1.426544,-0.1323088,-0.01343556,0.6367565,0.293966,0.05411386
1.001223,-0.01479981,0.0003548068,0.09608534,0.3959573,0.2225096
0.6403976,-0.01314851,0.07187293,-0.1562125,0.2698425,0.4095514
0.5456746,-0.02738815,0.1258729,-0.3455111,0.05598287,0.3294406
0.6266054,-0.05907502,0.1124968,-0.5234058,-0.002833256,0.1709248
0.7459964,-0.1131777,0.06018242,-0.5790344,0.06388936,-0.026171
0.7812787,-0.1208298,0.03585152,-0.6313049,0.08211845,-0.1742488
0.8484377,-0.08910228,0.0379929,-0.567352,0.08480153,-0.1498885
0.8107288,-0.0141171,0.04532682,-0.4297094,0.03016966,-0.1955213
0.6708776,-0.0223956,0.03222041,-0.5306073,-0.1195323,-0.2395955
0.5330391,-0.08581895,0.00930732,-0.5977062,-0.2230768,-0.1540392
0.3529372,-0.1246996,-0.007034065,-0.5299722,-0.3392299,0.02321848
0.4028725,-0.2246597,0.001364596,-0.3779869,-0.3961122,0.1944946
0.5421439,-0.2629567,0.02345524,-0.08214407,-0.2443507,0.08368465
0.5906897,-0.2235585,0.0003479752,-0.0016507,-0.2298212,-0.07105888
0.622272,-0.2225406,-0.05364385,0.09593644,-0.5929022,0.1342923
0.6709735,-0.2362661,-0.1582097,0.37241,-0.9118231,0.4958544
1.195141,-0.3765647,-0.3010657,0.2566112,-0.5119406,0.7040715
1.836597,-0.6446632,-0.3149389,0.1746307,0.5580818,0.4175572
1.819638,-0.7583104,-0.2147417,0.7687845,1.146976,-0.1814952
1.618708,-0.6036865,-0.1191762,1.475085,0.3863484,-0.2750479
1.691538,-0.3756865,0.005376956,1.646392,-0.4395335,-0.1041771
1.696727,-0.08876186,0.09877659,1.296871,0.148599,-0.2018944
1.51948,0.2721972,0.08033931,0.7170653,0.5793727,-0.3507307
1.318094,0.2959035,0.08704125,0.02116823,-0.01354265,-0.4743955
1.059577,0.07688933,0.1448692,-0.5320058,-0.2820868,-0.2541252
0.917812,-0.0123311,0.07203133,-0.4891574,-0.5708714,0.1785788
0.8910192,-0.1984563,-0.04397506,-0.2090787,-0.6481556,0.2594209
0.747418,-0.3073499,-0.03412063,0.001352075,-0.1608584,0.3125273
0.6915874,-0.1882251,-0.03019917,0.3742265,-0.3023868,0.3632409
0.6598961,-0.1705494,-0.06660283,0.5619187,-0.4098087,0.2929192
0.6424295,-0.08694018,-0.0836074,0.5372374,-0.3256799,0.404341
0.7764104,0.01535541,-0.1076828,0.5650734,-0.4009262,0.5316369
0.8131084,-0.04230172,-0.09914094,0.5320972,0.06790185,0.565071
0.8558838,-0.0055933,-0.09072367,0.5093965,0.4070444,0.4601372
0.8952826,0.0546418,-0.09273681,0.3698469,0.6163015,0.1851662
0.7900434,0.1033608,-0.05911745,0.1110146,0.7845787,0.02165888
0.6737077,0.182844,-0.02632941,-0.08719292,0.478828,0.009072386
0.6085651,0.163861,-0.004722395,-0.3337962,0.3410928,0.1330489
0.7374949,0.1435757,-0.05337062,-0.6820715,0.3270794,0.2749651
0.9309062,0.07469077,-0.1611713,-1.164978,0.6647327,0.1734098
1.021011,-0.1286508,-0.2042605,-1.453118,1.16646,-0.07595748
0.9943149,-0.362092,-0.175486,-1.288706,0.9073363,-0.4390393
0.9820456,-0.5631885,-0.0599756,-0.9948119,0.5358629,-0.7667723
1.385485,-0.6016239,0.08196366,-0.8181413,0.3523482,-0.7636752
1.827258,-0.4470114,0.07373021,-1.075428,0.2760027,-0.7321862
1.827458,-0.2211932,0.002578862,-1.887938,0.4557352,-0.7910088
1.781258,-0.1072337,0.007923638,-2.666142,0.4559112,-0.6797535
1.838694,-0.2425027,-0.006994336,-2.733816,0.4348517,-0.5591195
1.714748,-0.4024081,-0.0287186,-2.134368,0.5165535,-0.4363675
1.404573,-0.3599125,-0.006492611,-1.680211,0.5069127,-0.170779
1.094822,-0.2205784,-0.02081141,-1.75311,0.5998443,0.006481093
0.814613,-0.06103032,-0.04414856,-1.954996,0.665589,0.1272478
0.6778709,0.05744732,-0.07770831,-2.236723,0.5466068,0.423676
0.6916004,0.03287454,-0.1390738,-2.702359,0.4205164,0.665503
0.7042775,-0.09934207,-0.1457691,-2.907855,0.4025563,0.663587
0.8170937,-0.3399854,-0.1053416,-2.680226,0.4749559,0.572997
0.8930993,-0.5571122,-0.03935411,-2.275253,0.4799126,0.320493
0.846048,-0.5505851,0.006872747,-1.673247,0.3488114,-0.09080138
0.7948554,-0.4433521,0.003150747,-1.178122,0.1645286,-0.3352422
0.6370181,-0.2810556,0.02375483,-1.113283,0.03987766,-0.4362199
0.5376573,-0.117516,0.05166408,-1.046426,-0.03254603,-0.5212115
0.5878458,-0.0900574,0.06168291,-0.9405673,-0.3263015,-0.4637259
0.6416394,-0.04763035,0.06162294,-0.9472798,-0.7499174,-0.3216725
0.7257976,-0.01730363,0.02524694,-0.8897519,-0.8111205,-0.1650979
0.8140577,-0.09815539,0.002437343,-0.9205449,-0.5485781,0.03419679
0.8428351,-0.1622607,0.06897207,-0.8680812,-0.3869089,0.06868455
0.8254628,-0.1908727,0.1792147,-0.5958571,-0.4294175,-0.08664002
0.8363112,-0.1469692,0.2075753,-0.3853085,-0.5618775,-0.2383322
0.8495901,-0.07659769,0.1664993,-0.3155278,-0.7200943,-0.3492929
0.8727618,-0.1201231,0.04133144,-0.4624444,-0.7680169,-0.2283591
0.9733191,-0.1746152,-0.2411259,-0.5625317,-0.7097562,0.1648388
1.036431,-0.2842555,-0.4117119,-0.5648485,-0.5151488,0.6170547
1.128931,-0.6882921,-0.3152596,-0.566581,0.2689969,0.8292345
1.262814,-1.098681,-0.2528883,-0.004331513,1.130616,0.2838963
1.235914,-1.013904,-0.2671356,0.9735809,0.8228847,-0.5268888
1.209893,-0.7279373,-0.1811221,1.526971,-0.03243243,-0.6271053
1.351816,-0.601802,-0.1231604,1.497243,-0.3240498,-0.316025
1.479946,-0.3879573,-0.154744,1.533158,-0.3129902,-0.06544991
1.561043,-0.2486472,-0.1518118,1.721671,-0.006872349,0.0138218
1.655449,-0.1278664,-0.1311826,1.243314,0.2620022,-0.2375987
1.492182,0.2020503,-0.09876848,0.3996012,-0.006732838,-0.5158
1.051571,0.114396,-0.02500653,-0.01405839,-0.3091882,-0.4869481
0.7294671,-0.08795186,0.02799129,0.03749666,-0.7400287,-0.2377728
0.6183217,0.002653822,-0.006028916,0.2988285,-1.021806,0.1023938
0.6920864,-0.1209993,-0.07674935,0.406986,-0.6489618,0.4499879
0.8576621,-0.131701,-0.1174611,0.5693557,-0.360022,0.5637738
0.9092811,-0.1145116,-0.1837543,0.715018,-0.222644,0.4287544
0.8745452,-0.2310019,-0.1749308,0.6199867,-0.1457438,0.3599797
0.7927403,-0.120055,-0.08290871,0.6831463,-0.1730061,0.3253524
0.7715762,-0.1564813,-0.09264619,0.7256783,0.09458529,0.2374303
0.8288379,-0.1492512,-0.06199275,0.7746006,0.3341976,0.1003843
0.7973357,-0.02145859,0.003050605,0.9731029,0.3673982,-0.1423183
0.7467324,-0.06542657,-0.03139653,0.9886014,0.226756,-0.1829823
0.6720581,0.04690365,-0.03797073,0.948233,-0.04384595,0.06677922
0.6313714,0.1073001,-0.06867925,0.7990921,-0.02765017,0.2939507
0.7205409,0.04022335,-0.1207584,0.5558695,0.1303567,0.3438248
0.7345418,-0.01828214,-0.1448491,0.3746633,0.212759,0.2142792
0.714477,-0.179178,-0.1838173,0.1090558,0.1939382,0.0840378
0.7442824,-0.2599739,-0.1413114,-0.02352019,0.05133168,-0.07955453
0.8780171,-0.3434088,-0.06846547,0.1029174,-0.02021231,-0.4263576
1.296095,-0.4009725,0.03114124,0.2784909,-0.1242249,-0.6574053
1.74311,-0.3141211,0.1279075,0.2706932,-0.2537801,-0.5973848
1.81666,-0.2589404,0.07204294,0.1729061,-0.2387244,-0.4552215
1.57737,-0.234032,0.05474328,0.1462205,-0.1601873,-0.28051
1.464872,-0.2982927,0.1069521,-0.001269519,0.04231356,-0.0979678
1.573051,-0.4241309,0.1032114,-0.03104688,0.2347803,-0.1336408
1.540427,-0.4278785,0.1314649,0.238688,0.1069247,-0.2786695
1.275024,-0.3277639,0.1344103,0.5875426,-0.1475066,-0.2441133
0.951418,-0.2050401,0.09488008,0.7659928,-0.2055223,-0.07047417
0.769614,-0.1021087,0.05719284,0.5500545,-0.1117128,0.2074386
0.6679465,-0.0008078198,0.02314369,0.3271245,-0.03248315,0.4065965
0.5632829,0.04367861,0.05517442,0.180105,-0.09037402,0.4456635
0.6330719,-0.03136715,0.07093399,-0.1406845,-0.1572404,0.5163087
0.671604,-0.102596,0.04886323,-0.3344601,-0.01700344,0.3710405
0.6181894,-0.1236378,0.06367508,-0.3985535,0.0846819,0.06692779
0.6608343,-0.1366801,0.08733654,-0.4088898,-0.0360853,-0.1161395
0.5992134,-0.1108791,0.1232664,-0.2418908,-0.4258002,-0.2783866
0.5464812,-0.09572492,0.1184829,-0.08143218,-0.9993667,-0.2366838
0.6211236,-0.1345425,0.03028013,-0.08003621,-1.033821,-0.06600817
0.6937968,-0.2068153,-0.03820787,0.03656631,-0.5396972,0.0264065
0.8689175,-0.3477756,-0.04067049,0.4813341,-0.3273061,0.09308964
1.008133,-0.4549139,-0.08091768,0.9026256,-0.4621204,0.07635947
1.047703,-0.4181955,-0.1808824,1.213431,-0.6278552,0.2319003
1.149667,-0.3772623,-0.2102761,1.394911,-0.6139664,0.4426467
1.233461,-0.3728488,-0.2846142,1.243379,-0.3889311,0.3235507
1.305539,-0.3244498,-0.4156747,1.180465,-0.1744838,0.1629998
1.437654,-0.3484448,-0.2868645,1.211921,-0.1777481,0.07480184
1.578854,-0.4513039,-0.1367094,1.212624,-0.242584,0.006664273
1.678361,-0.4501906,-0.21554,1.578765,-0.08137591,0.04602008
1.69184,-0.337177,-0.1891132,1.826185,0.02073792,-0.01154525
1.587213,-0.1426958,-0.07084106,1.449106,-0.0146606,-0.1977521
1.35011,0.02898717,-0.002184695,0.9571455,0.03960338,-0.2890017
1.01857,0.04122771,0.07068552,0.8643768,-0.0881191,-0.2342764
0.7642418,0.03118453,0.05655495,0.9387427,-0.4572059,-0.03885694
0.7019143,0.03352932,-0.02179733,0.8173148,-0.8107388,0.2823098
0.6917404,-0.02709783,-0.1205344,0.7816336,-0.7838423,0.5830265
0.7111921,-0.09291262,-0.1774137,0.8801133,-0.3777413,0.6613529
0.8002428,-0.1609393,-0.1280067,1.00669,-0.06141199,0.5075642
0.841379,-0.2166848,-0.1195084,1.277896,0.1984842,0.2885882
0.8185545,-0.2008957,-0.07663428,1.434957,0.2566697,0.03330092
0.7326974,-0.08480091,0.03980606,1.412875,0.1332973,-0.2265094
0.6590391,0.04593757,0.02636689,1.328466,0.2385169,-0.2847531
0.6188469,0.08418308,-0.02575302,1.214659,0.2438355,-0.05290326
0.5421111,0.04311296,-0.03666462,1.165365,0.1798715,0.2427954
0.5332677,-0.02087911,-0.07841027,1.111986,0.1526414,0.2650776
0.551971,-0.03748628,-0.1063437,0.93825,-0.01441225,0.1031769
0.5790699,-0.09180919,-0.1074207,0.5155873,-0.02013437,-0.002558509
0.6792336,-0.2134934,-0.06629331,0.2161146,-0.06752693,-0.2401773
0.8904084,-0.2566099,0.05787693,0.5387477,-0.3044034,-0.6839932
1.33124,-0.2280743,0.1578053,0.7585887,-0.5005111,-0.9267941
1.755908,-0.1700125,0.0536741,0.1114742,-0.5306771,-0.6092687
1.918036,-0.1652307,-0.07754812,-0.5038188,-0.0514916,-0.1595046
1.925999,-0.3224925,0.05762261,-0.2911884,0.5361573,-0.09791333
1.82255,-0.5694499,0.232918,0.01551809,0.5603256,-0.05797271
1.66474,-0.6586442,0.2790721,0.2748586,0.2558418,-0.02078727
1.553821,-0.4673258,0.2789577,0.7057035,0.08867136,-0.1335965
1.383615,-0.2234346,0.1450535,0.5838979,0.1497574,0.0235321
1.02711,-0.0174698,0.01387546,0.2111486,0.175681,0.2468467
0.6883457,0.1101154,0.01429415,0.05211541,0.1048068,0.4464126
0.4896414,0.05775785,0.02683139,-0.3316299,0.03428662,0.7924366
0.4043491,-0.005104313,0.032364,-0.5689057,-0.03635379,0.8473672
0.4932754,-0.09889683,0.02425751,-0.6358274,0.08365145,0.6067906
0.5691172,-0.2220793,0.05116746,-0.7769188,0.246178,0.2979426
0.615029,-0.214899,0.1060327,-0.5064789,0.06755244,-0.01463514
0.6894134,-0.2051933,0.1223346,-0.04319948,-0.3545102,-0.240057
0.6454271,-0.2139686,0.1273886,0.2215477,-0.7677211,-0.4215512
0.6305084,-0.2041349,0.0942269,0.08000563,-0.8622858,-0.3428832
0.6277917,-0.2158234,0.04479585,-0.2353879,-0.5916718,-0.1248927
0.5708676,-0.2163375,-0.006588169,-0.06793619,-0.4541074,-0.04523204
0.668818,-0.2673852,-0.00306029,0.04599443,-0.4653996,0.1316009
0.8360127,-0.3468848,0.0267789,0.1845917,-0.4154807,0.2651685
0.9689148,-0.3876453,-0.1243114,0.7611255,-0.3853454,0.2346274
1.15988,-0.4288603,-0.2559394,0.9207726,-0.1093925,0.2629408
1.354997,-0.4904753,-0.1845378,0.9270005,0.2724708,0.1730612
1.386903,-0.5421925,-0.09682741,1.103519,0.3020073,-0.1185055
1.36794,-0.5103416,-0.07017647,1.203984,0.1075821,-0.327158
1.56821,-0.421642,-0.1318345,1.47637,-0.05081824,-0.2073356
1.738807,-0.3507632,-0.1959935,1.444611,0.00822387,0.05769884
1.650407,-0.2936296,-0.1551721,1.281864,0.07976777,0.04593958
1.566897,-0.2066994,-0.08755066,1.359196,-0.03021375,-0.1875431
1.464363,-0.09032624,-0.03796239,1.100565,-0.1912361,-0.5144435
1.080699,-0.007818367,0.006550119,0.7959316,-0.5634666,-0.6866059
0.6460261,0.08545316,0.04285498,0.5901542,-0.9619216,-0.3744445
0.6485828,0.1032224,0.03208245,0.399807,-1.055965,0.007344815
0.8390543,-0.02339364,-0.0442968,0.6515958,-0.9103017,0.3317262
0.8138226,-0.1067922,-0.1466155,0.9371234,-0.5908842,0.7467019
0.9049433,-0.2061176,-0.2083696,1.018152,-0.2500353,0.8269361
0.9570246,-0.2475576,-0.1657122,1.156157,0.1324965,0.5166381
0.7783613,-0.1753165,-0.07030369,1.244267,0.3663525,0.1149417
0.7805367,-0.2126367,-0.01256869,1.340771,0.2570715,-0.1257836
0.6783882,-0.07769666,-0.001944673,1.299297,0.2434138,-0.1210632
0.4651473,0.1673856,-0.0001637541,1.002025,0.2430274,-0.02094235
0.5261462,0.1513633,0.01729026,0.7912207,0.01751079,0.2088725
0.6029967,0.06395337,-0.005746584,0.7268993,-0.1566892,0.5059072
0.6862289,-0.05455279,-0.08294784,0.599102,-0.1702046,0.5845742
0.7386599,-0.1343496,-0.1674823,0.1914909,0.06215208,0.2487386
0.7091041,-0.1476513,-0.2083232,-0.1671899,0.2822147,-0.2217782
0.8958452,-0.2376924,-0.08458202,0.047442,0.1075707,-0.5567545
1.290593,-0.2524896,0.05155111,0.2351655,-0.2271032,-0.9498459
1.761262,-0.1641906,-0.03379209,-0.05856216,-0.401086,-0.8153021
2.001453,-0.07510316,-0.07553383,-0.2837845,-0.2195814,-0.05118335
1.895746,-0.1981153,0.06720544,-0.3366237,0.1739735,0.2186021
1.777683,-0.4722979,0.1894653,-0.293987,0.2971372,0.1078665
1.704935,-0.5120562,0.2421109,-0.05154229,0.1790722,-0.05374662
1.619846,-0.4068692,0.1766672,0.1971989,0.0710842,-0.2795776
1.383157,-0.2132938,0.04091578,0.3869169,0.01735607,-0.03009928
0.9423102,-0.007360536,-0.01867186,0.3597529,0.1856486,0.2979316
0.6321225,0.003940951,-0.02330342,0.06771587,0.3948528,0.4482944
0.4368844,0.01147261,0.005931152,-0.2072329,0.3017314,0.7165202
0.2933342,0.01005079,0.0429993,-0.5277328,0.1863661,0.7629105
0.4484374,-0.09325808,0.09166196,-0.6773613,0.1667152,0.5913671
0.6221599,-0.1827257,0.1492708,-0.5541702,-0.005678456,0.2360843
0.6688984,-0.2156154,0.1313248,-0.5020364,-0.1807237,-0.2214487
0.7965887,-0.152824,0.116804,-0.3000399,-0.2757403,-0.3606468
0.7553819,-0.06633851,0.1093232,-0.06897269,-0.4071559,-0.3487064
0.6595231,-0.05100201,0.03512544,-0.1279988,-0.5193273,-0.3824169
0.6482649,-0.105189,-0.001674295,-0.2743375,-0.5810722,-0.281171
0.5361125,-0.219174,-0.007562305,-0.4061824,-0.4353851,-0.01499822
0.560694,-0.3580255,-0.01121233,-0.2705822,-0.2316677,0.25704
0.6665197,-0.4388334,-0.02135124,0.1171674,-0.4007695,0.4584426
0.8550887,-0.4208425,-0.1318229,0.4280258,-0.5125749,0.490586
1.265131,-0.4407643,-0.2651102,0.5479556,-0.1579569,0.3951728
1.479477,-0.5295861,-0.3252755,0.4339708,0.2916068,0.3457553
1.419124,-0.5591918,-0.3223221,0.5329887,0.5663196,0.01497675
1.451416,-0.5466215,-0.1871157,1.190874,0.4382201,-0.3795106
1.744123,-0.5381241,-0.009122748,1.962993,-0.04022953,-0.2221778
1.911197,-0.5202426,-0.05375474,2.154598,-0.2764922,-0.005811444
1.776709,-0.4127645,-0.1528443,1.757243,0.1037965,-0.1026077
1.678537,-0.1412535,-0.08046339,1.390564,0.4845109,-0.3764446
1.326455,0.1124957,-0.05122628,0.9271539,-0.1370255,-0.6844222
0.7947056,0.1289261,-0.01083588,0.5959075,-1.034414,-0.4128529
0.7423343,-0.05065264,0.03906797,0.9714971,-1.133299,0.248372
0.9290691,-0.2622572,-0.09055125,1.349714,-1.005727,0.4939782
0.5756411,0.09483052,-0.1402817,0.06187077,-1.168329,-0.01799113
0.6763891,0.05955545,-0.1566367,0.2061538,-0.665906,0.339197
0.8708043,-0.04730745,-0.131858,0.374034,-0.0517454,0.496037
0.8808837,-0.09788922,-0.08000897,0.4809799,-0.04931465,0.4800044
0.921886,-0.1697825,-0.01602362,0.5377657,0.005047266,0.427223
0.7576841,-0.1403282,-0.01553387,0.5891368,0.05679314,-0.0404628
0.5707009,-0.1455561,-0.02585259,0.7793035,0.08848896,-0.4206847
0.5477198,-0.1031349,-0.04477829,0.8847846,0.2412886,-0.3463746
0.5247368,0.1455823,-0.1080605,0.5920532,0.3909887,-0.130887
0.5745954,0.2598167,-0.1682294,-0.07045474,0.6584652,0.1705138
0.6060745,0.08691289,-0.1406231,-0.7453525,0.6693133,0.4073109
0.6147293,-0.2508669,-0.05305594,-0.8610675,0.5576797,0.3886019
0.6581002,-0.4874781,0.01453838,-0.5658739,0.4751468,0.02470179
0.8052287,-0.5423181,0.1226179,-0.3818689,0.1278131,-0.5782271
1.119525,-0.5106577,0.182952,-0.1371924,-0.321537,-0.9521815
1.584167,-0.278657,0.05527749,-0.004946718,-0.6436307,-0.6569654
2.106871,-0.05375883,-0.1090084,-0.5634018,-0.1793523,-0.06737752
2.055902,-0.1345598,-0.08187965,-1.270293,0.7677389,0.1123709
1.604548,-0.4443156,0.1446487,-1.292233,0.9484332,0.08860628
1.56693,-0.6767408,0.3089361,-0.8457673,0.5741128,-0.06675797
1.546456,-0.5947486,0.254352,-0.5164648,0.3256825,-0.2495381
1.317977,-0.3804644,0.1402308,-0.5436463,0.3091308,0.02526073
0.9827673,-0.1385367,0.07132532,-0.7884613,0.3081371,0.3427817
0.553483,0.07205157,-0.0200251,-1.108336,0.2234383,0.5518375
0.5629879,0.03853917,-0.05790898,-1.478867,0.2658758,0.6738416
0.5306894,-0.01295989,-0.03895238,-1.67165,0.2587432,0.4760547
0.2784478,0.04384893,-0.08703808,-1.654001,0.3458816,0.2604526
0.4533689,-0.01933225,-0.04361571,-1.659001,0.6523988,-0.04903009
0.4531275,-0.01307198,0.03204299,-1.737292,0.6239421,-0.4272567
0.350658,0.07944109,0.003277591,-1.933324,0.3043873,-0.5569081
0.4658813,-0.01510668,0.007740276,-2.095822,-0.02814658,-0.474603
0.3028097,-0.1198272,-0.03271705,-1.871045,-0.191336,-0.1703429
0.2487414,-0.2658206,-0.03446513,-1.455387,-0.1196017,0.2195807
0.3377099,-0.4591513,-0.01547581,-1.149457,-0.1977249,0.4429163
0.5767502,-0.4589731,-0.179747,-0.7830364,-0.160658,0.4049487
1.344661,-0.5063024,-0.3102473,-0.5331336,0.2902917,0.3475613
1.906866,-0.5973118,-0.3499082,-0.6052999,0.7207783,0.2470747
1.843349,-0.6009734,-0.3299658,-0.5182591,0.8379,-0.2109546
1.664552,-0.6424039,-0.1895058,-0.1791989,0.715928,-0.5511413
1.642185,-0.6762081,-0.04147074,0.1751265,0.4389263,-0.446166
1.575184,-0.7360514,-0.03100845,0.8003966,-0.1531089,-0.1873444
1.547346,-0.6772276,-0.1561996,1.315378,-0.4583172,-0.0417309
1.658737,-0.4048656,-0.1962064,1.017044,-0.1759397,-0.2388285
1.43428,-0.169459,-0.2106588,0.5687653,-0.2466395,-0.4588838
1.061836,-0.1120211,-0.2068451,0.5844634,-0.4456227,-0.3524367
0.7860833,-0.1611223,-0.08022982,0.6231693,-0.4762263,-0.1861346
0.5333564,-0.08720686,-0.07356637,0.6734945,-0.6349654,-0.1025271
0.5767282,-0.002197383,-0.0940887,0.8021287,-0.4562793,0.000246784
0.6494106,-0.01443919,-0.07036596,0.8761522,-0.179208,0.1242394
0.7097775,0.03116764,-0.07232453,1.024218,-0.01680383,0.3247811
0.8181555,0.03156398,0.01269647,1.044188,0.1903394,0.5102866
0.6917253,0.07013148,0.03531761,1.000218,0.1012239,0.5059493
0.5744325,0.1391391,0.01137866,0.9795744,-0.07889618,0.5025349
0.5028454,0.09564867,-0.00499392,0.7440514,-0.2452323,0.5433722
0.5458233,0.05993909,-0.07495357,0.5352288,-0.3450108,0.5633785
0.7812061,-0.06607741,-0.1282252,0.3285819,-0.07910214,0.6198516
0.8862647,-0.2155391,-0.2029283,0.1436463,0.2941074,0.5569351
0.8833897,-0.2896038,-0.1969278,0.2095649,0.6242439,0.3714634
0.7747534,-0.3565313,-0.06477516,0.341353,0.7168051,0.01533638
0.7346429,-0.2735708,0.06955294,0.4593032,0.4306002,-0.5005608
1.083306,-0.1975984,0.1143131,0.1751681,0.06983299,-0.7193872
1.643331,-0.2256492,0.02110718,-0.4944046,-0.2517929,-0.479751
2.023103,-0.1964918,-0.02137604,-0.9148703,-0.2052958,-0.1409668
1.949033,-0.2159421,0.01224072,-1.061569,0.2398019,-0.04944135
1.766349,-0.3623151,0.04731078,-0.9741507,0.44839,-0.07373765
1.753098,-0.5053203,0.1127492,-0.8957159,0.3357418,-0.09350414
1.693069,-0.4309615,0.09122083,-0.9811972,0.2365158,-0.1474304
1.541857,-0.243603,0.04668827,-0.8856729,0.3595083,0.01746016
1.21861,-0.1706173,0.04448506,-0.8589474,0.5391685,0.3025302
0.8569783,-0.06097803,-0.009779633,-1.100984,0.5532484,0.5124589
0.5117976,0.09019384,-0.07972617,-1.486082,0.5504699,0.6906386
0.1633774,0.1591094,-0.1330446,-1.967283,0.4623908,0.7236077
0.196168,0.1440765,-0.1086184,-2.231987,0.3471749,0.6145073
0.2581758,0.05673176,-0.0411698,-2.314196,0.2914944,0.3473481
0.1772346,0.02636704,-0.04681668,-2.35587,0.05911693,0.04335015
0.3729736,0.02645605,-0.04445599,-2.2761,-0.2811107,-0.04556829
0.4843163,-0.01842038,-0.07747208,-2.244427,-0.5019467,0.04969746
0.5212051,-0.122658,-0.2052142,-2.25097,-0.2468954,0.2857847
0.5934937,-0.325684,-0.2557913,-2.06091,0.2933741,0.482079
0.4382132,-0.4507373,-0.2082872,-1.499901,0.5509089,0.4084698
0.4998552,-0.4541602,-0.1554626,-0.9059423,0.6692338,0.2486222
1.025269,-0.4851877,-0.1877158,-0.9175105,0.6570899,0.2446585
1.718046,-0.6369564,-0.3129209,-0.9559625,0.6753063,0.1962893
1.970686,-0.8502585,-0.2887397,-0.298661,1.029775,0.01566037
1.737542,-0.831647,-0.1033051,0.5224771,1.147765,-0.09553566
1.844575,-0.6501599,-0.0285365,1.104189,0.6618379,-0.2486387
1.973945,-0.4624461,-0.08922375,1.206096,0.1147462,-0.3269956
1.796367,-0.1114001,-0.1488577,0.7386153,0.01805937,-0.2495359
1.680274,0.1250352,-0.1359034,0.1039266,0.1326971,-0.3286522
1.277359,0.01168526,-0.09037715,-0.5929817,0.1457494,-0.3664922
0.8367349,-0.1495379,-0.05952391,-0.7571931,-0.0202744,-0.2316552
0.6959463,-0.2622002,-0.01991153,-0.2868172,-0.3890589,-0.1460866
0.5650011,-0.3195353,-0.03772292,-0.06368549,-0.6867367,-0.1601573
0.5658317,-0.2303433,-0.09155088,0.2401934,-0.735031,-0.2153018
0.5783892,-0.1357205,-0.1130641,0.5440834,-0.4993763,-0.1945341
0.5451177,-0.05421063,-0.1448869,0.4350991,-0.1727866,-0.1739866
0.6141759,0.06246241,-0.096131,0.5503847,0.1034032,-0.1183287
0.6132048,0.07603972,-0.008152256,0.6055788,0.3519149,0.0239965
0.5899811,0.08460442,-0.01599396,0.5149324,0.3234935,0.09672794
0.5814974,0.1933085,-0.05739304,0.5336471,0.1909931,0.2564537
0.603821,0.2622191,-0.1537056,0.02159606,0.1100516,0.5028714
0.7014688,0.2508393,-0.2641792,-0.888497,0.1247646,0.5372326
0.7292227,0.1309089,-0.2849098,-1.510055,0.4994871,0.2484238
0.691913,-0.2319584,-0.2763692,-1.506193,0.9069841,-0.2712508
0.589042,-0.6957452,-0.3023884,-1.141667,0.9986022,-0.7720936
0.62252,-0.7264013,-0.3181128,-0.7300418,0.7517544,-1.031824
1.24296,-0.4571424,-0.17832,0.05034137,0.4308871,-0.8214684
2.015195,-0.3323261,-0.02115433,0.37741,0.3037813,-0.5066002
2.034624,-0.07047922,-0.08826924,-1.132822,0.2703441,-0.5874213
1.808025,-0.0326244,-0.1835018,-3.383112,0.3022616,-0.3855742
2.049448,-0.308791,-0.20413,-3.899626,0.1343436,0.05271602
2.058811,-0.2129371,-0.2514395,-2.988801,-0.02219572,-0.03001121
1.804652,-0.2994355,-0.2356235,-2.519626,0.3677022,0.03018665
1.537626,-0.5024816,-0.2048665,-2.204195,0.9334832,0.4056257
0.9573339,-0.3231808,-0.2175433,-2.009113,1.217452,0.6674682
0.7388776,-0.2909266,-0.1501819,-2.422183,1.073258,1.098277
0.6019969,-0.181655,-0.09827704,-2.71053,0.8363236,1.306327
0.2129275,0.01614842,-0.1418146,-3.086349,0.7535759,1.143247
0.4546571,0.04366402,-0.1701868,-3.423434,0.6303102,1.024132
0.5732716,0.00263094,-0.1787433,-3.172119,0.7758935,0.6742467
0.4262248,-0.2418495,-0.1772087,-2.949389,1.011256,0.2811331
0.5663312,-0.2342176,-0.1437081,-2.596727,1.043815,0.110946
0.3488558,-0.1119293,-0.08610589,-2.28963,1.14673,-0.1801885
0.2855219,-0.2121803,-0.05603606,-2.481444,1.045343,-0.4433399
0.3846239,-0.1690199,-0.05740725,-2.415807,0.7786909,-0.4939863
0.251346,-0.2126973,0.009289567,-2.072256,0.5337364,-0.4207579
0.4510551,-0.2451875,0.1154367,-1.643805,0.08113182,-0.2974551
0.6377106,-0.1821429,0.1655602,-1.185799,-0.3589631,-0.2808112
0.8488065,-0.2868156,0.09914641,-1.103783,-0.5530146,-0.228292
1.065875,-0.357545,-0.1349142,-0.8590336,-0.4936022,0.009451674
0.9992452,-0.5854352,-0.5059681,-0.4425715,-0.1928641,0.4483986
1.333569,-0.9175688,-0.7369898,-0.4170875,0.5710155,0.7096301
1.706279,-1.000225,-0.4555728,0.05422483,1.394911,-0.009821331
1.614047,-0.9271717,-0.01941905,1.143316,0.9623321,-0.902168
1.551051,-0.7585439,0.04914874,1.665525,-0.01346464,-0.7431174
1.647124,-0.5903401,-0.008366907,1.51919,-0.2182274,-0.483008
1.752855,-0.38876,-0.05075857,1.381026,-0.3568877,-0.4932008
1.781673,-0.1352504,-0.105348,1.177553,-0.4701367,-0.09477409
1.676217,0.0408852,-0.08409753,0.5718541,-0.2978838,-0.03933676
1.220477,0.1150531,-0.06143009,-0.04847295,-0.3167092,-0.4004171
0.7070968,-0.005782675,-0.007028626,-0.1721251,-0.6854525,-0.4052946
0.5729752,-0.2016339,0.0281104,0.1318967,-1.460386,-0.3275388
0.4998796,-0.3257141,-0.01468581,0.6736825,-1.778983,-0.04350151
0.5256256,-0.3798706,-0.08249295,1.218248,-1.338439,0.4600155
0.7933102,-0.3436651,-0.2264171,1.537094,-0.8544298,0.6380823
1.0175,-0.2928108,-0.2768735,1.555632,-0.2031485,0.6436193
1.082812,-0.2094396,-0.166187,1.410788,0.2114508,0.4911675
0.9599962,-0.1378662,-0.07528363,1.308072,0.27095,0.0994985
0.7431543,-0.1093233,-0.01028514,1.187162,0.5516036,-0.3173542
0.54051,-0.008507565,0.04090681,1.128933,0.5783134,-0.5361528
0.3695365,0.1026941,0.0419699,0.9665696,0.2677904,-0.453285
0.3585591,0.174397,-0.01308761,0.4955029,-0.03132219,-0.3621682
0.5478897,0.1635101,-0.09859382,0.1508047,-0.244207,-0.1805614
0.7058749,-0.009194122,-0.2122013,-0.07008763,-0.04243627,0.1681152
0.6811418,-0.2730872,-0.2830677,-0.317157,0.3103906,0.2516797
0.6740029,-0.4839677,-0.1659783,-0.244906,0.2628278,-0.05862815
0.9317538,-0.4965675,0.01746544,0.4341285,-0.1950633,-0.7374442
1.469402,-0.3655456,0.07599968,1.124293,-0.7553794,-1.240672
1.956876,-0.1878385,0.01458291,0.6728171,-0.7240967,-0.8386875
2.036155,-0.03982946,-0.01222043,-0.2296058,-0.0860878,-0.1808189
1.945606,-0.2099291,0.147432,-0.5754655,0.2270811,-0.1357241
1.996964,-0.5669282,0.2870459,-0.7378579,0.1032451,-0.3158033
1.886135,-0.6387809,0.209007,-0.1037502,-0.009778732,-0.3427605
1.508108,-0.4184234,0.09422141,0.9189265,0.08370863,-0.1924899
1.061574,-0.1022743,0.03482091,0.7366723,0.4130734,0.200691
0.5611718,0.1108761,-0.007569147,0.1273989,0.6731726,0.4773982
0.2885567,0.1756864,-0.01237876,-0.3486094,0.5813609,0.5652202
0.2854912,0.1878922,-0.0268801,-1.008476,0.1789496,0.5643306
0.3108495,-0.003074663,-0.03563961,-1.231329,-0.02514144,0.3750555
0.4144922,-0.2468133,0.005466349,-1.128047,0.08554072,0.1923143
0.4762398,-0.2432123,0.02057913,-0.9486406,0.09686564,-0.04524646
0.4944103,-0.1808778,0.02835074,-0.7307486,0.05480012,-0.2650067
0.5344267,-0.1983086,0.05047751,-0.6310128,-0.02593206,-0.2952182
0.4949093,-0.2405046,0.03893024,-0.3083369,-0.2636725,-0.2220436
0.4907074,-0.3295692,0.03140043,0.07755134,-0.8272524,0.1392365
0.5517958,-0.4344207,0.01322401,0.3538863,-1.26585,0.4509231
0.6760041,-0.4158532,-0.03343385,0.5868451,-0.7924926,0.3130053
0.791773,-0.2856096,-0.07963007,0.6547558,-0.224382,0.148712
0.869182,-0.1836831,-0.1470007,0.6475966,-0.2136178,0.2640864
1.253617,-0.1664538,-0.234099,0.3526684,-0.1846352,0.4598954
1.774997,-0.4021852,-0.2554836,-0.0139225,0.1117663,0.5242316
1.811671,-0.7924458,-0.1275075,0.2079772,0.5658266,0.3484746
1.511998,-0.8971884,0.04816814,0.9377689,0.6200254,-0.003961816
1.454484,-0.6878124,0.151083,1.611048,0.06414272,-0.1274587
1.662738,-0.397976,0.08286854,1.715755,-0.5332426,-0.1752054
1.897895,-0.1174364,-0.1588868,1.503138,-0.7514842,-0.1988106
1.896801,0.05325168,-0.23288,1.048086,-0.4051157,0.03699474
1.393279,-0.04809689,-0.09883935,0.1800498,0.03307468,-0.2185315
0.7926542,-0.2310665,0.02724562,0.1184971,-0.08145507,-0.5273293
0.6668316,-0.2255749,0.1305006,0.7667111,-0.6226825,-0.2195494
0.7384322,-0.212719,0.06725196,0.8467996,-1.157463,-0.09034195
0.5939113,-0.1809555,-0.0730483,1.095593,-1.088715,0.09057956
0.5645419,-0.09683948,-0.1138927,1.411746,-0.6058206,0.3159989
0.7328285,-0.09546736,-0.1007084,1.254649,-0.3622726,0.1639301
0.6925589,-0.01649559,0.01918991,1.401637,-0.02404331,0.07312665
0.6558885,0.04049,0.09296682,1.514698,0.0912751,-0.05039433
0.5993454,0.04445841,0.0498867,1.525187,-0.2924621,-0.09815757
0.3516264,0.1708905,0.02091224,1.486358,-0.4295778,0.1650627
0.339548,0.2129683,-0.04135041,1.070531,-0.4419833,0.4475905
0.4833626,0.153314,-0.1160686,0.7692744,-0.2344912,0.5918188
0.6855564,0.08589253,-0.1737385,0.1914274,0.3258533,0.4907699
0.9094798,-0.0555261,-0.1754562,-0.4756773,0.7542549,0.1921329
0.8533204,-0.2278643,-0.08356932,-0.5546544,0.8732331,-0.4012932
0.8239412,-0.3813987,0.02481053,-0.5497761,0.2377201,-1.060626
1.046998,-0.4206393,0.07421902,-0.5522039,-0.4689599,-1.084513
1.496899,-0.3607205,0.01929992,-0.7146064,-0.2459042,-0.7174502
1.996216,-0.3347009,-0.01554283,-0.9979716,0.2857165,-0.4638532
2.005818,-0.2922931,-0.001306176,-1.164481,0.6963084,-0.3217117
1.753107,-0.2237817,-0.004260825,-1.398183,0.8210173,-0.4020605
1.654598,-0.194926,0.04876699,-1.514582,0.6299144,-0.4524085
1.446445,-0.1338927,0.08799638,-1.620357,0.566256,-0.1839035
1.289891,-0.08450368,0.08090757,-1.582333,0.496392,0.09309075
1.267791,-0.0977207,0.06204695,-1.374822,0.3644986,0.2763183
0.9758203,-0.04352474,-0.002616181,-1.455603,0.4357422,0.4083056
0.7196477,0.0431537,-0.06737055,-1.59039,0.4623937,0.4267005
0.6221117,0.1135328,-0.1439087,-1.90083,0.4206742,0.4244208
0.4204062,0.1554198,-0.2112968,-2.267416,0.5284739,0.4127436
0.4015718,0.06448092,-0.2101642,-2.254436,0.5745329,0.4292115
0.4588373,-0.063463,-0.1802304,-2.197068,0.6099634,0.4398781
0.4264034,-0.1320265,-0.1508422,-2.099781,0.7169434,0.3536137
0.4611808,-0.1587157,-0.1294227,-2.035844,0.6907852,0.2504171
0.4639839,-0.1763563,-0.08736379,-1.953418,0.5487537,0.1813441
0.49745,-0.3097562,-0.03466969,-1.578646,0.3816653,0.2458805
0.5391047,-0.4850159,0.01256656,-1.01529,0.4598086,0.250475
0.5171262,-0.4705681,0.07293335,-0.2948086,0.5740692,-0.0779098
0.5387432,-0.3045226,0.05662937,-0.1928356,0.2852316,-0.3423666
0.7151484,-0.2389841,-0.05282872,-0.5507827,0.05232387,-0.154333
1.317581,-0.4008527,-0.2022971,-0.4543904,0.1943233,0.1946829
1.967101,-0.6648517,-0.3846757,-0.6356206,0.7614742,0.1816995
1.885781,-0.7921805,-0.3948803,-0.6621836,1.215342,-0.3344274
1.505229,-0.7663647,-0.1075848,0.09524677,0.3793832,-0.9610441
1.494317,-0.7342565,0.1322422,0.532031,-0.7456439,-0.9875954
1.541216,-0.5967324,0.03749108,0.7628874,-0.7934458,-0.4258011
1.669096,-0.3441019,-0.1371122,0.9774457,-0.8161742,-0.05591329
1.86346,-0.2140931,-0.1256378,0.6712949,-0.7521801,0.03981522
1.542974,-0.1722412,-0.02397949,0.2293755,-0.1336478,-0.03514632
1.111327,-0.110942,0.09405418,0.1409247,-0.4034195,-0.1816124
0.8934476,-0.1263155,0.1153754,0.2401231,-1.108339,-0.1530538
0.5451081,-0.1701992,-0.001675129,0.1164399,-1.337805,-0.2203778
0.398004,-0.1195332,-0.05438919,0.1410033,-1.576107,-0.01632923
0.5449723,-0.09582996,-0.1324993,0.3366671,-1.179151,0.5014139
0.6466715,-0.1460937,-0.2217502,0.3827844,-0.6386737,0.5629141
0.7579862,-0.1665291,-0.1566994,0.6211437,-0.5010916,0.4113045
0.8587875,-0.1779308,-0.102554,0.6884527,-0.1605642,0.2575946
0.7681094,-0.1234946,-0.02259674,0.6634816,-0.2268977,0.0991989
0.6494348,-0.003383776,0.04032861,0.7874556,-0.3067784,0.1368821
0.6766825,0.06611327,-0.02684331,0.6541725,-0.2148327,0.2907646
0.7409945,0.1165176,-0.05085243,0.5392571,-0.3945256,0.4938756
0.8870636,0.1291556,-0.08635991,0.2434765,-0.1004929,0.4579492
0.963065,0.088633,-0.1050315,-0.1918758,0.2642902,0.2720276
0.8293959,0.03045966,-0.03407252,-0.3351518,0.4035246,0.1620387
0.730113,-0.05499884,-0.02578846,-0.3649943,0.4656054,0.01234261
0.6318572,-0.14194,-0.08406104,-0.2053695,0.2616491,0.03456455
0.5587877,-0.3046353,-0.1883936,-0.1518368,0.2503921,0.1443766
0.6088063,-0.5604711,-0.2917368,-0.1871931,0.3541043,0.07330935
0.8176933,-0.7321209,-0.2933655,-0.05815151,0.6789522,-0.3987891
1.349286,-0.7269734,-0.1247955,0.0353089,0.9784636,-1.215004
1.848512,-0.5395392,0.07053968,0.1112471,0.304632,-1.442101
1.938621,-0.193019,-0.0243213,-0.3069602,-0.5854262,-0.9990543
1.867045,0.01783716,-0.1791707,-0.948272,-0.6348082,-0.6072259
1.897572,-0.1905101,-0.1370727,-1.114948,-0.2637194,-0.2375227
1.933037,-0.4418413,-0.1234701,-1.149433,-0.03803067,-0.07221684
1.80814,-0.40825,-0.08555341,-0.7804616,0.2418067,-0.1268738
1.477756,-0.3818026,-0.01587339,-0.07358124,0.5115243,0.1183066
0.8460737,-0.2998662,-0.02991887,0.1542152,0.5777987,0.3873485
0.2603773,-0.007484042,-0.009588339,0.09716673,0.7086532,0.618788
0.1199044,0.1785865,-0.04007178,-0.2515267,0.6101389,1.057414
0.1328689,0.1963146,-0.09762759,-1.205981,0.2705681,1.196355
0.2546552,0.07582048,-0.1101041,-1.972263,0.04101594,1.070522
0.4742298,-0.126992,-0.1780964,-2.060099,-0.03190213,0.8963942
0.4945983,-0.1799492,-0.1409557,-1.796103,0.312421,0.4185281
0.5137239,-0.2561821,0.01658974,-1.193553,0.6591977,-0.09955875
0.6055841,-0.4118532,0.1504844,-0.4442951,0.6145564,-0.504104
0.5727934,-0.3548964,0.1952518,0.07495624,0.3457497,-0.7982578
0.5066001,-0.1926067,0.1018593,-0.002867393,-0.1029225,-0.7126447
0.4880831,-0.1145513,0.02817805,-0.4173863,-0.3582385,-0.3356263
0.4938975,-0.1116416,-0.00961731,-0.3296722,-0.4444894,0.1387659
0.5041378,-0.2354655,-0.03078478,-0.04704072,-0.5624312,0.5541487
0.6217148,-0.4227767,-0.03872401,0.3453104,-0.431807,0.7379919
1.063053,-0.6115359,-0.2327293,0.9477124,0.09060255,0.6973099
1.574457,-0.8471489,-0.4006134,1.267749,0.6863311,0.2095243
1.569584,-0.8887743,-0.3154406,1.581458,0.5255431,-0.5976225
1.397401,-0.5999893,-0.1689834,1.597548,-0.1704257,-0.7733133
1.650643,-0.3356571,-0.07621173,1.447864,-0.4330221,-0.2018815
1.875567,-0.2909438,-0.1283194,1.564881,-0.2904623,0.1606864
1.859146,-0.2704823,-0.2027822,1.196166,0.1706425,-0.02856039
1.582993,-0.128677,-0.09455238,0.6917311,0.4536369,-0.4547086
0.9062605,-0.0305768,0.01010715,0.295966,-0.2140959,-0.7203756
0.4797033,-0.08362622,0.02368606,0.1518482,-1.26266,-0.424533
0.3880445,-0.1424815,0.01477482,0.6449567,-1.767151,0.2430182
0.3680019,-0.2334446,-0.1165289,0.90083,-1.483609,0.7017836
0.65919,-0.3562654,-0.3081415,1.233854,-0.7158688,0.8601851
0.9264839,-0.3974688,-0.3479792,1.760187,0.1406332,0.7306001
0.9584879,-0.3844571,-0.2278109,1.782125,0.4738445,0.399254
0.8626023,-0.2926306,-0.08214709,1.846325,0.08468237,0.1360464
0.7064343,-0.1517417,-0.001753131,1.825193,0.07502811,-0.2244225
0.5919087,0.003499091,0.008469309,1.634712,0.4006277,-0.4315054
0.3394461,0.2109524,0.002648212,1.256294,0.2771949,-0.3039291
0.1963568,0.290939,-0.03534691,0.2997646,-0.02353465,-0.2898685
0.3370357,0.1013411,-0.1458215,-0.1684137,-0.36447,-0.06343213
0.5007402,-0.1816782,-0.1777068,0.2832599,-0.1263767,0.1807699
0.73876,-0.3998512,-0.07141393,0.7640386,0.2021266,-0.1817423
1.070041,-0.5527608,0.04884757,0.9670293,-0.6142178,-0.6629153
1.521659,-0.4845046,0.1403765,0.8855229,-1.139963,-0.8891188
1.928566,-0.2080457,0.06203538,0.221853,-0.5164345,-0.7586902
1.999752,-0.1096503,-0.0570066,-0.6931509,0.1930583,-0.3963586
1.889675,-0.3092417,0.0796951,-0.7031166,0.4738073,-0.06152161
1.698692,-0.5911708,0.1975639,-0.0924451,0.2959491,0.1768155
1.492148,-0.621356,0.180992,0.1485738,0.1313364,0.151375
1.345368,-0.3909866,0.1781757,0.1554681,0.07509539,0.3036455
1.070154,-0.2099681,0.09666178,0.01546612,-0.11367,0.594734
0.7016865,-0.05761265,0.008957537,-0.2097635,-0.1791524,0.4764369
0.5013531,-0.01191111,-0.05231927,-0.4503292,-0.1506536,0.4366437
0.4167392,-0.08125199,-0.0855144,-0.609704,-0.1292619,0.467409
0.3544826,-0.08181274,-0.03723062,-0.4590031,-0.007296319,0.2340841
0.3926564,-0.145892,-0.01925283,-0.3363885,0.1735522,0.0380031
0.3774693,-0.1408537,0.01118599,-0.3068886,0.2857608,-0.2414045
0.3100624,-0.06001108,0.04580375,-0.4522296,0.2594715,-0.5540189
0.3174207,-0.08368001,0.03384915,-0.7479922,0.04538023,-0.6066831
0.2712891,-0.07182435,0.0680469,-0.4654252,-0.3620326,-0.4876261
0.257779,-0.1283072,0.07014127,-0.0007334005,-0.6985564,-0.2971443
0.3024769,-0.2172178,0.02285508,0.1124141,-0.7851578,-0.1682333
0.4795839,-0.2280889,-0.07693905,0.1947862,-0.8060939,0.02641587
1.109404,-0.3358178,-0.3452506,0.1462465,-0.7778712,0.4387598
1.813499,-0.5531618,-0.5863872,0.1560716,-0.2535419,0.7069304
1.926727,-0.769086,-0.4917334,0.4028732,0.7570418,0.4868976
1.626125,-0.7495853,-0.1759289,0.8729374,1.049313,-0.08279159
1.53953,-0.6339139,-0.01424264,1.514945,-0.1069591,-0.4611715
1.668962,-0.6512706,-0.1071917,1.651307,-1.260502,-0.3174302
1.750206,-0.4567698,-0.2666167,1.636657,-1.004078,0.1301655
1.811077,-0.2078013,-0.2933494,1.785854,-0.4053459,0.3652566
1.540723,-0.2297573,-0.2015912,1.364829,-0.3500441,0.1259552
0.9752171,-0.2616704,-0.1285013,1.096907,-0.3388683,-0.1807175
0.6700723,-0.2809047,-0.07507928,1.365585,-0.7138757,-0.2121496
0.5342215,-0.3025754,-0.1031497,1.44986,-1.315456,-0.1573176
0.4411432,-0.251719,-0.1875627,1.619641,-1.309215,-0.1707813
0.4949508,-0.2071939,-0.2074595,1.892138,-0.8763221,-0.1246025
0.5497561,-0.1160254,-0.1788119,2.156339,-0.2504242,-0.01820746
0.6014167,-0.01567668,-0.08288491,2.498026,0.09145454,-0.007939652
0.6067528,0.07392723,-0.04055158,2.550776,-0.06116598,-0.03004381
0.425845,0.2000607,-0.04961071,2.382904,-0.2016356,-0.03406887
0.2510243,0.2082077,-0.01836457,2.18957,-0.3339591,0.04230716
0.2622118,0.09868596,-0.06146389,2.020674,-0.3010261,0.3318402
0.3354894,-0.02832543,-0.09676097,1.639623,-0.1031937,0.7089988
0.43609,-0.2377095,-0.1174452,1.000351,0.05382477,0.779565
0.7216592,-0.4278293,-0.1006529,0.8042623,0.3697533,0.1654287
1.182098,-0.4699873,0.0002374223,0.7823126,0.3056192,-0.7714235
1.687487,-0.5398364,-0.01975922,0.3613551,-0.4896766,-1.12165
2.033558,-0.5948131,-0.03812403,-0.00119629,-1.020243,-0.6411001
2.010338,-0.5378185,0.01372336,0.02838132,-0.3637957,-0.2025793
1.936834,-0.5905071,0.05350246,0.1741338,0.420286,-0.3582223
1.943026,-0.5832932,0.1399002,0.1128526,0.05329277,-0.3890568
1.564355,-0.3387734,0.08703029,0.1280621,-0.1182658,-0.1459002
0.9748454,-0.07100853,-0.04465054,0.1433319,0.2804792,0.115839
0.6200011,0.1084832,-0.07925467,-0.2548351,0.1219167,0.5698809
0.4886755,0.1154903,-0.1133433,-0.7961492,0.1624403,0.6868102
0.4019161,0.06015598,-0.09093055,-1.359458,0.3195054,0.5310912
0.2219323,0.0160641,-0.04219994,-1.55055,0.2159798,0.5397934
0.223535,-0.04061462,-0.02927949,-1.242931,0.4978301,0.2778781
0.3524756,0.005471748,0.03206206,-1.125466,0.5133569,-0.02193945
0.3105363,0.01644319,0.08884912,-1.10603,0.4011356,-0.1788364
0.3646426,0.007729059,0.09355277,-1.148026,0.4787766,-0.4513614
0.3992687,0.02087315,0.02654394,-1.384206,0.1751,-0.4890965
0.3122349,-0.08872811,-0.1160783,-1.48463,0.05275476,-0.247371
0.3597415,-0.1723827,-0.20616,-1.410676,0.1968039,0.04999707
0.3326901,-0.2395808,-0.152596,-1.034001,0.1169167,0.2284791
0.2833444,-0.3251228,-0.07976019,-0.4665098,-0.4150927,0.3120041
0.5146337,-0.3939653,-0.1824758,-0.04409727,-0.7678243,0.6832255
1.213919,-0.718825,-0.4255265,0.267382,0.5213875,0.8687857
2.016455,-1.147405,-0.5904395,0.6659055,1.736511,0.202138
1.931707,-1.098639,-0.4015606,1.481112,0.4329076,-0.6561049
1.68343,-0.7829562,-0.1050756,2.148798,-1.057972,-0.8070957
2.059403,-0.6797173,-0.2389416,2.023698,-0.7457782,-0.5113454
1.914363,-0.3754288,-0.309436,1.878061,-0.5505867,-0.4353238
1.525433,0.06012989,-0.07493847,1.608807,-0.8073762,-0.4586231
1.419387,0.05397609,-0.06750971,0.8818211,-0.6543523,-0.3341343
1.002805,-0.06017222,-0.02529863,1.008838,-0.9349301,-0.04673526
0.7254371,-0.06984437,0.05740411,1.389827,-1.264934,0.4012299
0.6268199,-0.07965603,-0.08401174,1.012012,-1.068231,0.5627566
0.5770769,-0.07982138,-0.1857748,1.091799,-0.6967009,0.4768264
0.637209,-0.126178,-0.2289392,1.151724,-0.07332405,0.5636533
0.4715543,-0.1141298,-0.1471651,0.9180185,0.07836912,0.5199228
0.4871865,-0.07974953,-0.03703254,1.199412,-0.2230521,0.3992124
0.5270746,-0.007678555,-0.05058596,1.204938,-0.2532521,0.3786442
0.5472044,0.1169164,-0.04498231,1.199045,-0.3062668,0.1781196
0.8355387,0.1720474,-0.1328472,1.140477,-0.2951474,0.1004973
0.8852108,0.2037209,-0.2415438,0.4412425,0.0686325,0.281805
0.9008374,0.1675183,-0.2596316,-0.0925263,0.8196065,0.3885601
0.8384299,0.1038038,-0.2381879,-0.696119,1.543618,0.352432
0.5967831,-0.008263749,-0.1780887,-1.39342,1.576715,0.06100979
0.529592,-0.2579042,-0.1133295,-1.546218,1.299409,-0.4192209
0.4416862,-0.4322607,0.09665457,-1.088084,0.9100454,-0.8191059
0.6403497,-0.4087306,0.2164724,-0.3678787,-0.02487823,-0.9437274
1.319058,-0.2482549,-0.006579376,-0.3275596,-0.6330433,-0.6962501
2.010411,-0.09703242,-0.172228,-1.013665,-0.04337416,-0.2496262
2.078943,-0.08979835,-0.09362665,-2.304282,0.6598516,0.1576949
1.813537,-0.3771937,0.007268452,-3.331569,0.8836555,0.2166411
2.036728,-0.7283936,0.03594887,-2.74315,1.072246,-0.1722842
1.972269,-0.5683317,0.07314619,-2.180983,0.9360195,-0.5150922
1.635904,-0.2559627,0.04527313,-2.546975,0.7722667,-0.4317221
1.496681,-0.1071106,-0.05724677,-2.514612,0.8739301,-0.1396808
0.9414804,0.1438941,-0.08760982,-2.624186,0.7455708,0.1243857
0.6144974,0.1845595,-0.170565,-3.229523,0.6603755,0.3955096
0.5200312,0.1322236,-0.2631498,-3.454152,0.6209322,0.5966096
0.264934,0.1862462,-0.2669837,-3.491385,0.4594154,0.656476
0.3572209,0.0811651,-0.3175003,-3.556526,0.5311736,0.6252887
0.3626217,0.07783499,-0.3517403,-3.584704,0.6406214,0.5288665
0.369819,0.09776064,-0.3776757,-3.788048,0.737022,0.379614
0.528074,-0.01573709,-0.4303803,-4.044246,0.8695301,0.1809812
0.4794924,-0.05105277,-0.4326003,-4.337122,0.8544473,0.1839399
0.50613,-0.1710273,-0.4213962,-4.519375,0.8940259,0.362671
0.4766819,-0.3259599,-0.3839878,-4.385365,0.995966,0.4122577
0.4303899,-0.4870555,-0.2940851,-4.038726,0.9931034,0.4559646
0.50685,-0.7036878,-0.199684,-3.351306,0.8715455,0.4449113
0.5486655,-0.7123102,-0.1878157,-2.539548,0.6286713,0.4421616
0.7527516,-0.5900663,-0.22849,-1.681958,0.4299024,0.788335
1.089847,-0.5483657,-0.2429191,-1.013335,0.5170758,1.31624
1.480781,-0.7117084,-0.276453,-1.441326,0.9537259,1.51411
1.655066,-0.9843393,-0.1995003,-1.870638,1.515984,0.8143313
1.332319,-1.003854,0.08372321,-0.9458536,1.502394,-0.2476743
1.119436,-0.7440914,0.2567678,-0.239555,0.02066475,-0.4882472
1.564195,-0.2984872,-0.08374652,-0.5266088,-1.661714,-0.1107123
2.064526,0.07167043,-0.60021,-0.680494,-1.101021,0.2502417
1.835887,0.008656438,-0.5247058,-0.894551,0.4116879,0.3636025
1.165581,-0.1629367,-0.1515359,-1.43725,0.8036384,-0.03443695
0.5765795,-0.1406615,0.007466512,-1.576135,0.6825407,-0.5693175
0.3929199,-0.1396545,0.08051082,-1.174129,0.007460799,-0.5425464
0.5165273,-0.1335624,0.02677653,-0.6046607,-0.708361,-0.1887514
0.476301,-0.06182975,-0.02493293,-0.2190737,-0.543126,0.09319014
0.7903543,-0.02993178,-0.1060886,-0.06034939,-0.09724122,0.5766636
1.307001,-0.01679675,-0.2723839,-0.02562272,0.5790399,0.9571701
1.262876,-0.08707905,-0.215176,-0.1753649,0.8534241,0.9254705
1.197936,-0.1471967,-0.1857504,-0.4743587,0.7353802,0.8125356
1.149734,-0.02645893,-0.2340701,-1.033866,1.056089,0.5686619
1.025154,0.1138029,-0.2830766,-2.051933,1.076206,0.350369
1.090543,0.1348375,-0.4489262,-3.131684,1.1343,0.2101768
1.068214,-0.06203428,-0.3929212,-3.337752,1.282045,0.02580189
1.043656,-0.4068895,-0.3068674,-2.643417,1.009403,0.07645233
0.9960945,-0.6128509,-0.3216551,-1.967468,0.8800201,0.172161
0.9040526,-0.6312284,-0.1969926,-1.547005,0.5437625,0.2413653
0.9299812,-0.5250202,-0.2005358,-1.370621,0.3985343,0.3098493
0.922885,-0.4047738,-0.2457617,-1.464922,0.7021391,0.2139468
0.936116,-0.3642165,-0.2102118,-1.545702,0.6834757,0.2226419
0.9191321,-0.3626988,-0.234193,-1.681832,0.6684807,0.2972388
0.8951443,-0.4383882,-0.2196701,-1.7815,0.6724914,0.3067789
0.9554848,-0.5958819,-0.2078719,-1.539674,0.6238259,0.2494305
0.9526699,-0.7190273,-0.1861271,-1.103116,0.5916029,0.06732968
0.8912358,-0.7444263,-0.1071892,-0.6016674,0.3674226,-0.01196059
1.957216,-0.1731234,0.2707747,-1.701044,0.9685549,0.3611182
1.808792,-0.5747672,0.3120938,-1.312397,1.065917,0.3362733
1.606248,-0.5894993,0.3026042,-1.172054,0.8210015,0.1950025
1.345391,-0.3673118,0.2696933,-0.8056333,0.6484581,0.227747
1.070224,-0.1792368,0.1335939,-0.6968003,0.6716387,0.2427777
0.7939381,-0.07193297,0.1221543,-0.8270646,0.5347366,0.2171684
0.6190565,-0.04715881,0.1350636,-0.7698496,0.3094851,0.3160129
0.5394221,-0.0141386,0.07496199,-0.8595154,0.2975875,0.4005643
0.4257772,0.009916683,0.1101313,-0.9323697,0.3503665,0.4768348
0.3670203,-0.01328184,0.1042299,-1.039553,0.470534,0.4939731
0.3777146,-0.01209964,0.08631577,-1.356529,0.60995,0.316536
0.4188845,-0.01285943,0.1367273,-1.435969,0.5744195,0.03052723
0.5028251,-0.02904124,0.1302633,-1.451417,0.4384783,-0.3755239
0.5690155,-0.03354853,0.1407626,-1.668533,0.2513936,-0.6663465
0.6110859,-0.0980473,0.1452652,-1.667558,-0.0691269,-0.6196694
0.5995365,-0.2337251,0.1329605,-1.328353,-0.402,-0.3719569
0.5443431,-0.3617144,0.1469824,-0.8530478,-0.7260246,-0.01650623
0.5209131,-0.4116513,0.1050024,-0.3663838,-1.352084,0.2314647
0.5476234,-0.3644428,0.03121583,-0.009168795,-1.918998,0.3115768
0.7552854,-0.3328253,-0.1553845,0.1234096,-1.649702,0.3512836
1.277372,-0.4101802,-0.4078765,0.0301468,-0.5053436,0.1479907
1.764298,-0.5089833,-0.4337571,0.03170954,0.8160509,-0.3299743
1.781358,-0.5834426,-0.2158892,0.4078109,0.9630504,-0.5602514
1.750842,-0.6312381,0.06748926,0.8008512,0.07191281,-0.3741696
1.903864,-0.4764744,0.1935007,0.8582658,-0.1621461,-0.2296993
1.813864,-0.1224722,0.04224912,0.6458321,-0.03537956,-0.2160852
1.744568,0.1456772,-0.09953376,0.1423469,-0.07198233,-0.2154749
1.543786,0.1954976,-0.01308833,-0.5791606,0.08821801,-0.3285688
0.8731129,0.06298651,0.03465629,-0.7842031,-0.1865932,-0.3753018
0.534471,-0.1265128,0.01562325,-0.2360939,-0.8288635,-0.1408042
0.5075655,-0.2720116,0.06612676,0.3088928,-1.537702,0.2478253
0.4908364,-0.3704827,-0.06272591,0.8070988,-1.885738,0.4813703
0.7833679,-0.3604496,-0.2750791,1.186851,-1.10147,0.3861486
1.035532,-0.2642993,-0.3152129,1.1278,0.05538234,0.0780289
1.05971,-0.1580819,-0.2579579,1.206971,0.9332473,-0.2257163
0.8082502,-0.04524822,-0.09871612,1.22941,1.05857,-0.2366868
0.4194238,0.0809696,0.03324968,0.9344121,0.5548624,-0.05236122
0.3259601,0.2276703,0.008316689,0.598155,0.4684954,-0.0404695
0.3241397,0.2661749,-0.0508008,-0.02571126,0.1373172,-0.01678233
0.4450915,0.1823502,-0.06941975,-0.3932643,-0.2251652,0.1272976
0.7701321,0.05359757,-0.0978135,-0.4024746,0.1017647,0.2798323
0.9657201,-0.2296452,-0.1476513,-0.6306099,0.2671936,0.41845
0.9703815,-0.5035295,-0.1083419,-0.6198632,0.4114012,0.151371
0.9125856,-0.5137034,-0.04528749,-0.116881,0.1587677,-0.4647155
1.096414,-0.2914082,-0.01755241,0.3363766,-0.4981339,-0.9563766
1.583329,0.05608426,0.009166729,-0.1254782,-0.3149522,-1.053659
2.01953,0.2206,-0.02506687,-1.151438,0.07638243,-0.3897757
1.984227,0.05160324,-0.0004049366,-1.553065,0.51689,0.5166
1.653091,-0.1886957,0.1010587,-1.520146,1.158604,0.7372329
1.486038,-0.3430839,0.181867,-1.331283,0.976865,0.4989396
1.152925,-0.3565158,0.2239856,-1.074451,0.5659469,0.3971672
0.9466172,-0.2384559,0.1951896,-0.9824647,0.4411311,0.4356857
1.110996,-0.1472419,0.1662304,-0.9498689,0.2015192,0.4249143
0.8940484,-0.08984447,0.07615117,-1.091093,0.2130442,0.5298382
0.68882,-0.07621852,-0.02292184,-1.141845,0.3511941,0.6507165
0.6652966,-0.1170718,0.004477601,-1.129938,0.4564342,0.5058182
0.4577183,-0.06452003,0.004385161,-1.268589,0.6589295,0.3340751
0.479919,-0.02569606,0.01109395,-1.272526,0.7023202,0.1540673
0.5335782,-0.04249491,0.07600679,-1.333433,0.6748377,-0.1021538
0.5229488,-0.001444801,0.09180527,-1.296301,0.4532149,-0.3243828
0.6096486,-0.01308315,0.08594813,-1.235022,-0.003563106,-0.4718904
0.5689685,-0.02256785,0.04657131,-1.52353,-0.1715332,-0.3364752
0.5113651,-0.06956378,-0.01420019,-1.672516,-0.1309578,0.01741375
0.4973392,-0.2822676,-0.03225397,-1.583531,-0.1030084,0.4349972
0.6709156,-0.4775737,-0.08412226,-1.262768,-0.0001154366,0.6581005
0.9510679,-0.5538586,-0.245263,-0.6346308,0.1411624,0.4257175
1.038771,-0.5667909,-0.3662605,-0.04128315,0.2706068,0.2289389
1.378188,-0.7050702,-0.3520597,0.409229,0.356825,0.05441797
1.86342,-0.874597,-0.330403,0.9534146,0.3239188,-0.3853985
1.756385,-0.7497922,-0.2063952,1.54469,0.05113431,-0.5031279
1.547715,-0.5121949,0.003502542,1.616018,-0.2309731,-0.3024918
1.740882,-0.3118562,-0.03471693,1.564152,-0.3581383,-0.08790418
1.746996,-0.08525439,-0.1227902,1.567468,-0.4801269,0.2353131
1.675901,0.1268314,-0.04213147,0.8476946,-0.3959635,0.257803
1.614873,0.3045141,-0.06064375,-0.02364431,-0.1787941,-0.01521612
1.112445,0.2907626,-0.02808253,-0.4019613,-0.2288735,-0.04533591
0.7394319,0.1184443,0.1207643,-0.2929121,-0.6404322,0.1345022
0.6356512,-0.02093109,0.09941542,-0.01796618,-1.131493,0.4371999
0.5756944,-0.1502429,0.03468029,0.05619853,-1.071321,0.7688872
0.8074341,-0.1883205,-0.06032499,0.3476003,-0.5127171,0.8859259
0.9644645,-0.1574879,-0.1770838,0.4727815,-0.04420114,0.8482685
0.998097,-0.1864343,-0.135006,0.356361,0.2427446,0.6680679
0.9420098,-0.1576428,-0.07604292,0.4802456,0.4013162,0.3547402
0.7171506,-0.0658127,-0.01176067,0.4773622,0.5487344,0.1224115
0.6221833,0.0771753,0.04894489,0.4628755,0.6292567,0.05668995
0.5162625,0.2469927,0.02881462,0.1232172,0.4535474,0.1010929
0.5099461,0.2481344,0.004310693,-0.6797694,0.2482312,0.104538
0.6301802,0.1470407,-0.105908,-1.161874,0.1014203,0.09464839
0.6672553,0.006718505,-0.2306038,-1.366971,0.1791727,0.2248894
0.783742,-0.2361918,-0.2568556,-1.423028,0.5914348,0.3111489
0.7755285,-0.4766171,-0.248434,-1.280824,0.8042113,0.07705428
0.7329458,-0.5684429,-0.1623775,-0.8861746,0.6261487,-0.483781
0.8955887,-0.4529817,0.005473775,-0.2949963,0.1695694,-1.00074
1.279074,-0.3606221,0.1238521,-0.1241985,-0.2131615,-1.018764
1.879538,-0.3116878,0.03631206,-0.6294835,-0.03992039,-0.558458
2.02865,-0.09053722,-0.05843574,-1.389479,0.3681112,0.01343055
1.813917,-0.009031012,0.06357,-1.836875,0.7205187,0.2552353
1.870143,-0.2160104,0.1104039,-2.063507,0.9625774,-0.08502304
1.773771,-0.357901,0.04546902,-2.272569,1.074716,-0.4367634
1.492003,-0.3164367,0.06355845,-2.094083,1.278493,-0.2640584
1.307936,-0.2034968,0.08727031,-1.81791,1.247705,-0.04644592
0.9679719,-0.09115396,0.1000189,-1.914097,0.9551413,0.1241085
0.6742174,-0.01471875,0.05653268,-2.010451,0.9234734,0.4419553
0.5722533,-0.008136556,-0.02286797,-1.966202,0.9378749,0.5790607
0.4185821,0.03160922,-0.0128355,-2.013617,0.8052812,0.7074405
0.3454821,0.1229157,0.001503069,-1.992498,0.6449364,0.7927579
0.3870777,0.1026819,-0.02630401,-1.982958,0.3744674,0.6577169
0.3806794,0.02683122,-0.0838687,-2.137987,0.1373015,0.7241254
0.3822213,-0.09787488,-0.1500551,-2.090955,0.05442415,0.8933585
0.4534926,-0.2778174,-0.1117704,-1.733534,0.2333261,0.9458378
0.6091806,-0.3519653,-0.02517774,-1.219135,0.5763498,0.6309232
0.7316938,-0.3713442,0.05119539,-0.9283367,0.6103375,-0.10593
0.6947865,-0.3444303,0.1506318,-0.7646148,0.4608225,-0.5189717
0.6973164,-0.253807,0.1043812,-0.2889896,0.3527667,-0.5311956
0.956004,-0.2280601,-0.08581723,-0.3676177,0.3700429,-0.2246581
1.38848,-0.3505047,-0.2049214,-0.9993431,0.8053421,0.4196279
1.696307,-0.6669279,-0.2622457,-1.178645,1.265263,0.5500449
1.655814,-0.9399737,-0.2108841,-1.004285,1.083085,-0.05141886
1.497386,-0.9671781,-0.0614121,-0.3087848,0.3536936,-0.5226948
1.506037,-0.9163899,-0.01296235,0.5205793,-0.2257226,-0.3007795
1.580048,-0.8656694,-0.07054358,0.8482773,-0.286965,-0.03617771
1.598549,-0.6635677,-0.1182197,1.121777,0.01631049,-0.3305735
1.396443,-0.2522652,0.06923873,0.7975693,0.1972462,-0.7514086
1.086288,0.02664427,0.3008513,-0.1468734,-0.4549566,-1.163849
1.031871,0.1029098,0.1989608,-0.637867,-1.342963,-1.015628
0.9617328,0.2861874,0.1307812,-1.13845,-1.395067,-0.1751737
0.8959526,0.2764525,0.1014854,-1.570092,-0.9797767,0.2367749
1.035039,-0.0137843,-0.1459624,-1.179814,-0.58207,0.3633506
0.9173215,-0.1738689,-0.1868876,-0.7734405,-0.3065855,0.3066521
0.7889758,-0.3372971,-0.02609654,-0.381973,-0.2798285,-0.04975305
0.8575266,-0.4205115,0.04816245,0.1662177,-0.3090302,-0.204576
0.7077579,-0.2200787,0.09162603,0.1448252,-0.2635527,-0.3632321
0.5639364,-0.08045236,0.06998611,0.2403244,-0.2993826,-0.02983599
0.5219544,-0.02739242,0.01203107,0.5601848,-0.3686544,0.6455632
0.526047,-0.03454903,-0.0367652,0.5223191,-0.2314605,0.8056865
0.635042,-0.1052536,-0.108695,0.4864236,-0.05920321,0.8263385
0.6677096,-0.05901621,-0.1576987,0.1527534,0.06614582,0.5523249
0.6938056,-0.1095421,-0.1886131,-0.2162436,0.262649,0.1899791
0.6177236,-0.2086601,-0.1725995,-0.2237106,0.2747073,0.01923366
0.4561835,-0.2246169,-0.1325986,-0.342613,0.2211585,-0.2519499
0.4922838,-0.3095623,-0.1753343,-0.4534539,0.3258793,-0.3804246
0.6108241,-0.2979769,-0.1782706,-0.5909888,0.2738871,-0.790418
0.9647051,-0.2404762,-0.04518947,-0.8328388,0.01501501,-1.27894
1.606102,-0.2286568,0.1181635,-1.178197,-0.3383028,-1.174247
2.00547,-0.1573571,0.1746792,-1.742335,-0.6201394,-0.7258738
2.004682,-0.184377,0.05152283,-2.187506,-0.166579,-0.2849307
1.959109,-0.4411332,-0.01778054,-2.091547,0.7944315,-0.3902007
2.01423,-0.7985619,0.1066101,-1.369808,1.005058,-0.543781
1.864644,-0.7962191,0.1713536,-0.6286583,0.55829,-0.1762934
1.373429,-0.3618095,0.09215352,-0.2399628,0.3876423,0.2406344
0.7095541,0.0198917,0.01920152,-0.5188427,0.5388123,0.827098
0.3030631,0.1780994,-0.02763535,-1.434782,0.6740984,1.291461
0.3553907,0.1394782,-0.1413907,-2.080151,0.6390505,1.258094
0.3144154,0.0775703,-0.2108275,-2.62945,0.6199391,0.9985817
0.3022257,-0.01862968,-0.1306608,-2.809723,0.6158728,0.4171145
0.55518,-0.3089347,-0.06270718,-2.267923,0.4841135,-0.001650664
0.5123066,-0.411465,-0.003221466,-1.767597,0.3690172,-0.05817039
0.4662897,-0.3289542,0.05046141,-1.12686,0.1862545,-0.2843856
0.6237521,-0.3397934,0.04176753,-0.7567843,0.1029693,-0.4856194
0.6602742,-0.2553526,0.08685893,-0.7683386,0.1131706,-0.7300477
0.7497664,-0.1476916,0.07612847,-0.5947503,-0.15813,-0.9046991
0.6832416,-0.149673,-0.01509245,-0.6175185,-0.2776273,-0.5424529
0.5046289,-0.2103094,-0.03004204,-0.5180664,-0.02069477,-0.1803777
0.5486191,-0.3115383,0.01118846,-0.3760882,0.2304012,-0.07069499
0.6051396,-0.3760343,0.06932287,-0.2978685,0.2290912,0.01425715
0.7602288,-0.44008,-0.01832801,0.1821578,0.0002483132,0.1018014
1.119556,-0.5332067,-0.1846105,0.6941316,-0.06399534,0.1375352
1.539302,-0.5982978,-0.1928357,1.077078,0.09150612,-0.1030467
1.733546,-0.5461357,-0.1658901,1.19897,0.1308784,-0.4277678
1.618819,-0.4442162,-0.1574811,1.145417,-0.2834661,-0.5384712
1.752911,-0.4834005,-0.176709,1.150817,-0.6801829,-0.319045
1.924124,-0.4711152,-0.1910346,1.127378,-0.1475436,-0.09665697
1.647879,-0.2895407,-0.03650009,1.142286,0.4020645,-0.4515401
1.243185,-0.1147396,0.1405589,0.9218389,0.06697323,-0.8935142
0.8017427,-0.0153173,0.1699551,0.7221974,-0.4592225,-0.8909996
0.5543895,-0.06031406,0.09863955,0.8424473,-1.256501,-0.490973
0.6462832,-0.1072356,0.003266752,0.9837679,-2.041468,0.189467
0.6989274,-0.1107926,-0.1438865,1.212808,-1.776525,0.6367699
0.7608313,-0.2268524,-0.3150513,1.398604,-1.236287,0.8343432
0.8562178,-0.2880972,-0.3131162,1.452628,-0.9297725,0.9219459
0.8786634,-0.3192743,-0.2278468,1.507334,-0.3235357,0.7602084
0.9079939,-0.3709305,-0.1654564,1.659999,0.0253061,0.6139552
0.8313279,-0.2616198,-0.06809615,1.940226,0.2752103,0.3078035
0.7085098,-0.1451244,-0.01894892,2.017387,0.6927072,-0.2068469
0.6737574,-0.07343944,0.0006712678,1.6711,0.5643195,-0.4368486
0.6016243,0.1078891,0.006060132,1.055917,0.4151697,-0.5376543
0.5165443,0.2824981,-0.007243475,0.6942737,0.3764715,-0.573418
0.5830049,0.1946148,-0.06431139,0.5266016,0.1622863,-0.3887058
0.708715,-0.05204565,-0.1968954,0.1038976,0.3551515,-0.2199868
0.7111302,-0.1397388,-0.184025,-0.1118733,0.5617287,-0.198411
0.7210454,-0.207229,-0.0280221,0.1523715,0.4522975,-0.4732311
0.8851702,-0.2141377,0.1103691,0.6880218,0.05831262,-0.9474419
1.245629,-0.01828371,0.1621514,1.028447,-0.7312945,-1.084333
1.775945,0.05915357,0.01219977,0.3009339,-0.9601142,-0.6999692
2.037816,0.01670001,-0.07896609,-0.8502786,-0.16519,-0.1282641
1.923281,-0.2021909,0.1204158,-0.9308887,0.7023203,0.2049947
1.841364,-0.5865082,0.3694014,-0.5100727,0.7999051,0.1759084
1.734194,-0.6386164,0.4352989,-0.321253,0.3340156,-0.1194533
1.502947,-0.3642903,0.2813652,0.2396364,0.1086106,-0.3507645
1.255482,-0.04323083,0.08964132,0.4988175,0.2821579,-0.1425549
0.9390108,0.1238616,0.007637124,-0.06758168,0.4170936,0.1223321
0.6952412,0.09828591,-0.01471915,-0.5402922,0.3766629,0.1612464
0.5614686,0.05789854,-0.009377618,-0.8276227,0.3738737,0.376646
0.4159366,-0.02555173,-0.01325088,-0.9471285,0.3913757,0.5516123
0.3874812,-0.0749191,-0.01726014,-0.8774969,0.352356,0.3744122
0.4119459,-0.08186046,0.01238922,-0.8545326,0.3614044,0.1436367
0.3676809,-0.1388691,0.03090018,-0.718576,0.3232563,-0.1333075
0.3747292,-0.1380861,0.03492032,-0.7123321,0.221629,-0.2589431
0.3899814,-0.1655704,0.04668912,-0.6534356,0.01528232,0.04203388
0.369241,-0.2429463,0.06527152,-0.2593362,-0.278743,0.2828332
0.4160647,-0.2450467,0.06955652,-0.06965616,-0.2935065,0.2600265
0.5664783,-0.2105416,0.04988096,-0.03543832,-0.2093252,0.09036285
0.7314125,-0.1718412,0.04556831,0.1470306,-0.3004794,-0.09213469
0.787649,-0.1231438,0.01850891,0.2746786,-0.3731655,0.1717923
1.066278,-0.1994663,-0.1127116,0.09121083,-0.3623413,0.6133618
1.745017,-0.5468392,-0.247491,0.02114073,-0.07075848,0.6161065
1.976779,-0.854249,-0.176108,0.897991,0.2283707,0.1086796
1.489219,-0.6990418,0.05697686,2.053633,-0.1969001,-0.5922854
1.190548,-0.3228253,0.1913087,2.22572,-0.8312636,-0.7089705
1.340814,-0.1250236,0.1520095,1.824869,-0.9399643,-0.293346
1.572024,0.06513505,0.05744228,1.466568,-0.8504615,-0.02754204
1.756106,0.2949813,-0.01093431,0.6808811,-0.464788,0.09560324
1.682703,0.2355604,-0.04849639,-0.08404078,0.03190439,-0.1033669
1.233126,0.02503458,0.04373982,0.06964823,-0.44812,-0.3852416
0.7232277,-0.09030403,0.1997971,0.355136,-1.352495,-0.1266438
0.5697806,-0.1644908,0.1054905,0.4170113,-1.476692,0.1766152
0.7239981,-0.1407367,-0.07591891,0.6593141,-0.9810443,0.3525077
0.7472842,-0.0822211,-0.1454068,0.6976541,-0.2958242,0.630935
0.6717366,-0.06689472,-0.1902027,0.7686169,-0.1028421,0.6345361
0.6929606,0.01458779,-0.08931925,0.9268441,-0.4528502,0.5279702
0.6264723,0.039341,-0.01892659,0.8639199,-0.4886116,0.5073009
0.6003314,-0.04682879,-0.05253129,1.006923,-0.3316748,0.368133
0.650216,-0.04472397,-0.02152299,1.209147,-0.303736,0.2923307
0.590536,0.06591792,-0.06667044,1.207282,-0.3979201,0.3496726
0.7232665,0.2507568,-0.1384863,0.8359192,-0.5257317,0.4067767
1.007287,0.3536268,-0.276632,0.02315997,-0.2861685,0.370052
1.097327,0.2046618,-0.4285674,-0.5889291,0.1220892,0.1972279
0.9455572,-0.04442312,-0.3485868,-0.9519133,0.5147782,-0.01262805
0.6823567,-0.3677555,-0.2753757,-1.087638,0.9447222,-0.2461947
0.6382248,-0.6633465,-0.2471771,-0.7923291,1.108924,-0.5690151
0.7564687,-0.7197441,-0.1559926,-0.4105997,0.9702159,-0.8900957
1.120194,-0.6483232,-0.005302187,-0.004300751,0.6095015,-0.9180371
1.830028,-0.3133423,0.195866,-0.01949093,0.3415968,-0.7729665
2.057529,0.2161115,0.08114969,-1.141861,0.4772605,-0.5950748
1.777679,0.305532,-0.1351758,-2.80706,0.6830547,-0.07568629
1.730952,0.06870767,-0.03723788,-3.798087,0.7208672,0.1712537
1.750779,-0.1170396,-0.0249741,-3.653655,0.6274311,-0.3118937
1.643407,-0.4605213,-0.09638634,-3.012552,0.5031368,-0.5230336
1.47435,-0.6044902,-0.03612283,-2.299627,0.5303321,-0.001261871
1.120326,-0.3072529,-0.07085716,-1.853826,0.6115969,0.6606301
0.7919977,-0.1186611,-0.1031406,-2.146527,0.5908174,0.9884943
0.6827668,0.05514325,-0.1243857,-2.500388,0.5419572,1.099374
0.6200536,0.2038229,-0.2233522,-2.824414,0.3990774,1.116021
0.6181915,0.037516,-0.2309544,-3.374784,0.2511634,0.888067
0.6404811,-0.08452008,-0.2502374,-3.297695,0.4028343,0.6298274
0.5620651,-0.2391971,-0.2764959,-2.921903,0.5846518,0.4542736
0.5056992,-0.3980485,-0.2183556,-2.625886,0.6118761,0.3417121
0.4713288,-0.3002107,-0.1729286,-2.121293,0.7739466,0.2814071
0.4759522,-0.3023781,-0.06868207,-1.941986,0.9809912,0.05713377
0.5116814,-0.3094028,0.03937257,-1.798103,0.9645284,-0.1386709
0.4725061,-0.2427797,0.07187446,-1.476286,0.6218384,-0.2256179
0.4916664,-0.3062558,0.123779,-1.316179,0.1381787,-0.3144031
0.5539007,-0.3024247,0.1863722,-0.9245458,-0.2224569,-0.3274065
0.6417423,-0.2901174,0.1820913,-0.5122928,-0.5899816,-0.3984571
0.8375191,-0.3215579,0.04279036,-0.3214318,-0.7625013,-0.3961003
0.9626848,-0.3142069,-0.1738394,-0.1516024,-0.33823,-0.1139156
1.007784,-0.3522707,-0.3785554,-0.1226866,0.3417805,0.3633148
1.26827,-0.4342239,-0.4663208,-0.206154,0.8780008,0.5987184
1.672627,-0.579945,-0.3500932,-0.1785793,0.9754723,0.07939527
1.667881,-0.6937286,-0.1395774,0.4639389,0.4917123,-0.5244753
1.479038,-0.6888472,0.06970867,1.32172,-0.009922247,-0.5232223
1.585456,-0.558062,0.1101335,1.381458,-0.3091583,-0.3644151
1.529717,-0.275895,-0.02025341,1.211569,-0.4676812,-0.160191
1.434365,-0.02936932,-0.08749994,1.036372,-0.4166299,0.1007127
1.376153,0.1000219,-0.1630602,0.2573131,-0.2987467,0.009215337
0.8104534,0.005060081,-0.1387511,-0.2126069,-0.147038,-0.172893
0.3121243,-0.2941792,0.01506462,0.04906099,-0.6217293,-0.04414856
0.2923318,-0.3968654,-0.0445109,0.4520343,-1.527507,0.1572449
0.4755906,-0.4900823,-0.1482821,1.329637,-1.582824,0.4094543
0.7451934,-0.7008355,-0.2111722,2.296021,-1.251463,0.4936339
0.8087013,-0.5770796,-0.3021094,2.659937,-0.7718417,0.03786659
0.6516691,-0.1923634,-0.2088613,2.858132,0.1321932,-0.4211156
0.3838468,0.1917107,-0.08732505,2.81254,0.3772354,-0.4473508
0.2404002,0.3534796,-0.01649571,2.331704,-0.04387947,-0.01637876
0.3762758,0.2909952,-0.03558634,1.504764,-0.1088055,0.5014863
0.5220989,0.3767871,-0.1799094,0.4896551,0.186309,0.4196196
0.7012661,0.2710623,-0.1263626,-0.03099219,0.3108939,0.1786534
0.8162865,-0.1418778,-0.0463928,-0.2010303,0.1358875,0.05155873
0.8727522,-0.2765031,-0.008203556,-0.2318089,-0.1898618,-0.4013922
1.177235,-0.3133739,0.1224447,0.006099132,-0.6451211,-0.6816873
1.603559,-0.3984611,0.04223233,-0.09098669,-0.865278,-0.4279995
1.928755,-0.3403216,-0.04353623,-0.2375571,-0.3547463,-0.05313341
1.929914,-0.3535974,0.0114038,-0.1984336,0.4303052,0.1227533
1.804987,-0.4118716,0.05776829,-0.3967999,0.5359573,0.06909457
1.804706,-0.4222057,0.2268388,-0.3658482,0.07464046,-0.02587892
1.645787,-0.4025096,0.2774275,-0.1846471,-0.2178679,-0.006801018
1.496811,-0.2928318,0.1281505,-0.07512491,-0.1604647,0.1885807
1.281411,-0.2077802,0.007217898,-0.02311823,0.1647663,0.3649329
0.7806111,-0.1256533,-0.09897532,-0.4282033,0.4540096,0.2768465
0.5485278,-0.05740083,-0.1227608,-0.8108995,0.5023839,0.1517293
0.5270411,-0.09679589,-0.08588059,-0.8552196,0.4361561,0.1967418
0.419007,-0.1212566,-0.04581423,-0.7445699,0.3678226,0.1476011
0.4092798,-0.132099,0.0455036,-0.5263781,0.3344797,-0.06314213
0.4495505,-0.1477923,0.1135582,-0.3884904,0.2434326,-0.2678388
0.5328286,-0.1196912,0.1102592,-0.2587338,0.211415,-0.4960027
0.6015194,-0.09874963,0.0568868,-0.3914921,0.1430905,-0.5354981
0.5598863,-0.09723587,0.01086821,-0.5719362,-0.1029396,-0.3401816
0.4789466,-0.1253491,-0.006711942,-0.3919563,-0.2389482,-0.1138929
0.4244928,-0.2438112,-0.03892574,-0.3073674,-0.3074988,0.2118451
0.5597216,-0.4160392,-0.05810342,-0.1530051,-0.2314654,0.335399
0.7732089,-0.4238392,0.0005487644,0.1855603,-0.1015079,0.1351685
0.8981488,-0.242917,0.07462202,0.3463576,-0.3221883,0.08068983
1.15993,-0.1724351,-0.01994022,0.1943543,-0.4023321,0.3127041
1.550363,-0.3376412,-0.2428163,-0.06924015,0.01683114,0.4591442
1.644866,-0.5383707,-0.3434143,0.2405375,0.2658009,0.1021478
1.52494,-0.5673197,-0.1892715,0.8182444,-0.2902218,-0.3063285
1.682108,-0.567341,-0.005132764,1.14978,-0.9440761,-0.2138902
1.837172,-0.6128152,-0.113865,1.446971,-0.7700572,-0.0390321
1.75357,-0.4159335,-0.2105499,1.567449,-0.5738468,0.03836016
1.742979,-0.143705,-0.1109815,1.512244,-0.673519,0.1324244
1.587525,-0.0995915,-0.1189058,1.157201,-0.4622224,0.01844586
1.167023,-0.07787109,-0.07361472,0.6301142,-0.4826863,-0.1594391
0.8198216,-0.06452806,0.001705156,0.5261778,-0.7769119,-0.1244678
0.6572004,-0.1705567,-0.07479078,0.7575841,-0.9763734,0.04703626
0.5830132,-0.2593406,-0.0924544,1.112759,-1.236898,0.318138
0.6079093,-0.3112253,-0.1510194,1.366943,-1.076182,0.4679177
0.8181283,-0.342796,-0.2262347,1.575118,-0.5648813,0.322169
0.9141276,-0.3040543,-0.1727064,1.81814,-0.1127546,0.1452609
0.7507642,-0.2147091,-0.1280477,1.836158,0.2290914,-0.04949624
0.5646273,-0.08006408,-0.06213388,1.980531,0.06480924,-0.1817217
0.4332787,0.06279982,-0.04086245,2.083787,-0.1515889,-0.07386766
0.4750071,0.1736494,-0.06991092,1.889992,-0.222136,-0.03473551
0.5817217,0.2511443,-0.06148799,1.665647,-0.4236241,-0.03657491
0.6055523,0.1828501,-0.1135983,1.13921,-0.1377859,0.05405766
0.6184541,-0.0582159,-0.09639887,0.6423495,0.2816886,0.0601009
0.5793877,-0.2970041,0.001961572,0.6012346,0.2694008,0.009493422
0.7255381,-0.3478588,0.03311253,0.7848911,-0.1436521,-0.333919
1.291859,-0.2580841,0.0480629,0.930346,-0.9510355,-0.8804199
1.881151,-0.2731503,0.01650186,0.6391612,-1.128004,-0.8839219
1.918847,-0.2742007,-0.07060738,0.001894908,-0.4313125,-0.446709
1.793639,-0.2108817,-0.1349081,-0.5210991,0.3583638,-0.14832
1.916948,-0.3817977,-0.03845413,-0.5177934,0.7228008,-0.07160901
1.648756,-0.5283958,0.1502097,-0.1969594,0.09725139,-0.1302359
1.412416,-0.4011172,0.1108479,-0.1633139,-0.4841347,-0.05019471
1.537679,-0.2542751,0.003889834,-0.1212647,-0.03863628,0.2736076
1.240712,-0.172534,-0.02827751,-0.1588362,0.3879397,0.5025918
0.9834579,-0.1486862,-0.1303695,-0.5964391,0.5759812,0.4286187
0.8118792,-0.1261265,-0.1542922,-0.9005302,0.8014559,0.252304
0.4678229,-0.07034863,-0.1312129,-0.9772089,0.621794,0.2468107
0.4410434,-0.08163041,-0.1135322,-0.900642,0.4447182,0.2251925
0.3382728,-0.1229165,-0.03553876,-0.7922241,0.4938629,0.06902893
0.2572885,-0.1279349,0.0009829176,-0.7269342,0.3488399,-0.07427297
0.4022585,-0.09544476,0.06615113,-0.4585744,0.2135655,-0.2943941
0.3923986,-0.06071039,0.1116617,-0.3343647,0.02203017,-0.3494276
0.4020836,-0.09067444,0.05051823,-0.3122924,-0.2108007,-0.1288612
0.3289627,-0.1587269,0.005705654,-0.2346688,-0.1795874,0.07891494
0.2533949,-0.2257729,-0.02255647,-0.2750358,-0.2785365,0.2269916
0.3793149,-0.3201361,-0.03343884,-0.02743048,-0.4666145,0.1865817
0.6227772,-0.3987783,-0.0689853,0.368088,-0.4886235,0.1871439
1.24018,-0.4362073,-0.1983038,0.7193014,-0.2596559,0.3161534
1.88626,-0.4949876,-0.3347876,1.026292,0.468096,0.1634506
1.91392,-0.508764,-0.3292382,0.95783,0.8459735,0.02579258
1.668837,-0.4513179,-0.1715019,0.9667807,0.1427107,0.06944966
1.752239,-0.4397829,-0.09888757,1.258891,-0.5939067,0.03887012
1.89591,-0.4839871,-0.166247,1.552754,-0.4142227,0.04311451
1.843777,-0.4830484,-0.1907164,1.747039,-0.0437752,0.01008686
1.648537,-0.3054079,-0.09513758,1.482091,-0.114028,-0.2503869
1.156954,-0.08768678,0.02476788,1.175055,-0.3721609,-0.509513
0.8078715,-0.09836023,0.01526858,1.33726,-1.014259,-0.4003276
0.6754661,-0.1524257,-0.03857925,1.432245,-1.445814,-0.1516778
0.557076,-0.1268274,-0.0708043,1.423072,-1.047126,-0.06613864
0.7285223,-0.216385,-0.1308035,1.672656,-0.633449,0.07979275
0.7237949,-0.2682828,-0.1282148,1.942444,-0.2575979,0.1358664
0.6160688,-0.1806239,-0.07788059,2.148931,-0.02181776,0.01796795
0.6775003,-0.113106,-0.02164403,2.261784,-0.1888105,-0.005809127
0.5234921,0.007757565,0.02754918,2.154042,-0.1059632,-0.08273257
0.4917932,0.1343192,0.02571406,2.06704,-0.03251807,-0.1059191
0.5052013,0.1695082,0.01831998,1.913229,-0.09955043,0.1249369
0.4521209,0.1905786,-0.04424001,1.527435,0.05906827,0.409865
0.6182634,0.1261205,-0.1567823,1.117383,0.1377913,0.5355809
0.7095983,0.02179666,-0.1785539,0.6846517,0.1953567,0.3325966
0.7610356,-0.0537822,-0.1406233,0.4122469,0.1499252,0.05948387
0.8064329,-0.1952558,-0.1193903,0.4570698,-0.2812786,-0.2244566
0.9613548,-0.3454331,-0.07055915,0.5856297,-0.6595737,-0.7667795
1.446978,-0.4456197,0.02003154,0.9157112,-0.591898,-1.013005
1.836383,-0.4554008,0.06643932,1.245436,-0.3168897,-0.726134
1.941936,-0.2816403,0.0299097,0.7665131,-0.05291552,-0.4670725
1.840207,-0.04672453,0.01035154,-0.1375416,0.2848962,-0.2704925
1.724476,-0.009917537,0.0954053,-0.5578326,0.2315432,-0.06068666
1.671942,-0.1397311,0.167028,-0.7083475,-0.06420363,-0.06277289
1.476289,-0.214994,0.09961375,-0.6616482,0.1565098,-0.008183625
1.296493,-0.2439681,0.02218916,-0.4230284,0.2826831,0.3000998
1.099302,-0.2331379,0.01323141,-0.3797026,0.3419124,0.5183292
0.7999922,-0.1378052,-0.01825151,-0.4082638,0.6183463,0.6508234
0.4278907,-0.02334895,-0.1023378,-0.6152896,0.3913753,0.7293257
0.08489208,0.06819569,-0.1932962,-1.045182,0.175092,0.6768631
0.211975,0.01940441,-0.1964121,-1.432493,0.1449783,0.6376252
0.3701107,-0.1217128,-0.1392561,-1.644949,0.02189909,0.4052925
0.3099353,-0.1982226,-0.09924165,-1.29456,0.1490219,-0.006289542
0.5271537,-0.2364769,-0.006335154,-0.7542819,0.117175,-0.2730308
0.6129623,-0.203551,0.08171775,-0.5509081,0.06945054,-0.3221766
0.555382,-0.178856,0.05991785,-0.4756656,0.1643483,-0.08417105
0.5602784,-0.1792816,0.02246037,-0.4790621,0.08453264,0.2490815
0.3853476,-0.1355737,0.02055604,-0.4412045,0.1236235,0.4444769
0.4583101,-0.213767,0.008394049,-0.3878956,0.06306721,0.4362425
0.8363353,-0.2848447,-0.03762705,-0.3042699,-0.1392399,0.3366216
1.294316,-0.256488,-0.1177293,-0.06299239,-0.0414907,0.3501554
1.654532,-0.3734762,-0.1623902,0.1074146,0.2774834,0.289235
1.74662,-0.6063132,-0.1216822,0.5075539,0.3146663,0.2493408
1.986109,-0.7451284,-0.05608081,1.317752,-0.006073176,0.2884522
2.077116,-0.6495333,-0.01256508,1.772897,0.00740079,0.1097942
1.859891,-0.4108911,-0.01456006,1.374528,0.07741784,-0.1668027
1.674306,-0.1200798,-0.03741256,0.6373247,-0.1100482,-0.6223102
1.110673,0.149379,0.006052709,0.1281584,-0.3035397,-0.9501112
0.665068,0.13508,0.05202699,-0.05333548,-0.9839734,-0.6365389
0.7343709,0.02553292,0.02893672,0.1612782,-1.436821,-0.3292365
0.6833348,0.02485772,-0.03150858,0.2107901,-0.9913204,-0.2471731
0.7122629,-0.01168416,-0.105152,-0.01207304,-0.4249214,-0.07569847
0.792586,0.001552135,-0.06764605,0.05433908,-0.02205682,-0.04130933
0.6082563,-0.003890181,0.04135167,0.0494915,-0.09458684,-0.02162438
0.4865764,-0.05724458,0.06488674,0.1146486,-0.3513585,0.1353252
0.4674443,-0.02606407,0.04503719,0.3449883,-0.1903092,0.2897838
0.4568682,-0.02897248,-0.01508238,0.2826615,-0.127562,0.4320303
0.440221,-0.0221389,-0.0871137,0.2772771,-0.0952392,0.4906652
0.4536777,0.02233259,-0.1589892,0.1430001,0.1163229,0.5293637
0.6101932,0.007918376,-0.2776729,-0.2507649,0.3362581,0.5552391
0.7679265,-0.04270551,-0.3132412,-0.4911591,0.8181725,0.3710004
0.7924516,-0.1788694,-0.2756134,-0.6314734,0.9848311,-0.0409835
0.7459078,-0.2912686,-0.2648464,-0.7895504,0.4681015,-0.625748
0.8875341,-0.2807905,-0.250436,-1.032309,0.08226365,-1.007457
1.395207,-0.3561226,-0.2414906,-1.078427,0.09732559,-0.800118
1.959141,-0.4567629,-0.2151647,-1.265089,0.3918774,-0.3988108
2.039286,-0.2587555,-0.1860791,-1.98115,0.6431683,-0.2114362
1.806719,0.001076341,-0.1891925,-2.69344,0.4717054,-0.2616306
1.884118,-0.05613251,-0.1435063,-3.440977,0.2399339,-0.4349975
1.904645,-0.1289956,-0.09702172,-3.60543,0.1787318,-0.3763484
1.724044,-0.06491907,-0.1818379,-3.156555,0.3726638,-0.09622764
1.641172,-0.01003385,-0.2997152,-3.455229,0.8591809,0.2944493
1.164826,0.1334041,-0.365828,-3.786831,1.178192,0.7504761
0.655293,0.2004139,-0.457523,-3.977381,1.207192,0.864294
0.4923583,0.1287837,-0.516357,-4.624448,1.110628,0.8046725
0.2970217,0.0915292,-0.5074214,-4.733656,0.9490224,0.776863
0.338742,-0.06006609,-0.4712437,-4.719762,0.8060519,0.5832677
0.4456037,-0.2469905,-0.4006081,-4.686542,0.6667311,0.48582
0.4495715,-0.2988869,-0.3834584,-4.103973,0.5027614,0.4700268
0.5490398,-0.3718405,-0.3964935,-3.77704,0.2566966,0.5045466
0.6301965,-0.4956341,-0.360832,-3.389495,0.0890531,0.659237
0.9051627,-0.6259276,-0.2910269,-2.705668,0.1196547,0.6653523
0.4156311,-0.2287521,-0.1210229,1.313901,-1.377055,0.5182394
0.4104618,-0.2991638,-0.1681439,1.75426,-0.4799068,0.1746866
0.505399,-0.3258043,-0.2685108,1.656422,-0.1107881,-0.2594945
0.6023628,-0.1174546,-0.3044331,1.379988,1.206366,-0.3360692
0.687129,0.12831,-0.3528449,0.865853,1.975806,-0.06259062
0.6700553,0.2504313,-0.2816705,0.4310989,1.720848,0.3017404
0.5975238,0.2568286,-0.1529697,0.2558488,1.170772,0.3279262
0.604568,0.01553147,-0.07496759,-0.3290127,0.08099837,0.1269667
0.6432363,-0.3589065,-0.03902696,-0.8101829,0.1753541,-0.3090967
0.8907392,-0.4452813,-0.02925196,-0.5983787,0.2258874,-0.6442688
1.463941,-0.1902916,-0.01821731,-0.4829776,-1.067619,-0.3362647
1.946468,-0.1069325,-0.1053752,-0.6331747,-1.513608,-0.09510529
1.959754,-0.3337452,-0.1990141,-0.7336808,0.4206965,-0.3629804
1.712937,-0.4936855,-0.1241414,-1.051904,2.482786,-0.4840819
1.451341,-0.4235013,0.155564,-1.137459,0.6649014,-0.1191576
1.080887,-0.2927624,0.4037731,-0.441974,-2.033658,0.6193546
0.8480632,-0.2197038,0.06977912,0.1039931,-1.836483,1.493961
0.8639933,-0.1084954,-0.465506,-0.2553378,-1.022409,1.653643
0.7843062,-0.1034173,-0.4261989,-0.9190469,0.1068565,0.9337502
0.7390117,-0.2282897,-0.1780565,-1.288792,0.8426372,0.3346099
0.7086084,-0.2628223,-0.01836704,-1.364915,0.4062219,-0.1407913
0.5259621,-0.2735561,0.1211632,-1.25413,0.8701509,-0.5316087
0.4180566,-0.1427177,0.1236904,-1.059744,1.137564,-0.5303823
0.335756,0.07614629,0.1877949,-0.8443747,0.6054873,-0.5831155
0.3452725,0.1132126,0.1906021,-0.7421762,0.217689,-0.5123672
0.4143306,0.1110148,-0.005800023,-0.8821349,-0.4697168,-0.334801
0.3229404,0.05630453,-0.07258928,-0.9763044,-0.6741706,-0.3588947
0.3720841,-0.1059643,-0.1116567,-0.9550781,-0.8362547,-0.1348615
0.6175717,-0.2528438,-0.2169841,-0.767512,-1.388527,0.09744201
0.9572555,-0.3423663,-0.4031284,-0.3782457,-1.103143,-0.04706025
1.423263,-0.4771322,-0.773765,-0.4265895,0.06526066,-0.1206448
1.811817,-0.6896105,-0.9657173,-0.5064072,1.905728,0.2005566
1.894852,-0.6361883,-0.7943725,-0.1424171,2.708948,0.5033213
1.724179,-0.4645541,-0.3784325,0.1787147,1.040014,0.4101395
1.750903,-0.4741073,-0.05055247,0.5845713,-0.4487497,0.301545
1.79073,-0.3973533,-0.2995303,0.6092787,-0.140824,0.2599441
1.538475,-0.3365215,-0.5943176,0.3902545,0.02029598,0.06644766
1.338183,-0.3349141,-0.3243834,0.6346523,-0.5856863,-0.1370288
1.020631,-0.2857984,-0.1690213,0.5688949,-0.9752697,-0.2713671
0.7641103,-0.3277252,-0.328433,0.5715649,-1.113913,-0.3154495
0.7183678,-0.2644773,-0.2411157,1.007118,-0.9308427,-0.2392241
0.4628622,-0.1517911,-0.1552158,1.179474,-0.5633351,-0.08800882
0.4418452,-0.1228282,-0.1805972,1.440434,-0.5044023,-0.03579374
0.6053749,-0.03524436,-0.07586526,1.680517,-0.4146247,-0.04026572
0.586884,0.006455692,-0.07503599,1.831882,-0.2047946,0.009632708
0.6447097,0.07219252,-0.127025,1.964444,0.1907591,-0.1169058
0.574811,0.1218911,-0.1630149,1.638665,0.8016296,-0.2213891
0.406003,0.04668263,-0.2249103,1.396443,1.066958,-0.07846306
0.2721306,0.05462078,-0.212225,1.32596,1.06637,0.09606874
0.1678435,0.02091541,-0.252019,1.020034,0.9422031,0.2061013
0.3592399,-0.1347789,-0.2417929,0.5098889,0.7238109,0.01729265
0.7310035,-0.2555661,-0.1575048,-0.220092,0.5143013,-0.4377231
1.296803,-0.319696,-0.142854,-0.8859864,-0.01637153,-0.6219088
1.93764,-0.3495435,-0.1755511,-1.31139,-0.5898897,-0.2424033
2.050219,-0.4738512,-0.3831436,-1.050886,-0.2993379,0.1301939
1.871649,-0.5715756,-0.5171099,-0.5038207,1.159062,-0.225429
1.749068,-0.4266418,-0.2188219,-0.6950153,2.25531,-0.4626086
1.315352,-0.2025744,0.1523907,-0.7724387,1.309807,0.1091204
0.828782,-0.08615023,0.1445016,-0.6183551,-0.04453437,0.4610092
0.6802007,-0.08613256,0.03743455,-0.8536977,-0.07794819,0.2659594
0.5618348,-0.1421946,0.1381402,-0.8272438,-0.2056828,0.06565552
0.5182086,-0.1838378,0.1299923,-0.6578824,-0.6158378,-0.01652116
0.5420259,-0.105721,0.03310232,-0.5937462,-0.3113089,0.08606761
0.3978455,0.04666406,-0.04030954,-0.6732546,-0.09272699,0.2659498
0.3381903,0.1189347,-0.1791238,-1.024599,0.3272846,0.2817361
0.3547428,0.1628611,-0.1287973,-1.261323,1.140426,0.1549804
0.315307,0.1645407,-0.0658323,-1.669271,1.135554,-0.05011821
0.2621736,0.1032444,-0.1208506,-2.151433,0.8228705,-0.3251772
0.1478647,0.03254743,-0.05603422,-2.177931,0.53106,-0.3558918
0.1240476,-0.07592847,-0.04633228,-1.777792,-0.1431538,-0.01454417
0.1635274,-0.0944491,-0.09417465,-1.001027,-1.286327,0.2916915
0.2947485,-0.1129082,-0.2468937,-0.6943693,-2.46864,0.6852455
0.9276683,-0.4439987,-0.6525588,-0.8292657,-1.539266,1.375135
1.800786,-0.9235363,-0.9939933,-0.4275801,2.20191,1.396843
1.953236,-1.053997,-0.9858737,0.004036351,5.100862,-0.02262674
1.472614,-0.7084923,-0.4057518,0.1271176,2.275206,-1.217268
1.395638,-0.259342,0.2142218,0.2602334,-2.481629,-0.4197527
1.632315,0.07020298,-0.07951445,0.2519946,-1.709476,0.3544994
1.655408,0.1574137,-0.4903998,-0.2268946,0.459061,-0.3487823
1.490738,-0.03928541,-0.2549255,-0.8290864,0.5128621,-0.4369614
1.066387,-0.1214877,-0.1093898,-0.5230165,0.2789768,0.09231412
0.7003449,-0.07945597,-0.00751448,0.02011359,-1.33149,0.1252287
0.583122,-0.1167845,0.03265818,0.02299789,-1.381442,0.4415197
0.4757185,-0.09575016,-0.2555917,0.3742787,-0.4157945,0.610827
0.4243574,-0.09878313,-0.2334625,0.6308991,-0.8988374,0.3543318
0.4110831,-0.1053213,-0.2031643,0.548293,0.05762426,0.2106558
0.4486945,-0.05995219,-0.3270626,0.776556,0.5828401,-0.1429155
0.5342787,-0.04810023,-0.2067726,0.6979703,0.910372,-0.2663723
0.5889268,0.05949592,-0.2700402,0.5487782,2.057692,-0.08301562
0.5787726,0.2098916,-0.3024893,0.5094468,1.621944,-0.02554187
0.5142503,0.2419402,-0.2584345,-0.2534821,1.617778,0.09678016
0.6877037,0.05538231,-0.3407653,-1.264821,1.632837,-0.03175524
1.105742,-0.2598697,-0.2050588,-1.892001,1.2487,-0.3613725
1.606371,-0.3797853,-0.1032146,-2.02524,1.54844,-0.4968477
1.969628,-0.3461188,-0.07631323,-1.961894,1.034034,-0.3919061
1.93158,-0.273246,-0.1640313,-2.426165,0.8233286,-0.2277798
1.845824,-0.1440055,-0.357183,-3.183237,0.8484882,-0.2866559
1.774944,-0.1154336,-0.2415215,-3.446387,0.225937,-0.1044451
1.583008,-0.231109,-0.1990083,-3.050886,-0.1558375,0.3630843
1.459976,-0.35185,-0.2785082,-2.769318,0.11242,0.5274963
1.208882,-0.3591878,-0.2074786,-2.840434,0.8174697,0.4874907
0.8798615,-0.3173418,-0.1847384,-2.618921,0.5457763,0.4423014
0.6915277,-0.2630475,-0.1457088,-2.430664,0.2608834,0.4582769
0.5596869,-0.1092912,-0.1628992,-2.52369,0.4528801,0.5384406
0.5288851,0.001354765,-0.2262611,-2.604098,0.08469403,0.584649
0.5320657,-0.01271973,-0.1666297,-2.759739,0.3002396,0.5312066
0.4806555,-0.01483093,-0.1291203,-2.825958,0.4548399,0.2942585
0.4086487,0.002318919,-0.1010416,-2.780152,0.3951663,-0.003691157
0.3511492,0.008050892,-0.03617914,-2.792656,0.8057722,-0.3227182
0.3663057,0.008671983,-0.0004060869,-2.780098,0.6607463,-0.6898768
0.3962733,-0.01096929,0.01870501,-2.734445,0.4193881,-0.9256898
0.4047385,-0.05135721,0.01129073,-2.685346,0.1811025,-0.8980814
0.3956421,-0.1405616,0.004679049,-2.549545,-0.1750434,-0.6191944
0.3733239,-0.2382181,0.02059125,-2.067775,-0.5802034,-0.1443637
0.4567281,-0.2220167,-0.006015484,-1.239548,-1.705134,0.4854215
0.752844,-0.1783794,-0.2184066,-0.7470987,-2.241635,0.7724732
1.055804,-0.219416,-0.7351684,-1.089689,-1.264995,0.5904406
1.085216,-0.2533728,-1.158591,-1.702374,0.1429485,0.6890395
1.322888,-0.4335719,-1.058413,-1.937955,1.24625,0.7905084
1.884443,-0.8380752,-0.8473011,-1.501478,2.016438,0.3029518
1.804166,-1.006442,-0.5136507,-0.009419957,1.871979,-0.3668786
1.419457,-0.8040582,0.09349715,1.590373,0.04363152,-0.7259332
1.527797,-0.5209629,-0.05638962,1.880509,-1.448482,-0.4900411
1.674047,-0.1685299,-0.6123722,1.41358,-0.7232126,-0.2798947
1.777849,0.09788288,-0.4880831,0.9777818,0.2831973,-0.5258516
1.532194,0.01264419,-0.2864756,0.4668675,0.1030105,-0.5062055
0.8995091,-0.06417239,-0.04088011,0.3904708,-0.537433,-0.3445847
0.7050277,0.02794975,0.1114511,0.7172663,-1.437567,-0.2632837
0.4859991,-0.0700774,-0.1807065,0.6504541,-2.13556,0.04356879
0.3425258,-0.1435694,-0.1445194,0.783589,-1.878607,0.2694004
0.7411564,-0.04610907,-0.2444531,1.119247,-1.433118,0.4713701
0.8391884,-0.05335994,-0.5255611,0.9778392,-0.7521983,0.6806806
0.869435,-0.07186708,-0.3238533,1.029914,0.2476071,0.5067011
1.038983,-0.1017753,-0.2663071,0.9664317,0.5605805,0.1418466
0.9099535,-0.1486643,-0.206734,0.768851,0.7758589,-0.2165782
0.6881106,-0.0940051,-0.02210185,1.084642,0.7355406,-0.4198323
0.4063714,-0.05302862,0.01737087,1.179457,0.2929062,-0.2736174
0.3875267,0.02942683,0.004420786,1.127534,0.3227014,-0.01191073
0.6381732,0.1679392,-0.2613222,0.9231931,0.3157105,0.204926
0.6971061,0.176245,-0.3738814,0.4543341,0.4271036,0.3170533
0.6916189,-0.01564546,-0.2655662,0.3775419,0.5346532,0.2126879
0.6536737,-0.3183602,-0.2165497,0.3771713,0.527661,-0.1649652
0.6857595,-0.5237331,-0.0626405,0.3956612,0.8008904,-0.9347306
0.9679789,-0.4816188,0.05667719,0.4280736,0.3240217,-1.365477
1.467059,-0.141536,0.1055591,0.1894373,-0.4113072,-0.568953
1.93733,0.2261286,-0.03134471,-0.2854155,-0.4638218,0.3619993
1.930663,0.1806539,-0.192107,-1.026068,0.05200094,0.3852188
1.697643,-0.229941,-0.04180033,-1.300052,0.5976263,0.2504879
1.556282,-0.5405089,0.09115233,-0.8432918,-0.1160487,0.3362613
1.365893,-0.4937334,0.1188866,-0.3558122,-0.8867832,0.4482298
1.175284,-0.3290629,0.05218262,-0.2113112,-0.5246454,0.544467
0.962326,-0.2344346,-0.1223036,-0.4140824,-0.2864892,0.4597088
0.8065579,-0.1028227,-0.1694008,-0.6492781,-0.138112,0.2616674
0.7512623,-0.03118257,-0.1376403,-0.7479599,0.06172944,0.134543
0.6472789,-0.07552764,-0.1061762,-0.735653,-0.05263065,0.1244296
0.5787884,-0.05576911,-0.08629209,-0.7598114,0.1248351,0.1138046
0.4911088,-0.01720887,-0.09069449,-0.9443027,0.6026574,-0.07255918
0.3618632,0.002758822,-0.06896097,-1.135163,0.9395792,-0.3508781
0.3037106,0.06159382,-0.001149332,-1.262163,0.9843744,-0.5041232
0.2486269,0.04369804,0.1135477,-1.177012,0.3112752,-0.4055936
0.2569545,-0.01629116,0.1416846,-0.8652368,-0.8899404,-0.1319262
0.4097725,-0.104156,0.007554685,-0.5934964,-1.445297,0.07836868
0.6747969,-0.2759614,-0.2027429,-0.4954616,-0.992097,0.0566855
0.8852853,-0.3784369,-0.3621321,-0.3323194,-0.500342,0.004964218
0.9088431,-0.4102658,-0.3917585,0.1800354,-0.4494008,0.2444361
1.085225,-0.4537082,-0.4599419,0.4792835,-0.2620306,0.5333524
1.622091,-0.5509547,-0.7142213,0.3350556,0.5204482,0.4417472
1.993806,-0.6655412,-0.8637681,0.4930326,1.550368,-0.1646518
1.750817,-0.6087982,-0.4989819,1.003905,1.364127,-0.7570354
1.450019,-0.4115679,0.005089722,1.561127,-0.4843492,-0.4105294
1.594283,-0.1448045,-0.0655656,1.953083,-1.508703,0.2188837
1.757892,0.1196362,-0.409235,1.701659,-0.1625107,0.08489447
1.774051,0.1874866,-0.4676966,1.032818,1.100039,-0.3137962
1.435185,0.1175565,-0.2150714,0.6270809,-0.09413507,-0.6054603
0.6874023,0.05064859,0.1485161,0.6563988,-1.606052,-0.3904172
0.4316915,0.0115325,0.1458477,0.9364263,-1.696483,0.2388634
0.5323505,-0.037531,-0.04049104,1.237889,-2.095739,0.4190688
0.5279088,-0.1515465,-0.1074071,1.593712,-2.25742,0.6856732
0.8155705,-0.2615676,-0.3974881,1.862672,-1.616338,0.8327148
1.052643,-0.2776223,-0.469774,1.877276,-0.9929808,0.3607424
1.059877,-0.1727673,-0.2634896,1.961384,0.3443758,0.1077863
1.001237,-0.002078888,-0.2992172,1.933713,1.323153,-0.2525267
0.7635783,0.2066148,-0.1905205,1.646284,1.453236,-0.4696828
0.6041605,0.3890574,-0.0900484,1.25359,1.615239,-0.1615657
0.4924326,0.39523,-0.1585256,0.6165276,1.548152,-0.02851585
0.389054,0.3122563,-0.04295061,0.2453462,1.418588,0.3528624
0.3797745,0.1887538,-0.03600551,0.1744884,0.6154078,0.5520536
0.333433,0.008191393,-0.1119845,0.01087523,-0.5056712,0.2714048
0.40821,-0.1200163,-0.1299312,-0.06640226,-0.8074598,0.1489459
0.7640559,-0.267616,-0.1374044,-0.3068072,-0.6880639,-0.3311384
1.425806,-0.4581742,-0.02466215,-0.3773555,-0.5991574,-0.6183801
1.868518,-0.5365811,-0.05617632,0.07167884,-0.4937449,-0.3832458
1.808873,-0.4251606,-0.3450897,0.2686842,0.8112305,-0.4813229
1.894123,-0.2785675,-0.5934185,-0.302827,2.14157,-0.5347182
1.791616,-0.1369633,-0.3326997,-1.096257,0.7958684,-0.3899428
1.398557,0.0737324,0.2730352,-1.045038,-1.607426,-0.1591973
1.630419,0.05369786,0.3720051,-0.7033617,-2.272803,0.2592017
1.845554,-0.08781417,-0.02018146,-0.8476019,-0.5092126,0.3036265
1.518668,-0.092144,-0.3741325,-0.9508856,1.65608,0.157362
1.257318,-0.1339122,-0.349371,-1.308089,1.598327,0.367214
0.7699728,-0.06704534,-0.1310116,-1.703519,0.9294845,0.6377033
0.2691906,0.06327854,-0.1322505,-1.674852,0.8111245,0.8759891
0.3052985,0.1050971,-0.02631294,-1.881442,-0.4252222,1.031266
0.3447845,0.08469624,-0.0004919294,-2.074039,-1.544926,0.840442
0.4650245,-0.1557765,-0.1869243,-1.85345,-1.436815,0.6467311
0.8198899,-0.3979164,-0.1628182,-1.480344,-1.019788,0.5115147
0.9458417,-0.4675969,-0.2638918,-1.189883,0.07834212,0.1389542
0.9851754,-0.4629645,-0.3108718,-1.090535,1.060189,-0.1455318
0.9511551,-0.3682307,-0.1533324,-0.8746955,1.128284,-0.1833738
0.7404024,-0.2251376,-0.1059742,-0.5707958,0.8216513,-0.04947337
0.7038985,-0.09292408,0.05323155,-0.4439061,0.1514486,0.2609583
0.805115,-0.06696011,0.08476874,-0.3730187,-0.0589844,0.4624506
0.8312212,-0.03569771,-0.04832189,-0.3204085,0.3641722,0.4217317
0.82153,0.08173027,-0.07438482,-0.5216563,0.7699389,0.2457067
0.7879831,0.132773,-0.03550641,-0.8816015,0.8770744,-0.03204979
0.7292527,0.1183268,0.09615381,-1.038482,0.5897756,-0.3587928
0.6232769,0.05296268,0.03502948,-1.138033,0.222687,-0.385564
0.6603177,-0.05634892,-0.2262833,-1.243389,-0.5066887,0.1932124
1.180126,-0.3316107,-0.5357735,-1.291022,-0.6518962,0.8728493
1.854128,-0.6957412,-0.8157831,-1.281535,0.4172239,0.8081753
1.997204,-0.8553858,-0.7778996,-0.9936881,1.064876,-0.1588696
1.829528,-0.9239437,-0.4987115,-0.4539284,0.9940094,-0.9639411
1.932749,-0.7965047,-0.1826236,0.4732225,0.8822458,-0.702921
1.909547,-0.4743329,-0.1848572,1.133944,1.174224,-0.4871841
1.394274,-0.2612165,-0.251435,0.463209,1.291499,-1.008934
0.8435808,0.0418409,0.1434971,-0.2370947,0.07257261,-1.070041
0.6272838,0.2353682,0.2932853,0.1241387,-1.612607,-0.4842317
0.8115785,0.09443097,0.04169467,0.2605295,-2.250607,0.09314848
0.9316102,0.05603685,-0.1445313,-0.03516022,-1.487898,0.4204052
0.791521,-0.001783998,-0.2250274,0.019136,-0.6903808,0.3169023
0.7376304,-0.1493731,-0.1198008,0.008332809,-0.6575043,0.3341525
0.5440509,-0.08461738,-0.1063105,0.04551412,-0.6530498,0.5351572
0.4565382,-0.07952201,-0.0890115,0.4210849,-0.9521236,0.4938457
0.6266235,-0.154763,-0.01552495,0.4696958,-1.070036,0.497807
0.6180568,-0.1631952,-0.1636164,0.4003258,-0.5772735,0.296835
0.7328712,-0.2515138,-0.1976656,0.565887,-0.2039373,-0.07775849
0.7682545,-0.2359575,-0.1668927,0.7913591,0.09355961,-0.2318293
0.6656452,-0.1083809,-0.1945091,1.039355,0.1308219,-0.2929895
0.873345,0.06966057,-0.2002361,0.9756544,0.3261631,-0.06207833
0.9383709,0.3034105,-0.2646204,0.7200623,0.6012781,0.2424419
0.863153,0.2396694,-0.2045542,0.4286387,0.0986731,0.3244998
0.8269025,0.06896759,-0.1344905,0.1453663,-0.3882986,0.3340675
0.6816582,0.005185624,-0.1413106,0.2966128,-0.4939447,0.3043063
0.6080725,-0.2912066,-0.1978321,0.3913601,-0.183599,0.194691
0.5938903,-0.5619749,-0.3217942,0.04390675,0.6451503,-0.4051597
0.8362289,-0.5512291,-0.2473536,-0.2644855,1.083847,-1.175586
1.411378,-0.4098771,-0.09296937,-0.4133383,0.6347089,-1.143284
1.881928,-0.1348526,-0.04521035,-0.3541303,0.08889262,-0.3357798
1.925665,-0.01601667,-0.1458917,-0.3705869,0.5066366,0.31655
1.589041,-0.133353,-0.2963917,-0.862423,0.7345167,0.2115127
1.386209,-0.2140711,-0.09413417,-1.245608,-0.079077,0.1160607
1.450136,-0.3098314,0.1317028,-1.025101,-0.6736494,0.4153169
1.505245,-0.3641109,0.01328096,-0.5849526,-0.8616506,0.3741352
1.488081,-0.3166292,-0.1215629,-0.3111061,-0.3727284,0.2590835
1.288239,-0.2990099,-0.2399877,-0.2438433,0.6273928,0.3451745
0.9198929,-0.2477429,-0.2785075,-0.3786511,0.967689,0.25708
0.5744448,-0.1256645,-0.1488564,-0.5829358,0.7870048,0.3231654
0.4099429,-0.04655534,-0.09497388,-0.7206922,0.3486841,0.4544098
0.3923145,-0.05526037,-0.04364143,-0.917703,0.08005119,0.2730109
0.4330987,-0.08863099,0.0511012,-0.9889106,0.1609379,0.0544383
0.5344991,-0.1168204,0.04211564,-0.8206785,0.2272788,-0.2516786
0.5575483,-0.1193749,0.01823095,-0.7159342,0.4586864,-0.5685597
0.5055285,-0.0614024,0.005082799,-0.6637599,0.6591271,-0.7234595
0.4134632,-0.03095862,0.003041413,-0.6742749,0.7209752,-0.850308
0.2717422,-0.09628923,0.02376456,-0.6985624,0.3066634,-0.7163463
0.261336,-0.1961986,0.01677976,-0.5528278,-0.6572398,-0.3719333
0.4490517,-0.2841175,0.01904946,-0.145103,-1.490654,0.03539186
0.814337,-0.4175128,-0.07626339,0.6286484,-2.288254,0.358165
1.245678,-0.5584938,-0.413688,1.134896,-2.366277,0.3121938
1.666263,-0.5931957,-0.8563579,1.046445,-0.8645907,0.266497
1.868425,-0.5826855,-0.9548162,0.976468,1.563747,-0.002595643
1.496217,-0.528498,-0.5110984,1.020928,2.94014,-0.7556322
1.140834,-0.4164912,-0.1791371,1.276997,1.2493,-0.9798652
1.38682,-0.199364,-0.3569553,1.841373,-1.834737,-0.5168799
1.716833,0.2751521,-0.5517428,2.007254,-2.759887,-0.2224414
1.878582,0.5293273,-0.5747443,1.405811,-0.1754451,-0.4227111
1.740652,0.1496998,-0.4669231,0.5644714,2.661077,-0.9164651
0.9939699,-0.1439595,0.07486642,0.2902043,1.045661,-1.164176
0.3517093,0.01536677,0.622728,0.8376348,-1.703784,-0.5830103
0.4079818,0.04318151,0.4095065,1.497985,-2.229942,0.4364578
0.4927929,-0.05653499,0.003148176,1.732217,-2.957352,0.7981809
0.4889441,-0.01469551,-0.137327,1.779441,-2.389167,0.759397
0.8724914,-0.1032924,-0.4643903,1.765177,-0.9822468,0.6679804
1.110748,-0.2374917,-0.5803186,1.708683,-0.2821883,0.0993103
0.983758,-0.2134361,-0.3105421,1.73308,1.249222,-0.270122
0.9296731,-0.1495022,-0.1976419,1.678574,1.351506,-0.4739822
0.6742854,0.03044645,-0.07818836,1.49514,1.069182,-0.7635525
0.4024558,0.224828,-0.01662235,1.254221,1.502951,-0.4416458
0.3753135,0.2615314,-0.09568329,0.9806549,0.4365016,-0.1464704
0.2492482,0.2251363,-0.03589025,0.8645238,-0.5871277,-0.01898134
0.32255,0.1459386,-0.07244461,0.844426,-1.770726,0.3954346
0.5091977,0.01809485,-0.1533729,0.8135508,-1.897834,0.4902263
0.6681223,-0.2278593,-0.2057158,0.7505819,-0.1011316,0.1217406
1.051499,-0.4218519,-0.3171939,0.4515173,0.8163154,-0.5034662
1.384108,-0.3313379,-0.2371613,0.08717501,1.18812,-0.8072735
1.786497,-0.1254726,-0.1120631,0.0003698738,0.2983592,-0.5216192
1.982946,0.02785449,-0.04591609,-0.02842208,-0.6593363,-0.1516622
1.703671,-0.04011035,-0.008866367,-0.3137214,-0.05837464,0.2619522
1.65006,-0.2872697,-0.02560982,-0.4008051,-0.4780441,0.3938626
1.722095,-0.4307842,0.0692811,0.144325,-0.9989822,0.2410338
1.651557,-0.4708285,0.03682458,0.7574904,-0.8067318,0.2554193
1.500924,-0.3684428,-0.1542995,0.8235812,-0.311591,0.1297308
1.123015,-0.1969944,-0.2261783,0.5020114,0.6976345,0.03252792
0.7536826,-0.1161452,-0.208292,0.2701307,0.771532,0.1851332
0.5322323,-0.002258478,-0.09800642,0.08502149,0.425778,0.2358681
0.3917544,0.04249501,-0.03199251,-0.1434782,0.3039954,0.3148038
0.3251558,0.007354578,0.002879843,-0.2161621,0.1022038,0.3411142
0.3182964,0.03836355,0.09621742,-0.3263202,0.01146807,0.07824885
0.4063253,0.02562461,0.08067846,-0.3861912,-0.1008685,-0.2165148
0.5031953,0.02198306,0.05646402,-0.3987338,0.01635935,-0.39767
0.5156695,0.01726685,0.009069139,-0.6379096,0.08424517,-0.3779187
0.4032109,-0.06905785,-0.06581989,-0.7338894,-0.06932129,-0.2063662
0.3225705,-0.1551465,-0.00440432,-0.5690383,-0.448353,0.01186366
0.5057836,-0.2736483,-0.02562289,-0.1820581,-1.059793,0.2697889
0.8179524,-0.3415448,-0.2386507,0.3227386,-1.035364,0.3266887
1.125876,-0.3317053,-0.4730394,0.5015193,-0.3485861,0.4288065
1.51197,-0.4414302,-0.505744,0.422558,0.626301,0.5545208
1.79785,-0.6600445,-0.4074527,0.4524967,1.720945,-0.03956262
1.680414,-0.7236085,-0.3955005,0.952333,1.824016,-0.7550097
1.443944,-0.4662591,-0.1528054,1.811817,0.01339795,-0.6089092
1.480009,-0.1644384,0.06889749,2.267776,-1.587598,-0.04321763
1.697187,-0.03635615,-0.4128645,1.911544,-0.1367571,0.1850466
1.873132,0.0947523,-0.8347187,1.232762,1.393775,-0.1989329
1.503484,0.1657208,-0.3182325,0.9027807,0.03211134,-0.6299273
0.7843681,0.06918036,0.2368175,0.8714225,-1.124453,-0.3940738
0.5919776,0.0169505,0.09914419,0.9807003,-1.409981,-0.06297399
0.5707846,0.001808984,-0.03655484,1.094917,-1.897527,0.05974298
0.4542421,-0.07574907,-0.05680252,1.206903,-1.577127,0.442684
0.5967442,-0.1186454,-0.2535745,1.531093,-1.60369,0.5509544
0.718827,-0.1724802,-0.3098502,1.651809,-1.405366,0.3079365
0.8365677,-0.2073673,-0.3170109,1.610521,-0.1062141,0.1573578
0.9005498,-0.1541628,-0.3195547,1.602961,0.4639722,-0.2608943
0.7221475,-0.111805,-0.1908607,1.428778,1.05345,-0.5727048
0.5878589,0.01601541,-0.1094607,1.36168,1.513737,-0.4894179
0.44418,0.182908,-0.02899307,1.127163,1.131303,-0.3593245
0.3268508,0.2143296,-0.003865315,0.8084309,0.8151835,-0.1270176
0.3570379,0.1735881,-0.02189954,0.8040491,-0.2255311,0.009459547
0.4608531,0.006689635,-0.06293555,0.5782735,-0.9585431,0.1054459
0.7874278,-0.2386216,-0.2722331,0.2441698,-0.5505668,0.1933035
1.299087,-0.3261187,-0.3599531,0.08130999,-0.4073498,0.01283385
1.80885,-0.2835588,-0.3071341,-0.03905402,-0.3327694,-0.1004377
2.019579,-0.2933765,-0.3238245,-0.01651245,-0.1503736,-0.1227634
1.884984,-0.3650374,-0.2782877,-0.04345425,0.3384387,-0.2995501
1.797487,-0.3696175,-0.1030331,-0.2156382,0.7874175,-0.3994403
1.729751,-0.2708492,0.1190901,-0.2063487,-0.3242079,-0.1346851
1.641746,-0.1611448,0.07777688,0.2468676,-1.568285,0.3113571
1.584732,-0.1931187,-0.2601475,0.6711949,-0.6766084,0.428392
1.399126,-0.2455509,-0.4739364,0.4153947,0.7962054,0.2978951
1.167758,-0.1291581,-0.3785561,-0.003466997,1.22953,0.2818598
0.7753599,-0.04667005,-0.1421072,-0.09391923,1.211844,0.3755249
0.3330224,-0.0115524,0.0004037272,-0.2905447,0.672805,0.533335
0.2406079,0.04406199,0.07590921,-0.5237522,0.07776448,0.6991365
0.2031613,0.02397353,0.08755625,-0.5577372,-0.3353429,0.7163325
0.2005977,0.02796824,0.04146402,-0.6649282,-0.9880913,0.4411356
0.4056984,0.005770452,0.07863018,-0.7466119,-0.9408404,-0.02866797
0.5723118,-0.06655713,0.04044149,-0.7471057,-0.7825768,-0.4333745
0.7447729,-0.1077509,-0.06009593,-0.7229205,-0.8025539,-0.5537284
0.739732,-0.155105,-0.1641149,-0.60769,-0.1260048,-0.4143557
0.5072942,-0.1378548,-0.2719529,-0.6114861,0.1677157,-0.2809334
0.4293943,-0.1361217,-0.1056359,-0.4838934,-0.3656762,-0.05037416
0.5223277,-0.2222925,-0.005013985,-0.1532549,-1.087563,0.2560812
0.8165238,-0.3635188,-0.3291073,-0.02344436,-1.123068,0.3747601
1.266416,-0.5428538,-0.6172526,0.1600696,-0.3953643,0.4883872
1.712494,-0.579889,-0.6561069,0.5650875,0.1768494,0.2775661
1.938269,-0.6241245,-0.6750065,0.9303503,0.8543365,-0.4532074
1.884799,-0.7571354,-0.587362,1.23459,1.244338,-0.7457651
1.915146,-0.6068139,-0.290757,1.821221,0.7728959,-0.3626611
1.830774,-0.2899415,-0.2146328,2.352489,0.2498794,-0.1456364
1.549479,-0.03950472,-0.2751972,1.952551,0.1172713,-0.4138385
1.281466,0.1913728,-0.1380134,1.340173,-0.3640131,-0.5926605
0.9730097,0.2384146,-0.1473922,1.127386,-1.288751,-0.3444218
0.9362597,0.198251,-0.1821517,0.8295482,-1.193609,-0.1029613
0.9289537,0.1520107,-0.1367704,0.8482338,-0.8145926,0.09446133
0.728392,-0.09833055,-0.1822534,1.127946,-1.060083,0.3146991
0.622509,-0.2668576,-0.1224755,1.402462,-0.9970968,0.3109296
0.5298342,-0.2724897,-0.1351192,1.879593,-1.152527,0.245161
0.5448405,-0.3751074,-0.1906326,2.171364,-1.14279,0.08265247
0.5287927,-0.4109556,-0.1762514,2.44312,-0.6493103,-0.1812399
0.4921368,-0.3514302,-0.2446581,2.584335,-0.2231432,-0.3299707
0.5604643,-0.2092841,-0.2424626,2.308523,0.7046839,-0.388914
0.4520351,0.08710992,-0.2589209,2.203281,1.273574,-0.2185196
0.3842209,0.2682108,-0.2126792,2.037529,1.08662,-0.03221631
0.3181442,0.2482942,-0.02507897,1.739888,0.4290368,-0.02142964
0.278672,0.09524957,-0.02816566,1.68685,-0.9907425,0.1477175
0.2135365,-0.3462509,-0.05552286,-2.235059,-0.8022263,-0.02160454
0.4904334,-0.4701823,-0.1848697,-1.214067,-2.286353,0.5332687
1.129911,-0.5105052,-0.3446493,0.07491956,-3.010919,0.7342414
1.713595,-0.7671106,-0.6769275,0.2336415,-0.2347894,0.3806754
1.845053,-1.103707,-0.8778444,-0.002699332,3.573297,-0.3044684
1.761184,-1.198399,-0.6293429,0.4357013,4.293855,-0.8960044
1.831449,-0.8427034,-0.2038159,1.570587,1.051519,0.1598407
1.857155,-0.2533091,0.2093444,2.16994,-1.601582,1.275755
1.7781,0.1845381,-0.2239565,0.6715962,0.7938293,-0.2947544
1.437672,0.1560707,-0.7720904,-1.48701,2.601817,-1.672663
0.6842114,-0.009081,-0.09648836,-1.105637,0.1378807,-0.6784221
0.2340114,0.1176464,0.3945979,0.2106154,-1.51486,0.1413558
0.2543982,0.068238,0.08810484,0.3087279,-1.976058,0.6642438
0.3037907,-0.04981044,0.0348923,0.7756123,-2.807116,1.498834
0.4798045,0.05700723,-0.07682313,0.8340694,-2.427445,1.36933
0.7708081,-0.03532229,-0.4130297,0.4123044,-1.874947,1.146515
1.064938,-0.1684738,-0.4072076,0.5436399,-1.056185,0.9327468
1.153548,-0.2262504,-0.2964223,0.1913994,0.9330839,-0.1082938
0.8530572,-0.2531385,-0.2221695,0.1796368,1.636105,-0.6734591
0.5375448,-0.1003828,-0.03147393,0.3045024,1.16531,-0.67428
0.3579646,-0.02029475,-0.02939762,0.1778131,1.285149,-0.6131513
0.2114916,0.03508002,-0.173577,0.5361007,1.366812,-0.224699
0.1488298,0.08193078,-0.1777874,0.4414922,1.168607,0.1197317
0.2112158,-0.01770441,-0.1396284,0.2332592,0.6939165,0.1900009
0.5903571,-0.0697606,-0.03845573,-0.3191438,-0.1322479,-0.2141962
1.276567,-0.1064326,0.1528465,-1.138354,-1.035879,-0.4079191
1.812841,-0.1354532,0.1036689,-0.8991159,-1.854627,0.3719247
1.932599,-0.3110201,-0.5085292,-0.860429,-1.351622,0.8660189
1.967507,-0.7240207,-1.089785,-1.427362,0.6759838,0.07216492
2.004684,-0.8551883,-0.5826339,-1.495564,1.603504,-0.7014207
1.722838,-0.6006027,0.1929572,-0.5132901,0.2716827,-0.08136451
1.284556,-0.3347881,0.03502671,0.5997251,-0.7460692,0.5555571
0.8316177,-0.1754039,-0.2514531,0.07354372,0.6062531,0.437862
0.444454,0.01427345,-0.31522,-0.739485,2.188555,0.8413482
0.257719,0.1922913,-0.3499532,-0.9521519,2.112741,1.253108
0.08864651,0.1831257,-0.1232305,-1.739688,2.164846,1.227886
0.09544467,0.1405446,-0.05594628,-2.130564,2.231154,0.9523313
0.2324832,0.09213576,0.0712828,-1.930166,1.385211,0.04622827
0.3362736,-0.03294369,0.3784218,-1.907299,0.78419,-0.6866501
0.5806879,-0.09405505,0.3373859,-1.362138,-0.2596713,-0.8753802
0.639453,-0.1055807,0.2601864,-0.9901755,-1.476919,-0.9035104
0.5582348,-0.1269374,0.0776787,-1.370352,-1.484804,-0.8479654
0.6167567,-0.1774576,-0.1768997,-1.446234,-1.007027,-0.5438858
0.6399035,-0.2724688,-0.2101679,-1.144719,-0.7197762,0.06295315
0.7337442,-0.4350314,-0.4512366,-0.4364876,-1.128492,0.3121443
0.9907081,-0.6054509,-0.7177495,0.5106293,-1.441393,0.7585253
1.484277,-0.6770968,-0.7960247,0.6568636,-0.4860854,1.412473
1.914614,-0.7844665,-0.8250015,0.09860307,1.355904,0.6209072
1.750997,-0.7968372,-0.5048085,-0.1402918,2.6718,-0.695384
1.449621,-0.5887118,0.07793658,0.4360656,1.398442,-0.6839312
1.378366,-0.4322279,0.2295899,1.514064,-0.1123167,0.4531543
1.357041,-0.1462059,-0.3296761,1.921781,0.8803448,1.176256
1.390079,0.2109201,-0.7765868,0.1267068,1.129041,-0.1336467
1.252649,0.1278359,-0.5053058,-1.895421,0.120148,-1.562917
0.7890787,-0.04515932,-0.05612027,-0.8346217,-0.3661044,-0.5903131
0.1730194,-0.02411182,0.191813,0.739236,-1.405909,0.3361172
-0.1266679,-0.1443558,0.2237767,0.9390206,-1.895822,0.1423606
0.1717487,-0.1845817,0.02605976,1.596926,-1.750648,0.5529536
0.465609,-0.08522701,-0.07257129,1.583442,-2.436425,0.389366
0.6555957,-0.1394576,-0.08016203,1.236691,-2.181362,-0.0757301
0.9496424,-0.02982772,-0.2733031,1.519058,-0.6794412,0.2089448
0.9922608,0.1319516,-0.4354372,0.760015,1.182621,-0.088445
0.9043824,0.03466026,-0.4520114,0.09285039,2.425085,-0.2302754
0.6098638,0.03633963,-0.2861525,0.07361511,1.831897,0.1442882
0.2502527,0.07112533,-0.06828188,0.07598997,1.558694,0.2252112
0.2361533,0.01272337,-0.09124281,0.4370451,1.404634,0.3487359
0.2049164,-0.03972374,-0.05911244,-0.07964657,-0.1807054,0.0984338
0.4656182,-0.1989104,0.006896656,-0.8049602,-0.9765075,-0.2219735
1.174845,-0.2768866,-0.07337519,-0.8329791,-1.215047,-0.1985813
1.825353,-0.2577593,-0.1603603,-0.6319093,-1.570929,-0.2309826
2.125131,-0.338524,-0.4134945,-0.2277393,-0.4699432,-0.2452868
1.935545,-0.4375737,-0.514132,-0.8473237,0.7004267,-0.509798
1.920205,-0.4817632,-0.04074081,-1.208643,-0.1353472,-0.5718162
1.879243,-0.4349192,0.3940394,0.2782076,-1.129057,0.1820031
1.357471,-0.3407856,0.02341065,1.30793,-0.3883459,0.8828703
0.987268,-0.20535,-0.4933069,0.5550128,0.6384554,0.7133808
0.5984529,0.0295535,-0.3467991,-0.6461979,1.667261,0.5177647
0.2655518,0.2022779,-0.2354159,-1.232801,2.302313,1.048453
0.2091284,0.2091031,-0.2315884,-2.003189,1.54533,1.146128
0.08047231,0.1918856,-0.03402103,-2.40748,1.327085,0.7685851
0.1122936,0.1733918,-0.02123335,-1.875033,0.9410085,0.4885787
0.1859921,0.06755151,0.1018055,-1.994661,-0.1821286,-0.1330163
0.179762,-0.05242137,0.1763504,-1.877549,-0.2745348,-0.3220377
0.2376749,-0.1352549,-0.009892341,-1.312526,-0.5561035,-0.09895286
0.2042061,-0.1993457,-0.04164154,-1.211732,-0.6206819,-0.06946328
0.2906834,-0.2642964,-0.1195764,-0.8029057,-0.3930303,0.08832111
0.5715397,-0.3960253,-0.2190507,-0.7999963,-0.9399714,-0.05873656
0.8395026,-0.5046096,-0.3443996,-0.773335,-0.7988116,-0.1351773
1.087448,-0.502976,-0.6253747,-0.2845441,-0.5102669,0.5191607
1.517667,-0.5518212,-0.7119835,-0.2650194,0.2323439,0.933932
1.940323,-0.6476525,-0.613799,-0.04229424,2.02617,0.2208477
1.755079,-0.6041267,-0.3391604,0.2520201,2.11799,-0.5657056
1.587335,-0.431066,-0.01082659,0.858949,-0.2306824,-0.1649881
1.900311,-0.04887507,-0.03588775,1.430924,-1.981356,-0.01543083
1.843253,0.3460596,-0.2485009,-0.006092654,0.05116983,-0.7656815
1.432789,0.2350838,-0.2672627,-1.71762,2.158743,-0.9121788
0.9216433,0.06497769,-0.01513452,-1.469244,0.0291443,-0.4662151
0.4893564,0.1621925,0.2058504,-0.7907168,-1.608509,0.1545144
0.5543368,0.01005751,0.08574883,-0.5997621,-1.354353,0.7524305
0.5990819,-0.12632,-0.1635842,-0.04670066,-1.965441,1.063645
0.5879651,-0.1378541,-0.2975928,0.1816828,-1.48411,1.137343
0.7211465,-0.2963966,-0.3926759,0.03460389,-0.3490449,0.73093
0.6140124,-0.2420032,-0.3402568,0.528249,-0.1056018,0.3470991
0.5674742,-0.1437391,-0.1822553,0.5707621,0.3780039,0.02055575
0.6367958,-0.1167984,-0.2092508,0.4695027,0.778102,-0.4582894
0.674687,0.1333605,-0.242478,0.685881,1.205695,-0.3626334
0.7791327,0.3502619,-0.2994173,-0.02030298,1.672785,-0.05588387
0.7219874,0.425448,-0.431989,-0.889063,1.420346,0.1657497
0.6411347,0.2265964,-0.3745397,-1.616363,1.000518,0.2249621
0.6514803,-0.2149911,-0.3826056,-2.098861,0.6937277,-0.08599579
0.7807864,-0.3743272,-0.4078853,-2.088255,0.9718106,-0.1519321
1.391425,-0.3431489,-0.1650913,-2.267397,1.485297,-0.2906326
2.091745,-0.3808583,0.02765932,-2.069272,1.231229,-0.5897523
2.06261,-0.3749265,-0.02231157,-2.160809,1.265366,-0.5447373
1.757545,-0.2391804,-0.06469835,-3.025551,1.100977,-0.3316835
1.798081,-0.1066539,0.1338492,-3.368873,-1.017011,0.1315784
1.615483,-0.1845895,0.2021139,-2.689335,-2.659792,0.5379226
1.377154,-0.2915929,-0.119888,-1.690919,-0.3357714,0.6296895
1.262831,-0.3296823,-0.3694807,-2.059158,2.945637,0.6149317
0.8074869,-0.3306524,-0.2626278,-2.469376,2.564262,0.5761218
0.6871381,-0.2053465,-0.01813856,-1.910964,1.172762,0.6432396
0.5993458,-0.06185276,0.06573834,-2.329175,0.5666996,0.6524026
0.2655525,0.07205492,0.05495911,-2.574843,-0.9496808,0.705501
0.5769016,0.09494791,-0.04583961,-2.401893,-1.267317,0.8265848
0.7225323,-0.05038603,-0.2676449,-2.665869,-0.4540041,0.7538547
0.642115,-0.1568126,-0.3388366,-2.407335,0.01656977,0.5471562
0.827658,-0.2147773,-0.3090032,-2.396646,1.160484,0.09203401
0.6632546,-0.1908253,-0.1855581,-2.380264,1.558008,-0.3742364
0.6443451,-0.1190033,-0.02101738,-2.125438,1.122931,-0.5178984
0.7028778,-0.09628375,-0.02067718,-2.343679,1.084495,-0.546776
0.5750268,-0.05774398,0.01020471,-2.225001,0.7489786,-0.5258883
0.6240049,-0.09287891,0.1068378,-2.129217,0.2685051,-0.424076
0.516428,-0.1352152,0.2216846,-1.93885,-0.4021167,-0.1882518
0.5700677,-0.1264281,0.2453584,-1.131312,-1.25002,0.171427
0.7812258,-0.2078532,-0.002838433,-0.6108616,-1.61044,0.3355327
0.80886,-0.2909899,-0.4144992,-0.5574641,-1.40445,0.2881932
1.032546,-0.4318825,-0.8594592,-0.7989182,-0.9054781,0.513532
1.440087,-0.7431612,-1.067872,-0.8697539,0.1900042,0.7451113
1.82579,-0.9543106,-0.9319823,-0.6863058,2.523233,0.1353519
1.67985,-0.840271,-0.4278117,-0.446868,3.529429,-0.7270336
1.331037,-0.5932094,0.2533036,0.2789718,0.8257711,-0.6899606
1.570685,-0.3450101,0.2138124,0.8689661,-1.414762,0.003399286
1.714701,0.004783787,-0.4568687,0.6586013,0.2773229,0.3361448
1.635851,0.1380894,-0.6810225,-0.3792431,1.409121,-0.3117796
1.282147,0.01453755,-0.2396874,-1.418282,-0.6922064,-0.9831717
0.4339326,0.05752597,0.1988653,-1.013981,-2.095685,-0.4941108
0.25103,0.05780401,0.01679686,-0.2567984,-2.163018,0.07638907
0.4465348,-0.08859714,-0.2229415,-0.1208754,-2.258926,0.2104922
0.3504761,-0.1821231,-0.1416785,0.5119649,-1.944051,0.7199723
0.6548461,-0.255398,-0.3613405,0.9645135,-1.78497,0.7787772
0.9567842,-0.2662987,-0.4635385,0.7914589,-0.6803804,0.3525448
1.019854,-0.2730512,-0.2868895,1.015085,1.058053,0.2191436
1.038282,-0.1788339,-0.2979938,1.024253,1.298564,-0.2069901
0.7509742,0.04112619,-0.1227839,0.6968194,0.96569,-0.4360526
0.5344911,0.1236907,-0.0255361,0.6659016,0.7215366,-0.1839567
0.4611907,0.1455879,-0.1227861,0.5816345,0.6157925,-0.1177268
0.4322923,0.13014,-0.05994517,0.611364,0.5636382,0.1508854
0.4731227,0.04219392,-0.1107005,0.5994682,0.06260037,0.3946203
0.4991315,-0.0571747,-0.1489778,0.2478539,-0.4040501,0.2202486
