accx,accy,accz,gyrox,gyroy,gyroz
0.4027108,-0.1986274,0.04428417,0.0353347,-0.1715691,-0.388768
0.4812236,-0.2558785,0.05052863,0.4823705,-0.4545694,-0.3209872
0.6810417,-0.30099,0.03380911,0.774583,-0.4783389,-0.2300301
0.9118313,-0.3959256,0.02783277,0.899739,-0.09088761,-0.04058612
0.9470393,-0.4512996,-0.02635738,1.078133,0.3443249,0.2395871
1.115723,-0.3596271,-0.08289374,0.8269415,0.7766668,0.4952018
1.380767,-0.3070087,-0.07788282,0.409895,0.9076147,0.2535059
1.600038,-0.1972098,-0.03019784,0.225477,0.5469923,-0.2993698
1.755014,-0.1692232,0.1479252,0.08392014,0.2522973,-0.5363793
1.839197,-0.2210369,0.3617555,0.09786389,0.242974,-0.3110929
1.828788,-0.09097567,0.2822697,-0.04229395,0.1067115,0.03651935
1.539867,-0.1175976,0.1373337,-0.3198911,-0.1990262,-0.02102724
1.278829,-0.1848026,0.2229814,-0.1967359,-0.2320863,-0.02702898
1.339256,-0.1335661,0.2204736,-0.01060317,-0.2113078,0.1604157
1.253473,-0.2173436,0.1679784,0.150601,-0.3922436,0.110863
0.8785143,-0.2166385,0.1884897,0.5273763,-0.4108034,0.3159448
0.6998948,-0.1427541,0.0709123,0.6498387,-0.3861211,0.4228648
0.7290503,-0.08981396,0.0274183,0.5780096,-0.3724507,0.1838175
0.6505351,-0.007755183,0.08394857,0.6955041,-0.2798348,0.25693
0.544605,-0.003573835,0.04921926,0.6810895,-0.2567961,0.3088753
0.4813277,0.03989417,0.02947835,0.4687818,-0.08747921,0.3072178
0.4634128,0.04948377,0.008188619,0.2130605,0.1573045,0.2694371
0.5470365,-0.001496588,0.05517947,-0.02652184,0.2097642,0.03546579
0.631095,0.07360926,0.1215606,-0.1413748,0.06572154,0.05873696
0.7087314,0.0827806,0.007419017,-0.5084102,-0.1535182,0.03296755
0.7628906,-0.09898956,-0.1155451,-1.068778,-0.1724901,-0.1479542
0.8588384,-0.4123998,-0.09866313,-1.13999,-0.06708331,-0.2796942
1.168765,-0.6740475,0.06757972,-0.6899414,-0.01582517,-0.5380712
1.528905,-0.6216408,0.244172,-0.2556304,0.004321276,-0.6139587
1.806077,-0.4351648,0.2327646,-0.3234849,0.09383268,-0.5461618
1.905714,-0.3500682,0.2283153,-0.4496267,0.2503,-0.4410549
1.806236,-0.3588999,0.3379938,-0.169583,0.1734146,-0.226495
1.766021,-0.383175,0.3479752,-0.05047231,0.06013019,-0.08260766
1.58513,-0.273572,0.2846971,-0.06973679,0.148914,0.2215077
1.150605,-0.1248085,0.2632585,-0.06231023,0.08201626,0.5538094
0.9422046,-0.06550714,0.2355914,-0.3042533,-0.1111419,0.6014231
0.8941269,-0.06048167,0.2018973,-0.5076248,-0.2434818,0.6280623
0.7244585,-0.1176175,0.155795,-0.5629363,-0.2739312,0.600076
0.6336728,-0.1387815,0.1206847,-0.5671306,-0.1385491,0.4183768
0.5985085,-0.1173391,0.1135375,-0.5627397,0.007035222,0.2492178
0.4775103,-0.1133757,0.06406402,-0.6275085,0.1527581,0.0261169
0.4177188,-0.09543494,0.05331269,-0.6632475,0.2294942,-0.2140971
0.3762702,-0.1426049,0.06878195,-0.7138487,0.1751126,-0.2536044
0.3089751,-0.2073494,0.04313686,-0.5593338,0.1422264,-0.1867012
0.4235933,-0.2283429,0.06042637,-0.1841154,-0.1239259,-0.1747998
0.5987592,-0.2842736,0.06017861,0.04619002,-0.4400957,-0.2130257
0.6615032,-0.3498672,0.04492407,0.3040899,-0.2848243,-0.2416961
0.7390944,-0.3898314,0.04189834,0.5726478,-0.04082557,-0.14355
0.8837241,-0.3862478,-0.03329725,0.6356131,0.1424584,0.139466
1.164505,-0.3747626,-0.09807649,0.5868661,0.5715774,0.5129712
1.433929,-0.3715755,-0.09228931,0.4542507,0.8241115,0.5416838
1.421681,-0.2997785,-0.02085851,0.3409125,0.5356634,0.01094703
1.426893,-0.1843121,0.1840218,0.3733064,0.2096488,-0.3847736
1.700023,-0.04285868,0.3982488,0.386862,0.2212376,-0.2161335
1.894872,0.1063594,0.3286116,0.06880229,0.244227,-0.06779592
1.69911,0.1482929,0.1716112,-0.4702817,0.102814,-0.174498
1.355541,0.06014098,0.2341474,-0.8819982,-0.04449521,-0.06247518
1.200468,-0.08518247,0.197504,-1.006327,-0.1758588,0.1339611
1.047259,-0.2203608,0.1022957,-0.7356047,-0.2644506,0.1382552
0.87025,-0.2443714,0.1410437,-0.3353521,-0.2478286,0.2101939
0.8446112,-0.1205809,0.05710014,-0.02425056,-0.1368679,0.2518362
0.7733588,0.009514708,0.03882372,0.1703082,0.02030545,0.2500742
0.656688,0.07937759,0.08708195,0.06028408,0.1570217,0.2546834
0.5429367,0.1146362,0.01843683,-0.09406349,0.1967563,0.1451611
0.431316,0.08972666,0.03584528,-0.2126372,0.1753727,0.2140194
0.4864772,0.06540999,0.04475734,-0.4887404,0.2712084,0.3011617
0.5967043,0.04222097,0.08688717,-0.6131531,0.4187649,0.2533866
0.7229179,-0.003583296,0.1793778,-0.6519284,0.4527156,0.2504158
0.7998178,-0.01141855,0.09825339,-0.8356533,0.3448424,0.1516218
0.7145598,-0.07784059,-0.04434806,-1.003365,0.09826685,0.1343085
0.725612,-0.2511838,-0.169349,-1.279116,-0.07599999,0.05866275
0.7889501,-0.4331454,-0.1675916,-1.537206,-0.194273,-0.2969217
0.8777694,-0.5525767,-0.07269844,-1.3121,-0.5082117,-0.5730088
1.308051,-0.5421165,-0.02921635,-0.988754,-0.6937601,-0.6627342
1.870915,-0.5152494,0.09306221,-1.012779,-0.203815,-0.494566
2.005484,-0.5396752,0.1206943,-0.9323356,0.5172768,-0.3294327
1.79865,-0.43325,0.1010555,-0.7528688,0.6219642,-0.4631196
1.794936,-0.2938594,0.270929,-0.820286,0.6383692,-0.4719344
1.772558,-0.294953,0.2931143,-0.8401088,0.9085638,-0.256203
1.447216,-0.2511184,0.2094173,-0.8402151,0.7242385,0.004780921
1.103722,-0.07950059,0.2158287,-1.07264,0.4759986,0.2833943
0.8379592,0.04310726,0.1327974,-1.464968,0.444395,0.4647431
0.8366103,-0.01528106,0.0980474,-1.832508,0.2616388,0.5487215
0.7876328,-0.1316849,0.09912824,-1.841025,0.2164176,0.5521408
0.5175211,-0.1579223,0.03997474,-1.764908,0.2459545,0.5184121
0.5922612,-0.1797993,0.07663588,-1.868164,0.3435934,0.397599
0.5736086,-0.1841087,0.07409109,-1.707829,0.6278939,0.03279361
0.4168844,-0.1480222,0.03853609,-1.503732,0.6965185,-0.3449598
0.5203114,-0.1220543,0.05649946,-1.467726,0.5725093,-0.4600238
0.4367376,-0.08361208,0.0151458,-1.200547,0.3506276,-0.3869491
0.5142838,-0.1182716,0.02591446,-0.9212383,0.158458,-0.3420297
0.792395,-0.2169919,0.08403305,-0.6978041,0.3294217,-0.4120642
0.7966645,-0.2927922,0.1553653,-0.1635214,0.4965215,-0.4505096
0.7723457,-0.2580673,0.2877763,0.2564879,0.2928641,-0.4884966
0.7257075,-0.1139365,0.2753183,0.1299038,0.1496859,-0.4661811
0.8642763,-0.1191605,0.08112765,-0.1395292,0.3597369,-0.07852116
1.272905,-0.3046192,-0.09525182,-0.2678184,0.7132021,0.3388999
1.534109,-0.5360622,-0.1098435,-0.299799,0.9399494,0.2762398
1.562472,-0.6191018,-0.02519425,-0.2689326,0.5813748,-0.03663057
1.559173,-0.4587418,0.04724029,-0.305646,0.05326205,-0.2128649
1.797073,-0.3575947,0.2477949,-0.3749904,0.2669333,-0.3067776
1.898209,-0.2812519,0.4015013,-0.5994535,0.4000214,-0.4492791
1.66433,-0.1664398,0.2990207,-1.079858,0.08721406,-0.5141851
1.465791,-0.1886136,0.2691048,-1.254281,-0.00971858,-0.4242983
1.260272,-0.2115398,0.2743966,-1.036395,-0.2851593,-0.3186448
1.178228,-0.2330142,0.1257542,-0.8107471,-0.3995585,-0.2911879
1.075329,-0.2322785,0.03098243,-0.5536223,-0.2142004,-0.1281065
0.8888325,-0.1500546,-0.007240245,-0.4137624,-0.3698554,0.1816213
0.9524067,-0.09473268,-0.0234459,-0.4905494,-0.2563218,0.247686
0.8665039,-0.02133487,0.007990073,-0.5056569,0.02896589,0.1292131
0.6839772,-0.01681338,0.03244678,-0.4024026,0.1093931,0.04073202
0.6221715,-0.05126784,0.1054361,-0.3252086,0.2500017,-0.02319094
0.4329334,-0.006113584,0.1244459,-0.2466467,0.1102831,0.005280404
0.3608375,0.007539574,0.02058597,-0.2483874,0.04193147,0.03869416
0.3931379,0.04229835,-0.06891861,-0.4906016,0.199529,0.03559159
0.4467559,0.06292665,-0.1005967,-0.7500706,0.3095484,0.01850013
0.6087964,0.02031075,-0.008868298,-0.8133244,0.5926931,-0.06966286
0.7082801,0.03678709,0.1552205,-0.7195474,0.5291476,-0.1616998
0.8030353,0.08342312,0.2000545,-0.7226353,0.2341836,-0.1943773
0.8621501,0.1091964,0.08769019,-1.035243,0.2144826,-0.1851075
0.865856,-0.03378324,-0.07319423,-1.37347,0.1948505,-0.2282312
1.031214,-0.4068328,-0.1022899,-1.428234,0.3338932,-0.4119347
1.27122,-0.7319093,-0.03628498,-1.16832,0.399487,-0.703637
1.393717,-0.7909351,0.02313705,-0.82402,0.1074208,-0.8937673
1.494464,-0.6443776,0.1633225,-0.592217,-0.1235527,-0.845467
1.741037,-0.5627855,0.2807422,-0.4779757,-0.1894935,-0.7507015
1.937592,-0.5846108,0.2735697,-0.5095828,-0.1506582,-0.636829
1.906836,-0.4795141,0.2681665,-0.3740797,0.009489743,-0.3879425
1.732727,-0.2515112,0.2844708,-0.1138689,0.3535137,-0.1199433
1.433669,-0.05363768,0.2702699,-0.1800065,0.5433052,-0.01920907
1.186965,-0.007137889,0.2304002,-0.5742805,0.4018011,-0.08320455
0.9585215,-0.04154545,0.1885199,-1.155087,0.3462657,0.01657108
0.6921784,-0.06804432,0.179446,-1.352704,0.1086449,0.2712588
0.7004039,-0.2186819,0.1950335,-1.046135,-0.2424068,0.4117797
0.6893706,-0.3264721,0.1694285,-0.9384787,-0.2749843,0.5141415
0.4900172,-0.2581835,0.104987,-0.9094214,-0.3973341,0.4906246
0.4878653,-0.2184949,0.06704609,-0.7491446,-0.5187714,0.3435256
0.5380687,-0.1617392,0.07451619,-0.6181048,-0.3019424,0.1621892
0.5553834,-0.1114137,0.1108458,-0.3911539,-0.005294571,-0.1696436
0.5685688,-0.1517264,0.1228103,-0.2939841,0.1223845,-0.3891337
0.4993678,-0.1625083,0.1251102,-0.3335455,0.1164409,-0.412953
0.508276,-0.1852655,0.1493508,-0.02307271,-0.01985568,-0.4038547
0.551262,-0.2052898,0.1407704,0.4883154,-0.4174879,-0.3237079
0.6618132,-0.1871552,0.1077376,0.7293188,-0.6603377,-0.2759624
0.8592984,-0.2088395,0.07606539,0.7506419,-0.5395847,-0.2431583
0.9489585,-0.2196232,0.07282517,0.8467811,-0.3215967,-0.2122762
1.062847,-0.238708,0.05867454,0.9610042,0.1419567,-0.1619924
1.285771,-0.2716198,-0.0705352,0.8170103,0.6395176,0.03630467
1.438474,-0.2440481,-0.1777616,0.4508861,0.760927,0.1235478
1.38814,-0.2353101,-0.09262991,0.02472314,0.5998822,-0.02714523
1.373054,-0.2921602,0.1093472,-0.2014731,0.356025,-0.2094809
1.584787,-0.3422303,0.2637538,0.1514039,0.1409224,-0.2821848
1.674335,-0.323275,0.2870558,0.6001158,-0.001348142,-0.2208442
1.564554,-0.2248882,0.2469525,0.5174813,-0.0408096,-0.188322
1.398793,-0.0929128,0.2351764,0.3608492,-0.1104248,-0.1994146
1.220064,-0.03129022,0.2297758,0.2667654,-0.1733942,-0.1412117
1.101932,-0.1026657,0.19781,0.09233261,-0.1612326,-0.03221572
0.9431316,-0.1508996,0.1790939,0.2711987,-0.2631066,0.1079713
0.800426,-0.08951353,0.1279533,0.5816399,-0.3235366,0.2674159
0.7088432,-0.04551032,0.04387534,0.6894748,-0.3374793,0.405784
0.6436527,-0.01096106,0.0316866,0.7784081,-0.4124786,0.4020218
0.6302104,0.02001479,0.01101382,0.7249459,-0.3683494,0.2588393
0.5352931,0.004960599,-0.02686009,0.624562,-0.2629894,0.1857586
0.5344597,0.01728077,0.02908681,0.5483537,-0.04672697,0.2277911
0.6519811,0.03691106,0.1408201,0.3259826,0.2097933,0.2442528
0.6842564,0.04768242,0.2231153,0.2107498,0.208189,0.167282
0.7435609,0.08441607,0.1572544,0.1281161,-0.03478434,0.1087065
0.8146898,0.06187391,-0.01181707,-0.2054374,-0.3520196,0.1412865
0.9330383,-0.1527806,-0.1121724,-0.5360972,-0.3409334,0.09651809
1.101168,-0.5389066,-0.132453,-0.5470722,0.02828979,-0.1822151
1.154015,-0.7167999,-0.06436297,-0.1117515,0.1826506,-0.5656556
1.226579,-0.5553164,0.1082199,0.4680133,-0.1235285,-0.7163224
1.4609,-0.4224967,0.282155,0.6199208,-0.500918,-0.6377765
1.708305,-0.3613371,0.2843879,0.4735608,-0.4383237,-0.6208956
1.725891,-0.3252085,0.2083519,0.5208765,-0.2712173,-0.4908833
1.70987,-0.3467118,0.2750144,0.5988073,-0.1945553,-0.05637746
1.741229,-0.2460742,0.2788092,0.5122534,0.1369245,0.3989757
1.35571,-0.1206756,0.2057957,0.3792747,0.164035,0.5859124
0.8352862,0.01362444,0.2303983,0.06944243,-0.1039788,0.5109037
0.6905066,0.1624271,0.1860985,-0.2724821,-0.133444,0.5134764
0.7238834,0.02878708,0.1769898,-0.4123988,-0.2895048,0.584254
0.6644871,-0.122885,0.2050146,-0.4833213,-0.3610384,0.508594
0.53312,-0.1169632,0.1313533,-0.463977,-0.177987,0.4731362
0.5813528,-0.1514363,0.1291974,-0.4289331,-0.04757708,0.2800685
0.589316,-0.1150087,0.09579839,-0.4170899,0.1317158,-0.1063586
0.4606519,-0.1421932,0.04276487,-0.3452099,0.07473361,-0.1763706
0.5015397,-0.212979,0.05828752,-0.1957809,-0.2496672,-0.05414871
0.5183896,-0.2158128,0.0182732,0.2009397,-0.45088,-0.05504541
0.6498024,-0.3464733,0.0621267,0.5981974,-0.4326838,-0.1452874
0.8745697,-0.3888387,0.1475015,0.8797783,-0.2507349,-0.1800121
0.8169064,-0.2963885,0.1624357,1.150203,-0.1030901,0.03160716
0.8840586,-0.2673195,0.1154839,1.046502,0.2339052,0.4102644
1.165983,-0.250498,-0.01559597,0.7638687,0.591379,0.6109511
1.347468,-0.2549494,-0.0324838,0.5786156,0.4320189,0.4165423
1.433331,-0.255188,0.04589358,0.4576041,0.1955568,0.1059098
1.589951,-0.2730587,0.1588303,0.5454681,0.1427398,-0.01155039
1.883848,-0.2505702,0.3131217,0.503846,0.2642434,-0.0399859
1.839157,-0.114885,0.2689869,0.2271099,0.487911,-0.1817848
1.387991,0.01707186,0.2002363,-0.1174613,0.2731529,-0.411362
1.086205,0.08464575,0.2866138,-0.3859531,-0.06385558,-0.2828529
1.100647,-0.03264771,0.2722632,-0.1630175,-0.1352022,0.02456867
1.1606,-0.1735774,0.199276,0.1254383,-0.2147484,-0.01516247
0.9615373,-0.1193448,0.1427149,0.1935405,-0.2234306,0.0685693
0.772963,-0.05175858,0.04971422,0.3466409,-0.2210663,0.2949004
0.7721948,0.0206747,0.02695945,0.2659678,-0.2060911,0.2948473
0.6828345,0.08721559,0.03260717,0.1496518,-0.05840299,0.335825
0.6130851,0.08786072,0.02376692,0.1840858,-0.03291436,0.3698503
0.5499657,0.1122016,0.03384888,-0.04619263,-0.03288465,0.4116733
0.4900658,0.08914814,-0.001612494,-0.3051607,0.08390545,0.4893586
0.6105462,0.04368393,-0.005820642,-0.4992404,0.2629358,0.420766
0.7233256,0.0514692,0.09355305,-0.6805928,0.4424885,0.3070696
0.7884318,0.08593957,0.1808595,-0.7469682,0.3532115,0.02265893
0.7978493,0.1608948,0.1475992,-1.015293,0.1924735,-0.2859705
0.7717499,0.1506031,0.05554795,-1.285724,0.1667628,-0.2719494
0.86532,-0.07211832,-0.02459508,-1.225585,0.1176057,-0.2378764
1.075556,-0.487399,-0.1545127,-1.149768,0.3421858,-0.4735085
1.446699,-0.8891024,-0.1720828,-1.015506,0.6430088,-0.8655227
1.719588,-0.9522982,-0.02402784,-0.7579506,0.3973344,-1.128498
1.78467,-0.7487028,0.07919011,-0.7660192,0.05256695,-1.096781
1.891187,-0.5740348,0.1866001,-0.848016,0.03366573,-0.8826297
1.942651,-0.3852535,0.2388442,-0.7767466,0.1106004,-0.5621569
1.947866,-0.1197939,0.2149971,-0.9455102,0.3681183,-0.1733895
1.801398,-0.01984188,0.2224399,-1.295098,0.6313819,0.02069937
1.416524,-0.09634106,0.1332635,-1.648134,0.5630848,0.02450833
1.19324,-0.1181617,0.09935277,-1.886139,0.4353207,0.2156095
1.016381,-0.2042264,0.1717357,-1.671853,0.3126321,0.4618697
0.715966,-0.3008549,0.1550569,-1.475645,0.104037,0.5442323
0.612685,-0.2226915,0.106116,-1.524728,0.09553312,0.5497661
0.6056232,-0.2075538,0.01035659,-1.43668,0.2025545,0.3670432
0.4937964,-0.211652,-0.02476862,-1.393106,0.1928135,0.1058827
0.4442132,-0.1783903,0.07604375,-1.2234,0.3343308,-0.0805556
0.4797329,-0.2219656,0.1441927,-0.8400852,0.5576027,-0.3478488
0.428407,-0.1454851,0.1849781,-0.6217681,0.4925754,-0.6466187
0.3390214,-0.05492784,0.1837183,-0.5425194,0.2689343,-0.7375018
0.3473868,-0.06524407,0.1469073,-0.5681363,0.06825866,-0.6299009
0.4588477,-0.06536897,0.1203628,-0.5177759,-0.009777961,-0.5597236
0.6526695,-0.09602534,0.08964393,-0.3598782,-0.003027155,-0.4408296
0.7756708,-0.09914099,0.08938957,-0.2807435,-0.05806057,-0.2000917
0.7702965,-0.1293895,0.08708441,-0.1876478,-0.04584259,-0.1206159
0.7325233,-0.2006569,0.1550155,0.02939263,-0.05856843,-0.1491042
0.6929525,-0.2139062,0.2333593,0.4769307,-0.08505822,-0.1287885
0.8502013,-0.2532171,0.06308386,0.6028629,0.07302129,-0.0156957
1.291251,-0.3559671,-0.2091874,0.227303,0.2710328,0.3984458
1.667874,-0.521375,-0.2895139,0.1474613,0.425169,0.7165669
1.645395,-0.5729578,-0.1551811,0.2785328,0.3184752,0.231574
1.534407,-0.4056539,0.07226459,0.3549575,0.117015,-0.3511027
1.743462,-0.2527221,0.2502145,0.382678,0.1740557,-0.1582668
1.833311,-0.1767887,0.3085817,0.2293326,0.05859045,-0.08332006
1.597538,-0.1693479,0.3060487,0.06961449,-0.1492413,-0.3493598
1.37257,-0.2115859,0.3084519,-0.1109827,-0.2565946,-0.2381843
1.163492,-0.212022,0.2385621,-0.1493202,-0.5456069,-0.2658679
1.050479,-0.2162999,0.113881,0.04113682,-0.6803256,-0.3663108
0.988621,-0.1802485,0.0257475,0.2287026,-0.6516465,-0.1302257
0.8885377,-0.07435014,-0.03856372,0.4406394,-0.7313846,0.04203142
0.8561587,-0.006404795,-0.04115738,0.4481444,-0.7404501,0.2991511
0.7258945,0.001438645,-0.02757842,0.2450045,-0.7149194,0.4601934
0.5874049,-0.005247411,-0.008480422,0.05811054,-0.6359088,0.4081777
0.5675656,0.009950178,0.0567047,-0.07866586,-0.4313643,0.4660936
0.5328548,-0.009414961,0.05704996,-0.03782865,-0.2529293,0.3232742
0.5001082,-0.04693181,0.0537814,0.02024922,-0.1351041,0.1233519
0.4693459,-0.01974168,0.07630618,0.04905877,0.01647243,0.009466086
0.5321469,0.02211951,0.05558759,0.1151903,0.2227079,-0.1457875
0.6657897,0.08278959,0.08162083,0.1034228,0.3136389,-0.1311241
0.7606599,0.1237328,0.1166569,0.06477906,0.2710512,-0.1227492
0.8305187,0.09216851,0.1203373,-0.09123282,0.2189787,-0.190156
0.8002835,0.08764363,0.09291488,-0.3587706,0.07255738,-0.2327844
0.8454739,0.02514645,-0.006105092,-0.5857112,-0.0661994,-0.3168426
1.092979,-0.2584746,-0.06108422,-0.6024507,0.06144254,-0.5385899
1.362452,-0.6446717,-0.00510978,-0.1327024,0.2108992,-0.854555
1.516949,-0.7803642,0.09726134,0.3562562,0.0966486,-0.8386585
1.550951,-0.5568455,0.1904354,0.2901602,-0.007292186,-0.6999552
1.695833,-0.3922669,0.2911114,0.1791898,-0.04052968,-0.7173342
1.895118,-0.3737651,0.3813937,0.3524525,-0.09835366,-0.3429348
1.888427,-0.1603086,0.3527045,0.3341817,0.03451889,0.2494697
1.658082,0.01729918,0.2859308,0.1154665,0.1225053,0.4582031
1.235047,-0.09927634,0.2666444,-0.01568597,-0.08576639,0.4490896
0.9827743,-0.1820674,0.2294102,-0.07086824,-0.2863943,0.5452025
0.9135867,-0.1569073,0.2146418,-0.009028095,-0.3798295,0.7666269
0.6555772,-0.1799982,0.2002156,0.0005549781,-0.5374185,0.9195695
0.5005264,-0.1598655,0.134235,-0.04382255,-0.7035459,0.9091921
0.5121627,-0.1353768,0.08259284,0.01821795,-0.5743195,0.7239817
0.4999841,-0.157706,0.03692605,-0.03811368,-0.2521706,0.2899875
0.5388055,-0.1419249,0.01727595,-0.1273973,-0.01733231,-0.1851705
0.4754351,-0.1583072,0.04843726,-0.1955354,0.1769553,-0.4443998
0.4029248,-0.2162154,0.0732624,-0.1726114,0.1335189,-0.4736987
0.4198076,-0.2619798,0.1075487,0.3129313,-0.1779913,-0.3259978
0.4579275,-0.2880549,0.1218373,0.9968295,-0.6471728,-0.1158896
0.6688626,-0.2943508,0.101184,1.480248,-1.063423,0.01032821
0.8662123,-0.3222912,0.1184284,1.720312,-0.7633158,-0.03826343
0.8508158,-0.2471677,0.1636424,1.826837,-0.2877888,-0.06528023
0.8539761,-0.1481798,0.2099331,1.762361,-0.129774,0.1770647
1.086178,-0.2655081,0.170282,1.477041,0.4290219,0.5731652
1.408534,-0.3636228,-0.01943744,1.291086,0.6953481,0.7924572
1.518579,-0.3102708,-0.1695009,1.010399,0.2906946,0.4651822
1.456945,-0.2797999,-0.08063014,0.6726351,0.1339201,-0.05642489
1.488766,-0.2416931,0.1245635,0.7496788,0.01597054,-0.07897645
1.665478,-0.1864407,0.2225568,0.8835905,-0.01050854,0.08727701
1.738577,-0.1723098,0.2450539,0.8870992,0.1507322,0.08465414
1.607922,-0.1261901,0.2190305,0.7527564,-0.08961083,-0.01709642
1.388441,-0.05087797,0.1553012,0.4022264,-0.3189178,-0.2109684
1.096915,-0.069991,0.1638987,0.2684177,-0.4093835,-0.205571
0.8923395,-0.1476947,0.1580609,0.5293804,-0.5778422,-0.002794508
0.775999,-0.1759817,0.1147602,0.94014,-0.5336182,0.2156834
0.6578877,-0.1561084,0.06438926,1.169954,-0.4669,0.4087268
0.6647155,-0.08678533,-0.004584694,1.159877,-0.3462844,0.3635441
0.6503296,-0.002003341,0.02238488,1.134227,-0.1376243,0.265925
0.5521319,0.07374546,0.03641569,1.090143,-0.1211931,0.2695639
0.4974445,0.123887,0.003215883,0.8804029,-0.1166005,0.2790544
0.4770219,0.08727177,0.03827129,0.4720727,-0.03595031,0.3309768
0.5608746,0.01719269,0.07164122,0.2193025,0.08908566,0.230747
0.6690968,-0.02937102,0.09782732,0.2845865,0.07094065,0.06041284
0.6906623,-0.04100126,0.01800649,0.1770648,-0.2489701,0.03286148
0.7670131,-0.08902312,-0.1246847,-0.2579736,-0.4205101,-0.03372167
0.9844102,-0.309492,-0.06390036,-0.4790736,-0.1482642,-0.2767068
1.318499,-0.5571137,0.1317647,-0.05731428,0.1301335,-0.630037
1.654166,-0.6236201,0.2762973,0.4632731,-0.1123068,-0.7321404
1.813008,-0.5119244,0.2589074,0.3602073,-0.3587721,-0.5898632
1.88546,-0.3912029,0.2061919,0.121093,-0.2005277,-0.5224649
1.994136,-0.4264483,0.2887907,0.2066952,-0.1939315,-0.2371147
1.853319,-0.4265621,0.2772166,0.3605597,-0.06559382,0.1828336
1.399066,-0.3081933,0.2218109,0.5862634,0.2633238,0.2933547
1.028281,-0.2286471,0.2688562,0.6012276,0.1652143,0.3141821
0.8918818,-0.1274698,0.2153408,0.3512228,-0.0618652,0.4044655
0.807376,-0.05936701,0.1782549,0.2697379,-0.2269598,0.4578167
0.6562986,-0.07841309,0.1945189,0.09526957,-0.3374759,0.4114211
0.5704063,-0.08378585,0.1318526,-0.01834494,-0.1837561,0.2833407
0.4945778,-0.09230928,0.1023063,0.1399866,-0.05407536,0.1632025
0.3068792,-0.08899894,0.05653234,0.1367593,-0.05459253,-0.02606175
0.2290048,-0.1076078,0.01820156,0.1812587,-0.09237325,-0.1685298
0.2233027,-0.164226,0.03116171,0.3342543,-0.2231971,-0.1581469
0.3045962,-0.205362,0.005427743,0.5275154,-0.392473,-0.1735641
0.5934483,-0.2624261,0.01792414,0.8622581,-0.5806033,-0.1842329
0.826843,-0.3049579,0.05335997,1.133907,-0.5985862,-0.1855119
0.9296313,-0.311939,0.0781368,1.456962,-0.3784232,-0.1985304
0.9882772,-0.2885106,0.06889629,1.619424,-0.0444282,-0.07118901
1.210605,-0.2495077,0.007487792,1.444129,0.4625619,0.1792635
1.460914,-0.2397731,-0.009116981,1.269888,0.6556028,0.3225458
1.379449,-0.258606,0.008214391,0.9975774,0.3674655,0.2193671
1.456294,-0.2814471,0.1198468,0.7476672,0.2913881,0.1216522
1.789028,-0.2289649,0.2578758,0.8659186,0.2909006,0.1285684
1.861054,-0.1037375,0.2705527,0.9888008,0.2095995,0.01988151
1.606581,0.01288086,0.3074512,0.6642069,0.2389127,-0.04126849
1.262142,-0.01486629,0.328347,0.2668842,0.05649411,0.03047248
1.244731,-0.2049531,0.2786794,0.2295489,-0.1425994,0.06277638
1.282155,-0.2890987,0.2500951,0.4692107,-0.2434752,0.1392316
1.050995,-0.2670905,0.14929,0.8890561,-0.4057115,0.2423612
0.9548637,-0.2420605,0.07283946,1.114021,-0.4528595,0.3681829
0.8286775,-0.1481486,0.07093916,1.106214,-0.5498385,0.5773166
0.5852694,-0.05859086,0.003260077,1.169206,-0.5738151,0.6385136
0.5903479,-0.02277345,-0.006651611,1.130841,-0.4249977,0.5679614
0.6382477,-0.03270425,0.04200634,1.057938,-0.3350977,0.4901447
0.5711336,0.004543982,0.01971882,0.963509,-0.1452843,0.3229474
0.5614974,0.03753541,0.02046187,0.7558951,0.03947601,0.2178092
0.5627043,0.01077676,0.04574752,0.5526765,0.1462958,0.1823598
0.5010712,0.09247299,0.07516432,0.2827194,0.2295398,0.07391496
0.5215162,0.1099368,0.1367762,0.1175947,0.1406118,0.01229825
0.6435978,0.1016946,0.1279201,0.01560836,0.01304568,0.007617533
0.8048303,0.2088443,0.1032505,-0.2960677,-0.06708893,0.002015294
0.969262,0.1644622,0.119735,-0.5610566,0.01101305,0.0123826
0.9243988,0.02347626,0.04419878,-0.5639447,0.1554384,-0.03048383
0.8639903,-0.2067182,-0.05399262,-0.473201,0.05598105,-0.1949581
1.010618,-0.5176286,-0.05508992,-0.3367055,-0.01937067,-0.4454516
1.198891,-0.6382703,0.003528081,0.05502113,0.008965333,-0.5444581
1.566173,-0.6178369,0.1039944,0.4163919,-0.005591414,-0.4270269
1.837375,-0.5603149,0.2081733,0.4329494,0.07134635,-0.3811115
1.753013,-0.5088594,0.2988156,0.5956611,0.1010485,-0.3590454
1.782977,-0.4294598,0.3972396,0.9901349,0.03579454,-0.1728147
1.792527,-0.249404,0.4303329,1.114448,0.02003866,0.03293457
1.558166,-0.0625421,0.3382088,0.8893361,0.02393176,0.2109903
1.301392,0.02729955,0.2571457,0.5481744,0.02173253,0.391079
1.005729,-0.0236496,0.2872399,0.2116028,-0.08259922,0.6116469
0.7667331,-0.05073903,0.291905,-0.05522631,-0.3182572,0.8221326
0.6095661,-0.06739951,0.2418452,-0.1062741,-0.528098,0.7608457
0.5328629,-0.158761,0.1998373,-0.06624944,-0.5326305,0.5401821
0.60588,-0.1441326,0.1393482,-0.07865633,-0.2873972,0.2825208
0.5840785,-0.1362284,0.1245373,-0.03758785,-0.0472438,-0.03637677
0.4605319,-0.1516058,0.1342824,-0.03457831,-0.02117082,-0.1507392
0.3482654,-0.1313872,0.09082881,-0.03180314,-0.1303874,-0.1482832
0.2835532,-0.1895261,0.07615304,0.1535392,-0.2680705,-0.1408923
0.4125591,-0.2016852,0.08120967,0.4155982,-0.4827054,-0.07456046
0.6194094,-0.2353442,0.06165835,0.6824748,-0.7128382,-0.1043921
0.8225557,-0.2935667,0.06761952,1.000571,-0.6792176,-0.0767262
0.9355549,-0.2655187,0.0899056,1.252048,-0.455699,-0.01716705
0.8862098,-0.256219,0.107566,1.310598,-0.1776107,-0.04710726
0.7451616,-0.0830786,0.01766099,-0.219325,-0.4807402,0.4808157
0.652112,-0.05666855,0.003102056,-0.1583316,-0.5605881,0.5366069
0.6012069,-0.09137594,-0.09100267,-0.1911567,-0.3612687,0.5139777
0.6757769,-0.1026385,-0.04456388,-0.01016341,-0.2034284,0.4144913
0.6956049,-0.08489292,-0.04042879,0.05092638,0.07614796,0.2146741
0.4868525,-0.003428996,-0.03592105,-0.01788415,0.256414,0.1791903
0.3547757,0.1018286,0.04591546,-0.2394451,0.2157828,0.1578421
0.4468209,0.06793025,0.09485113,-0.7104304,0.3792586,0.0007057933
0.5990414,0.04241595,0.2303099,-0.8586595,0.3839487,-0.1394114
0.6671842,0.08756039,0.2856775,-0.8950476,0.06541711,-0.1441969
0.7504413,0.09578185,0.1464807,-1.19507,-0.1874108,-0.1036358
0.9398532,0.06746587,0.02993614,-1.364477,-0.07309316,-0.2192924
1.04515,-0.1427218,0.002329776,-1.340896,0.451727,-0.5193319
1.193496,-0.5485356,0.0666224,-0.953325,0.7233614,-0.8208373
1.396656,-0.6927606,0.2069044,-0.4443375,0.3005659,-0.7861356
1.384674,-0.4763524,0.3439715,-0.5375554,-0.3536064,-0.5200413
1.472635,-0.3595991,0.3821348,-0.7970644,-0.4891418,-0.4621239
1.788731,-0.3579315,0.3408573,-0.7446149,-0.2064587,-0.3951338
1.884944,-0.2723368,0.3238189,-0.6346014,0.04729031,-0.03373951
1.65735,-0.2286652,0.2690951,-0.4559188,0.4611271,0.3518061
1.300279,-0.2054817,0.2088883,-0.3814641,0.5567126,0.3707716
0.9566865,-0.1411047,0.2499708,-0.548062,0.2372982,0.2047883
0.7733367,-0.1304446,0.2672646,-0.6577374,0.1414444,0.3821345
0.6950657,-0.1343898,0.244997,-0.7570017,-0.1250903,0.5475649
0.5819537,-0.1177693,0.2426745,-0.7673129,-0.3919824,0.548693
0.5474496,-0.1021034,0.1849927,-0.6336518,-0.2828657,0.6403625
0.5772598,-0.06618092,0.1223434,-0.6518494,-0.1996357,0.4115906
0.5510664,-0.0566063,0.1075048,-0.6607344,0.005047098,0.03266887
0.5355446,-0.07181859,0.1040736,-0.7015216,0.2190461,-0.2541973
0.486161,-0.1169729,0.1010229,-0.8094953,0.1903402,-0.4191917
0.4379274,-0.2426965,0.08538825,-0.6023456,0.07430742,-0.2593009
0.5553043,-0.3427221,0.1061482,-0.1284799,-0.3498964,-0.1785469
0.7754728,-0.3786993,0.1414733,0.4470379,-0.8024348,-0.1030302
0.9706295,-0.4029774,0.1171217,0.7195682,-0.4395472,0.005859268
1.094827,-0.3881896,0.05905668,0.5658504,0.3423459,-0.006007839
1.225521,-0.3349657,-0.01636729,0.5127727,0.5773712,0.2475604
1.343774,-0.2397402,-0.05191245,0.3870444,0.5359208,0.3043126
1.319291,-0.1728222,-0.02636186,0.007994108,0.5020464,0.01867748
1.372111,-0.2342529,0.01301301,-0.2080164,0.3234257,-0.09384896
1.56831,-0.2889485,0.1237175,-0.06072217,0.2101899,-0.1214474
1.611649,-0.1878363,0.2408064,0.1435654,0.1341006,-0.1286623
1.48296,-0.05297546,0.2371347,-0.09933341,0.104355,-0.1775852
1.32454,-0.01542416,0.2108392,-0.4228189,0.05663147,-0.1463523
1.268869,-0.03422555,0.2150882,-0.5169185,-0.02513895,-0.05229514
1.191756,-0.0608179,0.1887845,-0.6718184,0.03962655,-0.0817253
0.941579,-0.067434,0.1492368,-0.6161595,-0.07025711,0.05489752
0.8273854,-0.06748163,0.1031618,-0.4758281,-0.182634,0.2248605
0.8318342,-0.05715604,0.04797838,-0.4566119,-0.1382762,0.2603389
0.7691949,-0.002787525,0.03586512,-0.3409566,-0.1383548,0.2530283
0.7231099,0.03806525,0.08326354,-0.3825661,0.003529381,0.1585734
0.5937322,0.07316661,0.1284645,-0.4275911,0.05392141,0.1487475
0.5218572,0.09305532,0.1234773,-0.4444341,0.08192071,0.1534188
0.6139953,0.05876954,0.1204169,-0.7140172,0.2864025,0.1235956
0.6527688,0.04678762,0.1385167,-0.873107,0.4131736,0.09693941
0.6965838,0.01974195,0.1117258,-0.8972741,0.4292175,-0.01652971
0.7704248,-0.02524391,0.04751039,-0.9493093,0.1782171,-0.0859023
0.8072711,-0.07508891,-0.01103281,-1.01503,-0.09472931,-0.1940004
0.9652618,-0.3433041,-0.02672944,-1.088915,-0.0310391,-0.3628052
1.23624,-0.7050323,-0.01337709,-0.9254132,0.278865,-0.5294718
1.319157,-0.7140605,0.00277645,-0.5101645,0.5788167,-0.6773877
1.335634,-0.5504417,0.1536332,-0.1125365,0.4080429,-0.5747461
1.531181,-0.5193848,0.3302181,-0.1343026,0.1081516,-0.4035086
1.556598,-0.3239848,0.2940171,-0.4013665,0.01993887,-0.3302358
1.588457,-0.1636234,0.2760003,-0.3497337,-0.1147406,-0.2965421
1.820586,-0.3374705,0.3577334,-0.2410309,0.03725737,-0.2855275
1.61453,-0.3725536,0.3220998,-0.1433863,0.2890564,0.02794302
1.223642,-0.284349,0.282719,0.009211911,0.161844,0.4595418
1.010128,-0.2426427,0.2840449,-0.1017032,0.03096083,0.5718608
0.6952771,-0.06556139,0.2159695,-0.3397228,-0.03625853,0.5438895
0.6144905,0.02165473,0.1770557,-0.7110799,-0.1050276,0.4981809
0.6667741,-0.02204381,0.1689757,-0.9684737,-0.03345429,0.3982551
0.5258896,-0.02240512,0.136009,-0.8774665,0.03678453,0.2650064
0.4875954,-0.03122948,0.1020183,-0.9790162,0.1560069,0.06939094
0.4141557,-0.09341349,0.02968819,-1.137783,0.2207404,-0.1282871
0.2763149,-0.1846657,-0.01543529,-1.085008,0.03620229,-0.1788013
0.35039,-0.2284158,0.009210549,-0.7865161,-0.2231294,-0.1203306
0.5602337,-0.3077729,0.04225276,-0.1834004,-0.4681011,-0.1187673
0.805169,-0.4011162,0.09394609,0.1992134,-0.3833392,-0.1152178
0.8568229,-0.3532991,0.1379954,0.4643046,-0.06966178,-0.08404574
0.8044505,-0.2618635,0.1312217,0.6527623,0.1494383,0.001218076
1.088748,-0.1858649,0.03488024,0.380579,0.6853408,0.2698191
1.470122,-0.164441,-0.08451303,0.09273913,0.9767026,0.4132623
1.577568,-0.2294337,-0.04772631,-0.2687844,0.6612343,0.1386936
1.596802,-0.2409964,0.1003252,-0.5799521,0.5937391,-0.1623466
1.73182,-0.1768715,0.2649274,-0.3010427,0.5277958,-0.15832
1.832342,-0.07473531,0.3962668,-0.2180534,0.4213842,-0.181158
1.655123,0.02878802,0.3854556,-0.5882003,0.544013,-0.3498183
1.346666,0.02581209,0.3684503,-0.8543262,0.3515183,-0.3699845
1.141193,-0.02389824,0.4025211,-0.976945,0.09400053,-0.2643735
1.01427,-0.03901512,0.3041053,-0.8615138,-0.06761034,-0.0573809
0.9257085,-0.06013103,0.1764836,-0.7300122,-0.2258956,0.1608456
0.8134676,-0.02559484,0.1049428,-0.6892591,-0.1724205,0.280324
0.7221107,0.04948193,0.04144382,-0.5714514,-0.220164,0.467363
0.7028946,0.06412189,0.05188622,-0.6188877,-0.1880657,0.5262621
0.6201468,0.08256463,0.02296851,-0.7116255,-0.01124918,0.4548382
0.5334532,0.1221595,-0.05936007,-0.8255694,0.0002286795,0.4636834
0.5481564,0.1324201,-0.05030209,-1.145482,0.2001806,0.3245731
0.6118679,0.1311488,0.0278199,-1.389396,0.4704039,0.1116207
0.6818189,0.1263119,0.1103972,-1.553838,0.5295101,-0.04351406
0.7016564,0.1201717,0.08374447,-1.735134,0.4439946,-0.1990599
0.750392,0.08284422,0.02087902,-1.942285,0.2872152,-0.3045855
0.8208876,0.01555712,0.01338956,-2.132371,0.2544397,-0.3860074
0.8654108,-0.1599131,-0.1033991,-2.019274,0.2577912,-0.4244405
1.181036,-0.6612669,-0.2454473,-1.804424,0.509185,-0.68041
1.575743,-1.11592,-0.2305478,-1.565255,0.8612724,-1.228404
1.537059,-0.9348282,-0.08351707,-1.222502,0.5070129,-1.389524
1.495806,-0.5908976,0.07707941,-1.282912,-0.03655286,-0.8953648
1.716689,-0.4900294,0.1199673,-1.550965,-0.08667118,-0.3576056
1.776301,-0.3101432,0.1334081,-1.643555,0.01979248,-0.312944
1.826542,-0.2583315,0.1989606,-1.762185,0.2440725,-0.4027115
1.724402,-0.2689189,0.2254768,-1.773246,0.5345561,-0.1580843
1.253758,-0.1108809,0.2021238,-1.833487,0.6185146,0.09798183
1.083472,-0.1763175,0.1685239,-2.036986,0.5629814,0.1622101
1.04796,-0.2109965,0.1500497,-2.076299,0.538514,0.2431559
0.8176546,-0.1562328,0.1510203,-2.048717,0.5609957,0.3397872
0.7046148,-0.2605558,0.1381523,-1.921146,0.5301901,0.3015919
0.5090069,-0.1854647,0.09894623,-1.779757,0.5300518,0.1641664
0.3871819,-0.1200663,0.08678028,-1.732744,0.6121396,0.0221138
0.4508422,-0.08498661,0.1325875,-1.642741,0.6674276,-0.1996693
0.4357038,0.05207649,0.1640338,-1.684239,0.7014275,-0.3875951
0.4820912,0.02638648,0.1552077,-1.700908,0.6309665,-0.4935242
0.47562,-0.0001940012,0.1489911,-1.645086,0.5340503,-0.6021246
0.4546715,-0.08425794,0.1487894,-1.657844,0.4962159,-0.5901566
0.5249766,-0.2427748,0.1423546,-1.432755,0.264921,-0.5593245
0.565751,-0.2780177,0.1344598,-0.9734489,-0.1052049,-0.4173168
0.7372304,-0.3226547,0.1252606,-0.4250445,-0.2525301,-0.09212209
0.9338168,-0.3641983,0.0544695,-0.06887204,0.0382472,0.03312153
1.072593,-0.4000783,-0.125229,-0.08877747,0.4723768,0.1641456
1.313052,-0.4230136,-0.2920324,-0.1596048,0.6089831,0.3186145
1.614928,-0.5076973,-0.2622452,-0.2125149,0.6094208,-0.0593919
1.820927,-0.6259283,-0.07427395,-0.1329808,0.6089562,-0.5775647
1.860412,-0.397954,0.1565336,0.07324151,0.5970588,-0.6596923
1.889235,-0.07270108,0.3538301,0.05902612,0.5812016,-0.5805522
1.696944,-0.001283697,0.3337347,-0.2715077,0.3068069,-0.5396149
1.209559,0.01613016,0.2564722,-0.7658719,-0.0674269,-0.4660576
1.023316,-0.01112939,0.3187346,-0.8551142,-0.3114026,-0.3219224
1.076247,-0.1089108,0.2409983,-0.5718177,-0.5356371,-0.02982866
1.000723,-0.1303817,0.1172922,-0.4553366,-0.5323185,0.1871634
0.9511938,-0.07506871,0.1028053,-0.2975098,-0.3644485,0.2049099
0.8995165,-0.02923158,0.01265366,-0.1980172,-0.3411567,0.2108523
0.7755029,-0.01031205,-0.02177283,-0.2574101,-0.2800533,0.070226
0.6483799,-0.03824169,-0.01367623,-0.122501,-0.2227312,-0.08361533
0.4831654,-0.08687188,-0.05287331,-0.02379493,-0.2378063,0.004723335
0.386345,-0.09421519,-0.02146772,-0.01714176,-0.04314584,0.05572915
0.4525492,-0.1016878,0.008406479,0.01710691,0.1311604,0.02990977
0.5840467,-0.09161144,0.05078879,-0.03650194,0.1002898,0.01197259
0.725739,-0.0355363,0.08272599,-0.04926503,-0.004569485,-0.04093326
0.8275269,-0.03869574,0.02739807,-0.1554477,-0.212748,-0.05829899
0.8982183,-0.2368288,-0.04116773,-0.4460481,-0.2463692,-0.1921896
1.074967,-0.5171441,-0.1078347,-0.5583773,-0.07982006,-0.5046147
1.245624,-0.5212564,-0.01255858,-0.331553,-0.03675096,-0.6992192
1.315206,-0.3676335,0.2019749,-0.03608651,-0.1990259,-0.6580899
1.479845,-0.3809655,0.2531301,-0.00998483,-0.5497445,-0.570494
1.668743,-0.4424343,0.2611415,-0.06756438,-0.7744209,-0.5252133
1.766677,-0.4686558,0.3088296,0.03928226,-0.6723696,-0.44085
1.740482,-0.3825418,0.2868788,0.2370467,-0.2445448,-0.1583554
1.531568,-0.1872344,0.2560265,0.3984506,0.2977568,0.3137398
1.379389,-0.1360134,0.2392129,0.136832,0.3211251,0.530969
1.168397,-0.1042091,0.2211761,-0.3637192,0.009381871,0.4761779
0.7564128,0.001882393,0.2130747,-0.5294112,-0.1010733,0.543491
0.6032454,-0.02901741,0.2089931,-0.5617887,-0.2274076,0.5706618
0.6793102,-0.1170913,0.2145246,-0.511357,-0.3265027,0.5336028
0.6216636,-0.1592186,0.1910399,-0.3102908,-0.2112751,0.5647048
0.5545,-0.1769647,0.1375737,-0.2664921,-0.1112268,0.3943439
0.5557078,-0.1486807,0.09731732,-0.2786644,-0.04698269,0.05520933
0.4318447,-0.139025,0.07035606,-0.2934046,0.03097593,-0.1969597
0.3322953,-0.1789611,0.0251785,-0.3080738,-0.03906411,-0.2500542
0.4018397,-0.2129528,-0.03349059,0.0093105,-0.2759296,-0.1570061
0.4276305,-0.2651295,-0.01787989,0.5236013,-0.4468827,-0.1488199
0.5847294,-0.4046124,0.02504478,0.9438852,-0.3161836,-0.1684113
0.8392859,-0.5332586,-0.01275919,1.374706,-0.05059078,-0.05209549
0.8981886,-0.496201,-0.06282795,1.675063,0.2170237,0.2094229
1.097021,-0.361166,-0.09598439,1.461524,0.5792652,0.492551
1.407071,-0.2274116,-0.1018525,0.9948242,0.5966194,0.465654
1.527972,-0.137194,-0.03245386,0.7295357,0.2984197,0.2323352
1.683427,-0.1683459,0.1199825,0.5971513,0.2645391,0.1031709
1.784556,-0.1590923,0.3199444,0.6429898,0.1386521,-0.003719777
1.556015,-0.004012119,0.3802104,0.5920569,-0.09899382,-0.09920006
1.314701,0.05038387,0.3429268,0.1662536,-0.06832878,-0.1722656
1.327413,-0.01234113,0.3658603,-0.01681207,-0.1797343,-0.1077111
1.336804,-0.07315764,0.2936869,0.125531,-0.3384177,0.1505843
1.183808,-0.134506,0.1860038,0.2749262,-0.2490841,0.2646498
0.9572508,-0.1315735,0.147369,0.4486205,-0.2214268,0.3568815
0.754206,-0.09867518,0.07050513,0.5596932,-0.2971839,0.4833629
0.6097591,-0.05900739,0.0311185,0.6480074,-0.3497324,0.3996727
0.4975599,-0.01616539,0.02092334,0.6522909,-0.3978884,0.4070515
0.4761456,-0.04022515,-0.02427598,0.578508,-0.3904927,0.4326841
0.4998356,-0.08776575,-0.04744513,0.4603036,-0.1675925,0.3312107
0.464816,-0.1298027,-0.02744144,0.2491438,0.1946462,0.2813728
0.4755356,-0.1182706,0.04360691,0.1847105,0.311852,0.09530631
0.5712798,0.007118761,0.09381581,0.1662601,0.05058871,-0.02233316
0.6810632,0.1378591,0.07877194,-0.08344408,-0.2200558,0.06731039
0.7639572,0.1290711,0.0134833,-0.4364916,-0.2367893,0.09338469
0.7746689,-0.03370926,-0.08906115,-0.4985538,-0.2499865,0.1021647
0.7737561,-0.2885144,-0.1361542,-0.2930747,-0.1646695,-0.03970456
0.8679264,-0.5630699,-0.06358231,-0.1247973,0.07039297,-0.3525141
1.125887,-0.634875,0.06737032,0.1979769,-0.01961207,-0.5896058
1.524745,-0.4641516,0.1532252,0.3194634,-0.1176592,-0.7384859
1.823094,-0.3764368,0.2223892,0.0763139,0.03118932,-0.693475
1.91329,-0.4079197,0.3033278,0.093939,0.1151078,-0.5173275
1.90765,-0.3487533,0.3903855,0.101048,0.3654259,-0.4038787
1.681729,-0.1534013,0.487174,0.008267099,0.6496242,-0.08414008
1.214809,0.1032277,0.3984569,-0.1408229,0.6606172,0.4453217
0.9376772,0.2308169,0.2200566,-0.8134538,0.5208658,0.6683244
0.9511056,0.1648806,0.2250646,-1.410521,0.2038597,0.6054652
0.875243,-0.01461104,0.2083066,-1.400871,-0.05677118,0.5978742
0.6877184,-0.2373632,0.1021359,-1.27192,-0.105017,0.5552767
0.5642077,-0.2873204,0.04567187,-1.209315,0.09971788,0.370068
0.4541171,-0.1952757,-0.002069477,-0.9970433,0.5625565,0.05640248
0.3937483,-0.1886353,0.01395654,-0.8501936,0.6808401,-0.3606085
0.3974927,-0.1366549,0.05131289,-0.9626308,0.4740599,-0.5648949
0.3829157,-0.09889449,0.02266585,-0.8652768,0.2873732,-0.4337049
0.4287554,-0.1508718,0.02760857,-0.6222852,0.005713429,-0.3655169
0.5840602,-0.102883,0.05843596,-0.4325071,-0.003315674,-0.4278366
0.7715142,-0.1935071,0.1240779,0.0755878,0.1632863,-0.3730202
0.8497971,-0.3416003,0.2652318,0.5904127,0.1260996,-0.301095
0.7762178,-0.2601051,0.278306,0.644441,0.2563745,-0.1140983
0.8533713,-0.2721553,0.06146804,0.3663637,0.5709753,0.4542459
1.244961,-0.3817631,-0.1653916,0.05339985,0.7407969,0.7711288
1.610687,-0.4218941,-0.2200992,-0.2801119,0.6441742,0.1469997
1.655762,-0.4327138,-0.1628553,-0.532607,0.4230672,-0.4977697
1.653146,-0.3720054,-0.02786525,-0.2724151,0.2358297,-0.3124955
1.797138,-0.2953787,0.2390716,-0.07166161,0.01222569,-0.2966856
1.655474,-0.1890155,0.3859957,-0.3543989,-0.00390639,-0.6227025
1.429018,-0.1581482,0.2899987,-0.4251178,-0.04583221,-0.437113
1.506523,-0.2310928,0.2519741,-0.2676885,-0.3566092,-0.3919873
1.402896,-0.1959517,0.2102032,-0.1788445,-0.3011921,-0.5185031
1.146565,-0.1528017,0.05822689,-0.1366579,-0.2762955,-0.1631464
0.9304312,-0.1065668,0.01154369,-0.1095505,-0.5256171,0.1014587
0.7373035,-0.01315061,0.005628238,-0.09256784,-0.4360751,0.234814
0.7540876,-0.003618638,-0.0227517,-0.1835637,-0.386299,0.3061485
0.6728598,0.02396235,-0.00123712,-0.2926372,-0.2832563,0.2488493
0.5504412,0.05358465,0.01222263,-0.4403313,-0.02710544,0.3391574
0.5390149,0.03975801,0.03838328,-0.513123,-0.0281462,0.2471304
0.4458868,0.06735366,0.07136984,-0.3380256,0.04368626,0.1885927
0.4623049,0.0591783,0.0582622,-0.2660944,0.09394416,0.3038209
0.4614716,0.04222799,0.07273811,-0.2747678,0.2371412,0.256606
0.4669099,0.02743669,0.1526078,-0.1263414,0.5394564,0.2481575
0.6209027,-0.0147553,0.198778,0.06462465,0.43759,0.1781808
0.7255866,0.03260594,0.116015,0.1372056,0.2492016,0.1414101
0.8893578,0.09042251,-0.02037627,-0.1147757,0.1120939,0.1690941
0.9183747,0.04061197,-0.08360421,-0.5104953,0.03185395,0.002237946
0.8896604,-0.1336405,-0.1447904,-0.776585,0.2641326,-0.2239678
1.261232,-0.4845761,-0.2481333,-0.9343682,0.444747,-0.6586171
1.631213,-0.7965276,-0.2328479,-0.9191853,0.4659586,-1.036122
1.699907,-0.8190518,-0.1093042,-0.850444,0.3218939,-0.945276
1.700278,-0.7365868,0.05618623,-0.7681915,-0.1183884,-0.6238251
1.751504,-0.7081416,0.2661914,-0.4650819,-0.4942844,-0.2778051
1.807468,-0.6208215,0.287842,-0.09851938,-0.321805,-0.1805233
1.729054,-0.4584508,0.2151354,0.1271182,0.1143031,-0.1904165
1.525655,-0.214979,0.2921888,0.09392683,0.1709014,-0.08448851
1.251023,0.0136031,0.2478942,-0.3407485,0.1459901,-0.1029735
1.135664,0.01487938,0.1519634,-0.9075423,0.2207557,-0.0436552
1.135446,-0.07520156,0.195092,-1.206226,0.1607861,0.1420498
0.8012689,-0.1617715,0.1671218,-1.101119,0.09723627,0.2655547
0.49547,-0.2665529,0.1290251,-0.9143348,-0.07148945,0.4101797
0.4853819,-0.2202136,0.07246502,-0.9567378,-0.1375668,0.3477274
0.4329466,-0.1443189,-0.005382063,-0.9053269,-0.03307168,0.1502873
0.4320223,-0.1342652,0.05389527,-0.7591102,-0.03319253,0.01961233
0.4491309,-0.06587209,0.07953205,-0.6600686,0.1093245,-0.2182959
0.4248023,-0.05390219,0.09339334,-0.529866,0.211858,-0.3917696
0.4379064,-0.1144151,0.1561583,-0.4915792,0.1365079,-0.4840923
0.4079278,-0.1897469,0.1405758,-0.2110229,0.05474993,-0.5315601
0.424809,-0.2879755,0.1474786,0.3164437,-0.2287193,-0.3906102
0.4770076,-0.3311698,0.150625,0.8141549,-0.5925513,-0.2299946
0.625062,-0.3633477,0.06799185,1.276212,-0.731141,-0.05013792
0.8879371,-0.4048479,0.005243157,1.369586,-0.3681067,0.02576365
0.9952166,-0.4144465,0.0161565,1.39075,0.2406737,0.002816478
1.056096,-0.4161349,0.01134451,1.477062,0.4897246,0.1625257
1.23275,-0.3763815,-0.06602258,1.280484,0.5560834,0.1849203
1.333615,-0.2761433,-0.05489889,1.013559,0.4405032,-0.05966655
1.405413,-0.1482155,0.04698636,0.6764718,0.1407659,-0.2770081
1.668392,-0.1010835,0.104212,0.5501325,0.169634,-0.2793332
1.755102,-0.148036,0.2238293,0.6957789,0.2231721,-0.2200919
1.387342,-0.1292484,0.3889434,0.6213032,0.03788253,-0.3284522
1.156393,-0.1066169,0.415228,0.5883258,-0.09111194,-0.2452028
1.294141,-0.1746518,0.3475482,0.6548579,-0.2741618,-0.07345801
1.34143,-0.1984385,0.2653598,0.6957041,-0.4183765,-0.003361212
1.115972,-0.1301255,0.1244606,0.7895744,-0.4177351,0.252332
0.853503,-0.04020764,0.02788305,0.7539737,-0.5644782,0.4141443
0.7192906,-0.01522615,0.03288953,0.7220871,-0.8062452,0.5168574
0.6395397,-0.05763991,0.00518696,0.7298049,-0.8577928,0.6070005
0.6387418,-0.08152369,-0.009811728,0.7266096,-0.7198757,0.4670645
0.6308587,-0.1015878,0.008103571,0.8113322,-0.6001851,0.4102705
0.5238686,-0.1027859,-0.007654806,0.8392331,-0.4166516,0.3390534
0.4653316,-0.04217444,0.04162632,0.828603,-0.1035519,0.2416875
0.4513702,0.02788575,0.1165073,0.7974989,0.09302946,0.2616324
0.5299707,0.09262475,0.1330935,0.6971771,0.1518363,0.1794338
0.7113421,0.1402473,0.0983451,0.4980628,0.07831451,0.1520046
0.8429122,0.1566169,0.006801971,0.1252115,-0.02124399,0.1297766
0.9140813,0.08574323,-0.03491338,-0.13862,-0.003830845,0.0008218001
1.029246,-0.2325564,0.001935545,-0.1722018,-0.01559393,-0.1735718
1.298889,-0.666522,0.07785066,-0.1167808,0.04716865,-0.4394583
1.447519,-0.7714871,0.1633693,0.1801419,0.1075364,-0.4639516
1.36068,-0.5692107,0.1842453,0.5509794,-0.1592101,-0.3415108
1.427431,-0.3965836,0.2303972,0.4751598,-0.5457471,-0.3732886
1.574816,-0.2389339,0.3267299,0.1570685,-0.6588073,-0.328549
1.693956,-0.2927862,0.3339862,0.1231496,-0.4122809,-0.2447454
1.84477,-0.5053297,0.3104855,0.3308312,-0.06260497,-0.009791713
1.613705,-0.3237788,0.3078575,0.6644815,0.1345958,0.4634466
1.078185,-0.1323691,0.2337242,0.7583734,0.115042,0.5602005
0.8156119,-0.1387099,0.1739842,0.2621243,0.01635672,0.3242954
0.7192585,-0.003622143,0.178149,-0.2655833,-0.04925333,0.3096474
0.5693726,-0.07147841,0.1668686,-0.3756289,-0.3175108,0.3632064
0.5027898,-0.1676393,0.1828791,-0.2156359,-0.5332358,0.3846719
0.5133138,-0.10686,0.1552581,-0.07161012,-0.347678,0.4360178
0.5303448,-0.1488614,0.09288233,-0.006114053,-0.1840957,0.2796432
0.5047858,-0.09581271,0.1080136,0.09452417,-0.08697755,-0.02703427
0.4479029,-0.1152747,0.07612278,0.07001758,0.04714242,-0.232009
0.4105841,-0.2237367,0.04294164,0.2106693,-0.04177716,-0.2736538
0.411843,-0.2400516,0.06445753,0.6994502,-0.278983,-0.2176157
0.5696516,-0.3439055,0.03895567,1.115911,-0.472125,-0.1896098
0.8288408,-0.40976,0.01479252,1.442815,-0.3814548,-0.1092668
1.025286,-0.4647899,-0.03836738,1.626953,-0.04104276,0.1122227
1.150199,-0.4917507,-0.1019274,1.694104,0.2524622,0.3173881
1.263384,-0.3628635,-0.07024224,1.640793,0.4474281,0.3233232
1.419294,-0.2749603,-0.00491983,1.211188,0.2648501,0.06920678
1.543377,-0.207442,0.06902859,0.9163342,-0.003618067,-0.1633154
1.710899,-0.1259392,0.2391999,1.003094,0.1798673,-0.107493
1.902537,0.007325133,0.4421365,0.841808,0.2153806,-0.09858949
1.782109,0.1354112,0.4378324,0.37104,0.06234605,-0.267049
1.513143,0.03501813,0.3089606,0.1130048,0.05645985,-0.2297141
1.368332,-0.07757174,0.2876548,0.09809267,-0.2003324,-0.07693259
1.187333,-0.1264739,0.237467,0.2281957,-0.4182803,0.04353411
1.03565,-0.2438739,0.1288855,0.6097322,-0.3771287,0.2582903
0.9419654,-0.2638887,0.07489568,0.8616537,-0.4499628,0.4105618
0.7288908,-0.1855223,0.03131987,0.993482,-0.5528665,0.5360697
0.5833939,-0.1224298,0.028168,1.223132,-0.5959226,0.6194624
0.55149,-0.06217611,0.03199362,1.223974,-0.5849985,0.4988333
0.4541761,-0.03547702,-0.002015844,1.221011,-0.4582301,0.4414219
0.409857,-0.04897091,-0.01783022,1.250803,-0.2387025,0.4334743
0.4155628,-0.03923897,-0.02565378,1.109936,0.007643109,0.3354931
0.4454113,-0.01517479,0.007968323,1.018115,0.16667,0.2318845
0.5673812,0.009453911,0.03976673,0.8558594,0.139318,0.07421533
0.6674893,0.05703513,0.0007183835,0.6297725,-0.08490982,-0.02389513
0.7536275,0.02308729,-0.08947394,0.2341108,-0.2823142,-0.06599308
0.8981393,-0.1940791,-0.1499785,-0.3282819,-0.2918302,-0.2368435
1.197238,-0.5155821,0.06711225,-0.3662913,-0.1853068,-0.5084371
1.569776,-0.6597747,0.3798696,0.1201746,-0.1070783,-0.6670485
1.701764,-0.5098926,0.3986064,0.4446601,-0.1700651,-0.6013624
1.776575,-0.4364456,0.3851433,0.2468153,-0.2690111,-0.56307
1.964871,-0.5276012,0.4776656,0.07020834,-0.3360742,-0.5049585
1.93342,-0.4854319,0.4392321,0.4134447,-0.2654663,-0.1802643
1.589553,-0.356318,0.3126929,0.5798139,0.04398685,0.2079321
1.160303,-0.2201931,0.1907542,0.4106461,0.2384885,0.4583938
0.8571974,-0.104436,0.1752881,0.3474087,-0.01837179,0.5833188
0.6895381,-0.09215574,0.2364369,0.2184553,-0.4177918,0.687011
0.6185737,-0.08948711,0.1781549,0.0812373,-0.4669431,0.7209371
0.6287579,-0.09848941,0.1638838,0.08751777,-0.4025515,0.6273524
0.5257629,-0.1089134,0.1828889,0.1410382,-0.3714575,0.5127202
0.4064346,-0.08572117,0.09764684,0.1693949,-0.1437731,0.2431288
0.3555365,-0.1268336,0.09181451,0.1065624,-0.1108746,-0.06022265
0.2284449,-0.1949612,0.04938526,0.03786395,-0.1854116,-0.1240708
0.269514,-0.2832753,-0.01257408,0.09416241,-0.1597365,-0.1301803
0.3596631,-0.3293218,0.03607927,0.5025615,-0.4915568,-0.1421575
0.3986147,-0.319278,0.002391418,1.152526,-0.7604677,-0.128646
0.709397,-0.4149197,-0.01763807,1.473544,-0.5434097,-0.1197298
0.9047786,-0.451194,-0.02912126,1.577592,-0.317581,0.01981699
0.9923225,-0.3951117,-0.1535539,1.761722,-0.1980168,0.3160612
1.357746,-0.3859397,-0.218626,1.677875,0.09702784,0.5563297
1.533448,-0.336056,-0.163641,1.462305,0.3090322,0.4958106
1.450067,-0.3063575,-0.01549354,1.400996,0.1502527,0.2174083
1.562225,-0.2817485,0.2261508,1.187347,0.1320434,0.005604729
1.786635,-0.2097592,0.4766985,1.030232,0.1345018,-0.05060071
1.785525,-0.1020701,0.4618742,0.8726207,-0.1645671,-0.1136049
1.641686,0.05114422,0.3019134,0.2687343,-0.2250372,-0.289821
1.495801,0.006941754,0.3102254,-0.00924839,-0.2424964,-0.238087
1.258302,-0.1413336,0.1989348,0.2837781,-0.4314006,0.01759939
1.133679,-0.1886461,0.119847,0.5062653,-0.4493612,0.1052801
1.072571,-0.2788817,0.1795459,0.8291632,-0.3911048,0.2426178
0.874678,-0.2501097,0.01161766,1.149014,-0.3520708,0.3760112
0.7599296,-0.1280402,-0.0148622,1.188137,-0.3562492,0.3573228
0.6800138,-0.07222851,0.03991699,1.199468,-0.2941591,0.37996
0.5808482,0.05994389,-0.04491958,1.112282,-0.157834,0.3048281
0.5552807,0.09800755,0.0432946,0.9082151,-0.1153597,0.2430364
0.4938778,0.06237187,0.05417095,0.7346146,-0.03361054,0.2566868
0.4614598,0.1002419,0.03668293,0.4853387,0.1155537,0.1811753
0.5695363,0.07456401,0.1345168,0.2713172,0.1868918,0.1501827
0.7126278,0.09016463,0.1083148,0.02443347,0.02780389,0.08926587
0.7511592,0.09844868,0.005102682,-0.5351512,-0.1816912,0.02436413
0.7427073,-0.04609107,-0.1552946,-0.896402,-0.136496,-0.01744797
0.8042678,-0.33633,-0.1353039,-0.6776916,0.004557895,-0.2591044
0.9885358,-0.6840481,0.05259426,-0.254408,0.2122534,-0.5756446
1.373053,-0.7187062,0.1295498,0.1625897,0.3807308,-0.689817
0.5530795,-0.09424467,0.2722274,-0.06586423,-0.2559938,0.6995965
0.4620284,-0.1101089,0.227249,-0.03344842,-0.7664545,0.7026586
0.4623742,-0.1511063,0.1809292,0.1487765,-0.8003067,0.7451816
0.5300194,-0.1408613,0.1254985,0.2058423,-0.534023,0.5319714
0.5842139,-0.1132097,0.111218,0.1953745,-0.211512,0.232428
0.6029094,-0.107709,0.1202262,0.2142686,0.1250848,-0.03363154
0.5787714,-0.1222212,0.09312289,0.01536301,0.296436,-0.4251498
0.4722625,-0.1922018,0.08207464,0.05539795,0.2674604,-0.4414003
0.4612831,-0.2680036,0.0965547,0.4192058,-0.2533542,-0.3205192
0.5451181,-0.282404,0.1378186,1.071606,-0.8378409,-0.2951756
0.6671701,-0.2545411,0.1841001,1.510122,-0.4457893,-0.2103529
0.8414094,-0.1864196,0.1715532,1.258867,0.2177385,-0.1862481
0.9596342,-0.1245925,0.1075163,1.05792,0.4810093,-0.0898451
1.163862,-0.2094273,0.04610497,0.851628,0.8148265,-0.07817894
1.323188,-0.3397506,0.0683088,0.5964465,0.4685383,-0.1577603
1.291971,-0.3172798,0.1385166,0.916332,-0.1997622,-0.2202435
1.520123,-0.2785341,0.1649564,1.275418,0.153144,-0.3367447
1.820416,-0.1698946,0.20776,1.171417,0.2800391,-0.4068133
1.607057,0.1889805,0.3138276,0.7292466,-0.08862905,-0.540623
1.249368,0.3911609,0.3924689,-0.05802664,0.01426113,-0.5382339
1.19174,0.2218143,0.3615854,-0.588371,-0.2081107,-0.2880162
1.20629,0.02849438,0.2938705,-0.3634147,-0.5235598,0.03156078
1.18575,-0.09342083,0.2348194,-0.09719341,-0.4887844,0.2841418
1.055232,-0.1523617,0.1245406,-0.03056551,-0.6309221,0.3058855
0.7843794,-0.0695212,0.04926587,0.2023182,-0.7658719,0.5206549
0.6970692,-0.01558015,0.02979353,0.2458455,-0.8788752,0.7493032
0.73355,-0.05859663,-0.01376743,0.167487,-0.7796671,0.5522755
0.7163624,-0.04121706,0.0159673,0.2345467,-0.400414,0.3556014
0.6958256,-0.00259151,0.1067314,0.240157,-0.09272883,0.109169
0.5861277,0.04055753,0.1396426,0.232177,0.1432187,-0.06744068
0.5007719,0.101969,0.09318716,-0.07837885,0.0951365,0.08813056
0.5749335,0.04988331,0.02122522,-0.6948605,0.07990995,0.08611819
0.6960327,-0.02923533,0.06404418,-0.9131066,0.1801891,-0.1057094
0.7343771,-0.04788146,0.1042711,-0.7732508,-0.01951441,-0.2513077
0.7338679,-0.08270547,0.01391898,-0.7491886,-0.1260786,-0.3605146
0.8861783,-0.2142939,-0.03148807,-0.7977318,-0.07548657,-0.4471125
1.19995,-0.4959406,-0.01616582,-0.6686743,0.2396436,-0.6448744
1.479776,-0.6190702,0.09378224,-0.4350744,0.6674512,-0.7744912
1.521558,-0.4437721,0.2958032,-0.2075638,0.3213703,-0.6144807
1.520556,-0.3478734,0.34495,-0.06779675,-0.1762655,-0.4030921
1.742731,-0.3503163,0.3054969,-0.0601397,-0.1406645,-0.2896633
1.857316,-0.2419874,0.3260924,0.1412486,-0.05816711,-0.2090552
1.642679,-0.1431095,0.3257912,0.379899,0.1144458,0.09827962
1.325219,-0.1291125,0.2878159,0.4594793,0.2908373,0.6272604
1.128675,-0.1282329,0.2667781,0.5072104,0.1931356,0.6984392
1.011552,-0.1463257,0.2857957,0.2886693,0.01849607,0.5929435
0.8030478,-0.1533705,0.2989578,0.1691511,-0.2323176,0.9485974
0.659288,-0.1348707,0.2730157,0.2653263,-0.5358434,1.091332
0.5996451,-0.1362392,0.2010983,0.1839622,-0.6939508,0.9923103
0.4598892,-0.1132301,0.1109829,0.1625396,-0.6754926,0.9877667
0.4586113,-0.0889685,0.1009999,0.1284773,-0.4436708,0.6604928
0.5637456,-0.07532726,0.1246612,0.01178085,-0.03156133,0.2193724
0.5256721,-0.02904863,0.0920259,-0.1700849,0.2435143,-0.1883522
0.5175959,-0.05280159,0.08623151,-0.4219585,0.2188989,-0.4827291
0.5692974,-0.1335075,0.1310568,-0.2953235,0.1192058,-0.3761552
0.5895218,-0.1742618,0.1706446,0.1305049,-0.1626626,-0.2714904
0.6903456,-0.171975,0.2082541,0.5567697,-0.5360721,-0.2226929
0.7557865,-0.1423908,0.2075036,0.6951895,-0.2943865,-0.1486295
0.7799557,-0.1337563,0.2141015,0.4719994,0.07736599,-0.2189493
0.8274307,-0.09935281,0.2804506,0.3793198,-0.05309866,-0.147722
0.8700226,-0.09409738,0.2532524,0.183497,0.1386569,0.1514685
1.176379,-0.2421677,0.09761895,-0.2199725,0.4651461,0.5613568
1.446726,-0.3768681,-0.0298603,-0.320908,0.205407,0.6578619
1.255203,-0.385605,0.01089534,-0.2111686,-0.01463863,0.06438913
1.159678,-0.3782969,0.168639,0.0740169,0.003779571,-0.4409293
1.409434,-0.3718618,0.2347595,0.4636334,0.07579041,-0.3317753
1.556178,-0.2138841,0.2510002,0.4853342,0.2548937,-0.2285502
1.473367,0.08266994,0.2966906,0.005467678,0.2105915,-0.3889219
1.330116,0.20685,0.3102179,-0.6164254,0.0409894,-0.3896815
1.166181,0.1112717,0.306548,-0.8505672,-0.06156608,-0.1870765
1.039924,0.02388052,0.2676385,-0.7370398,-0.2272291,0.0395182
1.047975,-0.04515478,0.2003656,-0.6060796,-0.2807672,0.2858155
1.031901,-0.1073952,0.1112644,-0.4474023,-0.1844311,0.3191081
0.942232,-0.03890302,0.04755518,-0.3815072,-0.08183349,0.2209722
0.8715739,0.07628663,0.07522835,-0.4213489,-0.04493243,0.2049294
0.7796323,0.1009622,0.08424297,-0.4052219,-0.02854598,0.08554807
0.6874685,0.1312532,0.0819,-0.469258,0.04499973,0.02536635
0.5849213,0.1471333,0.09770918,-0.6760524,0.0377081,0.1147756
0.5568373,0.08567653,0.05811055,-0.9499403,0.1090618,0.1748143
0.6599712,0.009360241,0.03378606,-1.175673,0.3761785,0.1923689
0.7283807,-0.04741982,0.09571744,-1.197824,0.4892734,0.05186359
0.7940444,-0.00222183,0.1674198,-1.177211,0.3621147,-0.1534925
0.8722404,0.03613145,0.1309574,-1.209021,0.2069618,-0.2085261
0.901964,-0.05657687,0.02895207,-1.181489,0.2227227,-0.1868084
0.9434301,-0.2218743,-0.0700673,-1.208538,0.3156461,-0.299063
1.015927,-0.4793725,-0.1271559,-1.223409,0.3313788,-0.5168338
1.202327,-0.6417561,-0.04511179,-1.090486,0.3237796,-0.5668723
1.463481,-0.6149296,0.08606868,-0.8887076,0.1690103,-0.5099642
1.617527,-0.6026206,0.1799988,-0.5587386,-0.03607807,-0.4390043
1.653479,-0.5543572,0.237784,-0.253021,-0.06765282,-0.3107954
1.76596,-0.451665,0.2634131,-0.2700564,0.07163254,-0.3039573
1.896129,-0.4013306,0.3168675,-0.4334603,0.4163122,-0.338954
1.59467,-0.2581961,0.3204506,-0.4476999,0.6868741,-0.2182073
1.206698,-0.04117402,0.3214856,-0.4753872,0.5804085,-0.04810165
1.153005,0.00172194,0.317501,-0.8275559,0.3653068,0.1381634
0.864595,0.00768024,0.1663365,-1.417494,0.3056938,0.372729
0.5946183,0.05558051,0.1075541,-1.733912,0.1983287,0.5400692
0.7415847,-0.1070276,0.1909073,-1.506352,0.07747742,0.5702914
0.6999718,-0.2514302,0.2087902,-1.27929,0.154873,0.5402438
0.5982558,-0.1881421,0.1545033,-1.243123,0.2321069,0.4646513
0.6459429,-0.1529878,0.07507788,-1.151614,0.39539,0.254584
0.5557559,-0.1218703,0.088961,-1.359933,0.64734,0.001147091
0.5462384,-0.124777,0.1169371,-1.540751,0.6743291,-0.1486685
0.5720185,-0.1715232,0.1170217,-1.199252,0.532344,-0.2271283
0.5493352,-0.1568969,0.1732278,-0.7866282,0.2652764,-0.2484066
0.69861,-0.2065219,0.1591641,-0.4297096,0.1298626,-0.2786259
0.7927662,-0.2468492,0.1833886,-0.1356062,0.202118,-0.3998964
0.7387044,-0.1882044,0.3070547,0.06657621,0.1038921,-0.519633
0.7341547,-0.1115335,0.324649,0.1750403,0.02462816,-0.4870624
0.9333893,-0.08100015,0.1864867,-0.03392935,0.268235,-0.1307543
1.37157,-0.2565571,-0.0004654606,-0.2625946,0.6538341,0.1730962
1.644046,-0.5486259,-0.01802693,-0.3110077,0.7142454,-0.2032237
1.514168,-0.6297847,0.05529386,-0.322653,0.3086265,-0.6320325
1.42156,-0.4110182,0.07729137,-0.2792596,0.0144461,-0.4416685
1.638366,-0.1719347,0.2058395,-0.3151512,0.1711973,-0.3722778
1.724679,-0.1316105,0.3417128,-0.4979596,0.3187958,-0.5788608
1.525415,-0.1342643,0.36953,-0.7460956,0.1267774,-0.5632077
1.330238,-0.1487552,0.3606808,-0.8492693,-0.05788725,-0.6078894
1.129528,-0.2359738,0.2846255,-0.685814,-0.178466,-0.5815258
1.036102,-0.2497884,0.1924359,-0.4778758,-0.2688891,-0.324441
0.9976063,-0.1565179,0.1114219,-0.3066784,-0.1738362,-0.204283
0.8129667,-0.02254427,0.04110231,-0.2741259,-0.2802181,0.009473087
0.6962131,0.0968556,0.02250475,-0.4271582,-0.4570935,0.2619703
0.6249782,0.1482241,0.001822259,-0.5204215,-0.4561744,0.3303175
0.5528213,0.1422945,-0.01142719,-0.6120342,-0.5217974,0.4053092
0.5511223,0.06859163,-0.01744903,-0.6844468,-0.3994806,0.3819222
0.5293759,-0.0133234,-0.03366386,-0.574824,-0.1929801,0.34904
0.5329344,0.003622452,-0.036443,-0.5310107,0.03142546,0.3112883
0.5875207,0.05126821,-0.06933411,-0.640383,0.5073866,0.1173626
0.6733556,0.06211648,-0.05670129,-0.8509374,0.8223174,-0.06972969
0.7010904,0.07139085,0.05689058,-1.12801,0.8247975,-0.3154331
0.6444265,0.06629624,0.1799859,-1.219616,0.5575774,-0.529683
0.6538078,0.03677704,0.2100668,-1.230208,0.1106819,-0.508598
0.7801536,-0.09303163,0.07170133,-1.327059,-0.03398419,-0.4333945
1.102232,-0.4322876,-0.03444507,-1.237445,0.1993503,-0.4493957
1.460889,-0.7339067,0.03456751,-0.886073,0.3453427,-0.5590212
1.533522,-0.6935828,0.08785609,-0.6001757,0.1394591,-0.6572793
1.511896,-0.5515901,0.1309644,-0.6469916,-0.05305381,-0.6200321
1.661008,-0.5572973,0.255049,-0.7650525,-0.07042666,-0.5597846
1.815969,-0.5337016,0.3411141,-0.6249467,-0.03074153,-0.5760426
1.771048,-0.393618,0.3666103,-0.43269,0.2867342,-0.4419407
1.476646,-0.1979339,0.3882273,-0.2812314,0.5744182,-0.1557322
1.117315,-0.04670499,0.3641793,-0.2928938,0.4300246,-0.02372204
1.067482,-0.01548244,0.3395707,-0.6518417,0.1766552,0.05294602
1.146642,0.0003285005,0.351148,-0.8514204,-0.03727529,0.2239023
0.9348419,-0.06599834,0.2948211,-0.7511927,-0.2385532,0.3980343
0.6719069,-0.1722352,0.2032872,-0.7046684,-0.3691737,0.5682011
0.5340079,-0.114852,0.1379713,-0.6892055,-0.4703313,0.641908
0.4359311,-0.1000985,0.07594722,-0.7011083,-0.4319157,0.5139812
0.4467769,-0.1526376,0.06967258,-0.6620013,-0.2859519,0.3551707
0.4899291,-0.1404437,0.110394,-0.5577107,-0.1136731,0.2701861
0.5399821,-0.1670954,0.1441344,-0.4823266,0.1861303,0.03559339
0.5787533,-0.1654461,0.1587396,-0.4628934,0.3974046,-0.3304428
0.502842,-0.1464455,0.1392301,-0.4767548,0.4100935,-0.5403704
0.4103202,-0.1684496,0.118062,-0.2417989,0.2330282,-0.5143052
0.4103073,-0.1962201,0.1273881,0.1797017,-0.3060838,-0.3207637
0.5901232,-0.3027457,0.1383425,0.6256605,-0.7214297,-0.170072
0.8663231,-0.3932009,0.1341091,0.973115,-0.309915,-0.1020958
1.090152,-0.3581492,0.1050187,0.9619785,0.5725254,0.1185299
1.381484,-0.3197354,0.0056419,0.799671,0.938995,0.3951634
1.541929,-0.3354815,-0.04562092,0.5452023,0.6179556,0.3612757
1.461765,-0.3311881,0.09033666,0.373493,0.2087852,0.08317266
1.662985,-0.3094995,0.2454137,0.5716782,0.05629883,-0.1042049
1.904837,-0.2439615,0.331358,0.7137571,0.1018215,-0.2103342
1.564072,-0.06135092,0.3727616,0.6088207,0.01392983,-0.2786064
1.200262,0.05695765,0.2997891,0.2241269,-0.2221434,-0.3245524
1.257879,0.006002437,0.2615621,-0.2419188,-0.3284825,-0.2712103
1.27649,-0.04848824,0.2623708,-0.1607783,-0.3845505,-0.02132335
1.092638,-0.09384494,0.1451318,0.1132979,-0.4310014,0.0627324
0.8519985,-0.1407683,0.08013883,0.1764756,-0.4218,0.1399239
0.6508922,-0.09050742,0.07570726,0.4261473,-0.4672596,0.3971785
0.5895355,-0.01042837,0.04126987,0.6287226,-0.5752284,0.3887524
0.5919262,0.003141718,0.03439575,0.5909518,-0.5793292,0.3193027
0.5678795,0.03376976,-0.02784709,0.6301694,-0.4367376,0.3062902
0.5384814,0.07979941,-0.09783382,0.5073481,-0.228207,0.2425099
0.5114131,0.06368089,-0.09587299,0.2169411,0.03880131,0.2763592
0.5040817,0.04084078,-0.04264868,0.02288448,0.1917238,0.2040077
0.5107164,0.02754811,0.09418603,-0.1414978,0.1525229,0.09969536
0.5596604,0.02491118,0.1938675,-0.247018,0.04032931,0.08136682
0.708833,0.03727299,0.1060485,-0.4708134,-0.06832041,0.03929896
0.8364088,-0.01214438,-0.04625926,-0.7242928,-0.02986543,-0.004274752
0.8879263,-0.2094923,-0.0525463,-0.7072851,0.08394617,-0.212689
1.032754,-0.5577123,-0.002954428,-0.5561687,0.1262383,-0.5116318
1.293883,-0.7329409,0.09239142,-0.2385387,0.09038666,-0.5963859
1.509165,-0.5789731,0.3103925,0.1316387,-0.0979281,-0.5028706
1.613723,-0.4567861,0.3837825,0.2099192,-0.4195226,-0.4343605
1.720588,-0.4016397,0.365015,0.1534152,-0.5943565,-0.3064505
1.846748,-0.2791254,0.355945,0.2385676,-0.2659937,-0.01142271
1.800258,-0.2290249,0.2190188,0.238772,0.2476854,0.2603481
1.470312,-0.2000958,0.1916217,0.09590663,0.3180097,0.4562646
1.035538,-0.1823953,0.24584,0.002041008,0.163002,0.4885881
0.8130068,-0.2059657,0.2133616,-0.2296742,0.0735305,0.4266164
0.7364568,-0.1568589,0.2319354,-0.330391,-0.1102891,0.5152429
0.5827709,-0.142963,0.2193801,-0.2250539,-0.3434416,0.5556625
0.5051694,-0.1410103,0.1584531,-0.2834899,-0.4556025,0.5676858
0.508779,-0.0714417,0.1253065,-0.2405726,-0.3616514,0.5430123
0.4733062,-0.05621413,0.09482327,-0.2232196,-0.1963363,0.2719697
0.4623765,-0.04594906,0.08214386,-0.3230933,-0.06091496,-0.008482008
0.3833103,-0.08551294,0.03938102,-0.2876468,0.09592245,-0.2292045
0.2966709,-0.2014475,0.02197311,-0.1572695,0.03346001,-0.3249133
0.354781,-0.2440647,0.04955354,0.2662567,-0.3834363,-0.2810822
0.5307209,-0.2740942,0.04347927,0.7005752,-0.7169568,-0.3219922
0.8296628,-0.3300252,0.0290121,0.8330538,-0.4005193,-0.2468757
0.9872676,-0.3566187,-0.05928337,0.8979041,0.2042625,-0.008564482
1.018571,-0.3521366,-0.1409841,0.8589164,0.4844905,0.2277975
1.346161,-0.3285863,-0.04067226,0.753042,0.765095,0.241669
1.658305,-0.3111294,0.06588567,0.6315015,0.7307261,-0.1639099
1.570797,-0.2878063,0.07867606,0.4957492,0.3487506,-0.4363334
1.466298,-0.1847221,0.2074893,0.4170432,0.4615258,-0.3225124
1.535521,0.06245023,0.4306479,0.05561184,0.3901057,-0.2724538
1.480217,0.1960765,0.4689737,-0.5404261,0.1231613,-0.3061973
1.375724,0.01962562,0.3683567,-0.5765947,0.1467974,-0.1689487
1.365933,-0.1485508,0.3347031,-0.2740853,-0.192478,0.01272438
1.213216,-0.1679957,0.2611602,-0.2781703,-0.3016019,0.004669688
1.035927,-0.1706402,0.1273175,-0.06371219,-0.2333825,0.12023
0.9184864,-0.1377956,0.06466221,0.2231948,-0.4674186,0.4102414
0.7920916,-0.06852523,0.01524968,0.1364534,-0.326253,0.4518109
0.7460892,-0.008922153,-0.02521975,0.1237582,-0.3092726,0.3942598
0.6052745,0.01889671,-0.02523192,0.04771971,-0.3722213,0.3998843
0.5392373,0.02105759,-0.04047367,-0.01977988,-0.1044122,0.4025088
0.6108169,0.04575233,-0.03907472,0.04315853,-0.01901884,0.4504676
0.584234,0.08532945,-0.01817528,-0.1573313,0.1610827,0.494398
0.6706382,0.09041115,0.01013438,-0.3584079,0.371919,0.5074665
0.781321,0.0797706,0.08788538,-0.4571825,0.4018977,0.4675251
0.8579209,0.08629136,0.1444515,-0.5211349,0.419509,0.378573
0.9310611,0.09215632,0.1342305,-0.6808668,0.3513891,0.1874149
0.8167641,0.0937596,0.1264376,-1.002449,0.3481531,-0.05103598
0.7416286,0.06551317,0.1247791,-0.9405641,0.24661,-0.1103179
0.7865115,-0.08795581,0.06931244,-0.8207908,0.200616,-0.2071028
0.9883427,-0.408662,-0.05508549,-0.9302168,0.5006507,-0.5403186
1.369436,-0.7182056,-0.1427694,-0.8734277,0.6948056,-0.8263063
1.506183,-0.7569236,-0.08319314,-0.9351762,0.5402689,-0.8860231
1.41403,-0.5898816,0.0345032,-1.036981,0.1049137,-0.8594779
1.506711,-0.4975963,0.09197978,-1.062001,-0.1804684,-0.8186186
1.798081,-0.503401,0.1259385,-1.27735,0.001033511,-0.6896841
1.908562,-0.4222094,0.1847824,-1.305521,0.2800778,-0.5980858
1.634425,-0.252326,0.2268206,-1.071163,0.3584383,-0.3785469
1.32987,-0.1277391,0.1733375,-0.9941037,0.3332936,0.1061337
1.331441,-0.05913124,0.09649227,-1.328838,0.4728322,0.2395524
1.328876,-0.1122784,0.1134173,-1.84507,0.5951108,0.1065104
1.002829,-0.2692714,0.1396177,-1.864632,0.3689477,0.3081383
0.7181275,-0.3052211,0.139013,-1.573762,0.04764746,0.544155
0.6683876,-0.2797525,0.1115672,-1.447783,0.003851119,0.5557027
0.6229969,-0.2694797,0.03726249,-1.350826,0.1865262,0.4196334
0.5907715,-0.2052938,0.04428731,-1.334995,0.3524358,0.1678807
0.5647001,-0.1891965,0.1119884,-1.222138,0.524838,-0.02879232
0.4696611,-0.1784682,0.1546555,-0.9499494,0.6092889,-0.1989459
0.3756025,-0.1158331,0.1871513,-0.8934444,0.5720428,-0.3669608
0.3285854,-0.04530855,0.1847435,-0.8439503,0.5645669,-0.4299369
0.30108,0.04562232,0.1888331,-0.7065303,0.4287934,-0.5016923
0.3603335,0.08878196,0.1869061,-0.7180014,0.2693005,-0.6694041
0.528201,0.09373805,0.169825,-0.7636086,0.1755275,-0.8438716
0.6304154,0.03531995,0.1726625,-0.7369509,0.05618731,-0.8536264
0.6959718,-0.112661,0.1515701,-0.5422406,-0.05068097,-0.6421197
0.7554479,-0.2425498,0.1406787,-0.1286459,-0.2522418,-0.348304
0.7696413,-0.3826231,0.05665525,0.2329979,-0.3025497,-0.07523064
0.9629883,-0.5578943,-0.1852772,0.3737992,-0.09606232,0.1494028
1.382442,-0.7291286,-0.3305378,0.5639462,0.2175949,0.2956232
1.749775,-0.7953194,-0.2290977,0.8320508,0.5597947,0.2595757
1.790443,-0.6849911,-0.1074263,0.8984777,0.3808684,0.1086461
1.712975,-0.4715084,-0.02979905,0.8537162,0.04614906,-0.02663044
1.802545,-0.1628582,0.1823127,0.6585061,0.1689858,-0.2353435
1.744628,0.01815501,0.3168458,0.3294302,0.06883689,-0.2404287
1.579661,-0.05025232,0.2752888,0.05255635,-0.1207817,-0.0606319
1.550524,-0.1330356,0.301797,-0.232289,-0.1364143,-0.1556739
1.414763,-0.2583037,0.2220138,-0.09134452,-0.481794,-0.2088526
1.200609,-0.3083121,0.07347763,0.2344193,-0.6554824,-0.1605475
1.031517,-0.2163483,0.06188808,0.1846053,-0.6297745,-0.1058546
0.8975593,-0.2417847,0.02945711,0.3792919,-0.7984325,0.2103648
0.8137653,-0.1945656,0.02712444,0.5050074,-0.7699987,0.3771384
0.6743143,-0.09627863,0.02078138,0.3096355,-0.8175077,0.4944027
0.5929129,-0.1438733,-0.02763041,0.4231732,-0.9256792,0.7423739
0.604768,-0.1184218,-0.01356744,0.4572133,-0.7250356,0.7001873
0.568228,-0.0729899,-0.02936126,0.5033142,-0.5263521,0.6361201
0.5739308,-0.03734077,0.001916623,0.6972305,-0.2243447,0.5375783
0.5601144,0.03646911,0.0498344,0.6366671,0.1035707,0.2866097
0.4435888,0.05813318,0.02387411,0.5807492,0.1867072,0.2048272
0.3867615,0.09500047,0.04098166,0.3972218,0.3168116,0.1590948
0.4947079,0.065901,0.07825093,0.1956062,0.5310158,0.1039904
0.7027028,0.01292331,0.1276759,0.3144854,0.574211,0.05864824
0.8021492,0.03588204,0.1217643,0.2753977,0.2808596,-0.09208333
0.812185,-0.02000606,6.276188e-05,-0.1093226,-0.08457146,-0.3306599
0.9813582,-0.2170939,-0.07823859,-0.4611767,-0.1501276,-0.5940127
1.316584,-0.5450357,-0.01155078,-0.341154,-0.04741087,-0.7226804
1.56505,-0.6771747,0.09348474,0.02459597,0.01356741,-0.6828771
1.551041,-0.472742,0.1055371,0.09763683,-0.03770712,-0.6296389
1.513189,-0.4002393,0.182576,-0.07672621,-0.1218577,-0.7780961
1.627116,-0.4691105,0.3097041,-0.2211637,-0.1536326,-0.8300827
1.749428,-0.4224858,0.2811462,0.1467264,-0.09609068,-0.2999868
1.833181,-0.342453,0.2743798,0.7066097,0.1242017,0.3069284
1.590766,-0.2386342,0.2740188,0.5742645,0.3157022,0.3645754
1.095617,-0.1203217,0.1580214,0.007107543,0.293941,0.1761449
0.9709069,-0.08610361,0.1397821,-0.5094645,0.1617515,0.2418523
0.911389,-0.1422231,0.2034844,-0.6005909,-0.00935484,0.4200927
0.6431255,-0.1983181,0.2125167,-0.2820449,-0.3051922,0.5617593
0.5743131,-0.1905435,0.1743485,-0.2193664,-0.517912,0.7536271
0.530113,-0.1660703,0.1002881,-0.1331111,-0.4214554,0.6801803
0.4742598,-0.1407739,0.05878681,0.07827794,-0.3229289,0.4549964
0.5257092,-0.1150897,0.05149842,0.02223262,-0.1806783,0.2337847
0.4708481,-0.1287621,0.04754054,0.0473886,0.07925727,-0.1616813
0.4450858,-0.1990937,0.06392567,0.08135405,0.162484,-0.3644153
0.4515942,-0.2955875,0.07814365,0.2363777,0.07429186,-0.3546253
0.4443156,-0.3117044,0.09860513,0.8779191,-0.4809295,-0.2215022
0.5819892,-0.2783524,0.1208191,1.540902,-1.108516,-0.02255554
0.7355757,-0.3023703,0.138324,1.857224,-0.7999278,-0.09087473
0.8435861,-0.3179035,0.135958,1.806355,-0.2417338,-0.04516224
1.036549,-0.3311998,0.02057781,1.642209,0.03429052,0.2580896
1.375325,-0.3632059,-0.1113732,1.394819,0.4943998,0.5029237
1.558972,-0.3446182,-0.08089472,1.046061,0.4628862,0.5277412
1.423209,-0.3338815,0.02786932,1.047279,-0.02832677,0.1807894
1.449148,-0.3269741,0.1125808,1.156866,-0.02591752,-0.05259173
1.639156,-0.2686447,0.1932571,1.102247,0.1061162,0.0265807
1.655755,-0.1772277,0.2480768,0.967198,0.1486577,-0.05957312
1.513821,-0.04782092,0.2597919,0.6383764,-0.01584969,-0.2327006
1.240849,-0.005811634,0.2150983,0.4177659,-0.4447994,-0.154718
1.125642,-0.1290739,0.1393996,0.4309083,-0.4600788,0.02553349
1.153078,-0.251533,0.1286316,0.645445,-0.530274,0.08851283
1.01577,-0.2515852,0.1053389,0.981104,-0.676907,0.2135736
0.8832574,-0.1874569,0.01955908,1.041537,-0.4689003,0.3334123
0.7394192,-0.1442663,0.006472732,1.050194,-0.5245558,0.3178705
0.6069283,-0.09142614,0.02624657,1.21743,-0.4180642,0.3254224
0.608733,-0.02553351,0.03199271,1.233413,-0.1498141,0.2328412
0.5139806,0.02496172,0.05372191,1.156371,-0.1987576,0.1492089
0.4439779,0.08727041,0.04126378,1.03596,-0.07024708,0.1949872
0.4974286,0.1007761,0.04265938,0.7224619,0.1196891,0.1751603
0.5363386,0.0645636,0.08812382,0.4450855,0.3032073,0.1448029
0.6393858,0.05246427,0.1169692,0.3582819,0.3189488,0.09339325
0.7328785,0.04638891,0.07019198,0.1761083,-0.02812069,0.01694898
0.7864379,-0.01880084,-0.05520094,-0.1396848,-0.2305211,-0.09341362
0.9205626,-0.2665004,-0.1160439,-0.301179,-0.261125,-0.2868894
1.195683,-0.6025974,-0.02704256,-0.2089139,-0.1332609,-0.3940169
1.550024,-0.6668028,0.1087463,0.05700964,-0.02094029,-0.3739134
1.729446,-0.4761451,0.1720497,0.268811,-0.1176296,-0.2930926
1.754522,-0.4079525,0.2094367,0.1887615,-0.109777,-0.2134311
1.824859,-0.4724076,0.275204,0.07889849,-0.1216502,-0.1372996
1.853813,-0.447148,0.2820144,0.2868805,-0.04650463,-0.08653777
1.610404,-0.3392569,0.2520533,0.5463838,0.1906688,0.03712375
1.138166,-0.1952669,0.2395131,0.6988259,0.2506039,0.3473319
0.8617662,-0.07575789,0.2255211,0.7335119,0.2220972,0.3923446
0.8124805,-0.02390179,0.2271931,0.3827887,0.0700206,0.2783069
0.7038886,-0.007241355,0.2237658,-0.01834887,-0.2105845,0.4546192
0.6084925,-0.07822975,0.2021251,-0.07650533,-0.4292813,0.5748816
0.5647875,-0.1702612,0.1402277,-0.07808306,-0.4735145,0.6134765
0.5664793,-0.1846158,0.0734078,-0.1367276,-0.2177,0.5955837
0.5764196,-0.156472,0.09076877,-0.09743195,0.1207298,0.3072014
0.4264737,-0.1282169,0.08755898,-0.03390181,0.3093359,-0.1219169
0.2579373,-0.1793754,0.02775665,-0.1527351,0.3558015,-0.5174198
0.2075085,-0.2404172,0.03056959,-0.170589,0.1920761,-0.4790243
0.276033,-0.2627888,0.05046236,0.3376025,-0.3672568,-0.2050707
0.59775,-0.3929585,0.04773606,1.036644,-0.8810106,-0.1909731
0.9793896,-0.5332186,0.06784986,1.390112,-0.4341779,-0.1114201
1.034612,-0.5008894,0.04988727,1.450499,0.3229077,0.1022785
1.073114,-0.4263215,-0.03823938,1.545952,0.4438172,0.3371602
1.413295,-0.3895538,-0.1124823,1.547285,0.5430973,0.3963594
1.544346,-0.2694755,-0.05885253,1.342199,0.5118636,0.08313843
1.611046,-0.1866221,0.1574886,1.153174,0.1807223,-0.1046245
1.90251,-0.1619126,0.3325003,0.9048547,0.2522469,-0.1563939
1.776213,-0.004001615,0.3225828,0.667749,0.05153921,-0.2179857
1.522306,0.06009439,0.3042535,0.4459743,-0.4508723,-0.1675108
1.474932,-0.03093309,0.3221206,0.1946229,-0.3508889,-0.1425594
1.320522,-0.08391877,0.261834,0.2925895,-0.3406385,0.01058755
1.286149,-0.1581704,0.2106372,0.4799282,-0.4760378,0.1001465
1.112568,-0.1811786,0.1804321,0.5911504,-0.3433823,0.1581047
0.8524074,-0.1567565,0.1045469,0.8830149,-0.3999359,0.4467642
0.835695,-0.1255779,0.07852425,0.9708254,-0.414589,0.4645375
0.7026323,-0.03715355,0.07006309,0.93716,-0.3303705,0.387814
0.6355367,-0.007239725,0.04628738,1.02412,-0.3129978,0.4385761
0.5800953,0.004050548,0.05927117,0.9512084,-0.1307262,0.3783692
0.4357251,0.04969442,0.02741901,0.7618017,0.02939142,0.4056117
0.4939776,0.06524398,0.006951415,0.448707,0.1557453,0.3929953
0.5206114,0.03355388,0.06007503,0.1796146,0.2190623,0.286512
0.6114407,-0.003706203,0.06742768,0.09941786,-0.07567362,0.1561124
0.7358248,-0.01365663,-0.03926262,-0.1895217,-0.4073542,-0.02781106
0.7457232,-0.1707333,-0.1566258,-0.4453133,-0.3916183,-0.1108357
0.9094343,-0.4313876,-0.0839626,-0.2532082,-0.1524547,-0.2875745
1.118823,-0.5384767,0.06821399,0.1027594,0.1363277,-0.5063519
1.368538,-0.5073268,0.1415371,0.3171515,0.3201265,-0.5444855
1.515028,-0.3706721,0.2393707,0.2040925,0.1920879,-0.5733274
1.487924,-0.2420301,0.320082,-0.08821894,-0.1258599,-0.5632994
1.704794,-0.3946285,0.3440873,-0.06761611,-0.297457,-0.4748154
1.868907,-0.5822986,0.3465047,0.3231698,-0.2123542,-0.3549447
1.656954,-0.4015633,0.3171911,0.7144639,0.0760552,-0.04809683
1.299114,-0.1581946,0.2631088,0.7120886,0.2521016,0.400313
0.935632,-0.02633634,0.1828298,0.2868744,0.1105218,0.6003745
0.6447868,0.03619108,0.07517143,-0.492064,-0.06323755,0.6500223
0.5421503,-0.08954756,0.09977297,-0.4352461,-0.002894711,0.4976641
0.5386538,-0.05121046,0.04329897,-0.4149995,0.09073336,0.3007774
0.4652427,-0.06738052,0.01249495,-0.6197503,0.2297187,0.01148323
0.4491869,-0.1780098,-0.03926583,-0.7766482,0.3632566,-0.292584
0.4151994,-0.2320034,-0.04114683,-0.7540613,0.2818958,-0.2702009
0.3797616,-0.299656,-0.0272983,-0.506128,0.08549843,-0.1909542
0.4616416,-0.3154207,-0.05007138,-0.04397407,-0.2375648,-0.2786756
0.5358426,-0.3845555,-0.04202512,0.1948892,-0.3809399,-0.2670615
0.6878113,-0.4361697,-0.05864833,0.4764178,-0.20266,-0.2107689
0.8830066,-0.4209226,-0.1171046,0.8444461,-0.06212915,-0.06994019
0.939015,-0.4944414,-0.2051471,0.6723876,0.1047112,0.224897
1.150882,-0.467255,-0.3303441,0.4802293,0.2354163,0.291031
1.558134,-0.4632293,-0.4412624,0.3503402,0.3125782,0.07724667
1.624948,-0.5358641,-0.392073,0.156302,0.4987709,-0.1078951
1.587137,-0.4719936,-0.1449729,0.7156267,0.5910791,-0.1955826
1.838963,-0.3914141,0.01649323,1.247087,0.6517293,-0.2453992
1.749855,-0.1757484,-0.008228717,0.6981352,0.4750664,-0.2737844
1.416416,0.04568764,-0.00638054,-0.0520651,-0.06852707,-0.2683423
1.3443,-0.04251335,0.04782136,-0.2692764,-0.354812,-0.1615821
1.20828,-0.1482862,0.04472673,-0.06205477,-0.5373857,0.04772009
1.082936,-0.1745067,0.03153183,0.2890613,-0.7037128,0.2131818
0.9145257,-0.2223129,0.044331,0.4290442,-0.5823641,0.3414029
0.6637432,-0.1820231,-0.03981271,0.4233091,-0.6332791,0.4202588
0.6938367,-0.1352136,-0.1319983,0.4520615,-0.5096128,0.287058
0.6886908,-0.1362586,-0.09843198,0.4527036,-0.02116157,0.1208521
0.6299532,-0.0769118,-0.04987131,0.4514369,0.1636976,0.06719034
0.5911594,0.008668504,-0.01408317,0.3095859,0.2190766,0.06075485
0.4264967,0.0692634,-0.01901193,-0.08775644,0.2673131,0.147243
0.4484425,0.05094795,-0.04285805,-0.4334329,0.2514431,0.1846072
0.5538018,-0.05384765,-0.02885794,-0.4993128,0.1511776,0.1253844
0.6546199,-0.08270858,-0.09472421,-0.6338987,-0.1333225,0.05929414
0.822499,-0.1500112,-0.195546,-1.165046,-0.1449442,-0.06291076
1.01012,-0.4181469,-0.1985745,-1.360796,0.05514073,-0.221474
1.338742,-0.654104,-0.07090611,-0.7845214,0.1201777,-0.396149
1.553038,-0.6592753,0.04830257,-0.3653307,0.1205603,-0.3891371
1.714428,-0.5438615,-0.04513086,-0.5261475,0.07335912,-0.2325212
1.991684,-0.543693,-0.1169921,-0.5886885,0.09146002,-0.2203582
1.958097,-0.5727058,0.02226015,-0.1944333,0.01967362,-0.1164548
1.706032,-0.5041682,0.1005698,0.1308191,-0.07286941,0.08351591
1.435364,-0.4014677,0.04995421,0.1725872,0.1218996,0.2169786
1.06759,-0.1759107,0.03944958,0.1349514,0.2408754,0.4108946
0.8939213,-0.02460379,0.05494667,-0.1052302,0.08727641,0.4309751
0.8664116,-0.05712712,0.04812396,-0.3374619,-0.05157769,0.3738311
0.7243512,-0.05073292,0.05722461,-0.4283045,0.001001838,0.4289947
0.6194928,-0.06305522,0.06225972,-0.4438346,0.1338419,0.3522754
0.5239093,-0.05356209,0.037726,-0.4268716,0.2489277,0.2764683
0.3727262,-0.006490671,0.01453552,-0.624442,0.3440035,0.1808436
0.3048557,-0.02979674,-0.002810112,-0.792126,0.231251,-0.02510538
0.3217546,-0.0924262,-0.03275508,-0.8216584,0.1037053,-0.1010114
0.3692014,-0.2219936,-0.0674626,-0.7450029,0.03817684,-0.1195427
0.4101586,-0.3213075,-0.06000147,-0.4976575,-0.3259151,-0.178049
0.5561741,-0.4041217,-0.02245887,-0.2502038,-0.5958366,-0.2608491
0.8045033,-0.4962405,-0.01471985,0.3264284,-0.4135053,-0.2374753
0.9103657,-0.4444218,-0.03994208,0.9054496,-0.2536837,0.01056462
0.9738868,-0.4179045,-0.1590751,0.7623494,-0.2527478,0.3233836
1.231638,-0.4661612,-0.3361224,0.4105228,-0.03030008,0.513025
1.471374,-0.4678317,-0.3518038,0.2053944,0.2214701,0.2231408
1.351425,-0.526972,-0.2646704,0.08212738,0.07181991,-0.3106366
1.250875,-0.5306736,-0.2454377,0.3087947,-0.02962152,-0.4695788
1.584648,-0.3190862,-0.1725482,0.5560503,0.2260329,-0.4388297
1.784009,-0.027646,-0.0395853,0.3376212,0.3386016,-0.3645317
1.592878,0.09112339,-0.01516378,0.02190405,0.1658165,-0.246199
1.407496,-0.03683946,-0.03839705,-0.2555659,0.01487915,-0.09363317
1.258766,-0.1481475,-0.003006413,-0.4809266,-0.03249728,0.1406228
1.065002,-0.1814207,0.01810322,-0.2878512,-0.1152449,0.1902407
0.8861625,-0.2318706,-0.02150055,-0.04621368,-0.153529,0.1882357
0.7972108,-0.1624314,-0.07001717,0.09253564,-0.06977435,0.2273943
0.7846722,-0.06863728,-0.09274129,0.2546501,0.001361942,0.1475043
0.8051557,-0.01299578,-0.09240657,0.1278867,0.2258998,0.08810324
0.8186491,0.1143471,-0.08899336,-0.02689809,0.5635603,0.06063139
0.733352,0.128913,-0.07362768,-0.2709723,0.6815602,0.179569
0.6121577,0.08476146,-0.03463168,-0.7189798,0.6820114,0.3701333
0.5252877,0.1112935,-0.01459247,-0.8605622,0.6449705,0.372893
0.5463784,0.05351,0.005360318,-0.9251811,0.5717662,0.306255
0.7138033,0.03153729,0.05294082,-1.066522,0.4944616,0.203569
0.8514795,0.05783252,0.06061348,-1.168131,0.3363171,0.1161908
0.8677147,-0.01133323,-0.01154565,-1.427668,0.2678071,0.1063945
0.8000363,-0.1028147,-0.1281085,-1.591238,0.2788032,0.09394426
0.7920956,-0.2902322,-0.1700193,-1.56503,0.2414404,0.008510733
0.8863197,-0.5133913,-0.1223393,-1.508917,0.3211714,-0.2714448
1.027868,-0.6470321,-0.08163915,-1.238989,0.3644474,-0.6549718
1.292324,-0.7044673,-0.01012036,-0.8813401,0.1345619,-0.7988552
1.589523,-0.5649994,0.02404992,-0.8397112,-0.03158994,-0.4972786
1.86282,-0.4376674,-0.01866359,-0.9150031,0.2736681,-0.2031517
1.983273,-0.4328027,0.01279993,-0.8336505,0.7075538,-0.2568403
1.78222,-0.289919,0.06320288,-0.9100304,0.7980622,-0.149504
1.469331,-0.1103596,0.0845399,-1.081845,0.80585,0.157809
1.062904,0.0008088908,0.09305897,-1.278073,0.7649047,0.3965529
0.7654761,0.03602431,0.04580566,-1.757956,0.5005992,0.6765359
0.8253624,-0.020244,0.03365318,-2.139278,0.3399765,0.8346114
0.7971962,-0.103935,0.04315628,-2.167841,0.3155852,0.8601525
0.7034309,-0.2431267,0.02379985,-1.862745,0.3181203,0.8156959
0.7149382,-0.2649919,0.007791241,-1.423531,0.3681061,0.6201499
0.5800083,-0.1644606,-0.03837989,-1.391284,0.3624139,0.3886689
0.5257869,-0.1594993,-0.07461463,-1.49053,0.4335021,0.06239301
0.5400805,-0.1811877,-0.08350756,-1.407919,0.4920016,-0.1336649
0.3979254,-0.2134774,-0.08647905,-1.312739,0.2740109,-0.01387626
0.3544614,-0.2878769,-0.06724718,-1.107193,-0.182798,0.004212539
0.4879192,-0.4058024,-0.03068019,-0.7205048,-0.5510226,-0.05807523
0.8158164,-0.5465544,0.02743752,0.026998,-0.1538184,-0.08453384
1.125459,-0.5333692,0.05476064,0.7254932,0.7358109,-0.2772728
0.9296085,-0.2796871,0.08923768,0.5962809,1.00166,-0.5159898
0.5877981,0.07396075,0.146335,0.1268398,0.4671467,-0.4985023
0.6554806,0.1095967,0.02678333,-0.1443107,-0.1672401,-0.008493452
1.019594,-0.3260601,-0.2524983,-0.319555,-0.09937612,0.4611281
1.446509,-0.7701083,-0.4034784,-0.1798787,0.4305761,0.1151331
1.5385,-0.8418928,-0.2699273,-0.01352429,0.6068574,-0.5135858
1.374916,-0.556952,-0.08092364,-0.1126279,0.4274597,-0.5535202
1.538799,-0.2796971,-0.09986454,-0.1282475,0.1067779,-0.2231062
1.667788,-0.2312177,-0.1638777,-0.408645,0.02526015,0.04131536
1.524325,-0.2179624,-0.1674908,-0.9795839,0.0901533,-0.1122562
1.434734,-0.2644432,-0.1294352,-1.133984,-0.124629,-0.416365
1.166072,-0.3893193,0.01090703,-0.8973275,-0.2741045,-0.2947761
0.9256077,-0.4030545,0.0572778,-0.5247557,-0.4116985,-0.2287937
0.9311789,-0.2759746,-0.06466975,-0.2096311,-0.4803809,-0.1750571
0.8701164,-0.09450145,-0.1878459,-0.1494265,-0.3390606,0.1481629
0.8575109,-0.05125255,-0.2335598,-0.3176897,-0.2604846,0.1937892
0.8545146,-0.09385845,-0.1791777,-0.4919883,0.1289999,0.1702968
0.7429456,-0.04848098,-0.1113076,-0.4538656,0.5645384,0.12273
0.5967746,-0.03787972,-0.00777727,-0.3627348,0.6383451,-0.04694764
0.3928029,-0.0324907,0.0941059,-0.2498632,0.5763073,0.005889875
0.2853963,0.04679246,0.03930623,-0.2211066,0.3570496,0.02779912
0.3255572,0.07909449,-0.02729343,-0.441671,0.3235248,0.02863178
0.4834756,0.07156077,-0.04474983,-0.6649903,0.5476887,0.03511541
0.7294445,0.09048563,-0.04317923,-0.8706608,0.7255056,-0.09859632
0.8724652,0.1183912,0.008816725,-1.055357,0.6005049,-0.1796206
0.8752293,0.1025962,-0.02235045,-1.30253,0.1619656,-0.2195348
0.8670879,-0.05480562,-0.1376141,-1.641792,-0.03153574,-0.1967378
0.9221331,-0.3914613,-0.2747855,-1.734296,-0.001381266,-0.2806573
1.037094,-0.680304,-0.3306789,-1.648117,0.01415037,-0.5767312
1.278739,-0.7156457,-0.1721941,-1.41114,-0.06805152,-0.8502615
1.613227,-0.6840756,-0.05245019,-1.154887,-0.2163647,-0.9604165
1.836724,-0.6963497,-0.08742878,-1.093957,-0.1306998,-0.7170583
1.962382,-0.6258949,-0.06855412,-0.6609385,-0.07403616,-0.3499258
1.986438,-0.5161296,-0.04546475,-0.05038163,0.1101512,-0.06003642
1.776961,-0.3896183,-0.06262207,-0.1611643,0.5230756,0.1767826
1.454971,-0.1964566,-0.01290603,-0.4712566,0.5370834,0.1236468
1.172036,-0.0734116,0.03990543,-0.5154143,0.4029576,0.1252965
0.9719198,-0.08320729,0.0230806,-0.8851544,0.3283363,0.3837582
0.8498887,-0.1212803,0.01831807,-1.0789,0.06715853,0.5219057
0.6887102,-0.1707926,0.04241722,-0.8498234,-0.1979681,0.6537525
0.5422805,-0.2008338,0.03640593,-0.9570075,-0.3520324,0.7405814
0.4828807,-0.1650721,0.01932015,-0.9379585,-0.3656744,0.6103588
0.4454679,-0.1444663,-0.01191589,-0.7557741,-0.1697397,0.5158755
0.4829713,-0.1375698,-0.03753857,-0.8034233,0.1214647,0.367258
0.5505739,-0.1022243,0.002131853,-0.7054284,0.3030008,0.03310035
0.583683,-0.106415,0.03336997,-0.7111642,0.4031519,-0.2383043
0.5541095,-0.192142,0.01797522,-0.6885928,0.4407285,-0.3589475
0.4476684,-0.3234564,0.02523213,-0.330207,0.302439,-0.3691556
0.447314,-0.3919195,0.04757996,0.1907219,-0.03001663,-0.3425806
0.522817,-0.4313249,0.04336919,0.7676252,-0.4332811,-0.3505258
0.6219006,-0.509199,0.02339328,1.04202,-0.4449426,-0.3086942
0.8393927,-0.4643996,-0.03390739,1.213904,-0.2105489,-0.07574719
1.097213,-0.360517,-0.1777495,1.204266,-0.09949968,0.3253022
1.375804,-0.3695462,-0.2916252,0.8439543,0.2910197,0.4743594
1.583045,-0.4078935,-0.2219333,0.6063292,0.4915587,0.1241162
1.706864,-0.4382347,-0.06033399,0.3054987,0.1867517,-0.3025669
1.841271,-0.3873694,0.03874342,0.3241188,0.1691945,-0.4404133
1.842346,-0.2290215,0.04146379,0.6157474,0.2052839,-0.3606538
1.731607,-0.1120649,-0.008476287,0.3559335,0.05125156,-0.2761002
1.53691,-0.07583713,-0.01761365,0.2090609,-0.0357738,-0.2523233
1.293608,-0.1390225,0.01398536,0.2042612,-0.2672332,-0.1416808
1.135036,-0.2273022,0.017189,0.2239468,-0.482407,-0.002611293
0.9309544,-0.2349286,0.0001507232,0.7227639,-0.5088196,0.04250509
0.7688876,-0.2198917,-0.02032007,0.945512,-0.4216581,0.07398806
0.7199216,-0.1535067,-0.03484872,1.008224,-0.3191545,0.06597434
0.6405253,-0.04935704,-0.02475392,1.177601,-0.2720492,0.05349499
0.5813365,0.03455239,-0.01642962,1.038751,-0.1680215,0.0828168
0.4838523,0.1168957,-0.06930844,0.8520049,-0.1077467,0.1009345
0.4388636,0.1325719,-0.1238896,0.3338116,0.05803675,0.1716097
0.5459405,0.09269024,-0.06671953,-0.238069,0.2812591,0.2014642
0.6470946,0.04327504,-0.01700213,-0.2948057,0.1937593,0.1367664
0.7308455,-0.002326825,-0.06685803,-0.4017077,0.0231592,0.111547
0.7595002,-0.04065095,-0.1376496,-0.6873016,-0.1566746,0.1131345
0.8193885,-0.1850912,-0.2239639,-1.061158,-0.2332222,0.07208567
0.9780098,-0.3843318,-0.2308218,-1.186553,-0.07112825,-0.1152897
1.157988,-0.5087251,-0.09566205,-0.6197584,-0.05657844,-0.3736593
1.440299,-0.6289974,-0.004465125,-0.06146761,-0.2045227,-0.4543555
1.592592,-0.6445614,-0.03867927,-0.1264805,-0.3182185,-0.4098095
1.649259,-0.5111674,-0.06094554,-0.2690071,-0.28652,-0.3450323
1.934067,-0.5105922,-0.0203032,0.01552649,-0.1301018,-0.2100977
1.97009,-0.5352313,0.003715313,0.3116208,0.001032634,-0.0730277
1.683488,-0.4063847,0.01900918,0.4119163,0.2400971,0.1029817
1.461223,-0.2673296,0.03340955,0.2879931,0.4039752,0.3575307
1.061487,-0.07610055,0.02923804,-0.1265593,0.2559891,0.4357959
0.7504575,0.04270084,0.06504597,-0.3161056,0.02498609,0.4800833
0.7142248,0.01194149,0.0775982,-0.4512305,-0.2391369,0.6881777
0.5640613,-0.03413367,0.04244578,-0.5903554,-0.3793646,0.7018888
0.5519477,-0.1438637,0.03473092,-0.4228122,-0.1297801,0.542764
0.6086147,-0.1539032,0.002618319,-0.4632405,0.1998694,0.3105939
0.5261005,-0.1188201,-0.01839582,-0.5098948,0.2715427,-0.03629376
0.544287,-0.2111399,-0.01922848,-0.3819881,0.196524,-0.1049317
0.4797078,-0.2874245,-0.05259413,-0.2175031,0.03683643,0.03085398
0.4215304,-0.4007063,-0.03142493,0.299278,-0.3244953,0.006348972
0.5180739,-0.476301,-0.006736944,0.7160573,-0.6396706,-0.1125175
0.6386642,-0.4586946,-0.02006795,1.032428,-0.4228783,-0.2661541
0.8175595,-0.4316205,0.0002357206,1.540042,-0.1451134,-0.315137
0.8347391,-0.3032786,-0.02294053,1.644909,-0.4504416,-0.1159565
0.8801084,-0.2396207,-0.1589685,1.294126,-0.5673706,0.2122436
1.26493,-0.3186823,-0.3500445,0.9370754,-0.1739406,0.321996
1.562508,-0.3705445,-0.3783122,0.7432482,0.05401482,-0.1285319
1.599769,-0.3729324,-0.1385851,0.6179836,0.163266,-0.5884981
1.69165,-0.3176516,0.04133026,0.6010847,0.2427721,-0.3615282
1.829536,-0.1943967,-0.0189547,0.5852033,0.2274033,-0.1601599
1.651864,-0.02388911,-0.03428453,0.08830278,0.2100808,-0.361391
1.377823,0.03454968,0.07471468,-0.3543459,0.1112791,-0.2347705
1.34826,-0.1231329,0.1088554,-0.07890387,-0.07902596,-0.009724092
1.191701,-0.2658689,0.1197584,0.2956034,-0.2774895,0.0350781
1.032254,-0.2423504,0.1034608,0.4396146,-0.2221607,0.2115793
1.079107,-0.150259,-0.02961305,0.5882313,-0.1073358,0.2886784
0.9758855,-0.06306174,-0.08035399,0.5652158,-0.1406807,0.3172021
0.8327772,0.007580985,-0.07436557,0.3866073,0.04257959,0.3586619
0.7142381,0.02466343,-0.09870487,0.2810647,0.1591031,0.3090559
0.5767772,0.01308584,-0.04452366,0.1231632,0.09971111,0.3548094
0.5561281,0.02912193,-0.02912812,-0.008405762,0.1402142,0.3383139
0.5057982,0.03516003,-0.03096518,-0.07450621,0.1112293,0.3617268
0.4878904,0.04725457,0.006809668,-0.2202709,0.12743,0.4535478
0.6336469,0.07437198,-0.005583398,-0.332017,0.2145144,0.3505951
0.8140475,0.07732014,-0.01479979,-0.6187728,0.2912386,0.2597776
0.8970867,0.08456847,-0.03285649,-0.9996833,0.3767194,0.1652629
0.8606538,0.08362326,-0.00810931,-1.090517,0.3434065,0.06265221
0.8694901,0.07347074,0.04240207,-1.118056,0.293539,-0.002785936
0.9150801,0.005958771,-0.03116858,-1.27251,0.2615246,-0.127668
0.9835671,-0.2611341,-0.1975869,-1.570447,0.3026963,-0.1440581
1.182579,-0.6540976,-0.3611877,-1.666895,0.3849061,-0.2687425
1.342251,-0.8552304,-0.3146055,-1.314665,0.2478011,-0.5565795
1.418041,-0.7661058,-0.1646015,-1.03952,0.133826,-0.6209311
1.590077,-0.6815268,-0.1513623,-1.02355,0.1963781,-0.5544681
1.833028,-0.6469896,-0.06894243,-1.014141,0.2529506,-0.5189778
1.915612,-0.473396,0.006522968,-0.917857,0.3698746,-0.44217
1.692475,-0.2696619,0.01429485,-0.9330961,0.4955394,-0.2570096
1.357171,-0.116068,0.0917039,-1.140405,0.510087,0.03331791
1.169801,-0.06759931,0.007184828,-1.403121,0.5262239,0.3274585
1.136297,-0.1681292,-0.06894797,-1.793959,0.5714952,0.4959236
1.06211,-0.2640051,0.03632831,-1.89196,0.5253504,0.5220076
0.8765639,-0.3307021,0.03617171,-1.584242,0.3816763,0.5418658
0.7501056,-0.3207517,-0.01519499,-1.412507,0.2143034,0.4955106
0.658033,-0.2350855,-0.0515221,-1.329455,0.1672483,0.345746
0.5315844,-0.2046727,-0.05980783,-1.304304,0.2516609,0.2007223
0.4779742,-0.1691484,0.0012147,-1.259872,0.2351622,-0.0007598264
0.4261988,-0.1527414,0.0314836,-1.049099,0.2186729,-0.1616655
0.3589008,-0.1313855,0.07993327,-0.8641289,0.2437257,-0.2990698
0.3537481,-0.04966128,0.08583247,-0.7060361,0.1635358,-0.5198981
0.3696251,-0.04955933,0.0555117,-0.6706098,0.1853211,-0.6084119
0.4514614,-0.04688385,0.09450887,-0.692071,0.2223665,-0.6151155
0.5777749,0.005465526,0.08793229,-0.5780896,0.1680219,-0.6015463
0.6646893,0.009791407,0.07916981,-0.4995873,0.1258317,-0.473983
0.7424412,0.00358869,0.08484613,-0.5090833,0.006867051,-0.3649254
0.782167,-0.04746506,0.06991193,-0.5088007,-0.01548372,-0.296508
0.755457,-0.1370416,0.1114155,-0.3566859,-0.003645498,-0.2982462
0.7431776,-0.2142479,0.1164209,-0.1350812,-0.1790875,-0.2707166
0.8057939,-0.3263531,-0.03084485,-0.06710513,-0.4534847,0.05813616
1.009098,-0.5284416,-0.3678703,-0.1139986,-0.6404501,0.4899939
1.367773,-0.7200811,-0.6613018,-0.2069944,-0.164852,0.5811821
1.566606,-0.7071265,-0.6070307,-0.2128119,0.4801988,0.2678407
1.518811,-0.6372565,-0.4305204,-0.04524453,0.2157938,-0.01915205
1.627388,-0.6307856,-0.3183773,0.334848,-0.05039243,-0.1357599
1.756306,-0.5234677,-0.1049617,0.7089192,0.1199716,-0.4499085
1.560214,-0.3746466,0.07673759,0.5856986,-0.1469395,-0.7497911
1.353522,-0.2443087,0.02289109,0.3921521,-0.4907221,-0.4989127
1.347436,-0.1903729,-0.04813537,0.5945955,-0.6927,-0.1390169
1.24876,-0.266876,-0.01120612,0.7138595,-0.7970873,-0.2767031
0.9586332,-0.2369708,-0.03781274,0.8172897,-0.6450595,-0.2795611
0.7637353,-0.1575211,-0.0671715,1.047466,-0.7990932,0.06097374
0.7013991,-0.1242912,-0.03715692,1.005493,-0.933564,0.1454525
0.6029095,-0.009978182,-0.07794384,0.8789588,-0.7914944,0.278848
0.5425839,0.01462414,-0.09431334,0.7471438,-0.7342013,0.4053822
0.5381937,-0.007124551,-0.04699564,0.5244379,-0.4415909,0.3075659
0.5502307,0.02234828,-0.01756362,0.5405777,-0.2365557,0.3261436
0.5798377,-0.01150763,0.0312872,0.6298065,-0.07193781,0.1822607
0.5766723,0.01893705,0.02548913,0.6291602,0.3620927,0.03851722
0.5914541,0.07981036,-0.009786153,0.5563888,0.5157484,0.07368392
0.6400043,0.09460496,-0.002493208,0.2017789,0.5651434,0.01980629
0.7164097,0.05967522,-0.02525092,-0.1784516,0.5773467,0.04070823
0.7887148,-0.08570155,-0.07229311,-0.3274232,0.3422976,-0.05346055
0.7949161,-0.2471889,-0.2062111,-0.4213244,-0.06727884,-0.1655081
0.9453845,-0.5264761,-0.3413502,-0.6074494,-0.48749,-0.1187605
1.289372,-0.7661134,-0.2636452,-0.5453445,-0.3319761,-0.2506562
1.5782,-0.6345593,-0.1293487,0.1275983,-0.04978291,-0.420292
1.789592,-0.4779248,-0.09600677,0.6913263,-0.05204934,-0.4906695
1.874847,-0.4704714,-0.09651367,0.5010906,0.1287606,-0.5016388
1.834474,-0.4211122,-0.08064477,0.2976037,0.07455936,-0.3833645
1.817743,-0.3696666,-0.0282819,0.6040195,-0.05571108,-0.05460365
1.534147,-0.2589924,0.002391203,0.6908715,0.1872064,0.3033849
1.000643,-0.1025054,0.02169033,0.4206759,0.2702047,0.3034841
0.7893106,-0.03815355,0.09722935,0.1839154,0.2203801,0.2521334
0.7805954,-0.0148849,0.1113768,-0.2638987,0.03851385,0.3762505
0.6898861,-0.04196721,0.07666158,-0.436902,-0.4091295,0.3949762
0.6490669,-0.1133166,0.08972269,-0.1512866,-0.6377515,0.4081951
0.584111,-0.1492556,0.0158265,0.008250649,-0.5635728,0.451747
0.5181147,-0.1569431,-0.0755069,0.194487,-0.2997807,0.335846
0.5162606,-0.1529814,-0.04949533,0.14693,0.05465968,0.08147069
0.4157957,-0.2277887,-0.03268301,-0.03240769,0.1853051,-0.1291236
0.3148459,-0.3117449,-0.02896233,0.1920486,0.05766346,-0.1589645
0.36004,-0.3040394,0.001684518,0.4708539,-0.2135463,-0.1382259
0.5316661,-0.3446993,0.008935017,0.8478314,-0.5566706,-0.2699331
0.8238812,-0.3939289,0.009849972,1.229467,-0.6951098,-0.4624404
0.9846994,-0.3968707,-0.02189692,1.477165,-0.4204364,-0.4536551
0.9419312,-0.4016082,-0.1865538,1.802989,-0.2132838,-0.05734099
1.104372,-0.3815485,-0.3734531,1.697761,-0.2480153,0.6001495
1.377584,-0.3859815,-0.3428447,1.380678,0.03583762,0.8156926
1.378204,-0.408956,-0.2259945,1.205824,0.3734695,0.2728849
1.367232,-0.4271434,-0.167494,0.8971862,0.3455049,-0.2536454
1.497699,-0.3855127,-0.05415673,1.124523,0.3495062,-0.2727821
1.541261,-0.1419724,0.0002531076,1.473561,0.3897635,-0.1765758
1.580462,0.1552029,-0.001430316,0.904483,0.05756696,-0.2223233
1.547772,0.1480082,0.04393515,0.2369378,-0.3893748,-0.2137166
1.199045,-0.1190235,0.005897389,0.01545864,-0.6087825,-0.05420661
0.8505794,-0.3135073,0.006706154,0.3253449,-0.9157272,0.1343206
0.8271699,-0.3918117,0.03685397,1.0372,-1.119809,0.2602749
0.8769011,-0.3491856,-0.06580902,1.34173,-0.8790647,0.2631791
0.7829735,-0.2388474,-0.1033151,1.529221,-0.6011923,0.1648219
0.7665498,-0.206523,-0.07689068,1.683144,-0.3050324,-0.008472764
0.8213639,-0.07982127,-0.0539503,1.493917,-0.05272159,-0.1359916
0.6927132,0.1063228,-0.01518401,1.353487,-0.1492918,-0.00434893
0.6041425,0.1806199,-0.03767332,0.9020551,-0.1062624,0.1901295
0.6491696,0.1817713,-0.01806176,0.3335789,0.2041842,0.2208773
0.6938542,0.1207847,0.03279001,0.1966274,0.2507391,0.1771082
0.782203,0.1091626,0.03150185,-0.05924832,0.06949998,0.1279867
0.7377247,0.09059605,-0.0734096,-0.5685714,-0.1671772,0.1391102
0.6961154,-0.05428958,-0.283674,-1.146197,-0.3109766,0.08415724
0.8790598,-0.3303215,-0.3170194,-1.34617,-0.05447751,-0.1735291
1.104021,-0.6523062,-0.1491014,-0.7920389,0.1813311,-0.436484
1.342751,-0.7035328,-0.0386412,-0.2391938,-0.01705326,-0.5067931
1.540001,-0.5585581,-0.06786898,-0.1406009,-0.1374922,-0.3570363
1.698348,-0.5052306,-0.09906998,-0.1988686,-0.04658822,-0.1876345
1.815257,-0.5543945,-0.02182259,-0.07792014,-0.1359989,-0.1291895
1.772996,-0.5885458,0.00494696,0.3727274,-0.2008002,-0.05774791
1.653371,-0.4536146,-0.004759816,0.6762169,0.0590534,0.03493455
1.367742,-0.2697422,0.0354803,0.5261758,0.3053546,0.1468054
1.018253,-0.1138284,0.03815128,0.270527,0.228964,0.2714852
0.8349732,0.0203735,0.06411743,0.02061907,-0.01773373,0.3946056
0.6624873,0.01702548,0.1005409,-0.2886555,-0.2616299,0.5237385
0.5627849,-0.03394891,0.09787365,-0.3764963,-0.377486,0.5103326
0.5581939,-0.07795229,0.078674,-0.2562864,-0.2436122,0.4176623
0.5038843,-0.100094,0.02356497,-0.2857488,-0.003001162,0.2635203
0.4816571,-0.09161822,-0.0004067259,-0.3423057,0.1796545,-0.0489945
0.4302936,-0.1583779,-0.02249123,-0.2936839,0.2636848,-0.1919114
0.3469422,-0.2518275,-0.0615135,-0.1069657,0.1223812,-0.1258811
0.3547488,-0.3188357,-0.03493417,0.3902894,-0.2156581,-0.1449044
0.4059948,-0.4059439,-0.01524856,0.876041,-0.5487032,-0.2048308
0.5760575,-0.5133045,-0.02664656,1.270537,-0.5736045,-0.2209536
0.858187,-0.5493953,-0.04784556,1.763914,-0.329578,-0.103389
0.9827131,-0.493677,-0.1674887,1.864136,-0.1778869,0.196949
1.071888,-0.4164855,-0.311729,1.551793,0.08519803,0.3551798
1.372961,-0.2657553,-0.2666561,1.188742,0.1983988,0.1044302
1.562618,-0.1326779,-0.1017101,0.5950611,-0.02354041,-0.1347302
1.582658,-0.1316729,-0.04502807,0.296806,0.09589991,0.02316684
1.725345,-0.1556602,-0.02044207,0.5605676,0.1187259,0.06802894
1.731934,-0.1751664,0.05164953,0.4410292,-0.03287331,-0.2456896
1.506492,-0.1734664,0.04416896,0.1662409,0.05211534,-0.3964253
1.313313,-0.1806893,0.01291874,0.2484447,-0.2118536,-0.2476244
1.164006,-0.2442526,0.02891194,0.3158182,-0.5341658,-0.05506027
1.073497,-0.2577628,-0.001159617,0.6127952,-0.6413496,0.04276693
0.9549292,-0.2125773,-0.06699597,0.9361594,-0.6960438,0.1521644
0.7638671,-0.1603071,-0.1158231,0.9474477,-0.6350342,0.3225345
0.663064,-0.128736,-0.1359923,0.9962298,-0.7304617,0.3203563
0.6144531,-0.1226026,-0.1001147,1.009362,-0.5603666,0.2204425
0.5688057,-0.0687664,-0.04630104,1.085227,-0.1206121,0.1521774
0.5209833,0.01920717,-0.01817863,1.174575,0.07676429,0.08273357
0.483477,0.08284549,-0.02137756,0.9460315,0.1966589,0.1171386
0.5297582,0.08686175,-0.0432405,0.585564,0.2062778,0.1432815
0.5993228,0.0444903,-0.04313556,0.3229635,0.2001423,0.1299536
0.6589773,0.002914244,-0.1125254,0.2234591,0.03902514,0.1487379
0.6899817,-0.1220688,-0.2856133,-0.1413665,-0.385314,0.1127972
0.7938217,-0.4095337,-0.3403666,-0.8143225,-0.4642697,0.03591051
1.161151,-0.7500271,-0.1858631,-0.8627937,-0.153662,-0.2333209
1.532329,-0.8315306,-0.03645723,-0.07274694,0.1439777,-0.5999471
1.627017,-0.5536732,-0.05830825,0.5347182,0.08685717,-0.6205686
1.673878,-0.3687571,-0.07443154,0.1370414,-0.2074344,-0.4618341
1.866798,-0.4844193,-0.02146823,-0.2610693,-0.393265,-0.3297652
1.942885,-0.5658852,-0.05791743,0.2352223,-0.4707902,-0.04164138
1.690779,-0.5158488,-0.04039613,0.5225575,-0.1465507,0.09395561
1.339342,-0.4187439,0.03654673,0.4706497,0.2869048,0.008187928
1.123299,-0.2551161,0.04028173,0.6008908,0.2626563,0.1237981
1.076875,-0.171681,0.06469315,0.3967578,0.09366883,0.2415717
0.9733562,-0.1434706,0.06855357,0.1723157,-0.06074641,0.3331781
0.6935805,-0.01090314,0.09041883,0.1950781,-0.1133885,0.4518349
0.6046739,-0.03621187,0.1331297,0.2007636,0.007993481,0.2785776
0.6122264,-0.1483364,0.08111416,0.2644217,0.1713577,0.08163386
0.4117379,-0.07195109,0.04182033,0.1180759,0.3486616,-0.08491044
0.2853293,-0.1167642,0.0004347371,-0.05133859,0.3035293,-0.205582
0.2492622,-0.2467451,-0.03566991,0.07214036,0.04137423,-0.05096979
1.088007,-0.2145642,0.07600052,1.012306,0.07178197,-0.01339236
0.9342002,-0.08033849,0.08947228,0.5874676,0.1591304,0.04699912
0.6122287,0.02752556,0.1702748,0.5110903,-0.1365169,0.1275627
0.5280124,0.07462738,0.1602711,0.2840494,-0.4894976,0.2709597
0.7566416,-0.1126342,0.108704,0.2330034,-0.4659436,0.2958419
0.6162667,-0.1278812,0.09011334,0.4112308,-0.3417933,0.205939
0.6275321,-0.1010407,0.06032789,0.2534178,-0.1464457,0.02466962
0.7485547,-0.1620657,0.04060701,0.2085291,0.04526097,-0.2842118
0.5664782,-0.09587894,0.0372284,0.1750473,0.03044675,-0.4146062
0.5507741,-0.1964462,0.02504109,0.2476608,-0.2234191,-0.3092811
0.4653575,-0.2836909,0.0760399,0.8169497,-0.6453809,-0.3383062
0.4468142,-0.3037844,0.1011093,1.26636,-0.967361,-0.4272056
0.7432622,-0.4084948,0.02874845,1.587461,-0.88967,-0.4712318
0.9609088,-0.390032,-0.03216045,1.914181,-0.6222464,-0.5034476
1.143114,-0.4027755,-0.08345694,2.084854,-0.4769389,-0.2455744
1.217044,-0.4270895,-0.1909556,2.131216,-0.1403156,0.1753506
1.323359,-0.413208,-0.3237348,1.939183,0.2727954,0.275592
1.403289,-0.3607181,-0.3046353,1.583537,0.2623127,0.001144485
1.269282,-0.2068049,-0.1689513,1.06793,-0.06638241,-0.2318567
1.402785,-0.2088765,-0.1039355,0.8810277,-0.2787555,-0.1995472
1.485441,-0.1810755,-0.02938081,1.020552,0.1678095,-0.3180512
1.344103,0.02516737,0.07236387,0.6484941,0.5944994,-0.5629415
1.241982,0.1029589,0.1257186,0.2558414,0.02839315,-0.4898729
0.9723464,-0.0182892,0.1085145,0.1695465,-0.523732,-0.2974456
0.941308,-0.1628694,0.07697612,0.2705155,-0.5128769,-0.09938226
1.039463,-0.1357783,0.0781523,0.7146774,-0.6299858,0.1231033
0.821058,-0.1269482,-0.05468016,0.9596407,-0.6970966,0.2862162
0.6778273,-0.1469768,-0.1924121,0.9962465,-0.6086698,0.5610075
0.657587,-0.0386003,-0.1534407,0.9158704,-0.6786442,0.6963517
0.6797164,-0.0826753,-0.1369339,0.7403976,-0.5665596,0.5760746
0.7255708,-0.1556363,-0.1483318,0.8124816,-0.1775397,0.461653
0.6890835,-0.1083864,-0.09309602,0.7886789,0.1632472,0.1805057
0.6035847,-0.08726116,-0.0008196601,0.7134524,0.4389872,-0.02165664
0.3957043,0.06202196,0.07377846,0.5350662,0.4422259,0.06094265
0.3292573,0.2012187,0.08415415,-0.001027034,0.1642202,-0.01774392
0.5585211,0.1794853,0.05949907,-0.3779917,-0.1031813,-0.1363725
0.7961988,0.1392795,-0.02741816,-0.701441,-0.2911042,-0.1168451
0.9478734,0.04239705,-0.1366701,-1.055251,-0.2812131,-0.143878
0.9957535,-0.1272698,-0.1441333,-1.004538,-0.1976155,-0.1981692
1.116302,-0.4097704,-0.08966338,-0.6745576,0.1605787,-0.4199604
1.352825,-0.6828272,-0.07861931,-0.3324633,0.6608619,-0.6834693
1.390395,-0.6920872,-0.07319053,-0.1149576,0.186851,-0.5586285
1.343012,-0.5832356,-0.03053852,-0.05568004,-0.6489031,-0.3129217
1.484132,-0.5377479,-0.01576426,0.02795399,-0.7767121,-0.2845578
1.758193,-0.5495437,-0.01053869,0.3245489,-0.742337,-0.293646
1.90244,-0.5201407,-0.03903759,0.6598648,-0.4434101,-0.2469617
1.645082,-0.3530817,-0.09561143,0.7820056,0.1021992,-0.000468681
1.224965,-0.1825764,-0.0386764,0.6845583,0.1961754,0.3568577
1.005932,-0.1115434,0.03171455,0.3523432,0.1489089,0.4134158
0.7856482,-0.1142638,0.05633125,-0.1183189,0.08488083,0.4537931
0.5200191,-0.1568695,0.1244675,-0.3905039,-0.24571,0.6646335
0.5046789,-0.192717,0.1167373,-0.2072585,-0.5219288,0.7004844
0.5409525,-0.2100198,0.04024943,-0.003195466,-0.5391352,0.7113379
0.4536202,-0.1741034,0.02004793,-0.01384165,-0.3393971,0.6690543
0.4746083,-0.1091031,0.007499271,0.09071755,-0.05894717,0.386048
0.4759164,-0.05733461,-0.0003951004,-0.006639076,0.1520448,0.1133248
0.3620317,-0.0348013,0.006645044,-0.2465955,0.2223778,-0.1200938
0.3547906,-0.1100361,-0.0001157869,-0.2313961,0.08002234,-0.2667379
0.4039541,-0.199818,0.02259013,0.03028883,-0.2273041,-0.3104308
0.5173321,-0.2396644,0.04092146,0.4972396,-0.5582276,-0.4691447
0.784725,-0.3430976,-0.00470293,0.6788586,-0.6138418,-0.5178979
1.074317,-0.4590732,-0.1334509,0.8536766,-0.3162566,-0.1844189
1.338717,-0.4646205,-0.2916063,1.169109,0.1671505,0.2541412
1.506275,-0.4012783,-0.3079661,0.8775337,0.6105284,0.2495484
1.496662,-0.3280445,-0.2336177,0.4126857,0.3453575,-0.1835836
1.555791,-0.2676448,-0.1507465,0.1915133,-0.1118403,-0.4023021
1.831065,-0.2381318,-0.02257239,0.354384,0.2494481,-0.259607
1.895338,-0.1792552,0.01423313,0.6513997,0.3641366,-0.1314917
1.562859,-0.06629071,0.02139536,0.2473673,-0.03370469,-0.1791959
1.278903,-0.02863521,0.03389383,-0.1486734,-0.08101431,-0.08415341
1.175447,-0.129575,-0.05531796,-0.2198124,-0.2021806,0.2425555
1.114338,-0.255148,-0.04175134,-0.2080751,-0.2659044,0.3308025
1.00428,-0.2875472,-0.009975617,0.2014136,-0.06860637,0.2514825
0.8165438,-0.2062374,-0.05564058,0.4003781,0.04889567,0.2372308
0.6880187,-0.07456033,0.002427426,0.423766,0.1631422,0.2053083
0.5627272,0.0212187,-0.00948605,0.4416961,0.1028938,0.2239559
0.4598433,0.06059836,-0.05820778,0.2788802,0.1092872,0.2626508
0.430801,0.06316969,-0.05050072,0.2424595,0.2195059,0.3487279
0.4471905,0.04313471,-0.102568,-0.03211164,0.2227146,0.4126294
0.6439673,0.01854913,-0.0599257,-0.3191842,0.4883139,0.3400787
0.8241111,-0.002863977,0.03610551,-0.450184,0.6434381,0.1566598
0.797343,0.03055622,0.03936784,-0.7483929,0.3999839,-0.1751954
0.6797855,0.07195359,-0.1142985,-1.007311,0.03272169,-0.3285183
0.6199046,-0.06493525,-0.3439651,-1.557619,-0.273276,-0.2724462
0.7814057,-0.3970351,-0.2792746,-1.74661,-0.2019519,-0.3606845
1.11642,-0.7671314,-0.06227805,-1.092171,0.04116,-0.5729423
1.493795,-0.8811481,0.007701884,-0.7759425,0.1344974,-0.9281203
1.758834,-0.6392834,0.01711011,-0.8535969,0.05108239,-1.111401
1.923312,-0.4655429,0.01490898,-0.8888807,-0.1453093,-0.7339109
2.010495,-0.4729058,0.07810599,-0.8711108,-0.1523562,-0.2442561
1.825811,-0.3313758,0.07105336,-0.8530559,0.171364,0.02801784
1.526436,-0.1385588,-0.03515399,-1.067087,0.6626903,0.2193335
1.168384,-0.1089284,-0.006464363,-1.326023,0.8306412,0.2931675
0.7973854,-0.1328342,0.01009963,-1.57529,0.5232919,0.3593022
0.7038728,-0.1613178,0.02190132,-1.673472,0.3024024,0.5546677
0.6623577,-0.2338727,0.08474385,-1.496951,0.2791072,0.6424492
0.6041968,-0.2599315,0.04429585,-1.337544,0.2121133,0.5888123
0.6179936,-0.2010378,0.03153439,-1.160669,0.2076459,0.5393516
0.5640016,-0.1332169,0.01102472,-1.129446,0.2957409,0.3754425
0.5605198,-0.08951486,-0.03955987,-1.236154,0.3992522,0.1136985
0.5197049,-0.1134717,-0.009217332,-1.206742,0.4394489,-0.04789031
0.4431202,-0.2039501,-0.002605587,-1.168641,0.1997654,-0.1329669
0.51203,-0.3083293,0.02482882,-0.8908356,-0.287182,-0.240173
0.5902674,-0.4072113,0.05110194,-0.332219,-0.529525,-0.3062726
0.7790011,-0.4585201,0.04024306,0.2241211,-0.2479933,-0.3515579
1.019562,-0.4828884,0.07339269,0.8112257,0.04605759,-0.5175057
0.9860876,-0.4034629,0.00806065,1.023029,-0.03745732,-0.5856614
1.024544,-0.2553569,-0.2339558,0.6639475,0.03558728,-0.2200148
1.425251,-0.3792478,-0.4610652,0.4314956,0.562283,0.1386367
1.647216,-0.5734262,-0.3854355,0.4058279,0.8833322,-0.08073618
1.526512,-0.5155906,-0.1753684,0.09472426,0.3703117,-0.3644893
1.533187,-0.3897634,-0.1588836,-0.2436462,-0.2325876,-0.3660471
1.603372,-0.184809,-0.1046414,-0.4068381,0.124266,-0.4888177
1.552402,-0.04399005,0.006787466,-0.6795604,0.423688,-0.4810988
1.493784,-0.1114975,0.04189451,-1.027395,0.06143352,-0.2810756
1.365,-0.1213368,0.06608072,-1.136149,-0.005392859,-0.2220341
1.230945,-0.1637442,-0.01631176,-0.8409735,-0.1260896,-0.06787785
1.13378,-0.2394015,-0.05184388,-0.5291693,-0.2844451,0.001036671
0.9080237,-0.1695391,-0.04975644,-0.4342225,-0.1995255,0.01098257
0.6894575,-0.1178489,-0.1397643,-0.3481112,-0.4898235,0.3238868
0.6675558,-0.1045685,-0.1419617,-0.3528183,-0.4916328,0.5493341
0.7094601,-0.1051523,-0.1614947,-0.3491237,-0.1836724,0.6046729
0.7197442,-0.1263134,-0.1457698,-0.2577556,0.001916346,0.5007078
0.7306553,-0.09173272,-0.03010655,-0.2159819,0.4834032,0.2116394
0.6632813,-0.0292572,0.00289625,-0.14707,0.6187113,0.1285985
0.5461656,0.06215092,0.04283722,-0.2363318,0.5490498,0.1291321
0.5402861,0.1200055,0.04869495,-0.5966396,0.7863905,0.05850526
0.6063042,0.1142318,0.07803898,-0.9588436,0.7578378,-0.04905116
0.639718,0.1229766,0.1518601,-1.023986,0.5641246,-0.1902346
0.6713171,0.08592595,0.04698155,-0.9457032,0.2757145,-0.1876387
0.7381697,0.00964781,-0.09828963,-1.179495,-0.0721733,-0.1488839
0.8126433,-0.09223566,-0.2344282,-1.341237,-0.119867,-0.1765315
0.9137491,-0.3549779,-0.3504439,-1.18995,-0.003856015,-0.3496496
1.139632,-0.7023366,-0.3183566,-1.045856,0.1638058,-0.6721687
1.412877,-0.8445654,-0.2028951,-0.6844697,0.261002,-0.8681728
1.522007,-0.7189988,-0.03972261,-0.3828345,0.03616759,-0.9057503
1.601968,-0.6005148,0.05439725,-0.4393313,-0.3939746,-0.7432533
1.812766,-0.574712,0.06075218,-0.2417623,-0.54962,-0.4457359
1.853642,-0.3978659,0.01251072,0.1115206,-0.3231872,-0.1710989
1.622373,-0.1636259,-0.1008332,0.003343296,0.0337716,0.1474055
1.392066,-0.1361838,-0.04755944,-0.2864324,0.4448757,0.1747517
1.208011,-0.1520881,0.05164019,-0.4588818,0.5215534,0.009904988
0.9730523,-0.08918631,0.03069159,-0.7979602,0.2618354,0.242961
0.7420677,-0.1105437,0.09282205,-0.9350112,0.07128278,0.5009267
0.6197433,-0.1767226,0.1057358,-0.6960576,-0.2741215,0.6178603
0.5436427,-0.1790444,0.03093135,-0.6610506,-0.5033606,0.7847631
0.4564879,-0.1867269,0.01006783,-0.6499194,-0.3224342,0.6416232
0.4480367,-0.1812928,-0.0363624,-0.5711258,-0.2233087,0.4517441
0.4757004,-0.1550042,-0.02333016,-0.5495356,-0.07101351,0.2938143
0.5030591,-0.1619954,0.0376843,-0.4216962,0.1851398,-0.1185277
0.5566645,-0.1630629,0.05538872,-0.380352,0.1560232,-0.3439164
0.5758464,-0.1890659,0.07205307,-0.2852862,0.1147569,-0.4092636
0.5840258,-0.2252263,0.0555485,0.01317576,0.06491117,-0.4555544
0.5873275,-0.2597455,0.05328825,0.4321,-0.3010087,-0.3947243
0.6041643,-0.3651599,0.01445866,0.8354225,-0.6759336,-0.3796539
0.7345706,-0.4273648,-0.08727654,1.035002,-0.6986457,-0.2439381
0.9426374,-0.3944794,-0.161061,1.241192,-0.4404194,-0.00602176
1.161787,-0.3480326,-0.2887665,1.111604,-0.07990655,0.2837074
1.35726,-0.3024848,-0.3620404,0.6504726,0.2662277,0.421185
1.475144,-0.2946299,-0.2991779,0.3436454,0.2104232,0.03242082
1.624156,-0.3272369,-0.2199599,-0.09149277,0.01468588,-0.2533583
1.80528,-0.313346,-0.06759105,-0.02263593,0.3102672,-0.12434
1.618077,-0.1619424,0.1134505,0.3808041,0.3934389,-0.1655996
1.27534,-0.009124835,0.1919277,-0.03640743,0.05951296,-0.308799
1.314607,-0.07033442,0.1145558,-0.2157338,-0.1654145,-0.1615052
1.232455,-0.2087283,-0.02432742,0.07515094,-0.5528798,0.1348106
1.004076,-0.26259,-0.02106977,0.1369506,-0.8177161,0.3229757
1.020737,-0.2834615,-0.05826773,0.5565703,-0.6550605,0.3668601
0.7982411,-0.2475217,-0.1775478,0.8583861,-0.4080234,0.2326085
0.632142,-0.1845148,-0.1167703,0.9113351,-0.1883397,0.06955044
0.6298374,-0.1059294,-0.08024105,1.200021,0.03112792,-0.01157296
0.281982,0.05482762,-0.1170488,1.122643,0.1611701,-0.06907986
0.2255897,0.0944684,-0.07597433,0.7224487,0.07626084,0.03797051
0.4067146,0.03603425,-0.09416457,0.2841963,0.1344437,0.1170982
0.4096128,0.085425,-0.07945431,0.04884145,0.2029712,0.02142962
0.6459084,0.03429535,-0.04092586,0.1089081,-0.1207042,0.004676132
0.769775,-0.07044911,-0.1262285,-0.2485538,-0.484843,0.02225608
0.7007227,-0.1147828,-0.2401513,-0.7839183,-0.7037718,-0.0008824891
0.8761149,-0.3733023,-0.307205,-0.7796319,-0.4633635,-0.1126219
1.107136,-0.7070139,-0.1904481,-0.2164268,-0.1807107,-0.2823077
1.370169,-0.7556712,-0.04451185,0.292975,-0.4577622,-0.342448
1.695042,-0.576442,-0.1079946,0.03520861,-0.499148,-0.3731039
1.89681,-0.4674674,-0.1073872,-0.1713774,-0.3291534,-0.335812
1.946957,-0.5360928,-0.05107868,0.2359471,-0.2283214,-0.09811736
1.805335,-0.544211,-0.1080698,0.3750704,0.2554301,0.2371776
1.428582,-0.3844435,-0.05057838,0.2599408,0.7918434,0.4058614
0.9200321,-0.1811227,0.07591913,0.2016882,0.7927563,0.3236836
0.6170998,-0.0007452261,0.1061033,-0.01869977,0.3150636,0.3361806
0.6229516,0.08453494,0.1131024,-0.2467249,-0.07492421,0.4758693
0.6116393,0.06915667,0.07621165,-0.3129022,-0.2229846,0.4786533
0.5785243,0.0234362,0.03918976,-0.2652681,-0.09487937,0.454396
0.5838116,-0.04169983,0.01918651,-0.3269851,0.3004366,0.3507751
0.4764195,-0.1110207,-0.03954997,-0.5590671,0.4896459,0.0453267
0.3936157,-0.223847,-0.02743617,-0.6489138,0.5714935,-0.1624853
0.3605543,-0.3631759,-0.007359806,-0.3990066,0.3049719,-0.2154113
0.3547625,-0.394657,-0.01452574,0.1548709,-0.4468079,-0.2844473
0.5534153,-0.4257992,0.0120702,0.6316903,-0.7683667,-0.2853872
0.8321082,-0.512115,-0.07639435,0.9318235,-0.5542279,-0.1389593
1.052594,-0.4596572,-0.2243123,1.14194,-0.1850439,0.1708071
1.273507,-0.3867705,-0.2870091,0.9474583,0.1028403,0.4358127
1.463136,-0.410389,-0.2616893,0.6530033,0.1993679,0.2581485
1.525629,-0.3907733,-0.1980302,0.5745389,0.09922536,-0.168351
1.616536,-0.3452415,-0.1759819,0.5938216,-0.05441982,-0.344967
1.823171,-0.1961393,-0.09400263,0.6560735,0.328643,-0.2928515
1.70806,0.0472252,0.004439178,0.2861787,0.6525882,-0.2478776
1.385085,0.07787777,-0.0009497754,-0.269065,0.4166095,-0.2584266
1.216264,-0.05697032,0.04782568,-0.3429034,0.2921226,-0.09320928
1.047658,-0.154989,0.1060067,-0.1144514,0.09994076,0.2494828
1.012119,-0.2085456,0.01962161,0.1665975,-0.1266263,0.324914
0.9414086,-0.1701303,-0.06605727,0.2988629,-0.01773307,0.2673833
0.7477983,-0.09546554,-0.08077255,0.2930945,0.08961016,0.3310159
0.7133009,-0.05071898,-0.1178891,0.2826737,0.04394248,0.3112702
0.6012562,0.01583189,-0.1205319,0.2208027,0.05987424,0.3203217
0.5533382,0.05904559,-0.09933896,0.144203,0.1378497,0.4092967
0.6038636,0.07707806,-0.1391441,-0.04299763,0.136172,0.4525971
0.5968091,0.09131296,-0.1381249,-0.3110166,0.3665548,0.4146328
0.7545575,0.03714565,-0.0799961,-0.6148766,0.7698134,0.2751395
0.7840426,0.005219677,-0.0108239,-0.8796977,0.8919437,0.1997239
0.7423041,0.05124816,0.05341419,-0.937665,0.7956021,0.1791985
0.8233626,0.07521698,0.03263962,-1.146901,0.647071,0.1229726
0.7848657,0.03702721,-0.03521467,-1.535777,0.5124984,0.06566599
0.7541817,-0.1288337,-0.1066332,-1.598877,0.2376863,0.01111816
0.7631597,-0.3685233,-0.1648331,-1.329646,0.06025498,-0.03464755
0.960441,-0.6058201,-0.2351594,-1.177676,0.1940829,-0.2058156
1.395852,-0.8935037,-0.374542,-1.362292,0.1630837,-0.5377924
1.683115,-0.9506418,-0.3776989,-1.43689,0.161772,-0.7182458
1.854169,-0.7056864,-0.2229404,-1.142985,0.4613135,-0.4539866
1.921476,-0.5520188,-0.1275702,-1.001882,0.7957714,-0.1464698
1.751649,-0.3682145,-0.06576707,-1.493104,0.9342679,-0.2408215
1.553145,-0.1441249,-0.04981809,-2.249443,0.779562,-0.2202054
1.463605,-0.2002426,-0.0206467,-2.409561,0.6610106,0.1284833
1.284826,-0.2462715,0.06713151,-2.011119,0.5719726,0.5012567
0.9952025,-0.2164433,-0.005034649,-1.840003,0.4877336,0.8204642
0.8659691,-0.2617422,-0.1091969,-2.079432,0.5874524,0.836392
0.7939617,-0.2356713,-0.08928101,-2.220896,0.5511577,0.735918
0.6593506,-0.2931209,-0.07929011,-1.943082,0.4964757,0.6810123
0.5597307,-0.4058207,-0.02987999,-1.532376,0.5183541,0.3438988
0.4314066,-0.4341397,0.0288892,-1.181618,0.3727332,-0.005976802
0.4149283,-0.4183899,0.04070519,-0.8828469,0.2477496,-0.1908202
0.5178949,-0.3050182,0.08627079,-0.6911616,0.1139198,-0.3654662
0.5373546,-0.2103123,0.09920654,-0.5467516,0.00450444,-0.4229595
0.5709267,-0.1356361,0.05518739,-0.5611552,0.04748012,-0.4304298
0.6330758,-0.09820439,0.02168857,-0.6084653,0.1092559,-0.4905038
0.720676,-0.1363783,0.02140096,-0.4464998,0.2934994,-0.5980246
0.8511476,-0.08228212,0.04805917,-0.3283651,0.4125843,-0.6464115
0.8791062,-0.01681872,0.06890948,-0.2879585,0.2365508,-0.5145058
0.9032167,0.04882364,0.08548664,-0.2776948,0.07521179,-0.352257
0.969809,0.08874945,0.1129439,-0.299756,0.06485487,-0.2989832
0.9438241,0.006708631,0.1457152,-0.203757,0.06669903,-0.3553456
0.9003757,-0.02313524,0.1656818,-0.1277568,0.04092603,-0.386992
0.8762678,-0.05343177,0.1594773,-0.03750631,0.007450701,-0.2851263
0.8920185,-0.1794148,0.02686979,0.06420745,-0.1578107,-0.0959241
1.006369,-0.4294605,-0.3276643,0.02539383,-0.4089268,0.238036
1.137926,-0.7934959,-0.5997533,0.09725591,-0.4072269,0.4970093
1.2094,-0.9024697,-0.4929576,0.2881666,-0.1299575,0.3103761
1.242935,-0.7402897,-0.3362615,0.4366967,0.09194754,0.003413552
1.445698,-0.644198,-0.3582824,0.4669427,0.05570554,-0.03825198
1.709437,-0.5506239,-0.2834168,0.4002412,0.0923521,-0.07937026
1.598068,-0.3504698,-0.07646274,0.4739659,0.3021125,-0.3759743
1.404366,-0.2181841,0.07741004,0.4131969,0.1657933,-0.7614838
1.418582,-0.2084013,0.03736989,0.008494444,-0.1082631,-0.8044717
1.311799,-0.1865379,-0.1015242,-0.2540188,-0.261346,-0.5506459
1.186486,-0.1983908,-0.02070026,-0.02286173,-0.5134376,-0.4659191
1.10489,-0.2582461,0.02254612,0.437815,-0.4845588,-0.2985108
0.9540762,-0.2302775,-0.06695606,0.6289475,-0.357183,0.01343631
0.8732207,-0.1904181,-0.002423559,0.6917375,-0.5340374,0.0942254
0.6425096,-0.1678364,-0.04443638,0.7355994,-0.599519,0.1956517
0.4694812,-0.111456,-0.08214496,0.5711683,-0.6718019,0.2802894
0.6381688,-0.1037898,-0.01131944,0.4799882,-0.7372357,0.2253137
0.6525207,-0.06746626,-0.06002742,0.4330942,-0.5545389,0.227362
0.6235993,0.004480813,-0.01929582,0.4027949,-0.4539982,0.1858722
0.6915602,0.001439076,0.005859996,0.4861381,-0.2300659,0.1693311
0.6253261,0.05249979,0.00851324,0.4885902,0.08115204,0.1828831
0.669352,0.1202936,0.08045019,0.513309,0.1433488,0.1579885
0.7105216,0.07550303,-0.01635756,0.3273447,0.3192308,0.1737975
0.6807453,0.04932161,-0.07376943,0.03263768,0.485706,0.1328447
0.7598998,0.02497121,-0.04022802,0.08327468,0.2738834,0.03946214
0.7990318,-0.05159801,-0.1064023,-0.211888,-0.1557428,-0.08720596
0.9017004,-0.1862634,-0.2385151,-1.034746,-0.518082,-0.1992043
1.130234,-0.5675522,-0.330114,-1.299231,-0.5747317,-0.299122
1.343723,-0.9144752,-0.2153063,-0.5393051,-0.3909776,-0.4669791
1.509468,-0.7933754,-0.09440682,0.1776062,0.002138293,-0.4929964
1.707299,-0.6536946,-0.1127694,0.08322309,0.4115828,-0.4560552
1.902626,-0.6611158,-0.05677987,0.3605648,0.1664929,-0.4461124
1.764402,-0.3532742,0.02484662,1.033195,-0.2213397,-0.09276955
1.48097,-0.1337503,0.0008311545,0.6732169,0.1622906,0.3442763
1.281521,-0.2573498,-0.01799376,0.2397175,0.3438153,0.3021954
1.039655,-0.2381699,0.0488836,0.5402339,-0.05987731,0.1815767
0.9404665,-0.1942753,0.07566315,0.4793391,-0.1502792,0.3879015
0.7894508,-0.2121478,0.03926853,0.4051108,-0.1655658,0.5194592
0.5785598,-0.1513062,0.0309758,0.5957864,-0.2250371,0.5170943
0.5783178,-0.1706232,0.03300887,0.4613213,-0.1689307,0.5254998
0.5236044,-0.1698293,0.04803443,0.4499541,-0.1395485,0.3411383
0.5324163,-0.1152742,0.07144827,0.4695355,0.05149002,0.07967204
0.5789928,-0.1152184,0.08918707,0.3582922,0.1249398,-0.1413203
0.5019993,-0.1148791,0.07558157,0.3983167,-0.01963236,-0.3136425
0.5426704,-0.1281906,0.036106,0.3471183,-0.1991728,-0.380591
0.540289,-0.1609899,0.04573454,0.5567774,-0.5147527,-0.4387544
0.588008,-0.2673257,0.03263291,1.019984,-0.8086682,-0.3875675
0.8006523,-0.4010282,-0.00234215,1.261261,-0.8626142,-0.2988091
0.9487415,-0.3973584,-0.01487921,1.453257,-0.5786671,-0.2474985
1.068516,-0.3624426,-0.1191984,1.454352,-0.3032749,0.003870477
1.09529,-0.3985118,-0.2508498,1.283647,-0.1764248,0.3256752
1.150721,-0.4049831,-0.2889265,1.11565,-0.003549345,0.4157959
1.260075,-0.3820299,-0.2665451,0.8229153,-0.02571659,0.1190301
1.253879,-0.3782581,-0.2422945,0.7733611,-0.1764325,-0.1796398
1.417379,-0.3396036,-0.2288255,1.076599,-0.2627733,-0.029859
1.632235,-0.2405938,-0.1377835,1.216338,-0.1508102,0.04480095
1.528901,-0.06446783,0.003107405,0.9788919,0.03562283,-0.1314036
1.354844,0.07880531,0.02603461,0.5675881,-0.1183887,-0.1086211
1.278538,-0.02068386,-0.02363501,0.305203,-0.2593078,0.008261046
1.109503,-0.180966,-0.009570642,0.338208,-0.3444126,0.14077
0.9582931,-0.2184274,-0.01210249,0.5829335,-0.568426,0.2913184
0.8994073,-0.2517336,-0.06654469,0.8603091,-0.5396115,0.3343507
0.7339634,-0.205592,-0.08597767,0.9837201,-0.4992157,0.3783271
0.6348834,-0.09834377,-0.08794124,1.02219,-0.5873813,0.3454603
0.6205673,-0.05489849,-0.05419712,1.072354,-0.4709623,0.2065226
0.532156,0.02064502,-0.003333458,1.031495,-0.2910649,0.1660348
0.5416176,0.08446749,-0.003460043,0.9111412,-0.08988158,0.1879661
0.6045937,0.08191137,-0.00572392,0.6306552,0.1722207,0.2255854
0.6879423,0.05671345,-0.01027889,0.2069226,0.2660802,0.2169399
0.7631425,-0.00260422,-0.02970518,0.02523016,0.09264092,0.1260026
0.7241858,-0.05800203,-0.1050313,-0.09151661,-0.2193931,0.04838538
0.7719321,-0.2194167,-0.236138,-0.5236661,-0.3548406,-0.07128897
0.9271582,-0.4733387,-0.2370664,-0.7063873,-0.2073833,-0.2857125
1.140431,-0.5699429,-0.09932977,-0.2534591,-0.03086102,-0.512012
1.412101,-0.5775109,-0.009839128,0.1317496,0.09539396,-0.550514
1.628157,-0.5949379,-0.04253998,0.06521295,0.1712772,-0.5356455
1.885851,-0.5724939,-0.07127471,0.04111355,0.1143268,-0.6514969
2.021704,-0.5550862,-0.001591221,0.3286637,-0.06372926,-0.438127
1.739019,-0.437974,0.02531179,0.7200109,-0.200687,0.044081
1.338846,-0.2355707,0.002822812,0.8791773,0.007467986,0.2513899
1.078607,-0.202753,0.03672415,0.6295371,0.2751318,0.1963474
0.9220021,-0.2372925,0.08755111,0.4024225,0.07665306,0.1630782
0.8926092,-0.1774312,0.1277156,0.4913914,-0.2328709,0.3725272
0.8254079,-0.1577998,0.1149163,0.4993742,-0.3978132,0.5235829
0.6987956,-0.1533705,0.06473644,0.4197211,-0.4928049,0.4995726
0.6237497,-0.1044286,0.02847725,0.4403629,-0.3181353,0.4928482
0.541915,-0.08959494,-0.02486363,0.3212909,-0.09511363,0.2262229
0.5507487,-0.09337888,-0.05060152,0.1436843,0.09676675,-0.1097299
