accx,accy,accz,gyrox,gyroy,gyroz
0.8879453,-0.01142146,-0.0875952,0.2114111,0.7444926,-0.1197331
0.702013,0.04596008,0.0142072,0.1082201,0.7546587,-0.3237472
0.642353,0.110106,0.07094905,-0.01416767,0.5659617,-0.3910716
0.8032225,0.2083759,0.06011503,-0.07180234,0.1287017,-0.2715166
0.9032544,0.1756318,-0.03449463,-0.1349637,-0.04799603,0.03842536
0.9553419,0.01760214,-0.1329212,-0.08229413,0.1691014,0.3369796
0.900345,-0.1985998,-0.1011809,0.07872266,0.5687587,0.3791621
0.8946333,-0.3160455,-0.02210315,0.3865563,0.6268564,-0.01452153
1.060144,-0.2326087,0.09769405,0.5791612,0.2190627,-0.5057
1.204899,-0.1812856,0.2033628,0.3783875,-0.1357389,-0.8217744
1.374282,-0.1193011,0.1774992,-0.02745081,-0.113715,-0.7858647
1.686972,0.1280858,0.1828636,-0.62811,0.003562445,-0.2268401
2.030948,0.3030219,0.2345909,-0.9254939,-0.2488891,0.3711051
1.814635,0.09737274,0.1005907,-0.3569418,-0.2584398,0.5535715
1.353851,-0.2115923,-0.02850904,0.3871048,0.3867459,0.2231443
1.398838,-0.1753822,0.1294253,0.7267632,0.8183397,-0.1452591
1.169782,-0.05960116,0.2658556,0.7555381,0.3650827,-0.1122571
0.7662259,0.02018496,0.1882835,0.5813904,-0.3996967,-0.02568812
0.8368258,0.2771592,0.1233795,0.4007847,-0.3656672,0.2028161
0.7442216,0.2890306,0.08259656,0.09193243,-0.05536,0.5461341
0.6891632,0.07718522,0.05261267,-0.2100348,0.001649626,0.7135969
0.7771813,-0.01546373,0.09318034,-0.1222099,0.2462283,0.7934216
0.6364593,-0.1647387,0.09949887,0.04139898,0.1903906,0.5579094
0.6441482,-0.1566389,0.08257261,0.1717381,-0.001072248,0.1423035
0.628887,-0.0109142,0.1059014,0.2358237,-0.1292972,-0.2854148
0.5729172,-0.00243528,0.1160041,0.149901,-0.4355894,-0.7356512
0.6511221,0.0712059,0.1384258,0.2366505,-0.4219957,-0.8094905
0.6105294,0.1074582,0.1610495,0.2507762,-0.3944294,-0.56669
0.6749808,0.1204733,0.1350626,0.1272532,-0.466373,-0.2640314
0.7620414,0.2216962,0.1233247,0.1049873,-0.5321764,-0.06258331
0.7395309,0.1779016,0.1109777,0.04339347,-0.8976716,-0.01451875
0.8601067,0.08428656,0.04296736,0.1207116,-1.036824,0.01492733
1.006634,0.02723001,-0.04857377,0.167172,-0.7401869,-0.03545842
1.053454,0.01997527,-0.08332237,-0.02913294,-0.2851515,-0.04465211
0.986488,0.09825001,-0.03213396,-0.1987261,-0.05445823,0.03892339
0.9001353,0.1156342,0.02930719,-0.3264322,-0.2463018,0.1400551
0.8380651,0.1239383,0.08272151,-0.3814903,-0.3999755,0.2416453
0.7735733,0.09592101,0.07733296,-0.4208601,-0.4953183,0.1877458
0.8013334,-0.008231161,-0.009187209,-0.4509219,-0.6002057,0.1603291
0.9338394,-0.1054739,-0.08956758,-0.3640416,-0.5213922,0.2664618
1.40163,-0.3203878,-0.251555,-0.165481,-0.1997328,0.3731873
1.949112,-0.5133478,-0.4268627,0.1862366,0.2882457,0.4449379
1.955021,-0.4701774,-0.4221255,0.3716367,0.5564875,0.2061703
1.790193,-0.3268656,-0.3336259,0.4805271,0.7559931,-0.3581531
1.707373,-0.1114079,-0.1429095,0.6875409,1.066387,-0.8447026
1.390376,0.2091179,0.1618387,0.3023984,0.6816758,-0.936694
1.101848,0.4778204,0.2851938,-0.3958209,-0.6255584,-0.4847947
1.109865,0.5956478,0.1632573,-0.5637719,-1.760102,0.4096738
1.182755,0.5566227,0.01443274,-0.4929464,-1.706251,1.38525
1.214206,0.2834366,-0.1805972,-0.4668365,-0.7290414,1.679856
1.197973,-0.06410688,-0.3751884,-0.3542571,0.1030878,0.9876889
1.071772,-0.1920407,-0.2561955,-0.1729498,0.3822094,0.1936072
0.9106467,-0.235827,-0.04872378,0.05071907,0.2124236,-0.1850433
0.7886346,-0.2754556,-0.0449302,0.2889911,0.02224871,-0.3259091
0.7745302,-0.1232401,-0.02731281,0.4561054,0.2382812,-0.2828775
0.7792254,0.06017891,-0.04148488,0.4812607,0.3102692,-0.2838572
0.7033861,0.1150542,-0.07595278,0.4065635,0.316033,-0.2991584
0.7117343,0.1333916,-0.03973992,0.2715479,0.4986396,-0.2391339
0.7033968,0.1046355,-0.0761729,0.174039,0.4372195,-0.2124454
0.6671059,0.08010654,-0.06660985,0.2298375,0.5949506,-0.05513998
0.7241894,0.08675534,-0.04153976,0.2706842,0.7006195,0.02278266
0.7420644,0.07610721,-0.05531478,0.2310995,0.5455658,-0.0662088
0.8458814,0.09258692,-0.008359039,0.1057808,0.6382554,-0.03148173
0.9257723,0.07525175,-0.02385722,-0.1041281,0.4609483,0.006374481
0.7874645,0.02820099,-0.01723374,-0.08432887,0.2862291,0.01749542
0.6965401,0.008605093,0.0329156,0.0621843,0.2875425,-0.04135439
0.7284767,-0.009173093,0.01442159,0.07432279,0.198213,-0.2047339
0.9135529,-0.0139572,-0.001331346,0.07663322,0.4920506,-0.2460001
1.215123,-0.112735,-0.03433243,-0.005532372,0.7274054,-0.2254782
1.34855,-0.2530062,-0.01894317,-0.106756,0.5403167,-0.2452425
1.305539,-0.2447137,0.05963952,-0.06482849,0.0694008,-0.3405172
1.332956,-0.1612912,0.09232472,-0.02931896,-0.364256,-0.5463982
1.490742,-0.03543623,0.07814456,0.06578617,-0.07285073,-0.6519893
1.623968,0.1327641,0.0591958,0.2815322,0.44177,-0.3939624
1.707263,0.1677232,0.1589627,0.3934323,0.4258797,0.09738886
1.672487,0.07234131,0.2596933,0.3882412,-0.01552101,0.2995237
1.503684,0.06180479,0.1903538,0.4642085,-0.4127772,0.1491962
1.404258,0.136598,0.1105131,0.5291135,-0.1684465,0.04875053
1.303677,0.1728956,0.07923946,0.2687876,0.3496382,0.09559375
1.125095,0.160636,0.08118698,-0.1218206,0.4463928,0.2167312
0.8850201,0.1046248,0.1291634,-0.2166642,0.3977331,0.415596
0.6401548,0.05577016,0.1493974,-0.1773773,0.3461421,0.5953046
0.5498839,0.0010948,0.1558494,-0.1961241,0.1800799,0.6610669
0.4790624,-0.08441359,0.1643346,-0.1270865,0.02405328,0.6526778
0.4826688,-0.1151858,0.1449847,-0.0391673,-0.2251777,0.4036406
0.5984859,-0.1075536,0.1035659,-0.05478529,-0.3685048,-0.07554211
0.5692829,-0.08193992,0.06105633,-0.08725577,-0.3040589,-0.3548015
0.5529177,-0.02071545,0.06816849,-0.0881274,-0.2641886,-0.3897926
0.5716206,0.05244812,0.09994813,-0.04407081,-0.2072239,-0.2851097
0.555788,0.07907363,0.1085141,0.08207336,-0.3972832,-0.08207276
0.6511526,0.02232675,0.1236835,0.2767648,-0.8040571,0.02706739
0.7581041,-0.003892383,0.1167063,0.4650769,-1.012395,0.03877214
0.9219998,0.02743874,0.07062927,0.5091589,-0.9351845,-0.01691566
1.100542,0.08272602,0.04327317,0.306472,-0.5895858,-0.0804801
1.080004,0.1787075,0.0530489,-0.04703735,-0.3531987,-0.07208582
0.97206,0.210127,0.08664385,-0.309698,-0.438325,-0.0146408
0.8919391,0.1582213,0.09011663,-0.3497271,-0.5785947,0.08042283
0.8713826,0.08042655,0.03569991,-0.2673977,-0.6098154,0.1204149
0.8806664,-0.008561294,-0.02378476,-0.2377602,-0.6026196,0.2437554
1.003461,-0.05711471,-0.0809815,-0.2564372,-0.526814,0.497179
1.385759,-0.1539934,-0.197662,-0.227588,-0.1325696,0.5053797
1.711028,-0.3336835,-0.3265975,-0.2122063,0.3478418,0.2257241
1.756184,-0.3635845,-0.3151197,-0.2023247,0.5381528,-0.2059723
1.77565,-0.2242633,-0.2271534,-0.04589539,0.5008612,-0.5490204
1.836296,-0.09651089,-0.1628571,0.1861514,0.5014672,-0.4284917
1.676363,0.04810716,-0.04833272,0.2140033,0.4813338,-0.2601457
1.357882,0.2339877,0.05778109,-0.07527069,-0.06357736,-0.2391042
1.252906,0.3696606,0.08505209,-0.4322512,-0.787921,0.280187
1.225446,0.3719592,0.02051825,-0.5756572,-0.9558963,0.9512192
1.084392,0.2451121,-0.112584,-0.5381457,-0.710699,1.105164
1.019799,0.07074958,-0.1890443,-0.435513,-0.3821609,0.9259923
0.9577505,-0.1127544,-0.2108837,-0.3153367,-0.003565292,0.5285569
0.8596276,-0.1800166,-0.1763056,-0.2544548,0.2705298,0.06264528
0.8048235,-0.1191752,-0.1102139,-0.2266244,0.1725002,-0.250531
0.7391295,-0.04950805,-0.1005396,-0.1763837,0.08515219,-0.2984612
0.7515895,0.07520222,-0.09794456,-0.2489184,0.1637723,-0.1428881
0.8037867,0.1497134,-0.1192,-0.4266004,0.1997968,-0.09080053
0.8100526,0.09952468,-0.1370246,-0.5273442,0.5185904,-0.03820236
0.7954367,0.06167385,-0.1022678,-0.5929494,0.709417,-0.001282232
0.7326728,0.01755954,-0.06609832,-0.5706728,0.5597655,-0.06096261
0.7234483,-0.008615055,-0.02522244,-0.4488746,0.513686,-0.01053769
0.778503,0.02333766,-0.04315201,-0.3988472,0.4558334,-0.03146297
0.799548,0.02703367,-0.06848435,-0.4146511,0.6212528,-0.09969757
0.7809172,0.0384588,-0.01745087,-0.5319961,0.8110512,-0.117524
0.7499124,0.07982437,0.006247657,-0.6445352,0.4679995,-0.1259994
0.7968959,0.09813005,0.0007384686,-0.5787454,0.0001301717,-0.02702161
0.8887193,0.1126812,-0.03137917,-0.5329814,-0.09223899,-0.01166041
0.9633796,0.09940815,-0.09649429,-0.5802837,0.2930727,-0.07872327
1.000521,0.06326822,-0.1096276,-0.6588684,0.6480627,-0.164173
0.9489568,0.05143814,-0.06290554,-0.7482987,0.4895319,-0.2268013
0.9336745,-0.04080699,0.009541087,-0.7127577,0.1668122,-0.05886329
0.9921597,-0.2474002,0.06333476,-0.6226246,0.002349659,0.06125747
1.101462,-0.400445,0.08502561,-0.5871435,-0.007987539,-0.1706115
1.390518,-0.367294,0.09927842,-0.5068217,0.0004200178,-0.7264127
1.754731,-0.1513334,0.1099249,-0.467517,-0.2080081,-1.120883
1.903731,0.1447044,0.1128688,-0.5499618,-0.3544147,-0.6600186
1.778614,0.3471519,0.08175343,-0.5733797,-0.03845719,0.05186072
1.626093,0.3210648,0.06298595,-0.5461866,0.2657663,0.07914794
1.511603,0.2074217,0.1187679,-0.5667078,0.1800044,-0.07742747
1.293941,0.1727982,0.1761994,-0.6324429,0.0342526,-0.004181957
1.140165,0.1616936,0.1651679,-0.7863929,0.0004650866,0.00618671
1.062129,0.1685381,0.1295345,-0.8664892,0.08978672,0.09600439
0.8889303,0.1387632,0.1088982,-0.7493348,0.1904893,0.2475361
0.729187,0.05554156,0.07466235,-0.6317446,0.1158709,0.2919939
0.6196054,0.01244118,0.04666978,-0.6251497,0.007081714,0.3822196
0.5873753,-0.04794131,0.04552718,-0.6429424,0.005202041,0.4063647
0.6307094,-0.08660246,0.04024653,-0.6506394,-0.008599339,0.2812168
0.6313783,-0.07990108,0.04461011,-0.7018402,-0.08848552,0.08447563
0.6419013,-0.09426085,0.04657145,-0.7090956,-0.2055956,-0.05622484
0.6675642,-0.07510578,0.04048973,-0.568883,-0.3261225,-0.03961474
0.7149898,-0.043251,0.03898664,-0.3957941,-0.3026687,-0.05022746
0.8179481,0.01492263,0.02889661,-0.3506613,-0.1671118,-0.1190031
0.8536813,0.09810348,0.05482788,-0.4184168,-0.09879333,-0.1899265
0.8254196,0.1426091,0.09098649,-0.5007375,-0.1697508,-0.1950186
0.823012,0.1924583,0.08502429,-0.7208278,-0.2599728,-0.08087463
0.8340373,0.2136802,0.08450307,-1.026667,-0.1169039,-0.02439292
0.8273457,0.1859475,0.09436964,-1.090326,-0.007086051,-0.03256194
0.8293864,0.1401156,0.1000743,-1.023229,-0.1750532,-0.1125713
0.8682332,0.0885463,0.1051235,-1.009124,-0.2662074,-0.2725403
0.897851,0.08424417,0.09522056,-0.9207873,-0.240139,-0.37882
0.9291999,0.05404012,0.0696901,-0.7831103,-0.2652065,-0.3528265
1.078569,-0.1172027,0.02044807,-0.692668,-0.2930303,0.06522706
1.409296,-0.3896577,-0.08830698,-0.5013583,-0.2553458,0.8053416
1.707741,-0.5712118,-0.2402699,0.02503709,-0.03896655,1.023279
1.726504,-0.5122099,-0.2605292,0.4918378,0.378511,0.07268932
1.623515,-0.2384895,-0.03009946,0.2627025,0.6326676,-1.266092
1.572346,0.1539716,0.2166313,-0.1402549,0.3197572,-1.48486
1.514432,0.3474755,0.1940418,-0.2233572,-0.2634356,-0.3608443
1.457492,0.1995931,0.01170018,-0.4006699,-0.5932448,1.053731
1.418716,0.1037767,-0.09887017,-0.4949998,-0.5192377,1.532885
1.398011,0.09883548,-0.1240617,-0.7043054,-0.3431631,0.790488
1.364367,0.0143391,-0.09970317,-1.356362,-0.4376011,0.03609624
1.254561,0.01846877,-0.09568552,-1.434089,-0.4020863,-0.01287025
1.176243,0.03079939,-0.124952,-1.118039,-0.2158673,0.1418271
1.06379,0.02425693,-0.1031317,-1.202527,-0.2409536,0.3103418
0.7893711,0.07488519,-0.09928709,-1.228391,-0.1938364,0.4220181
0.7034918,0.03900047,-0.1130598,-1.293109,-0.2787995,0.3431702
0.8209912,0.00706804,-0.108319,-1.382272,-0.3986801,0.2753773
0.7993553,-0.02853817,-0.1516252,-1.188056,-0.1869814,0.208364
0.8002219,-0.09641979,-0.1610522,-1.032149,-0.02410939,0.05821379
0.8385591,-0.07593756,-0.1395893,-0.9112279,0.1270606,-0.09893286
0.7821995,-0.09881456,-0.1371394,-0.8027341,0.1935286,-0.2614051
0.7626697,-0.1054117,-0.1069002,-0.6683955,0.1357039,-0.3533421
0.709853,-0.05519635,-0.09953936,-0.4151042,0.2176246,-0.3288249
0.6653484,-0.06802264,-0.1077633,-0.2184741,0.2267616,-0.2395773
0.7345662,-0.02805329,-0.1061676,-0.07255914,0.3230145,-0.188378
0.7918378,0.03867185,-0.1050634,-0.0847019,0.5387099,-0.3080178
0.8453925,0.07669049,-0.0880874,-0.273741,0.607616,-0.4781867
0.8452087,0.1151145,-0.07325974,-0.4469449,0.60628,-0.4635189
0.7601074,0.1086878,-0.03616514,-0.4784339,0.5399545,-0.2364182
0.7296558,0.08989552,0.006822204,-0.3115888,0.4167774,0.07696545
0.7574744,0.04850095,0.007423934,-0.2054389,0.1794318,0.2223218
0.8492759,-0.01770834,-0.01207854,-0.1608493,0.09312549,0.02648962
0.9655234,-0.05354788,-0.02604585,-0.0964753,0.3505472,-0.2335105
1.017588,-0.09060544,-0.02034346,-0.2453195,0.4810768,-0.29107
1.082094,-0.1830823,0.01331835,-0.4058919,0.385518,-0.2178395
1.195912,-0.2907196,0.07137652,-0.3322645,0.1929266,-0.02540139
1.368626,-0.3155687,0.1045404,-0.2045116,0.02236498,0.05782682
1.6638,-0.2831912,0.1179349,-0.1661362,0.05440886,-0.2490077
1.955471,-0.2105497,0.1612329,-0.19126,0.03610756,-0.5482182
1.998595,-0.1128455,0.1882634,-0.1980404,-0.1077639,-0.4147965
1.848527,-0.1032435,0.1737032,-0.09000202,-0.0590057,-0.1456147
1.638826,-0.02448016,0.128161,0.04631514,0.1968668,0.02482229
1.341077,0.1439051,0.1012245,0.0117283,0.3214041,0.2341947
1.202636,0.078356,0.1539048,-0.01247331,0.09371836,0.2352489
1.174778,-0.01585798,0.1982566,0.04732585,-0.1904947,0.06849801
0.9545894,0.07638844,0.1621898,-0.01772853,-0.1221799,0.1051272
0.8518256,0.0824143,0.1070082,-0.1331498,0.02881846,0.1932451
0.7920488,0.08369275,0.07723449,-0.3203448,0.0228135,0.3809037
0.6168605,0.1236061,0.06083666,-0.5001129,0.1163464,0.5395803
0.6532695,0.02465704,0.06961037,-0.4643619,0.09683407,0.4244418
0.6415565,-0.05006037,0.09827777,-0.3546417,-0.06904014,0.2574188
0.5893693,-0.06875785,0.1064434,-0.2287319,-0.1475857,-0.1113182
0.6731466,-0.06071702,0.1133976,-0.1621353,-0.342474,-0.4756182
0.6262022,0.01230811,0.1156275,-0.1508717,-0.5198713,-0.5174677
0.6300695,0.05233684,0.1089599,-0.009290986,-0.689798,-0.4918876
0.6555948,0.1106093,0.09992475,0.07252562,-0.8317476,-0.3325309
0.6379801,0.127407,0.06331945,0.04353487,-0.6645981,-0.1217657
0.7429188,0.05439469,0.0536723,0.08989856,-0.6236166,-0.0516519
0.7911523,0.01250621,0.05653458,0.187803,-0.7869985,-0.07928965
0.8861202,-0.01821217,0.03227419,0.3397216,-0.8356543,-0.1603632
1.017873,0.02383738,0.02023073,0.4060768,-0.7837569,-0.1685506
1.032513,0.1023792,-0.0003378839,0.2012306,-0.6826793,-0.1270598
1.045355,0.1228009,-0.007054347,-0.1135758,-0.6740985,0.0754438
0.9795212,0.1343401,-0.01033874,-0.2930228,-0.5090635,0.3810479
0.8721629,0.07170323,-0.03950596,-0.3061067,-0.19311,0.4258413
0.8611264,-0.04971809,-0.02845464,-0.2698751,-0.2337895,0.2551059
1.051419,-0.2028625,-0.03533101,-0.1416563,-0.5464279,0.04062718
1.452024,-0.3622797,-0.1545703,0.1975139,-0.6750886,-0.07173415
1.782033,-0.3692356,-0.3528024,0.4686374,-0.1717498,-0.05148653
1.907678,-0.234943,-0.476254,0.3732359,0.6386791,-0.1162843
1.859465,-0.07601959,-0.3836789,0.2638225,0.873528,-0.258833
1.681947,0.0277335,-0.1485019,0.3124387,0.7961256,-0.3210411
1.353127,0.1140701,0.1148288,0.1298494,0.7838084,-0.4015922
0.9448018,0.2313875,0.2181511,-0.02979,0.1037469,-0.4133947
0.82264,0.2859571,0.07413341,0.1771904,-1.314748,0.1450193
0.9396286,0.2817361,-0.02098363,0.2990219,-1.996805,0.9630784
1.028875,0.1783924,-0.1381385,0.1481547,-1.050239,1.134444
1.113359,-0.02869193,-0.3739297,0.004084836,0.1472147,0.7441189
1.025728,-0.1232702,-0.2834015,-0.01418604,0.3970859,0.3587844
0.7685589,-0.08919337,-0.07548709,0.00578694,0.3308056,0.09509595
0.6459586,-0.04726978,-0.1053506,0.0425984,0.08634231,-0.002248825
0.6597293,-0.005376802,-0.09350257,0.1137602,-0.2846394,0.149673
0.7886994,0.04300786,-0.1151209,0.06647565,-0.09362405,0.2130041
0.9841674,0.05039837,-0.1992866,-0.05709455,0.3318028,-0.005822748
1.001459,0.01736425,-0.1676247,-0.168499,0.7044936,-0.2048742
0.8839763,0.02780261,-0.1384106,-0.2412477,0.8759631,-0.3298082
0.8032875,0.04335862,-0.08372155,-0.1238168,0.5534923,-0.3294319
0.7842837,0.05243132,-0.05707858,0.02838873,0.4293161,-0.1846997
0.8196159,0.06962722,-0.09661394,0.1103939,0.5856948,-0.04321707
0.8183167,0.01737283,-0.06056462,0.19667,0.6259727,0.1233091
0.7547951,-0.01970301,-0.039904,0.2022171,0.7058942,0.1582245
0.6879834,0.0007954567,-0.0263206,0.2607957,0.5237797,0.06785945
0.6809504,0.004825879,-0.02114307,0.3866589,0.08833075,0.03865014
0.7909634,0.001141414,-0.08096191,0.3665468,-0.1053058,0.0682715
0.9063569,-0.007066614,-0.1010191,0.3574454,0.033223,0.12872
0.9156062,-0.01312663,-0.1224963,0.5066833,0.2804235,0.05759439
0.8814407,-0.03114953,-0.1111766,0.6019121,0.4452221,-0.1779194
0.8908188,-0.07455298,-0.03107504,0.5153005,0.6671124,-0.5013831
0.9674656,-0.12348,0.04851779,0.4009972,0.7586732,-0.6418165
1.138628,-0.1476717,0.1764542,0.3964978,0.4133644,-0.351284
1.439526,-0.1569177,0.2389326,0.4239474,0.07393448,0.03824631
1.751564,-0.1868805,0.1981311,0.4014008,0.01309961,0.1983857
1.875225,-0.1155829,0.188137,0.3419785,-0.2433383,-0.2193909
1.780181,0.0284167,0.1654821,0.3120713,-0.712902,-0.7998311
1.696382,0.07459396,0.1225856,0.47354,-0.5974701,-0.5609039
1.716439,0.161399,0.1089708,0.6652837,0.2092572,-0.1579293
1.607678,0.2973769,0.09750686,0.5171897,0.8525547,0.03471576
1.425025,0.260725,0.103591,0.1997864,0.6375949,0.4233025
1.178858,0.1468186,0.1708502,0.03753587,-0.08913039,0.370861
0.7765039,0.08975422,0.2297088,0.1082379,-0.450215,0.2611242
0.7264928,0.02075992,0.1840009,0.3156656,-0.4867176,0.4851024
0.9033672,-0.01359807,0.07619947,0.4152899,-0.1174977,0.3750064
0.7529043,-0.02793042,-0.006084057,0.4520691,0.4727767,0.3316382
0.6909134,-0.07356127,0.01235221,0.407304,0.3524546,0.3190385
0.7175404,-0.03500663,0.07817272,0.241748,0.04058003,0.03944664
0.5749016,-0.001831073,0.09257521,0.2315776,-0.1926325,-0.1179902
0.6272992,0.004385261,0.1194407,0.2020338,-0.5027863,-0.3401795
0.7056282,0.08100949,0.1173344,0.1194764,-0.459594,-0.3925037
0.6851072,0.09853323,0.06514093,0.1754233,-0.514079,-0.1443189
0.7378769,0.1096818,0.06246367,0.1102997,-0.5107978,-0.002359941
0.7011389,0.1178907,0.04202643,0.01707155,-0.2924872,0.1011076
0.6905827,0.06532886,0.02545553,-0.046175,-0.2966603,0.02568913
0.742555,0.07797295,0.05514078,-0.1402666,-0.3339506,-0.1117927
0.7753365,0.07464906,0.06040503,-0.07198931,-0.5210776,-0.09669613
0.9001345,0.05929168,0.07582734,-0.06033764,-0.6552934,-0.08075072
0.9635888,0.07111149,0.06658309,-0.159185,-0.6341391,0.08483966
0.9493919,0.04876832,0.02819714,-0.2590351,-0.6384154,0.2735588
0.9600029,0.05785718,0.01842355,-0.4351057,-0.3826892,0.3045858
0.9295356,0.03508507,0.0001871072,-0.4782676,-0.2032034,0.2142513
0.8954694,-0.03102627,-0.003678255,-0.3172975,-0.2606618,0.004717611
0.9183642,-0.1164624,-0.0273042,-0.1163222,-0.3363992,-0.03119352
1.095638,-0.2393751,-0.1119916,0.01880766,-0.2791436,0.1897155
1.406139,-0.2828265,-0.2086578,0.1057782,0.2445861,0.3892332
1.612958,-0.2756805,-0.2869218,0.1822698,0.8324145,0.2614064
1.629263,-0.2505015,-0.2485565,0.2232008,0.869925,-0.2452545
1.556867,-0.115967,-0.06223528,0.3386374,0.6498692,-0.8404222
1.461593,0.1293701,0.1505406,0.4121966,0.5618371,-1.129897
1.360666,0.3640911,0.2180346,0.2840005,0.01833894,-0.7352649
1.32907,0.4893236,0.1240311,0.1293943,-0.9445391,0.1617342
1.332738,0.5412507,0.02200323,-0.0108637,-1.162738,1.107761
1.270487,0.3886968,-0.1311793,-0.2190773,-0.6932405,1.388966
1.186553,0.08139493,-0.2423479,-0.4170146,-0.2529568,0.656011
1.103299,-0.01584437,-0.1538289,-0.4273602,-0.06866767,0.1153775
1.063418,-0.003754045,-0.1368469,-0.3423011,0.01652338,0.07284063
1.065223,-0.02060971,-0.1753352,-0.298899,0.2626817,0.09694049
0.962634,0.02868215,-0.1189043,-0.2066238,0.4125391,0.3984762
0.8134783,0.02818066,-0.1189413,-0.1944213,0.464958,0.3609078
0.7300469,0.01404126,-0.07498961,-0.2313484,0.4471108,0.1488076
0.6987848,0.03512575,-0.01290156,-0.2263629,0.3671,0.07856292
0.7499496,0.02028437,-0.04697029,-0.292896,0.4467912,-0.152841
0.780063,0.03904067,-0.0467409,-0.2305947,0.4240758,-0.05525352
0.7025726,0.05708226,-0.0588787,-0.01566569,0.4179408,-0.01268038
0.6626268,0.07218592,-0.06522706,0.1786277,0.5065177,-0.1189327
0.7363224,0.1188992,-0.03429929,0.2422196,0.508934,-0.04624788
0.8557095,0.1441389,-0.04417961,0.08455753,0.5973735,-0.1729999
0.9078311,0.1919761,-0.02794458,-0.02205174,0.5594747,-0.09001695
0.8608309,0.2268175,-0.009906057,-0.01003489,0.4729904,0.08790885
0.8460513,0.2089459,-0.002833756,-0.04240729,0.5117855,0.1209563
0.9290589,0.1564569,0.01225331,-0.1070286,0.4193289,0.2312878
0.9939578,0.05291577,-0.001335611,-0.2083445,0.3155133,0.1009336
0.952774,0.01345121,0.01608331,-0.196406,0.3039155,-0.07161487
0.894852,0.05647035,0.0315209,-0.1586735,0.3689449,-0.1871445
0.8850589,0.03727148,0.03031452,-0.3073793,0.4237169,-0.1788252
0.92763,-0.08860497,0.08502977,-0.5383342,0.2695884,0.2392664
1.132533,-0.2713824,0.1493473,-0.8099135,0.1131925,0.6115273
1.464702,-0.4277126,0.1455971,-0.8394704,-0.002354376,0.4635706
1.718849,-0.4848757,0.03880472,-0.5582395,-0.5558067,-0.4104684
1.820097,-0.3695031,-0.08292219,-0.4767623,-1.143175,-1.34844
1.78619,-0.1463053,-0.1042774,-0.6288035,-0.5261079,-1.238755
1.716197,0.08240053,-0.07091998,-0.8287622,0.696176,-0.4239336
1.67859,0.327441,-0.03448376,-1.058312,0.8966353,0.2901753
1.514288,0.2835564,0.0643542,-1.184151,0.2712685,0.7236189
1.2325,-0.0198924,0.1676663,-1.061137,-0.3694473,0.6674856
1.075235,-0.08597049,0.09371093,-0.6918292,-0.5163708,0.269073
1.043391,-0.1361075,-0.03246576,-0.4834384,-0.1328893,-0.02520706
1.034605,-0.1660213,-0.04051812,-0.552559,0.112115,-0.1318367
0.9963737,0.04402699,-0.04549183,-0.6058497,0.3197962,0.04197685
0.8985746,0.09494454,-0.02597956,-0.7468258,0.4639476,0.3014175
0.8116581,0.1275385,0.02451098,-1.003184,0.2690464,0.3876548
0.7578633,0.1291105,0.02351519,-1.090855,0.2020804,0.4169002
0.7516818,-0.04923152,0.04305874,-0.95306,0.1539219,0.1505049
0.7716652,-0.06170088,0.06380096,-0.8523156,0.03364686,-0.2378618
0.7484389,-0.1039525,0.07769068,-0.7902513,-0.0268816,-0.4040029
0.7270075,-0.08544035,0.1056596,-0.6203522,-0.1487186,-0.508356
0.6944151,0.05700245,0.095856,-0.5401319,-0.1753589,-0.4599299
0.6373456,0.01831967,0.08356004,-0.4797665,-0.3402108,-0.4012388
0.6093125,0.03967522,0.050638,-0.4145423,-0.6326733,-0.365635
0.6110581,0.04568113,-0.006230202,-0.4658421,-0.6537182,-0.2950848
0.6633888,0.03554066,-0.03222822,-0.4251854,-0.4979777,-0.3941712
0.7383185,0.1219041,-0.042771,-0.3619195,-0.3058402,-0.4718333
0.7862007,0.1050099,-0.01532037,-0.3507041,-0.2666694,-0.5515623
0.8078586,0.1322578,0.02768578,-0.4043597,-0.4419873,-0.5938852
0.8346926,0.1764002,0.02678172,-0.5904463,-0.5640494,-0.4682278
0.9040209,0.1907818,0.002552807,-0.6919835,-0.4524822,-0.3442393
0.9366912,0.2024483,-0.01828059,-0.7023042,-0.3217301,-0.1015634
0.8936715,0.1039873,-0.0254516,-0.6830303,-0.4009538,0.09534179
0.8550675,-0.007753233,-0.03465265,-0.5875601,-0.4239488,0.08444983
0.8485225,-0.1567835,-0.0691605,-0.4146187,-0.4357999,0.1211714
0.9641407,-0.2919839,-0.1353562,-0.110946,-0.571406,0.282579
1.338716,-0.4360068,-0.2683213,0.3384741,-0.4705115,0.4571615
1.740347,-0.6088086,-0.4359844,0.7719952,0.02378349,0.2109796
1.779499,-0.5486979,-0.4059089,0.6517063,0.8969036,-0.5662331
1.680029,-0.4129947,-0.07156393,0.2204331,1.381268,-1.139179
1.688887,-0.1009749,0.2236288,0.1702727,0.5495592,-0.8212175
1.555487,0.4555267,0.1679951,0.05493834,-0.6205159,0.1635546
1.460985,0.4827303,-0.03662975,-0.03698086,-0.8530547,0.9758426
1.501233,0.1302745,-0.111865,0.04584785,-0.3730296,1.026767
1.369869,0.04671674,-0.1135104,-0.3083361,-0.001694851,0.2175108
1.232761,-0.01229292,-0.07525947,-0.4756716,-0.2303097,-0.4840075
1.076764,-0.00719957,-0.02360774,-0.2862671,-0.4782722,-0.2337292
0.87368,0.1015887,-0.08767323,-0.1520785,-0.3606782,0.2465694
0.8393833,0.03118074,-0.1409388,0.1960204,-0.2385784,0.6292824
0.7666938,-0.02416398,-0.1262901,0.2529045,0.08555718,0.8133278
0.6850233,-0.1034084,-0.11725,0.1121675,0.227211,0.4321271
0.6848162,-0.1965367,-0.07973075,0.2712092,-0.07118418,0.1253389
0.6762583,-0.1032854,-0.1018296,0.4178322,-0.05972542,0.04247376
0.7103077,-0.07660582,-0.1256397,0.6323447,0.1178701,-0.08170848
0.6633637,-0.03537441,-0.08339872,0.7214692,0.2902753,-0.05302241
0.629869,0.04089848,-0.06601613,0.6209065,0.407078,-0.07628739
0.6846257,-0.01060702,-0.0396619,0.735013,0.2269627,-0.1283535
0.7452872,0.01205893,-0.0522156,0.8734571,0.2214666,-0.06287898
0.8770373,0.005760709,-0.08744605,0.9751598,0.37103,-0.05415668
0.8832835,-0.02513798,-0.06752322,1.095895,0.4973894,-0.09200045
0.7420651,0.04048209,-0.04437543,1.086012,0.5420718,-0.1460509
0.6706141,0.06617294,-0.01170598,0.9594652,0.2281321,-0.1817165
0.7125906,0.1265407,-0.01156375,0.7873322,0.01259386,-0.1082077
0.8370442,0.1654709,-0.03737691,0.669763,0.2418841,0.06558815
0.9823364,0.02367253,-0.04691008,0.5663493,0.7311678,0.1845414
1.167779,-0.2151411,-0.05992366,0.4388128,0.9831423,0.04131627
1.2375,-0.3202261,0.04985965,0.4411412,0.4403239,-0.3099048
1.22298,-0.2088953,0.1974907,0.645535,-0.2932579,-0.5510682
1.518389,-0.05205734,0.1547135,0.8023426,-0.3262779,-0.4806649
1.919618,0.1532687,0.08807531,0.4695184,-0.04556059,-0.2644819
1.960069,0.2535243,0.09773549,0.0598156,0.005897671,-0.009646766
1.719016,0.08733567,0.0695138,0.2751486,0.1901058,0.2606913
1.474346,-0.02066792,0.1092315,0.5801979,0.4109723,0.1273012
1.284498,-0.01879692,0.2002256,0.6879765,0.2349425,-0.1446007
1.140853,-0.009925761,0.2120236,0.8613656,-0.08302004,0.1033202
1.081914,0.06602801,0.2138278,0.8136077,-0.3953222,0.2855874
1.031731,0.1020566,0.1558651,0.7434614,-0.4446539,0.2209195
0.9448672,0.1122515,0.04134986,0.7148652,-0.1117164,0.3275013
0.8136873,0.1191144,0.02636264,0.495089,0.1058521,0.2643339
0.6769448,0.08193586,0.04769013,0.4017597,0.1265348,0.1636531
0.589492,0.06602326,0.04717582,0.2541913,0.06584582,0.08316415
0.4956028,0.03052291,0.07630017,0.1002201,-0.09747053,-0.1511796
0.5075122,0.005479524,0.1140006,0.2305277,-0.3499307,-0.1965923
0.5691394,0.009385714,0.1198591,0.2807967,-0.55318,-0.2067128
0.5725778,-0.02725139,0.08630573,0.3252119,-0.528854,-0.1310202
0.6594745,-0.02384262,0.0588915,0.4443945,-0.5569281,0.1059819
0.7230516,-0.01654,0.05569892,0.5169602,-0.6594716,0.1617005
0.7905124,-0.05487727,0.0423914,0.6681912,-0.6594634,0.1982361
0.8828923,-0.0594015,0.007590778,0.7579793,-0.7150959,0.1748052
0.866288,-0.0525623,-0.01445258,0.75673,-0.5642411,0.0599101
0.915767,-0.02923891,0.001600439,0.7498008,-0.2324006,-0.03178213
0.958943,0.03657008,0.02269662,0.7086185,-0.1578757,-0.2201462
0.883881,0.1410724,0.06310071,0.5770497,-0.1932991,-0.2838446
0.8321172,0.2420636,0.1107207,0.2966135,-0.2946822,-0.1882436
0.8411625,0.2224032,0.08415823,0.06951895,-0.5057768,0.02063204
0.9404048,0.1169143,0.01426835,0.01114596,-0.5657084,0.3989961
1.151409,-0.0309259,-0.08242249,0.09346852,-0.416479,0.5619098
1.50304,-0.2721071,-0.2245383,0.3155499,-0.06820633,0.3877474
1.740167,-0.4211901,-0.2965976,0.5528913,0.3877909,0.08921851
1.696696,-0.3122788,-0.2556082,0.8068196,0.592359,-0.2524128
1.728418,-0.09437995,-0.2065314,1.056625,0.4830192,-0.3676312
1.743845,0.09921934,-0.1655104,1.077981,0.4778613,-0.2703855
1.499159,0.2082498,-0.07227445,0.7555431,0.5379088,-0.3570784
1.237535,0.2366354,0.05361023,0.3612606,0.2576696,-0.3716686
1.015532,0.2771117,0.1112357,0.3289233,-0.3206879,0.002897541
0.8800353,0.2409525,0.01905024,0.4742666,-1.099915,0.5722654
0.9504074,0.1190829,-0.1535366,0.520579,-1.444049,1.084738
1.036022,0.0007645489,-0.2727157,0.6706906,-0.6555284,1.041521
1.054477,-0.1687749,-0.3035622,0.7141192,0.3901937,0.5812162
0.964118,-0.212321,-0.2108706,0.5440757,0.795205,0.1933129
0.728986,-0.1197568,-0.05460093,0.5417923,0.7235414,-0.1703032
0.6027906,-0.09336108,0.0132152,0.6747898,0.484933,-0.2449817
0.5960065,-0.00686439,0.02162061,0.8702554,0.3129042,-0.1879041
0.624342,0.07329117,-0.01171869,0.9835478,0.2237824,-0.2323008
0.7808568,0.06175004,-0.08441897,0.75248,0.3146621,-0.07789327
0.889007,0.08598542,-0.1044714,0.5008954,0.6245576,-0.01246914
0.8078203,0.08589486,-0.09678532,0.4321008,0.948392,-0.03233322
0.6064269,0.07697535,-0.04773235,0.3548211,1.090629,0.02172731
0.3840734,0.06970525,0.04723949,0.2849122,0.7212971,0.02569739
0.3456722,0.03377079,0.07658405,0.3544302,0.003017673,0.1602007
0.6431681,0.01303055,0.0194187,0.5185943,-0.5774517,0.2277385
1.095395,-0.04238472,-0.09878721,0.5684137,-0.6024809,0.1141967
1.230804,-0.1072563,-0.1874667,0.5874663,0.2096274,-0.0854956
0.9988187,-0.1675517,-0.13722,0.7425526,1.038953,-0.3113872
0.8862981,-0.2137171,0.0160053,0.9867892,1.031213,-0.2878976
1.056288,-0.1662892,0.1798776,1.160626,0.4218985,-0.3751715
1.27382,-0.08118249,0.2558231,0.9021798,-0.06496924,-0.7613676
1.615188,0.07110262,0.2097193,0.3030219,0.03891245,-0.809086
2.052189,0.257912,0.1799211,-0.2286495,0.08702143,-0.4066806
1.972993,0.212879,0.2095626,-0.3980311,-0.3221774,0.08456319
1.676132,0.0834716,0.1699482,0.09896782,-0.4651922,0.3117566
1.681331,0.08090729,0.08959373,0.7212298,0.05083543,0.04379946
1.409615,-0.02085328,0.02717669,0.802857,0.6812059,-0.2400879
1.228025,-0.0533707,0.03606716,0.548491,0.5990334,-0.1529389
1.276265,0.09915298,0.1506098,0.3277173,0.1249776,-0.0209301
0.81433,0.1033865,0.1880971,0.3881157,-0.1032795,0.139889
0.6625848,0.1062776,0.1568453,0.4137281,-0.2321974,0.3368718
0.8441707,0.1319942,0.1264764,0.2274843,-0.1316753,0.404969
0.6412294,0.05121371,0.0516953,0.2024495,0.01906072,0.4984904
0.6512847,0.03221088,0.03503999,0.1822858,0.02138611,0.474075
0.6582072,-0.03831347,0.04071345,0.1532132,0.1060268,0.2567702
0.4880339,-0.07473276,0.04134287,0.2066556,-0.025472,-0.04035359
0.5296542,-0.02684604,0.07281598,0.1753523,-0.2343057,-0.4480522
0.5273055,-0.0569581,0.1053702,0.2542656,-0.3885819,-0.697168
0.5714698,0.002552306,0.168719,0.3738594,-0.7282298,-0.7294084
0.6529697,0.08464306,0.1673362,0.387882,-0.9310274,-0.5359699
0.654626,0.1349558,0.09446927,0.2896104,-0.9779065,-0.03676532
0.7528846,0.1845209,0.02289414,0.05612039,-0.7721843,0.3779379
0.8901557,0.1235647,-0.04230481,-0.02328438,-0.2114068,0.4675697
0.981236,0.05336527,-0.03243751,-0.02094147,0.1751788,0.2842766
0.8757348,-0.03517616,0.03110195,-0.05828538,0.1686496,0.04045432
0.7215209,-0.07994222,0.1280669,0.02629448,-0.1951642,-0.1302446
0.7438774,-0.02409883,0.1693436,0.1275289,-0.6022605,-0.2180021
0.8844464,-0.05088691,0.06159184,0.2602848,-0.7290728,-0.02747569
1.275014,-0.1320216,-0.1012161,0.5348771,-0.5774032,0.1778585
1.699288,-0.2503708,-0.2990546,0.9474397,-0.08651249,0.1384884
1.810325,-0.3267552,-0.3958116,1.187875,0.4299571,-0.07354707
1.786961,-0.1947675,-0.2720546,1.004679,0.5436298,-0.4167932
1.805309,0.03418361,-0.1607923,0.8951438,0.3860819,-0.4822111
1.757071,0.2812784,-0.1310015,0.8216261,0.4533668,-0.3808481
1.537607,0.4522446,-0.04228831,0.3198523,0.4855682,-0.4013919
1.312647,0.4116005,0.02514123,-0.1390931,-0.1445199,-0.07477179
1.201146,0.2476405,-0.02203187,-0.156692,-0.8199548,0.5675101
1.137366,0.006040214,-0.1084758,0.1712165,-0.8518391,0.90667
1.070523,-0.1933025,-0.1832739,0.5392534,-0.387348,0.6859066
0.9263287,-0.1559289,-0.1771063,0.5118521,0.01249425,0.3008064
0.7627787,-0.0804186,-0.098806,0.3286662,-0.01588231,0.07351795
0.6686124,-0.06111266,-0.08044401,0.3371448,-0.07588645,-0.04801112
0.6561728,0.04968803,-0.0756532,0.44062,-0.06861698,0.1958233
0.722584,0.08298433,-0.07380712,0.5774622,-0.03038093,0.4675119
0.8074238,0.02039395,-0.1111434,0.556224,0.1312536,0.3318314
0.8792344,0.01351686,-0.1069101,0.3859364,0.315031,0.1669325
0.8810754,-0.01360544,-0.1101938,0.2847391,0.5848439,-0.08970142
0.8084701,-0.01495232,-0.097816,0.2147959,0.7367216,-0.2977528
0.7225349,0.01482823,-0.04274499,0.2212573,0.7403789,-0.2358244
0.6608577,0.003962037,-0.03373166,0.2623987,0.6882596,-0.2601679
0.6219379,0.04549715,-0.001838363,0.2646647,0.4643862,-0.2037012
0.5288665,0.1307598,0.05003531,0.3211103,0.1791999,-0.01115332
0.5233298,0.1865656,0.0510066,0.3127167,-0.1246476,0.1869759
0.7225374,0.1652563,0.0001010526,0.2509055,-0.1470803,0.3552502
0.923888,0.08583279,-0.09071427,0.2268833,0.1772926,0.1919414
0.9763777,0.02403817,-0.1299735,0.2132739,0.4079889,-0.1014323
0.8731872,-0.0451582,-0.08993388,0.3121782,0.4880461,-0.2974551
0.833785,-0.07180463,-0.02907943,0.4567275,0.5504776,-0.391975
1.03367,-0.05813541,-0.001966806,0.5113643,0.6470696,-0.3407719
1.295132,-0.06934972,0.008547904,0.3956072,0.4553043,-0.3598561
1.458512,-0.01540365,0.05624289,0.1030281,0.09161407,-0.3060291
1.504004,0.03614556,0.1008382,-0.1366825,0.1709732,-0.1628927
1.579217,0.008940854,0.121214,-0.1674701,0.2183235,-0.2098967
1.713808,0.004363857,0.1441191,0.0381652,-0.03911879,-0.1946708
1.666753,0.02220648,0.163369,0.3535393,-0.123058,-0.03602535
1.533196,0.0425345,0.1197579,0.6123447,-0.03695775,0.04874336
1.473726,0.08349774,0.06452728,0.6688183,0.2511915,-0.01920616
1.372575,0.1343739,0.1096582,0.3480543,0.4935174,-0.1109465
1.205478,0.1480648,0.1458152,0.01461175,0.2786427,0.08293857
1.021282,0.1046152,0.1362108,0.03118452,-0.00243471,0.3823637
0.9209485,0.03476459,0.1272062,0.1354428,0.008232581,0.4876387
0.8529502,-0.07384863,0.08230587,0.1925654,0.09879958,0.4581968
0.7226882,-0.1606442,0.07802696,0.3208363,0.09982332,0.36501
0.6828371,-0.1634158,0.09875777,0.5118105,0.05162555,0.3137746
0.6598556,-0.1222717,0.09128645,0.649574,-0.08094694,0.249362
0.6081947,-0.05588377,0.09283959,0.6946839,-0.2597168,0.1966547
0.638855,-0.0009689092,0.07258465,0.6552612,-0.3729923,0.1899505
0.6246254,0.04102816,0.04934288,0.5710495,-0.4296004,-0.003034994
0.6185694,0.09352766,0.04694856,0.5323696,-0.3843539,-0.223573
0.6471418,0.1280944,0.05406127,0.4792908,-0.3208372,-0.3009266
0.6219823,0.1610569,0.0828639,0.3719911,-0.304932,-0.2928518
0.6461168,0.1838403,0.1137508,0.2228761,-0.3440037,-0.1467362
0.6892225,0.1358812,0.1214102,0.102706,-0.5450036,0.05261904
0.7771614,0.04657772,0.08712644,0.1371427,-0.6952895,0.2025108
0.8962313,0.004130378,0.03878346,0.2011689,-0.6586497,0.159105
0.889945,0.01012869,0.01376929,0.2623634,-0.550585,-0.0473606
0.8605558,0.02320511,0.0155476,0.3229464,-0.3841061,-0.2348671
0.8688295,0.05024175,0.02679397,0.2583348,-0.2863685,-0.3084918
0.8967674,0.06689503,0.01111571,0.1622624,-0.3629505,-0.03510019
1.084089,0.00652141,-0.034581,0.1002848,-0.4279402,0.3154867
1.480673,-0.1744304,-0.18113,0.1730552,-0.2462388,0.3288633
1.75365,-0.3444566,-0.3470684,0.3548596,0.04799832,0.1058046
1.628442,-0.2689167,-0.2510129,0.4337413,0.2593114,-0.3336246
1.5105,-0.06969408,-0.07177818,0.6775404,0.3533767,-0.7048963
1.577277,0.03715651,-0.0833806,0.980096,0.2238791,-0.6578068
1.534221,0.1763868,-0.09957178,0.6820465,-0.0360133,-0.4647459
1.519302,0.3478805,-0.1005661,0.08534394,-0.2411051,-0.2202197
1.525552,0.3728201,-0.1645261,-0.1953188,-0.1814094,0.2534117
1.385278,0.2841552,-0.1686297,-0.2777554,0.004602117,0.5015454
1.187381,0.156297,-0.1214861,-0.24301,-0.1338137,0.3214018
0.9151974,-0.009100276,-0.06707465,-0.08880156,-0.2952734,0.3145786
0.8596915,-0.09124466,-0.06273404,0.09996553,-0.3019731,0.3684576
0.9881808,-0.05683753,-0.1166406,0.3421259,-0.1879443,0.2697662
0.8776365,-0.0685042,-0.1252178,0.4275527,0.2009849,0.3205796
0.8197452,-0.05378389,-0.1317017,0.3156354,0.267464,0.2930381
0.7828471,0.006149789,-0.1299036,0.2110858,0.08718507,0.2275348
0.6534637,-0.02151244,-0.1039086,0.1248649,0.1268154,0.257137
0.7722457,0.002778362,-0.1080699,0.114409,0.1145369,0.1852355
0.8377522,0.02016735,-0.09600003,0.09684275,0.3376339,0.1404895
0.7937499,-0.02214613,-0.09099045,0.04788014,0.6866523,0.01849663
0.7823791,0.006742352,-0.07402708,0.1662509,0.6450398,-0.1743364
0.6202366,0.02224308,-0.03405087,0.3690402,0.4506548,-0.1924967
0.5915312,0.09429593,-0.03883374,0.5165422,0.2501434,-0.0770533
0.7433454,0.1969309,-0.05231112,0.5126648,0.2146929,0.08734337
0.8611271,0.2267849,-0.08444108,0.3278171,0.5280513,0.07568663
0.8823147,0.2681029,-0.08900455,0.04512194,0.8095867,-0.1309771
0.7484586,0.2629537,0.001247941,-0.290011,0.6118381,-0.3453924
0.6964941,0.2568053,0.09558458,-0.4203387,0.1672191,-0.4041561
0.7891197,0.2286015,0.1089468,-0.2572113,0.03715001,-0.1588626
0.9618731,0.03613026,0.05131844,-0.104943,0.3220202,0.02618419
1.269719,-0.2375234,0.03852529,-0.1260709,0.6266672,-0.07560366
1.535715,-0.392612,0.07695313,-0.3744222,0.3252442,-0.2159969
1.587721,-0.3017154,0.08307198,-0.6131291,-0.1956236,-0.4280422
1.583451,-0.1992624,0.06501043,-0.402346,-0.2549466,-0.7206788
1.75511,-0.1302464,0.0346415,-0.1457046,-0.3240176,-0.770385
1.822289,0.1025298,0.03559483,-0.3004713,-0.3113121,-0.418324
0.5503561,0.07515783,-0.008605567,0.4623604,0.620449,-0.126802
0.5494881,0.07477078,0.001885142,0.5119326,0.5055192,0.116443
0.5765615,0.1024285,-0.0008707964,0.4073216,0.3339253,0.2623446
0.8073328,0.07064547,-0.05064325,0.2997022,0.3574283,0.1003059
0.9702719,0.03435258,-0.09934902,0.05053483,0.6079735,-0.07025609
0.855955,0.02981476,-0.07203913,-0.118328,0.7731804,-0.2300224
0.616722,0.01923686,0.005263131,-0.08666952,0.6275783,-0.2169362
0.4801284,0.01509927,0.08790933,0.03709715,0.2856274,0.08163787
0.5541219,-0.08531166,0.06419374,0.2745411,0.1647722,0.3219332
0.7931772,-0.3227792,-0.01751746,0.4841909,0.1437015,0.4065689
1.137878,-0.5059243,-0.04617764,0.6142053,-0.149709,0.01901532
1.457877,-0.3903081,-0.02443327,0.56254,-0.3876616,-0.6869096
1.81061,-0.1015363,0.02360112,0.2916242,-0.05468087,-0.8068695
2.046456,0.1037321,0.04570671,-0.134433,0.4161913,-0.5245576
1.93441,0.2071088,0.1009641,-0.6204333,0.2875077,-0.2184152
1.821366,0.1112977,0.1922016,-0.6299598,0.08489549,0.1518366
1.675549,-0.03882148,0.1794471,-0.08156154,0.06823383,0.1746633
1.394003,-0.04426831,0.1198336,0.4369852,-0.1410703,-0.1142607
1.317171,-0.03647498,0.111655,0.6032068,-0.08614584,-0.2925608
1.164037,0.08738883,0.1089432,0.3764258,0.09669227,-0.2350567
0.8015838,0.2333192,0.1099351,0.1132302,0.1412958,0.007269609
0.6627997,0.2017118,0.1279205,-0.004306574,0.2552461,0.3253568
0.6182146,0.1716052,0.1352729,-0.2235313,0.09052695,0.5680212
0.4916351,0.1151971,0.1044965,-0.3155811,-0.138284,0.5516553
0.4878765,0.02045997,0.04227042,-0.312088,-0.2341737,0.418716
0.5163423,-0.03083095,0.02421036,-0.4717279,-0.3419806,0.2416604
0.4735563,-0.0732163,0.04401136,-0.5324831,-0.2675938,-0.09987311
0.4802767,-0.1074991,0.04324307,-0.5387493,-0.3102565,-0.3561232
0.4735906,-0.1358544,0.06181318,-0.436964,-0.5287052,-0.4020754
0.4838802,-0.09829473,0.08795411,-0.1140944,-0.7460107,-0.3323511
0.6698528,-0.07615741,0.07732624,0.1428554,-1.001475,-0.1242584
0.9432886,-0.06951015,0.05483088,0.3885858,-1.069804,0.1450992
1.129433,-0.0181589,0.01070526,0.5463096,-0.9872649,0.2701563
1.123241,-0.02558139,-0.05208722,0.526805,-0.7456117,0.1800031
1.033118,0.02114415,-0.05904212,0.4754615,-0.3312644,0.07580263
0.9806927,0.07280344,-0.01044279,0.2540418,-0.04643706,-0.05612949
0.9390556,0.05745895,0.01899577,0.03626817,0.00588498,-0.2211216
1.004609,0.07180222,0.01587057,-0.002257796,-0.2188046,-0.07085437
1.176278,-0.01793002,-0.04022295,-0.01884456,-0.4974845,0.2611183
1.350127,-0.1170478,-0.1250772,0.05478081,-0.4333866,0.4628332
1.457683,-0.1541965,-0.1651301,0.1692741,0.06775118,0.39497
1.502407,-0.2673196,-0.2110244,0.1575697,0.7029429,-0.05966919
1.541202,-0.3038395,-0.2260003,0.1646568,0.770895,-0.3907024
1.492909,-0.1498853,-0.1647099,0.3138191,0.195585,-0.2809391
1.496851,0.07807428,-0.1107965,0.3851141,-0.3165603,-0.1184146
1.544081,0.2111301,-0.03983865,0.202751,-0.3985109,-0.05965029
1.448603,0.1936111,-0.044923,-0.1323064,-0.1932316,-0.01313746
1.383136,0.1477455,-0.118934,-0.4001701,-0.09332344,0.05071869
1.209339,0.1438182,-0.06812875,-0.4480926,-0.2683818,0.1867989
0.9459916,0.117908,-0.06361787,-0.412451,-0.475915,0.516692
0.8853365,0.048624,-0.1337043,-0.3386905,-0.5537742,0.8055614
0.8782325,-0.04993358,-0.1389619,-0.1317011,-0.3174998,0.76344
0.8933602,-0.1930419,-0.1732824,0.02733207,0.1453726,0.5241715
0.8631847,-0.2137609,-0.1484128,0.04446231,0.2846315,0.1593485
0.767452,-0.102637,-0.0906945,0.02509022,0.1784083,-0.1113097
0.7470276,-0.05673715,-0.08675975,0.00229571,0.2035337,-0.1959478
0.7225223,0.0215872,-0.04918939,-0.04214424,0.2571623,-0.2968591
0.7682436,0.07480372,-0.06504749,-0.1007429,0.317809,-0.2940825
0.8489995,0.01563822,-0.09087329,-0.107847,0.4706971,-0.2571057
0.8681838,0.02235124,-0.08224948,-0.0151856,0.7370935,-0.2671018
0.8106069,0.02054384,-0.08797081,0.1295562,0.9735264,-0.2082202
0.6032535,0.004925896,-0.01256337,0.1988218,0.9163564,-0.1757952
0.4519159,0.05598988,0.08173467,0.2465943,0.5915921,-0.1144674
0.4719946,0.07524567,0.1126551,0.3341115,0.09520108,0.0471105
0.7246165,0.08569295,0.03918431,0.3044112,-0.2735335,0.1772026
1.098744,0.08013176,-0.1079712,0.2562865,-0.06360009,0.1066109
1.126663,0.05093648,-0.1441195,0.2596241,0.4142795,-0.1228019
0.9382118,0.02783024,-0.08412376,0.179611,0.644138,-0.216637
0.9100964,-0.05568502,-0.02741418,0.1927144,0.6202796,-0.07970024
1.024706,-0.2000733,-0.004809677,0.3771464,0.4106227,0.09720923
1.204795,-0.346918,0.0375952,0.5218593,0.1166157,0.006012866
1.316543,-0.3613429,0.1206937,0.4949762,-0.2275346,-0.3120518
1.37775,-0.2308183,0.1060161,0.2959172,-0.2669641,-0.4599824
1.589613,-0.001070974,0.0911134,-0.08943741,0.180374,-0.2780818
1.816032,0.2810819,0.1461821,-0.5184097,0.3310061,0.03465175
1.691972,0.2063729,0.1461506,-0.3871465,0.2120781,0.1700182
1.413005,-0.07685889,0.1694458,0.1201456,0.2310154,0.2793593
1.327546,-0.09062411,0.2062185,0.2999875,0.1475826,0.2245163
1.195936,-0.1174192,0.1942222,0.5155004,0.06608587,-0.1555767
1.043815,-0.07102908,0.1873648,0.699959,-0.09148472,-0.08522047
1.007551,0.1218974,0.1458076,0.5776425,-0.1323471,0.1054748
0.8742135,0.09383407,0.09967401,0.5007873,0.08180843,0.01017776
0.7806817,0.1214447,0.08682864,0.2201273,0.1325136,0.1977107
0.6768104,0.1608476,0.07518002,-0.06173268,0.1671292,0.2190142
0.4836594,0.0707275,0.07975538,-0.1590991,0.09261247,0.1385299
0.5187179,0.09428474,0.07652838,-0.3679116,-0.1002665,0.1703025
0.613925,0.005069939,0.08033602,-0.3202559,-0.2152758,-0.08613095
0.6100268,-0.1011351,0.09544993,-0.1811168,-0.3931134,-0.2166757
0.6392717,-0.05703833,0.08345696,-0.1079547,-0.3893516,-0.2629296
0.6606411,-0.04540078,0.08610611,0.04880903,-0.3283162,-0.3168887
0.7055017,0.003206002,0.08924901,0.08143936,-0.386544,-0.2342187
0.7446059,0.04769462,0.08170051,0.1817387,-0.4884736,-0.1899163
0.7579196,0.06125292,0.0841492,0.2194984,-0.6547747,-0.01532059
0.8359954,0.1105939,0.05701517,0.1322415,-0.5459694,0.03050136
0.8984499,0.1565536,0.03614227,0.118946,-0.3718145,-0.03227092
0.8998111,0.1554992,0.05479581,-0.0609484,-0.3987144,0.09293562
0.9572901,0.127198,0.06826175,-0.2058413,-0.333366,0.06729803
1.032853,0.1568912,0.05381351,-0.2356672,-0.2681052,-0.05935414
1.020261,0.1321223,0.03359618,-0.3373669,-0.2484462,-0.1290868
1.03851,0.04383007,0.0182881,-0.3809276,-0.2129878,-0.03343111
1.163401,-0.04588197,-0.03925553,-0.3743409,-0.1919857,0.2454271
1.311379,-0.1486647,-0.1276104,-0.2198639,0.05544871,0.3202082
1.380409,-0.138814,-0.1817832,-0.05715714,0.5020775,0.1542943
1.424736,-0.1188288,-0.1628978,-0.2173557,0.6783158,-0.1256419
1.668836,-0.03937763,-0.08443003,-0.348732,0.483154,-0.2914999
1.850605,0.1782155,-0.01631928,-0.1686212,0.3721334,-0.1308029
1.594101,0.2037972,0.04681693,-0.02876548,0.4239007,0.04626089
1.231604,0.1295035,0.1191771,-0.07921851,0.1389189,0.1054032
1.048042,0.1576358,0.1410259,-0.1369866,-0.6087222,0.2533722
0.9710163,0.1650469,0.05433812,-0.2310349,-1.32709,0.5228436
1.011776,0.1583571,-0.1154431,-0.3387843,-1.402416,0.68508
1.046475,0.09960719,-0.2231317,-0.3434665,-0.7117589,0.5980291
0.9693936,-0.01728575,-0.2141774,-0.3631018,0.1859435,0.4268578
0.8797114,-0.05664053,-0.1298921,-0.3728933,0.690973,0.2274546
0.7553942,-0.02426764,-0.02482622,-0.2755882,0.650482,0.07202054
0.6627271,0.0174861,0.005336447,-0.176914,0.464291,0.03987874
0.6831398,0.06483771,-0.008740022,-0.1617199,0.4606283,-0.08614955
0.6471303,0.08013422,-0.01405123,-0.2231043,0.4123809,-0.2212027
0.6117352,0.05803038,-0.03896945,-0.2528295,0.3801337,-0.1634922
0.6588035,0.0674617,-0.06056838,-0.2085964,0.5053693,-0.06134572
0.671632,0.07567956,-0.05008652,-0.1337646,0.650664,0.03209673
0.6809716,0.06004392,-0.01776677,-0.06709065,0.806267,0.02488042
0.657665,0.07987483,0.01282438,-0.1325941,0.6835716,-0.1459577
0.6175257,0.1097081,0.03402086,-0.2763701,0.3489119,-0.2169069
0.6536563,0.1293846,0.02939122,-0.3834429,0.2070284,-0.05886332
0.7061029,0.08180621,-0.008071529,-0.528302,0.1783066,0.1898794
0.7536836,-0.04237888,-0.03603346,-0.6009614,0.3172991,0.3041725
0.8147177,-0.1221796,-0.02748086,-0.5231673,0.4574584,0.2568859
1.066276,-0.2389476,0.02847537,-0.4630004,0.3573454,0.08934917
1.459378,-0.394841,0.1266686,-0.3463424,0.2213029,-0.3821721
1.521716,-0.3359375,0.2103706,-0.1367344,0.04930955,-0.8161155
1.523297,-0.08842661,0.2088698,-0.1826476,-0.0006671353,-0.6868426
1.874585,0.1751297,0.1985654,-0.6337952,0.1014466,-0.3067657
1.972354,0.330188,0.2515533,-0.9943077,0.1038753,-0.04753147
1.676346,0.2079873,0.257223,-0.6898908,0.1453479,0.05171239
1.487593,0.03432054,0.262539,-0.2245869,0.1314527,-0.04135796
1.3684,0.0544007,0.2880945,-0.3057993,-0.04399753,-0.06471917
1.279545,0.08129193,0.2386061,-0.5001461,-0.1277174,0.04869257
1.225736,0.1385492,0.206398,-0.6367559,-0.06561417,0.07820366
1.084435,0.1871199,0.1489684,-0.8164678,0.08825245,0.1589551
0.9256915,0.07599199,0.08141917,-0.6794201,0.1825451,0.2220858
0.7645158,-0.0007389219,0.1057829,-0.5251664,0.1430789,0.1571865
0.6681752,-0.03212241,0.08801559,-0.5153037,0.08015753,0.1440894
0.63675,-0.02352618,0.06626965,-0.4954767,0.003935645,0.04957051
0.5812774,0.03402723,0.07031734,-0.6836894,-0.02681549,-0.0445161
0.572346,0.01006979,0.05233114,-0.7745282,-0.02254831,0.001685837
0.5820851,-0.005542717,0.1020896,-0.6427413,-0.07736926,-0.00812785
0.6430958,-0.03411935,0.1477098,-0.5078247,-0.1870474,-0.03167708
0.7591782,-0.03224114,0.1494628,-0.4012272,-0.3741548,-0.07628831
0.8154684,0.06257427,0.1391208,-0.5204741,-0.5233743,-0.1273007
0.8554011,0.1068448,0.1044784,-0.7188676,-0.4225207,-0.05290023
0.8953176,0.1568267,0.09138869,-0.8663887,-0.05337549,0.009720434
0.9212037,0.1694902,0.0906637,-0.9615704,0.2282976,-0.03227098
0.9046325,0.1325166,0.1193987,-0.8951585,-0.01457194,-0.06048248
0.875681,0.1301821,0.1691638,-0.8913507,-0.3517794,-0.006004337
0.9164078,0.103224,0.1784896,-0.9057334,-0.227696,-0.008302586
0.9302155,0.1232916,0.1527689,-0.8265376,-0.1983807,-0.1384753
0.8948186,0.1426444,0.1110751,-0.8192826,-0.4668572,-0.2830984
0.8498367,0.1263021,0.09494952,-0.8389983,-0.5592485,-0.3107987
0.8290486,0.1229714,0.0561106,-0.8991579,-0.5274306,-0.02502306
0.9799968,-0.0005577683,-0.04198828,-1.057349,-0.2749396,0.678688
1.272962,-0.2292408,-0.1203261,-1.139194,0.1215995,1.314549
1.534422,-0.4924219,-0.1892635,-0.8942031,0.2331347,1.013611
1.6876,-0.694416,-0.2283908,-0.5379929,0.2764758,0.006666618
1.712623,-0.6341066,-0.1240944,-0.4199592,0.3262284,-0.9697444
1.637525,-0.2854253,0.08547703,-0.3328734,0.2719923,-1.546776
1.5078,0.1724185,0.2056209,-0.5549886,0.09197486,-0.846872
1.352157,0.4176071,0.18793,-1.150518,-0.5032132,0.4096022
1.289341,0.3563144,0.07981764,-1.293285,-1.076171,0.8503022
1.353383,0.2011344,-0.1234945,-1.484336,-0.9022137,0.9697704
1.335221,0.01470249,-0.2289611,-2.026543,-0.4854164,0.6463143
1.196487,-0.1150288,-0.173568,-1.960514,-0.3776469,0.1943067
1.013701,-0.08829399,-0.1479937,-1.709352,-0.2197946,0.2543413
0.7992806,-0.08849063,-0.1170326,-1.609375,-0.1817877,0.1452479
0.7052104,-0.1032839,-0.07961575,-1.321592,-0.3705242,0.2582828
0.7141314,-0.05596924,-0.1177728,-1.26924,-0.3140532,0.4955574
0.7515003,-0.1133222,-0.1479506,-1.239988,-0.1806143,0.3812109
0.8380522,-0.1857234,-0.1468266,-0.990033,0.05394263,0.2760326
0.834902,-0.1860233,-0.1408766,-0.7642423,0.2401433,-0.1834641
0.7739837,-0.1622316,-0.1270017,-0.4845072,0.1030236,-0.6184498
0.7508191,-0.04885309,-0.1197524,-0.342416,0.1933847,-0.6908003
0.735958,0.06981561,-0.1139867,-0.3888233,0.3892463,-0.6490682
0.7344886,0.1282633,-0.09279568,-0.4872465,0.5268019,-0.4241772
0.7102485,0.1102384,-0.06314848,-0.6280094,0.6153166,-0.2905343
0.7375136,0.02563701,-0.05562855,-0.6610554,0.3431241,-0.1018591
0.814865,-0.02629165,-0.07070075,-0.5540396,0.2291715,-0.005809963
0.8270341,-0.07409219,-0.08249052,-0.3508063,0.4667329,-0.1308137
0.8117413,-0.08891372,-0.07837244,-0.1829291,0.7137343,-0.1669012
0.7772916,-0.06625859,-0.04836349,-0.1135529,0.7971963,-0.3482228
0.762416,-0.06660961,-0.01008554,-0.07539404,0.6106967,-0.3535896
0.7900684,-0.06981738,-0.001943231,-0.113185,0.5216897,-0.1448676
0.8387095,-0.1492457,0.00281851,-0.200294,0.5484673,-0.1204719
0.9648021,-0.3018843,0.03601797,-0.2906827,0.340822,-0.1676812
1.102804,-0.4067603,0.0919613,-0.3249049,-0.1219451,-0.491497
1.281684,-0.3466653,0.1603096,-0.3047537,-0.4386393,-0.9090571
1.618459,-0.1358634,0.1446197,-0.4015226,-0.1747913,-0.9037339
1.926604,0.0758325,0.09711012,-0.6856743,0.2770306,-0.4007472
1.949885,0.177591,0.169991,-0.9037887,0.4617678,0.1350029
1.719472,0.06892735,0.2284296,-0.7105151,0.286367,0.07732745
1.446644,-0.04909099,0.2229572,-0.3413789,-0.02927509,-0.137057
1.261808,-0.03077962,0.2288349,-0.0929841,-0.002455419,-0.07692411
1.206434,-0.03531032,0.1893381,0.1263227,-0.05507051,-0.02339071
1.150568,0.02793124,0.15571,0.1347504,-0.2903004,0.08018351
0.9720355,0.08764064,0.1337866,0.001255662,-0.1860634,0.1695977
0.8394856,0.06591488,0.107241,-0.03379386,-0.1439071,0.1585249
0.760602,0.0976673,0.1121152,-0.1632375,-0.1270492,0.2368741
0.6705697,0.07634493,0.0922665,-0.2880939,0.02864428,0.3054345
0.6504374,0.04609645,0.08977876,-0.3422957,-0.06237676,0.3017036
0.6232788,0.02067159,0.09784755,-0.468826,-0.1168863,0.2353949
0.6195699,-0.03594698,0.08694898,-0.4976162,-0.1641053,0.004968396
0.6605913,-0.0205613,0.1118734,-0.4691377,-0.306715,-0.2716439
0.6496679,-0.03792099,0.1181888,-0.3756071,-0.3284793,-0.4545414
0.6616231,-0.03545114,0.119026,-0.09282112,-0.5537096,-0.4873098
0.6834465,0.01688305,0.1175908,0.1163007,-0.8378149,-0.3730431
0.6983274,0.0177991,0.07377895,0.1874134,-0.8620814,-0.2406396
0.7530421,0.04590022,0.03590634,0.2857047,-0.7501977,-0.1059537
0.8147777,0.06152687,0.003278787,0.4026072,-0.5696467,-0.01444564
0.8971404,0.07579511,0.01306194,0.4101228,-0.5024479,0.0006397772
0.9431109,0.1138731,0.04840565,0.281348,-0.6015118,0.01721963
0.9491107,0.1082122,0.04514251,0.1549947,-0.7578397,0.003764529
0.9808332,0.1123904,0.04519256,-0.008447962,-0.8001685,0.02465704
0.9685267,0.115741,0.02645557,-0.1870629,-0.6004134,0.05914426
0.9124118,0.1067859,0.003016611,-0.2156119,-0.3033769,0.01283882
0.9018497,0.0535744,0.007593367,-0.1783125,-0.0885778,0.03041407
1.031937,-0.1046816,-0.02618381,-0.1480011,-0.1335268,0.1463759
1.261759,-0.2393062,-0.09681368,0.01722252,-0.3774229,0.2695872
1.39727,-0.2537163,-0.1619408,0.3251818,-0.4701305,0.2571399
1.55799,-0.2175286,-0.1912182,0.4188629,-0.06417594,0.05872742
1.820387,-0.2075663,-0.2078654,0.1873078,0.6251677,-0.1750646
1.80621,-0.166793,-0.2040303,-0.01313259,0.7608673,-0.3786815
1.590735,-0.006335747,-0.0781028,-0.08215719,0.4121826,-0.4372204
1.493196,0.1857637,0.08988439,-0.1325586,0.1661007,-0.4215464
1.342131,0.2392974,0.1442009,-0.1975829,-0.1994817,-0.4183265
1.236886,0.1687085,0.07715744,-0.2283985,-0.6961269,-0.09047538
1.22835,0.1641232,-0.03568161,-0.1267784,-0.8688107,0.5010765
1.121372,0.1625513,-0.1029839,-0.005864048,-0.6425499,0.8514725
1.083267,0.03363106,-0.1335825,0.02883333,-0.32413,0.7534364
0.9352476,-0.08971358,-0.1556915,0.06605379,-0.04484377,0.4799249
0.7598503,-0.150532,-0.1549387,0.1064944,0.1736998,0.264771
0.824936,-0.1306362,-0.1236321,0.1392401,0.1308384,0.03520731
0.718632,-0.1010773,-0.08336359,0.2879066,0.08970182,-0.004615537
0.6817083,-0.1095032,-0.08595522,0.5134935,0.2451235,-0.01849248
0.8390971,-0.02369153,-0.1029031,0.5778634,0.3832592,-0.2643321
0.8110935,0.008771095,-0.1245979,0.4799087,0.607626,-0.2999655
0.8224997,-0.01293169,-0.1318514,0.4381401,0.7273961,-0.2321566
0.7602828,0.04420765,-0.07588333,0.4953256,0.651896,-0.1726156
0.6547339,0.04155837,-0.02107253,0.5240134,0.6611481,0.05697208
0.7752775,0.07112124,0.001478252,0.5114735,0.5702528,0.09510143
0.8545964,0.1467307,-0.01915132,0.4710537,0.3959167,0.005191165
0.8587409,0.1463915,-0.03566839,0.3252827,0.3452401,-0.05143681
0.7842983,0.1284013,0.004011888,0.1659141,0.3341409,-0.163301
0.6897375,0.09815332,0.01397929,0.1217036,0.2641757,-0.1397263
0.7608229,0.09933735,0.001685237,0.1885346,0.1364525,0.051254
0.840204,0.05413624,-0.02880721,0.3766826,0.1939797,0.2853215
0.8920993,-0.1219132,-0.08550698,0.6079976,0.5009671,0.3307466
0.9798825,-0.2888344,-0.07593156,0.7010717,0.6941876,0.09943023
1.126914,-0.3412709,0.02085594,0.6734429,0.4159417,-0.1671774
1.327526,-0.2219609,0.1494457,0.675112,0.01644106,-0.3247805
1.483246,-0.02849154,0.1888581,0.5609776,0.09780153,-0.3701243
1.654423,0.1350773,0.1667926,0.2597321,0.1841267,-0.358544
1.796839,0.2276978,0.2015769,-0.0902201,0.00760145,-0.0597449
1.75405,0.1363005,0.1929808,-0.3077329,0.04977666,0.4817921
1.605746,0.01709652,0.1307366,0.07101801,0.1728891,0.5076436
1.425844,-0.005061344,0.1158944,0.5547427,0.3300399,0.1167478
1.227258,-0.02401768,0.1246634,0.3922147,0.4506942,-0.07808104
1.071903,0.02723409,0.1526375,0.3117119,0.2520624,-0.1514013
0.9348583,0.1073746,0.1800318,0.3982472,0.06469468,-0.01432213
0.8357273,0.1261821,0.1674688,0.1970418,-0.076657,0.2309603
0.786525,0.1447479,0.1412406,0.1390094,-0.2743835,0.2653007
0.7055329,0.1338284,0.09835512,0.133176,-0.338078,0.2869676
0.6495951,0.09509853,0.0453778,0.06680904,-0.3426394,0.2528997
0.5993371,0.0558197,0.02324195,0.1092307,-0.2697413,0.1558786
0.5215428,0.01338775,0.02238702,0.05551496,-0.1689137,0.1174361
0.5204022,0.02143838,0.02486482,-0.05038983,-0.1748676,0.02366361
0.5286369,0.04423265,0.04347347,-0.1668578,-0.2625652,0.004485375
0.533785,0.06211177,0.0748835,-0.2781384,-0.4484919,0.0168385
0.6086735,0.09379257,0.082073,-0.3409126,-0.6245839,0.05801805
0.7184228,0.08415886,0.06173993,-0.4665852,-0.6994206,0.2014776
0.848984,0.05703297,0.04391012,-0.4773339,-0.6513309,0.1857099
0.9720113,0.04292982,0.02402166,-0.3434592,-0.5021179,0.103082
1.034997,0.02329087,0.0112636,-0.298868,-0.330613,0.02224024
0.9782017,0.01306805,0.01781706,-0.3600175,-0.2071165,-0.1206393
0.8982529,0.00953509,0.01516256,-0.4656829,-0.2843144,-0.09833824
0.9095245,-0.004371643,-0.009595723,-0.5203201,-0.4058347,0.09526383
0.9992315,-0.0735968,-0.06776348,-0.474483,-0.3263399,0.3545376
1.286639,-0.2234415,-0.1576946,-0.3029508,0.06559477,0.4719838
1.610855,-0.4130106,-0.2395567,-0.08996525,0.7354887,0.2058725
1.664108,-0.5235589,-0.2610389,0.008098229,0.9196438,-0.2310124
1.578086,-0.3779209,-0.1336476,0.3751927,0.505819,-0.6056472
1.452253,-0.03100981,0.09162833,0.9039845,0.3332047,-0.8462661
1.278381,0.2935176,0.1884281,0.6130337,0.1131933,-0.8190356
1.246345,0.5137276,0.145226,-0.2151332,-0.6465154,-0.4622055
1.368013,0.6050352,0.0515692,-0.7810186,-1.187481,0.351919
1.400115,0.5195192,-0.1550302,-1.056379,-0.7818897,1.257793
1.338602,0.2253516,-0.3159547,-0.8459374,0.0396945,1.253899
1.226269,-0.1159889,-0.232776,-0.6270619,0.447203,0.4451896
0.9641081,-0.2322461,-0.08744679,-0.593861,0.4666626,-0.2330179
0.777715,-0.1316265,-0.007031945,-0.1735306,0.2634675,-0.5436255
0.7816368,0.02036683,0.02430999,-0.07415254,0.1851532,-0.4528731
0.7688888,0.1703847,-0.03771002,-0.2560332,0.4193649,-0.1253739
0.7420676,0.2524558,-0.07294637,-0.1926298,0.5319044,0.1839011
0.7206683,0.1529237,-0.05193848,-0.461327,0.6193535,0.3924465
0.6913183,0.02949792,-0.07959609,-0.6011526,0.6727413,0.2687625
0.68264,0.01503788,-0.07759093,-0.4878308,0.6905507,0.08272816
0.6702765,-0.03072698,-0.06205435,-0.5512019,0.8545695,-0.06004411
0.6895307,0.009738341,-0.0473592,-0.4048659,0.7678992,-0.2456076
0.7827258,0.1432021,0.0215857,-0.2253881,0.64207,-0.150352
0.9202177,0.1973956,0.03693371,-0.1446951,0.5762297,-0.0856164
0.9980709,0.2155312,0.02127766,-0.1352809,0.4608157,-0.062309
0.9845022,0.1807407,0.0473855,-0.1690959,0.5960876,0.04323732
0.934948,0.2152569,0.0983067,-0.01115965,0.598492,-0.1617396
0.8715581,0.3067246,0.1547681,-0.01265174,0.3903378,-0.2698696
0.8683983,0.3158697,0.1387359,-0.1521095,0.07677816,-0.09507411
0.9172692,0.2544963,0.08391173,-0.1872995,-0.2594335,0.2202479
0.9749801,-0.07898774,0.03065905,-0.1817368,-0.1245228,0.646931
1.092806,-0.4371563,-0.008235153,-0.1793785,0.05020729,0.6643335
1.2218,-0.4688485,0.0376644,-0.5228731,0.008311743,0.3267112
1.370504,-0.5052528,0.08954952,-0.8210764,0.0127788,-0.1108069
1.518573,-0.5343291,0.1092511,-0.4608129,-0.3025055,-0.5920477
1.573324,-0.2532395,0.1451415,-0.04418274,-0.5675744,-0.5900098
1.702089,0.0592041,0.1279443,-0.2007607,-0.05021161,-0.006881232
1.823985,0.1113829,0.1037477,-0.7752288,0.5648476,0.5576472
1.719459,0.01801367,0.1838685,-1.253156,0.4324726,0.6113273
1.534027,-0.1427495,0.2513692,-1.145789,0.02584947,0.2587058
1.277583,-0.2648614,0.2148744,-0.6637045,-0.1962867,-0.005808738
1.053193,-0.2548711,0.1635772,-0.3736333,-0.2649746,-0.01033434
1.021688,-0.1856782,0.1206197,-0.1545481,0.04115403,0.1534228
0.9699849,-0.07898682,0.0907188,-0.03342933,0.3761844,0.4017371
0.8873286,0.004596285,0.1010965,-0.2069611,0.3918485,0.4660629
0.8287304,0.07761385,0.09850252,-0.3686362,0.4101088,0.2206476
0.7156428,0.1518702,0.09519256,-0.7113645,0.3376531,-0.1196906
0.6278001,0.1600183,0.1213314,-1.024583,0.08483505,-0.3157932
0.5755793,0.1256148,0.1118537,-0.8797026,-0.1890848,-0.2700769
0.5621982,0.03462719,0.0749311,-0.764603,-0.367422,-0.2515045
0.6006685,-0.02159629,0.04984267,-0.6927148,-0.3191665,-0.4006709
0.6270953,-0.01973266,0.03312443,-0.6863657,-0.31233,-0.5259423
0.6479269,-0.02606479,0.03725096,-0.8039829,-0.4629322,-0.6688458
0.6321236,0.0121505,0.03003136,-0.7241522,-0.6913489,-0.7316192
0.5922616,0.05621667,0.00703226,-0.6946065,-0.9709669,-0.6229077
0.5979853,0.09369723,-0.01074349,-0.6823233,-0.978021,-0.5078681
0.6055155,0.1047202,-0.03403125,-0.5997272,-0.72,-0.3405748
0.6356015,0.07924599,-0.02804406,-0.6254531,-0.4082468,-0.2515905
0.7387681,0.04731357,0.008710374,-0.6241813,-0.1565815,-0.3859172
0.8213393,-0.008839169,0.06599034,-0.6380702,-0.2598228,-0.5068099
0.8088258,-0.006981156,0.1132955,-0.5806233,-0.6697683,-0.5089919
0.7831794,0.009187533,0.08198515,-0.4573982,-1.075382,-0.3761189
0.8334835,-0.03415625,-0.01394832,-0.4922536,-1.211578,0.05541636
1.005205,-0.1438888,-0.1897981,-0.4766184,-0.9272322,0.8219468
1.436918,-0.3994759,-0.370156,-0.335519,-0.1974077,1.317006
1.897193,-0.6389596,-0.4177117,-0.1886399,0.9090633,0.7277969
1.890196,-0.6579328,-0.3889792,-0.02024141,1.2815,-0.5137505
1.709214,-0.4639251,-0.2049379,0.1503602,0.3865425,-1.216099
1.709953,-0.1031411,0.09948465,0.3065405,-0.1817026,-1.012608
1.589412,0.2550984,0.1383125,0.3835658,-0.1271481,-0.4496489
1.42856,0.4141971,0.02127838,0.2159557,-0.4474467,-0.05357267
1.369012,0.3968004,0.004342039,-0.3026246,-0.8246141,0.3742444
1.192819,0.2776261,-0.1325457,-0.7676243,-0.8527814,0.7494832
1.004068,0.05225174,-0.2621805,-0.7161878,-0.5191921,0.6976929
0.8732918,-0.1482817,-0.1914319,-0.356388,-0.06874585,0.4984535
0.7392612,-0.2077315,-0.1572244,0.05327511,0.159925,0.1879721
0.6834001,-0.2113413,-0.1253773,0.3328334,0.238351,-0.04026137
0.6742153,-0.1794776,-0.06670975,0.3700347,0.2434813,-0.05856211
0.6456589,-0.08105017,-0.0881296,0.4011687,0.3953398,-0.2745491
0.5614784,0.02607655,-0.05720627,0.4847468,0.520586,-0.3282812
0.5124924,0.0381064,-0.02785981,0.5393737,0.3724583,-0.1630517
0.6138706,-0.01286114,-0.07002266,0.5765039,0.2256934,0.006457044
0.7527637,0.01349412,-0.0897727,0.6330464,0.1576953,0.1826188
0.8442764,0.02702207,-0.1118143,0.6885211,0.3558624,-0.003889774
0.8525124,0.00376027,-0.09855859,0.5397114,0.5886527,-0.2286893
0.8183111,0.02938722,-0.04669087,0.3340977,0.436049,-0.268788
0.8641024,-0.02913788,0.001502524,0.3832691,0.3282677,-0.1758943
0.9632084,-0.1534908,0.07353904,0.5257602,0.3460077,0.02303351
1.117471,-0.2262662,0.06661244,0.5641066,0.1924968,-0.1278931
1.361068,-0.2150818,0.005874099,0.4639143,-0.01478607,-0.252023
1.576394,-0.1652849,0.01421581,0.3232355,-0.121956,-0.1839056
1.576802,-0.1792143,0.01470413,0.3431829,0.03358924,-0.2929959
1.534947,-0.08370368,0.0565938,0.3683946,0.2923593,-0.2589358
1.736647,0.1227782,0.1566313,0.3340345,0.2231763,-0.07289572
1.797151,0.1851452,0.1570363,0.5466417,0.1930764,0.1769125
1.626284,0.1280166,0.1554489,0.7659846,0.3917825,0.3820811
1.530116,0.05750293,0.2161564,0.6532108,0.230177,0.1634803
1.259832,0.05510436,0.2256395,0.5410707,-0.02183728,-0.04727346
1.003493,0.07886443,0.1951927,0.5807714,-0.1319189,0.1158864
0.9538479,0.07600607,0.1353698,0.6168876,-0.2607348,0.2204595
0.8018079,0.09712745,0.06817986,0.6766419,-0.07827653,0.2404129
0.7003973,0.08220444,0.04529833,0.6789025,0.1025752,0.2965862
0.6259673,0.08145549,0.04947639,0.5372931,0.08480458,0.1823801
0.5032328,0.09434383,0.05379441,0.3525699,0.05797126,0.007591424
0.4585695,0.0651798,0.06236363,0.1748599,-0.1705858,-0.1668609
0.3844253,0.05976416,0.09397709,0.1109916,-0.4389076,-0.3337644
0.4069407,0.01828731,0.1057226,0.2117041,-0.6644451,-0.3201126
0.5240426,-0.024096,0.08331534,0.4096221,-0.7773293,-0.2945787
0.6528496,-0.02517441,0.0593814,0.7191018,-0.7643676,-0.2141614
0.849917,-0.04096686,0.0248328,0.9378549,-0.8503092,0.03408653
0.9425218,-0.02486064,0.0002021664,1.021299,-0.7657887,0.1285248
0.9943924,0.03439968,-0.006826036,1.073057,-0.5505004,0.03158266
1.04143,0.1359177,0.01338914,0.7728216,-0.3620625,-0.03301706
0.9628065,0.1985941,0.06011769,0.2758357,-0.2378544,0.02270364
0.957847,0.1592927,0.06379325,0.008785502,-0.4314845,0.1258762
1.077988,0.05571545,0.0265366,-0.08351035,-0.5151191,0.3458291
1.262135,-0.1472428,-0.03938389,0.09359843,-0.3181523,0.6390261
1.480829,-0.3282755,-0.1438053,0.4611427,-0.1074875,0.5095243
1.563755,-0.3494021,-0.1955403,0.6725128,0.2022692,0.06069215
1.601373,-0.252853,-0.1640882,0.724288,0.2650354,-0.3524021
1.661243,-0.04911879,-0.1453851,0.7773559,-0.04062748,-0.6173266
1.624411,0.1910997,-0.1382565,0.8105004,-0.2094896,-0.4706971
1.55042,0.3282348,-0.07893051,0.5631967,-0.01040641,-0.3805846
1.361901,0.3169271,-0.01848924,0.1853922,0.1517615,-0.4664211
1.105658,0.2556987,0.0002686682,0.1000307,-0.2090831,-0.09571475
1.019729,0.2024195,-0.03479156,0.2155736,-0.6303343,0.4329393
0.9742671,0.06422764,-0.1397998,0.3484331,-0.6332533,0.8169341
0.8895906,-0.08699552,-0.2021122,0.4974764,-0.403358,0.9079817
0.8199628,-0.1424149,-0.177032,0.6293208,-0.04798703,0.5321955
0.7245411,-0.1675198,-0.1432293,0.6301308,0.210888,0.1887391
0.6678247,-0.1629832,-0.105875,0.5720512,0.2733743,-0.0422497
0.6616465,-0.1294242,-0.0819898,0.6653627,0.3009766,-0.1706236
0.6832616,-0.04558136,-0.05701323,0.7550356,0.3855033,-0.1377029
0.718472,0.08354005,-0.01255464,0.7946139,0.5254208,-0.2264023
0.7141479,0.1022015,-0.02625735,0.8198859,0.5152967,-0.1990274
0.7104041,0.1144565,-0.0770576,0.6979767,0.4146035,-0.005777598
0.7209081,0.2094929,-0.09248253,0.5653662,0.4045284,0.2472933
0.7327076,0.1497248,-0.08634172,0.4804734,0.4445335,0.4655281
0.740199,0.03443426,-0.06743974,0.5026715,0.4856515,0.2530168
0.684802,0.04241527,-0.02620907,0.5850074,0.3255614,-0.05161318
0.6445782,0.01629848,0.02095065,0.5355925,0.1072623,-0.2074476
0.7815007,0.0115862,0.01840089,0.602698,0.1983513,-0.2957797
1.011262,0.05115885,-0.06157668,0.7450539,0.4956188,-0.07051819
1.092126,-0.03284819,-0.121021,0.7548106,0.7335026,0.05953089
1.050693,-0.1460047,-0.06626131,0.7083579,0.5647909,-0.1978502
1.109651,-0.1903939,0.05385149,0.587811,-0.01314612,-0.3652441
1.288058,-0.1142367,0.1514366,0.5665321,-0.3287675,-0.2520037
1.555363,0.05531229,0.1856617,0.5478032,0.04378337,-0.135513
1.906093,0.119745,0.1925622,0.2676777,0.388885,-0.1245874
2.009102,0.1246535,0.2067072,0.065595,-0.198674,0.0004147079
1.704812,0.1406434,0.1549544,0.2726418,-0.6309605,0.07926404
1.438399,0.1501418,0.03675037,0.510874,0.2202365,-0.02295772
1.356348,0.1949476,-0.009454075,0.2601432,0.9576681,0.00916913
1.180292,0.1881109,0.08446284,-0.05424105,0.7376083,0.1612405
0.9485087,0.1330078,0.2092916,-0.06660121,0.3216759,0.3292752
0.7818207,0.07288241,0.2148735,-0.07384339,-0.04718087,0.418335
0.6502504,0.007286576,0.1576238,0.06395581,-0.2850139,0.3652759
0.5660034,-0.009569433,0.1287615,0.2690712,-0.2875649,0.3845798
0.5375588,-0.03940345,0.08263605,0.3585608,-0.2571864,0.3793233
0.527277,-0.07603707,0.05311737,0.439437,-0.2007408,0.2994398
0.4957529,-0.08329298,0.0508326,0.3696819,-0.05781612,0.2344693
0.4532637,-0.0931209,0.05082656,0.3024598,-0.0397047,0.008973631
0.4367409,-0.05411385,0.08740708,0.2475917,-0.2615942,-0.286882
0.4832031,0.01063451,0.1019453,0.1679593,-0.5962228,-0.4483653
0.6359721,0.05883224,0.08469149,0.3357996,-0.9297642,-0.3799655
0.9009402,0.07678817,0.05767251,0.5376076,-0.9980624,-0.08914598
1.12684,0.05776236,0.0158994,0.6612762,-0.6944667,0.1240549
1.131666,0.06360985,0.02824932,0.7281815,-0.4201469,0.03070918
1.035888,0.07889763,0.05593826,0.5858188,-0.4853495,-0.1639179
0.9690914,0.1011603,0.05051718,0.4087889,-0.6073944,-0.1229189
0.925361,0.1146205,0.02901339,0.3714944,-0.5588192,0.08550762
1.029897,0.006805525,-0.0390646,0.4184883,-0.5899053,0.4097514
1.209753,-0.1329698,-0.1089888,0.4550241,-0.4820066,0.6576772
1.367759,-0.186854,-0.1751735,0.5223932,0.0941409,0.2854378
1.539603,-0.2213875,-0.2269227,0.5645932,0.8392304,-0.3369275
1.416843,-0.1369269,-0.08785497,0.4171103,1.092111,-0.6406118
1.209576,0.06441753,0.09429596,0.2879088,0.2097484,-0.565862
1.543032,0.1304105,-0.04020224,0.3252818,-0.9518181,-0.015741
1.914337,0.1854569,-0.2883075,0.326343,-0.9328787,0.4358449
1.8315,0.223135,-0.3514599,0.2114815,0.1569248,0.3005951
1.594857,0.02264875,-0.2647391,0.1810979,0.9924997,-0.06966587
1.194583,-0.08817982,-0.04375284,0.3294818,0.3224698,-0.2340067
0.8243637,-0.05545282,0.07593671,0.4589238,-0.8547469,0.0369187
0.7430234,-0.04735745,-0.01268324,0.5429094,-1.00574,0.4705151
0.7565135,0.02189641,-0.08967539,0.6787409,-0.7199938,0.6468885
0.8621184,-0.01535104,-0.192821,0.741547,-0.1522456,0.5071902
0.932597,-0.07595716,-0.2520004,0.6839895,0.6060859,0.2311643
0.8106086,-0.07309027,-0.1721975,0.6874152,0.7650867,-0.09034119
0.6337712,-0.09525192,-0.09778475,0.7469966,0.7163511,-0.3488301
0.479058,-0.02185584,-0.01546527,0.7296066,0.5947507,-0.3134505
0.4434244,0.05247889,0.02236812,0.729585,0.1801749,-0.1397876
0.5744074,0.1550634,-0.02404297,0.7031401,-0.03318183,0.03120917
0.8287391,0.2095263,-0.05272561,0.5525229,0.36746,0.1255414
0.9995812,0.08985007,-0.09792426,0.3945548,0.9874504,0.06048769
0.8978304,0.07751113,-0.1210424,0.3088217,0.9643387,0.05577431
0.7725166,0.06606365,-0.02989868,0.3515511,0.5693318,-0.001151017
0.7722078,-0.0003115837,0.04381148,0.4001755,0.1997352,-0.05128947
0.7830395,0.003434023,-0.02098066,0.4719287,-0.07960731,0.033585
0.8413044,-0.08065797,-0.09446517,0.7142606,0.2948403,-0.03106412
1.027657,-0.1664416,-0.07701859,0.8081096,0.6022716,-0.1045593
1.365714,-0.1742818,-0.0151457,0.6243675,0.2550034,-0.1875501
1.678917,-0.1118663,0.04928168,0.3640148,0.1773517,-0.254247
1.737111,-0.04754746,0.0542334,0.1952883,0.5379015,-0.08286876
1.720472,-0.1268009,0.07950367,0.328519,0.7244156,-0.0328716
1.753281,-0.1640762,0.2144511,0.6892072,0.3862916,-0.1692262
1.611483,-0.07319368,0.2612441,1.159304,-0.06589825,-0.2355504
1.428131,0.03570644,0.162484,1.516258,-0.05344871,-0.1184056
1.416219,0.1343085,0.1026465,1.367279,0.1119592,0.08364211
1.33861,0.198488,0.110965,0.9514133,0.1240654,0.1361939
1.108808,0.2340902,0.1285249,0.6075383,0.0169989,0.3038111
0.9446605,0.1778887,0.1228477,0.4206795,-0.1754968,0.5438467
0.835848,0.05567925,0.09027569,0.5493891,-0.202465,0.5542566
0.6700134,-0.01588919,0.0649756,0.6590639,-0.0634262,0.5437282
0.5853538,-0.02838512,0.06411151,0.6755306,-0.004919214,0.5038188
0.5353268,-0.01473479,0.07501441,0.7976946,-0.05279665,0.3869741
0.4214771,-0.02243003,0.06677758,0.6030783,-0.107169,0.2555329
0.4497779,-0.01052272,0.07550804,0.2973786,-0.1012198,0.02407406
0.4977254,0.03518738,0.1107836,0.2299478,-0.1715262,-0.2293349
0.4894598,0.07512127,0.1199082,0.1752724,-0.3955487,-0.3683171
0.6219828,0.1158377,0.1166119,0.2283774,-0.5866576,-0.3126123
0.7261873,0.09887158,0.09303969,0.3057801,-0.6451694,-0.1894853
0.7752424,0.07982663,0.06386643,0.4414322,-0.6332733,-0.1383055
0.8922653,0.1029713,0.04141617,0.6180332,-0.616727,-0.1095367
0.972831,0.09478128,0.003914415,0.463794,-0.4011306,-0.1361463
0.9220831,0.1331209,0.02398635,0.2256381,-0.05185433,-0.1293491
0.7703729,0.1982551,0.08727165,0.07096409,-0.1295049,-0.05772683
0.7545461,0.1753399,0.1053009,-0.02913963,-0.473807,0.05012376
0.8976399,0.06708987,0.05027263,-0.1203127,-0.5313902,0.3796302
0.8551532,-0.1295892,0.03871111,-0.209767,0.3848274,-0.1061115
1.240185,-0.1975855,-0.0229814,-0.1845724,0.6836696,-0.4285337
1.462533,-0.2610074,-0.03036021,-0.3884107,0.2755481,-0.5886765
1.446213,-0.1558089,0.04050135,-0.567157,-0.01875218,-0.3959898
1.560444,0.002298274,0.15122,-0.501269,0.2660889,-0.2285652
1.848747,0.0992352,0.209558,-0.491771,0.269884,-0.2897399
1.947882,0.1769027,0.2122995,-0.5313525,-0.1208422,-0.1770611
1.75892,0.2078405,0.1912528,-0.3752435,-0.3292065,0.175714
1.598497,0.1657739,0.1132785,-0.1210204,0.009912894,0.2656078
1.485297,0.1496445,0.07241806,0.03218649,0.5137679,0.1740156
1.304073,0.1710798,0.122061,-0.1914478,0.4880432,0.1949227
1.092143,0.1714431,0.1557627,-0.5552888,0.299685,0.2583623
0.8507755,0.174539,0.1635053,-0.65752,0.2907764,0.3450271
0.6650987,0.1606458,0.1363289,-0.8480757,0.2155977,0.3917699
0.5225704,0.1125076,0.08860016,-1.071677,0.1947467,0.4291576
0.4050248,0.05596492,0.08998766,-0.9365358,0.1183512,0.4985912
0.3665743,-0.008579551,0.08581495,-0.8073024,-0.09516221,0.4957094
0.3517596,-0.05574224,0.05364825,-0.8038751,-0.2223494,0.3598229
0.3718021,-0.07986723,0.0334271,-0.8206127,-0.2861661,0.05272585
0.3988903,-0.08176034,0.04410756,-0.9267706,-0.2572843,-0.2740143
0.4174496,-0.03630007,0.09574881,-0.7956695,-0.2537559,-0.4211881
0.5012323,0.009491191,0.1460672,-0.474729,-0.3730487,-0.3139051
0.6225193,-0.006660073,0.1492586,-0.1827318,-0.5526198,-0.02067676
0.81137,-0.0491276,0.09289901,0.1485236,-0.7757864,0.1813442
1.035558,-0.05162449,0.03771689,0.2270082,-0.6869189,0.1055286
1.089126,0.01992575,0.03946024,0.09836589,-0.4332634,-0.09392576
0.9960799,0.1322346,0.05740536,0.02078745,-0.4463701,-0.07693803
0.9750884,0.1567326,0.06089669,-0.132423,-0.4290301,0.2183779
1.076196,0.07152434,0.02455353,-0.2649337,-0.3229856,0.6432883
1.28195,-0.0369075,-0.08833441,-0.264275,-0.1387252,0.8765376
1.510033,-0.1528682,-0.2164953,-0.2310987,0.2764629,0.5570749
1.565861,-0.1896089,-0.2021329,-0.2335006,0.4791492,-0.1065074
1.565525,-0.1300058,-0.03283147,-0.1867618,0.2269903,-0.6694826
1.611162,-0.03467824,0.09330899,-0.01592336,-0.2531697,-0.5642427
1.559036,0.207874,0.07499067,0.0167733,-0.635947,0.01724715
1.589391,0.4271731,-0.0168829,-0.3400669,-0.5470553,0.2070809
1.644457,0.3623565,-0.0914708,-0.8920754,-0.2195189,0.3514223
1.434266,0.2198886,-0.1139071,-1.075494,-0.04649542,0.4387009
1.173833,0.09765252,-0.08574654,-0.8602166,0.05705771,0.3463973
0.9868053,-0.04838928,-0.04800708,-0.7098636,0.04868433,0.6029716
0.8618086,-0.09590053,-0.06957895,-0.4831474,0.0171047,0.4501128
0.8073664,-0.09389646,-0.08699804,-0.2782026,0.1775934,0.1333869
0.7268234,-0.08074466,-0.07547728,-0.3942056,0.2733389,0.2338543
0.6973272,-0.03591483,-0.08407566,-0.3918539,0.3063485,0.1106513
0.6467035,-0.05641271,-0.06147843,-0.2398552,0.3744197,0.1414811
0.5420631,-0.0934808,-0.05647439,-0.1046876,0.3615872,0.1674546
0.5188313,-0.1149775,-0.06918285,0.1442445,0.4476372,-0.01685843
0.5301379,-0.1310612,-0.04666943,0.2126037,0.5087332,-0.009630035
0.5794301,-0.04824964,-0.04210444,0.1748416,0.4955676,-0.1956095
0.6060455,0.07375356,0.005430595,0.3177642,0.5726106,-0.3044448
0.6069389,0.1694767,0.07000354,0.3127072,0.5195629,-0.2184686
0.7225302,0.2390413,0.06033763,0.03163223,0.3256704,-0.1333387
0.9307978,0.2404213,0.02858985,-0.3376615,0.01688226,0.1351271
1.108981,0.2287072,-0.04134876,-0.5150356,-0.07997268,0.2972792
1.130464,0.1663791,-0.1188854,-0.3650569,0.4285812,0.2714096
1.150189,-0.105861,-0.07421241,-0.2966658,0.7523006,-0.0243977
1.249499,-0.3749869,0.01507769,-0.3171024,0.2761715,-0.46089
1.28376,-0.2023161,0.03965182,-0.2041,-0.1705233,-0.4964495
1.43736,0.1057689,0.09841624,-0.2425794,0.04804404,-0.2410422
1.683831,0.05663245,0.142585,-0.311104,0.137391,-0.0427075
1.815256,0.01120418,0.1712007,-0.2143446,-0.1609884,0.002818458
1.922669,0.06210296,0.293105,-0.0226385,-0.1179569,0.02374264
1.77668,0.01171648,0.2294356,0.4731067,0.04722793,0.02684976
1.389475,0.08445965,0.06947314,0.8028311,0.1467498,-0.04862954
1.3386,0.1623537,0.1191635,0.3835895,0.2150122,-0.02607956
1.356683,0.1933836,0.121008,-0.1481628,0.07852627,0.07035437
1.075922,0.2695192,0.09741704,-0.4001978,0.1153508,0.2244747
0.8993567,0.2293343,0.1220578,-0.6416467,0.142361,0.3925181
0.7427184,0.1745026,0.06975498,-0.6832502,0.0345768,0.4584909
0.5465778,0.1098269,0.08611709,-0.5103238,0.02926005,0.5492109
0.5122076,0.03013731,0.09459302,-0.4346313,-0.08568592,0.5789682
0.453842,0.005766317,0.06223292,-0.4169548,-0.08324709,0.4400831
0.4472183,-0.07973239,0.08035857,-0.4660658,-0.149942,0.2055937
0.4777811,-0.07458665,0.06864291,-0.5519496,-0.531646,-0.1251729
0.4660448,0.01058512,0.07891014,-0.5136492,-0.7155659,-0.3566632
0.5448308,0.03074905,0.07623586,-0.4829595,-0.6782511,-0.3070711
0.5802652,0.104817,0.0472407,-0.4431925,-0.5611865,-0.07268852
0.6212971,0.1267526,0.05693142,-0.3375278,-0.4945854,0.2106253
0.7734274,0.0472935,0.0458901,-0.3587697,-0.5342954,0.3526473
0.9354979,0.01053079,0.04745019,-0.4948965,-0.4912393,0.2673726
0.9739886,0.007476776,0.04475975,-0.6781775,-0.4440371,0.124863
0.9267457,-0.006335965,0.006104893,-0.8120316,-0.4314546,0.101872
1.09824,-0.09356215,-0.03801807,-0.7749634,-0.500825,0.4075289
1.338012,-0.1950368,-0.09702799,-0.7082158,-0.3796276,0.7635741
1.549788,-0.2130241,-0.1635791,-0.6103342,0.4748759,0.3846741
1.832662,-0.2769514,-0.2282891,-0.414538,1.281715,-0.4324709
1.733164,-0.3207802,-0.1306948,-0.3511702,0.7310443,-0.8660007
1.49711,-0.1069646,0.07110195,-0.4209,-0.3117447,-0.8420785
1.627002,0.2087257,0.06170207,-0.4528012,-0.4505655,-0.4043267
1.609529,0.3570617,-0.03652455,-0.6197853,-0.4199011,0.1202762
1.436317,0.3413169,-0.08437116,-0.9605942,-0.4649741,0.4814595
1.388749,0.2425024,-0.1510667,-1.144166,-0.1992913,0.7824156
1.176386,0.09868624,-0.1535244,-1.049697,-0.136741,0.8386688
1.008816,-0.05507611,-0.1371775,-0.8340681,0.02825671,0.6700512
0.9437724,-0.1596703,-0.1302663,-0.5696147,0.224169,0.27913
0.7549646,-0.1722418,-0.07802775,-0.3599479,0.1342999,-0.1695702
0.7089643,-0.1151547,-0.06197749,-0.3573584,0.1292958,-0.2625385
0.7159045,-0.02134901,-0.07609048,-0.3145054,0.05681412,-0.227123
0.6968407,0.08571246,-0.09101139,-0.1413804,0.2999765,-0.172777
0.7342521,0.1371243,-0.1000186,-0.1985315,0.7556684,-0.08147348
0.6330296,0.09592435,-0.0669509,-0.3588011,0.7601075,-0.1213562
0.5498611,0.07366675,-0.02145086,-0.4558184,0.5871248,-0.1262537
0.5751239,0.1056835,-0.004707903,-0.5441154,0.3589733,0.004055509
0.6486998,0.09711187,-0.04965342,-0.4515628,0.3318005,0.1442552
0.7641733,0.08545043,-0.08482743,-0.4506762,0.52919,0.1017339
0.775752,0.08605059,-0.04265676,-0.78789,0.548762,-0.1269423
0.7745003,0.05246904,-0.0122162,-1.170801,0.323269,-0.2887295
0.7792036,0.002655589,-0.02138253,-1.286304,0.04882741,-0.1903012
0.7568731,-0.09321594,-0.0264353,-1.040135,0.2475903,0.03179624
0.8414341,-0.1949583,-0.007985441,-0.8709292,0.447035,0.02667029
0.996931,-0.2300128,0.0547378,-0.9232326,0.1167237,-0.1836923
1.20455,-0.186445,0.1221326,-0.9020335,-0.1995056,-0.4430611
1.507966,-0.03176754,0.1057692,-0.9508459,-0.3891301,-0.524972
1.829903,0.1323943,0.05256326,-1.098153,-0.232223,-0.2566766
1.922534,0.1447067,0.0702171,-1.193279,0.2748433,0.01835279
1.745066,0.01789079,0.1219102,-1.079464,0.4451311,0.1033231
1.570403,-0.08444931,0.1882191,-0.622403,0.2051541,-0.1160399
1.380862,-0.04292035,0.2212041,-0.1213336,-0.1250002,-0.4907588
1.215625,0.128529,0.1764713,0.04103713,-0.1647829,-0.4727048
1.232475,0.337038,0.164249,-0.2639272,0.005833577,-0.2111919
1.174468,0.3828355,0.1322244,-0.7292841,-0.03289725,0.08929541
1.014076,0.2932393,0.06878861,-1.105481,-0.1581367,0.3992252
0.949355,0.2519803,0.06647123,-1.339608,-0.2825876,0.4676796
0.856286,0.1227143,0.00579107,-1.23796,-0.2319751,0.4532146
0.7116419,-0.0274081,-0.059837,-1.196217,0.01534888,0.3880846
0.6084323,-0.004083832,-0.01902048,-1.319999,0.1064335,0.2292844
0.5137004,-0.01570545,0.02284498,-1.290772,0.1299851,0.1921603
0.4843923,-0.05716761,0.04895203,-1.385321,-0.02892278,0.2094834
0.5998457,-0.0008707177,0.05966251,-1.418787,-0.3153984,0.1773505
0.7518443,0.03169657,0.04133065,-1.276473,-0.343442,0.003893277
0.8278726,0.06307913,0.04484062,-1.23489,-0.3081011,-0.2653678
0.8512631,0.103535,0.05472501,-1.148493,-0.3007727,-0.3287844
0.8404027,0.1198764,0.0505565,-1.059473,-0.3637086,-0.2048571
0.8459939,0.1587394,0.05125786,-0.9352406,-0.4998704,-0.09774085
0.8999243,0.1409486,0.04300819,-0.8271392,-0.4944883,-0.01773472
0.9320494,0.103904,0.03380851,-0.9053636,-0.3549151,0.03520293
0.9289664,0.1163469,0.04603692,-0.9405985,-0.2001404,0.01600201
0.9483684,0.03354911,0.03598338,-0.9567436,-0.3322363,0.1193239
1.062896,-0.2040285,-0.03194045,-0.9091004,-0.4604683,0.5393484
1.222687,-0.44804,-0.1207731,-0.6329178,-0.04960185,0.8976717
1.397171,-0.4945661,-0.1929701,-0.4509751,0.5545551,0.5815618
1.604131,-0.4634696,-0.2462032,-0.6914727,0.919271,-0.4070712
1.599162,-0.4348722,-0.1828354,-1.045344,0.729809,-1.315474
1.491947,-0.1081549,0.02852068,-0.9964061,0.06595856,-1.249798
1.576891,0.2534304,0.1115844,-0.8687741,-0.5616659,0.0001319165
1.547968,0.2871587,-0.01821624,-0.9896528,-0.8074825,1.172018
1.391183,0.1825636,-0.1288797,-1.226038,-0.5545386,1.017438
1.32467,-0.01789633,-0.1514167,-1.54982,-0.4108439,0.4133565
1.24619,-0.155042,-0.1406707,-1.469103,-0.4514303,0.3427762
1.224579,-0.1407313,-0.1456351,-1.060438,-0.2198514,0.4243185
1.1243,-0.1299867,-0.1546921,-0.927094,-0.09771072,0.4390828
0.9203601,-0.08035422,-0.1459483,-0.8926275,-0.02914758,0.3203014
0.8416071,-0.05072345,-0.1380868,-0.9623683,-0.03369499,0.1276743
0.7393212,-0.008368922,-0.1136724,-1.019044,-0.1641523,0.1601272
0.7190192,0.02175191,-0.1260925,-0.8558091,0.1282205,0.1674583
0.7787355,-0.04346089,-0.1484032,-0.7495278,0.4015797,0.009887712
0.6943236,-0.04566635,-0.1232328,-0.5740572,0.4434101,-0.1613881
0.6387827,-0.04831512,-0.121357,-0.4589058,0.5096296,-0.3908325
0.5611232,-0.03288212,-0.1088405,-0.5042243,0.48868,-0.4529145
0.4922125,0.03886984,-0.07836874,-0.43263,0.5526836,-0.3503579
0.5569538,0.0544843,-0.07314119,-0.4388593,0.5010971,-0.2954394
0.6706148,0.06777428,-0.06727449,-0.4537011,0.4477353,-0.1392952
0.9008513,0.03498445,-0.07817623,-0.4290235,0.6033051,-0.08093924
0.9755251,0.006891906,-0.07070329,-0.4723347,0.6220831,-0.3205701
0.7815423,0.0355333,0.01229578,-0.4173609,0.5403373,-0.5558804
0.7231196,0.05130268,0.08530134,-0.3695426,0.3062409,-0.574462
0.8646594,0.1083023,0.01541596,-0.3545684,0.1415797,-0.3661966
1.011596,0.1052864,-0.09440068,-0.446191,0.3103468,-0.03225431
1.052029,-0.06932813,-0.06387824,-0.6654574,0.377996,0.2699341
1.13311,-0.3343708,0.02053035,-0.7190577,0.1931256,0.3292768
1.334856,-0.4930228,0.07816958,-0.6643142,-0.04961076,0.1147376
1.505978,-0.4524588,0.08942253,-0.5030089,-0.1054796,-0.241311
1.76228,-0.3094003,0.04964767,-0.293595,0.003102563,-0.7024814
1.929815,-0.05617793,0.07743684,-0.3205274,0.05157862,-0.7948747
1.707754,0.1276108,0.137722,-0.2841115,0.03463298,-0.2548657
1.467806,0.0721008,0.1902527,-0.03886099,-0.04973302,0.2688536
1.377368,0.01890752,0.2340617,-0.01019219,-0.1065384,0.3692993
1.27433,0.0226244,0.1853797,-0.1359417,-0.1274495,0.1403435
1.197137,0.01754232,0.1506376,-0.2178615,-0.1841019,-0.09714915
1.042761,0.05696635,0.1290532,-0.3774002,-0.2214843,-0.06615036
0.86396,0.0764959,0.07579636,-0.4250928,-0.1802161,0.08471406
0.8016696,0.08464582,0.09570251,-0.3831198,-0.08361944,0.2880259
0.7143759,0.09931573,0.09361976,-0.4948564,-0.1075721,0.3759986
0.6520594,0.07319574,0.07102675,-0.5749386,-0.1401392,0.2438596
0.647109,0.05904174,0.08495364,-0.657239,-0.1306655,0.1375253
0.5857055,0.06052443,0.06709585,-0.7948118,-0.2528084,-0.07693121
0.5378128,0.06869092,0.0607413,-0.831381,-0.3546258,-0.3380935
0.4991194,0.1039283,0.04353552,-0.8549224,-0.4106722,-0.405277
0.4899887,0.1171573,0.03277733,-0.841448,-0.4441518,-0.4279137
0.5916766,0.09644435,0.07029943,-0.8116365,-0.5127137,-0.3749595
0.7363716,0.04045997,0.07190699,-0.8550262,-0.8328355,-0.2368496
0.8851385,-0.0470225,0.02746678,-0.8182182,-1.215123,-0.01603731
1.022421,-0.09970864,-0.0578444,-0.560912,-1.271787,0.222464
1.102248,-0.09950731,-0.1081952,-0.1079813,-0.6857107,0.1762411
1.071052,-0.08889502,-0.07049405,0.1335098,0.1207858,-0.04110458
0.9877738,-0.08334442,-0.03633304,0.0009517415,0.1667112,-0.2516537
0.954511,-0.04842145,0.003829843,-0.001727134,-0.3008362,-0.373136
0.9326889,0.005498303,0.03832046,0.1179112,-0.550824,-0.2443904
1.027202,0.002080793,0.004623008,0.06346673,-0.6029648,0.01552339
1.27055,-0.0937216,-0.08067746,0.1066708,-0.3648032,0.2195376
1.429204,-0.2110658,-0.2153473,0.2583603,0.1835506,0.03265499
1.44824,-0.2056353,-0.2900414,0.2447926,0.6226332,-0.4660595
1.472813,-0.07372198,-0.2087701,0.03015923,0.6188641,-0.5574988
1.606613,0.06270893,-0.1291005,-0.333812,0.2933389,-0.2579269
1.646329,0.1397768,-0.1005298,-0.4570579,0.1134834,-0.01513729
1.456839,0.1207698,-0.01174363,-0.1910016,-0.04277904,0.0132656
1.275967,0.05791278,0.05147603,0.06106055,-0.4493753,-0.03712534
1.170973,0.02073498,0.01798509,0.2603413,-0.7047267,0.2394191
1.147477,0.008538697,-0.0635231,0.4398087,-0.6029543,0.6618865
1.155648,0.02143231,-0.1738041,0.5071586,-0.1772556,0.828794
1.050632,-0.01165905,-0.2112559,0.5544196,0.4472494,0.6178545
0.9056785,-0.0687164,-0.135632,0.4849912,0.7718677,0.1323795
0.7173209,-0.06124548,-0.04749706,0.3073309,0.6484243,-0.225464
0.5371543,-0.03571084,0.011446,0.2703648,0.4322544,-0.4245912
0.4615661,0.01536777,0.02643994,0.4381345,0.2317606,-0.3668503
0.4508281,0.08438424,-0.00996415,0.6942903,0.1147903,-0.1262013
0.549212,0.1013852,-0.04092367,0.8385704,0.384541,-0.1067721
0.6750138,0.07251105,-0.05439708,0.8300067,0.7386998,-0.1236138
0.7322801,0.03238777,-0.07297816,0.7358152,0.791802,-0.2602848
0.6931827,0.04491534,-0.04037646,0.5706398,0.7149403,-0.3780839
0.6283359,0.1064881,0.03903128,0.4980181,0.4494664,-0.08793839
0.714126,0.1522181,0.06623921,0.5509447,0.04136713,0.1689875
0.8709564,0.1434623,0.001700067,0.5126494,-0.1612764,0.2051258
1.040879,0.06932801,-0.09789819,0.3506093,0.07567789,0.156437
1.115297,-0.110177,-0.1118466,0.2706323,0.4266819,0.2016608
1.055412,-0.3968344,-0.03729135,0.4823947,0.3304618,0.3109786
1.174572,-0.4641586,0.01637628,0.7869168,0.05003384,0.210197
1.392637,-0.2774054,0.01681906,0.7759236,-0.09363196,-0.01985478
1.561695,-0.1968691,0.0233274,0.5786998,0.1218926,-0.5496979
1.745618,-0.003473946,0.1322172,0.4127283,0.4767238,-0.9152244
1.852925,0.3083895,0.2622255,0.2921138,0.1916647,-0.3665233
1.837577,0.2656709,0.2569792,0.3919881,-0.04890463,0.2461928
1.607967,0.1207675,0.2145752,0.5254211,0.1260792,0.2249317
1.357351,0.125903,0.2246013,0.506747,-0.01896961,0.102766
1.262326,0.06681635,0.2058048,0.6013282,-0.1691401,0.1476632
1.138689,0.06420163,0.1711401,0.6847163,-0.2354134,0.168329
1.013499,0.1418547,0.1440706,0.6102288,-0.2809782,0.1880403
0.8288792,0.1268945,0.07555623,0.5106812,-0.04479055,0.2311298
0.6356438,0.1363161,0.04203532,0.2885818,0.1470735,0.2281177
0.5183811,0.1403771,0.06757071,0.0269849,0.2028684,0.239019
0.3703083,0.07302139,0.06340449,-0.1173995,0.08757938,0.1618649
0.3666391,0.04269662,0.07512398,-0.2116771,-0.1732023,-0.02161587
0.4251349,-0.0008666365,0.09535819,-0.2174991,-0.3326469,-0.182419
0.4877494,-0.006284459,0.06814659,-0.1396064,-0.4441435,-0.2522289
0.641977,0.02748125,0.05600014,-0.06412848,-0.4145036,-0.1367532
0.7271142,-0.005600107,0.06204041,0.03058581,-0.3798257,0.02876447
0.8286987,-0.02395138,0.05659415,0.126143,-0.4606405,0.1192055
0.9044385,-0.05611173,0.0474544,0.1700905,-0.4400301,0.06479209
0.8771492,-0.0665296,0.04130791,0.1847334,-0.4327351,-0.04921329
0.82858,-0.03118818,0.0205868,0.1637491,-0.3383563,0.07164741
0.7050586,-0.05742922,-0.03424954,0.101263,-0.1804842,0.2642009
0.6862219,-0.06009652,-0.0605979,0.08094269,-0.1495205,0.469507
0.984512,-0.1181445,-0.05770503,0.1758764,0.1554364,0.6815002
1.502173,-0.3183699,-0.1209542,0.2824635,0.5681507,0.5589526
1.826037,-0.4779529,-0.2401672,0.3698562,0.7175529,0.2420476
1.801317,-0.4589741,-0.2842499,0.834761,1.168079,-0.3774828
1.720348,-0.2170107,-0.1471295,1.390657,1.669201,-1.296341
1.48772,0.1565111,0.151623,1.040981,1.108343,-1.528926
1.105572,0.5534589,0.421632,0.157952,-0.3420083,-0.9232191
1.053732,0.8445579,0.3718014,-0.5595872,-1.882525,0.2706475
1.339681,0.8396607,0.01351047,-1.068084,-2.360664,1.800632
1.532822,0.4928271,-0.3379329,-0.7890521,-0.9017636,1.987708
1.490037,-0.02856696,-0.457897,-0.4123482,0.6757035,0.7270648
1.264153,-0.3367509,-0.2790371,-0.6983935,1.032987,-0.1645151
0.8705938,-0.3190717,-0.06050346,-0.3956842,0.9834971,-0.5801193
0.5403511,-0.1819929,0.02659908,0.2480625,0.6006598,-0.4808297
0.4450233,0.0243093,0.1068303,0.4098366,0.1740025,0.1483931
0.4741943,0.1555124,0.03584111,0.4600705,-0.01101283,0.4238349
0.5613319,0.1163104,-0.0946694,0.1670263,-0.06596128,0.5718593
0.6257219,0.03351792,-0.1060533,-0.05319183,0.1472185,0.3455649
0.6168477,-0.04754042,-0.1493889,0.05519894,0.1785994,-0.09455291
0.637156,-0.04027786,-0.1093964,0.05857513,0.1748566,0.05189668
0.760128,0.07031405,-0.05974976,0.1275277,0.3992495,-0.06624292
0.8581924,0.1706012,-0.09824461,0.01253625,0.7538519,-0.2562816
0.7802078,0.2366146,-0.02014665,-0.2425095,1.100108,-0.2194097
0.6536977,0.261971,0.08423432,-0.4335953,0.8626205,-0.4216975
0.6024559,0.2866893,0.1371387,-0.6696123,0.3842911,-0.3449981
0.6135519,0.2696639,0.07604975,-0.84625,-0.05334961,-0.08889451
0.719472,0.06025891,-0.04651178,-1.102915,-0.2736513,0.3639052
0.9308232,-0.2936421,-0.0292241,-1.170975,0.1138656,0.8049975
1.251338,-0.609599,-0.0168293,-1.166132,0.2793609,0.6264757
1.602728,-0.7028521,0.009851257,-1.274566,0.1270592,-0.00620197
1.847814,-0.5384348,0.1169841,-0.8906304,-0.0847019,-0.9298776
1.957757,-0.2783099,0.1405575,-0.5355435,-0.4581072,-1.075858
1.934016,-0.02309328,0.1242346,-0.6407254,-0.2851805,-0.5478838
1.815773,0.09813927,0.1286095,-0.6476181,0.06786613,-0.4429742
1.657364,0.04273935,0.1575802,-0.6738039,0.08085188,-0.02775043
1.487907,-0.003229809,0.1761128,-0.9127605,0.1647371,0.3561731
1.370807,-0.03940016,0.1433027,-1.092083,0.1296119,0.1845779
1.244616,-0.09703001,0.1215353,-1.031873,0.03799032,0.1841364
1.043037,-0.07230876,0.1004912,-0.8407215,0.02520654,0.1344906
0.9008663,-0.043412,0.07250997,-0.6041804,-0.07607653,0.1195145
0.8467811,-0.02957725,0.04872566,-0.4359463,0.009139251,0.248475
0.7293137,0.06276367,0.01965181,-0.5578657,0.2026986,0.1772736
0.5235309,0.142848,-0.001029135,-0.7508076,0.3138474,0.1412515
0.4062465,0.1342266,0.001903064,-0.9067268,0.3618858,0.05609181
0.3453895,0.09701075,0.0553112,-1.066056,0.1779749,-0.07785343
0.1699486,0.09191901,0.09389703,-1.030552,-0.1569508,-0.1425753
0.1566503,0.0888227,0.0888111,-0.9583684,-0.5369087,-0.2930798
0.3382783,0.04454857,0.08087211,-0.8916446,-0.8292834,-0.3750597
0.4285193,-0.002914833,0.04872822,-0.7928972,-0.880198,-0.5288533
0.5830515,-0.0292597,0.0196549,-0.819334,-0.9021717,-0.8331195
0.721137,0.02135944,0.005188558,-0.7812722,-0.9450104,-0.9224861
0.8283101,0.1104713,-0.01578494,-0.6861818,-0.9424021,-0.6561463
1.022314,0.1152686,-0.03266136,-0.5565264,-0.8228687,-0.1982397
0.993324,0.0826296,-0.04040776,-0.2147355,-0.5067085,0.04638167
1.007742,0.004032668,-0.05625699,0.01557791,-0.3285213,0.09957046
1.114459,-0.1586446,-0.106634,0.01404166,-0.3621418,0.253018
1.131641,-0.3718601,-0.191087,0.09084133,-0.2629914,0.3736339
1.606067,-0.5931926,-0.359789,0.1601302,0.03472381,0.2678481
2.040218,-0.6330894,-0.4482144,0.1077624,0.5995015,-0.1462439
1.821386,-0.44453,-0.1697993,0.257606,1.052559,-0.5036816
1.589389,-0.188497,0.1478478,0.6689269,0.2767643,-0.3971998
1.537869,0.06308755,0.09158625,0.9039956,-0.9093242,-0.1946084
1.514682,0.2521027,-0.05426407,0.6441772,-0.6604416,-0.1296446
1.517899,0.3012583,-0.08253877,-0.0517989,-0.2251634,0.06825979
1.378357,0.2324651,-0.153076,-0.6583889,-0.4067367,0.3151561
1.107806,0.1157114,-0.174306,-0.7252811,0.02435589,0.4366025
0.86913,-0.05980841,-0.1349741,-0.4597785,0.3207699,0.4955849
0.6782026,-0.2024372,-0.1401816,-0.1554558,0.2276287,0.3288646
0.5247841,-0.1902443,-0.07634769,0.2347512,0.2250041,0.0709412
0.4597639,-0.1558407,-0.05368756,0.6117998,-0.05335348,0.0175034
0.4239636,-0.1209515,-0.0914622,0.7419677,0.05214578,-0.08409786
0.45043,-0.02393909,-0.05756094,0.8481044,0.2989821,-0.2114303
0.5627176,0.02217744,-0.075608,0.9158039,0.3284422,-0.2477923
0.61626,0.03759401,-0.08252017,0.8393282,0.5434423,-0.321642
0.651739,0.05642362,-0.05407209,0.9248573,0.476563,-0.3361945
0.6848268,0.05996247,-0.06459003,0.8991592,0.4464826,-0.3236971
0.6526343,0.1011963,-0.02933652,0.716277,0.4900745,-0.3111032
0.6426575,0.1163591,0.01359155,0.4960456,0.3769465,-0.2796907
0.7779887,0.0864781,0.07769707,0.01472434,0.6084408,-0.2730369
1.100171,0.00245863,0.1173719,-0.2703297,0.6965832,-0.2202442
1.428239,-0.2164587,0.06710225,-0.2854531,0.4202231,-0.1236919
1.572177,-0.4015237,0.05710083,-0.1772018,0.2100793,-0.01729073
1.655743,-0.4015053,0.07502667,0.2168301,0.24352,-0.09265555
1.814674,-0.2745688,0.127644,0.5223095,0.2868358,-0.4610748
1.83888,-0.06823644,0.2226246,0.588002,-0.06281519,-0.7155657
1.731256,0.07413395,0.2282977,0.5978236,-0.2260611,-0.3982982
1.722905,0.1101853,0.1920198,0.6625516,0.04622807,0.1767135
1.584313,0.1758946,0.1958621,0.5929079,0.2101909,0.2570636
1.368831,0.1695961,0.200748,0.3931526,0.04660144,0.04591463
1.285559,0.07371902,0.1868115,0.4855586,-0.2266039,0.01539053
1.04576,0.108095,0.1456099,0.5341122,-0.2035431,0.02863849
0.8456004,0.1473394,0.08940068,0.4565858,-0.1756031,0.1301716
0.8100749,0.1062291,0.07509279,0.5152659,-0.2039571,0.2664415
0.6099414,0.133133,0.07950211,0.4425123,-0.1034342,0.3492306
0.4714617,0.1088087,0.0555645,0.3917982,-0.1802776,0.3910477
0.504264,0.04964484,0.07180333,0.3235504,-0.2224439,0.2045732
0.4896692,0.04075712,0.1082545,0.1670719,-0.2649923,-0.06942343
0.4857908,0.004274889,0.1072777,0.2083984,-0.4226254,-0.2233071
0.5320056,0.01601421,0.1121945,0.2347621,-0.4322233,-0.1935168
0.5749172,0.008245011,0.1008348,0.2879381,-0.4442519,-0.003112872
0.6414178,-0.05328164,0.08554956,0.5154839,-0.4525806,0.2083614
0.7671296,-0.08420182,0.09656507,0.7024803,-0.4882157,0.3127996
0.8807236,-0.1228807,0.09411194,0.8207326,-0.5735499,0.08420309
0.9062894,-0.05910678,0.09334887,0.8726163,-0.5650988,-0.1647296
0.85887,0.04688014,0.08673211,0.8592851,-0.5823737,-0.06376452
0.8554904,0.03332334,0.05192038,0.7862695,-0.606299,0.1643054
1.051155,-0.03682623,-0.01377994,0.7332672,-0.6535681,0.5300931
1.406825,-0.1537192,-0.1359323,0.8260155,-0.5878251,0.77404
1.700861,-0.2667219,-0.2765867,0.9136641,-0.09127703,0.4226606
1.725072,-0.2994461,-0.3032882,0.9118915,0.5894526,-0.2316059
1.597764,-0.2041645,-0.1209071,0.9612347,0.7339289,-0.6659633
1.544343,0.02261789,0.06854598,1.051261,0.09177278,-0.60802
1.503181,0.2324114,0.0274792,1.000852,-0.426784,-0.2970381
1.501391,0.3486652,-0.08429295,0.7053502,-0.2916869,-0.1112198
1.487272,0.3418236,-0.1040803,0.2069987,-0.05048705,0.1214325
1.270732,0.2507868,-0.07846706,-0.1545474,0.02515029,0.3153781
1.011893,0.1848778,-0.02575404,-0.08783136,-0.1428983,0.4019353
0.8516903,0.07958897,-0.01756224,0.06669383,-0.4454258,0.6204121
0.7586311,-0.07899169,-0.07790623,0.1627154,-0.4627277,0.5837232
0.7534082,-0.1715999,-0.1214181,0.3611977,-0.1279595,0.3492517
0.7845846,-0.1545346,-0.143565,0.4414142,0.2979786,0.1853346
0.7526568,-0.1139885,-0.1388029,0.4352005,0.4953366,-0.1354409
0.6630335,-0.1054568,-0.09808638,0.4954623,0.4379056,-0.2747136
0.5945299,-0.02625198,-0.05412514,0.5423108,0.3444942,-0.2514686
0.597224,0.05585131,-0.04248508,0.5705519,0.2778911,-0.1826944
0.7321987,0.07127368,-0.07873514,0.5357111,0.3618412,0.07629392
0.8773263,0.1099339,-0.0931418,0.4767918,0.648602,0.07896607
0.8370391,0.07896898,-0.07720225,0.3789311,0.8027289,-0.02029926
0.7051625,0.02407837,-0.03571811,0.2995687,0.5456746,-0.009831016
0.6322237,0.04493161,0.0407175,0.4593026,0.03079359,-0.0573451
0.7362211,0.04466913,0.02982954,0.6194323,-0.2216141,-0.01619674
0.9501125,0.04371943,-0.04941326,0.566648,0.129583,-0.0225939
1.036864,-0.01167308,-0.08105535,0.5000579,0.6764728,-0.02301377
1.044053,-0.1768941,-0.04264839,0.5017835,0.7522913,0.0545948
1.087331,-0.2980829,0.05581293,0.5497446,0.1680742,0.0607209
1.209301,-0.2783194,0.1013554,0.6445948,-0.4149105,0.02201875
1.467543,-0.1594587,0.07619693,0.6845547,-0.2193203,-0.1781274
1.765013,-0.02093527,0.08370635,0.5517193,0.1868266,-0.3238271
1.884601,0.1028935,0.1421939,0.3117147,0.1862653,-0.1385399
1.733106,0.1281334,0.2026994,0.1508381,0.1868322,0.1692564
1.500267,0.08833862,0.1937139,0.2356918,0.1406732,0.307673
1.311374,0.1049056,0.1571197,0.418557,0.08670156,0.1690491
1.210679,0.08112213,0.1546485,0.4288407,0.2164561,0.06372824
1.196503,0.04964869,0.1562048,0.4109598,0.1500481,0.1477389
1.01377,0.05225969,0.1595704,0.4285046,-0.006219612,0.1788196
0.8042133,0.01549898,0.1432006,0.4403831,-0.1905066,0.1511395
0.7365622,0.03398394,0.1028175,0.5297836,-0.3300587,0.1351122
0.5792161,0.04199794,0.07255847,0.570659,-0.2132782,0.06904632
0.5020749,0.007902943,0.05303566,0.5830374,-0.2294697,0.02531351
0.4990179,0.02770789,0.04679803,0.5815397,-0.2092435,0.02790394
0.3827762,0.04392081,0.03305321,0.4825846,-0.1164177,-0.06689131
0.337515,0.07485796,0.018687,0.3543248,-0.2272174,-0.2037684
0.3467963,0.08382385,0.05012792,0.1558551,-0.3155523,-0.2466545
0.4083474,0.05997635,0.1036244,0.02440541,-0.6293413,-0.1648166
0.5307099,0.05238822,0.1260403,0.09079719,-1.025339,0.04153942
0.6960258,-0.03258903,0.1028269,0.3316848,-1.130073,0.2793728
0.9524731,-0.09517681,0.02861615,0.711327,-0.9649497,0.3693824
1.07393,-0.05733587,-0.07982543,0.8218347,-0.3086837,0.08320282
1.035429,-0.01627675,-0.1084284,0.6259068,0.2605447,-0.233297
0.9321102,0.02061838,-0.01000252,0.4999577,-0.010185,-0.03079242
0.9186129,-0.01398588,0.04115596,0.4250351,-0.6386292,0.3504567
1.315751,-0.1430912,-0.07229724,0.4632298,-0.7318475,0.4798728
1.784324,-0.2735486,-0.2742037,0.5752875,0.002621105,0.07117428
1.778391,-0.2880305,-0.3571388,0.5015608,0.9181307,-0.7864796
1.558499,-0.1005343,-0.1182079,0.4547455,0.8724608,-1.006795
1.541798,0.1337443,0.1690696,0.4929194,-0.1233569,-0.44961
1.533169,0.2618149,0.1033575,0.3983118,-0.7927757,0.08343268
1.522981,0.3132304,-0.07727545,0.2655919,-0.7358028,0.4533158
1.604293,0.2394523,-0.1412656,0.06001722,-0.2437056,0.4684658
1.416118,0.06108955,-0.1872187,-0.0888804,0.1907622,0.2003675
1.156616,-0.02981004,-0.1276283,0.09218024,0.07554696,0.09714644
1.036673,-0.0207409,-0.05064079,0.2922454,-0.02090583,0.1429718
0.8954106,-0.03078469,-0.07029685,0.3765411,0.03612724,0.2080377
0.8684709,-0.03800018,-0.06637499,0.5054177,0.1219374,0.1941842
0.7858927,-0.0211519,-0.09784155,0.5507981,0.4161032,0.1941806
0.6760024,-0.02531009,-0.1057933,0.5367999,0.4930546,0.1925964
0.6853379,-0.03937205,-0.06171631,0.6216034,0.4629443,0.0198537
0.5515545,-0.04369804,-0.0696768,0.7480126,0.4832829,-0.1184515
0.4665948,-0.04052889,-0.04021075,0.7814274,0.4542099,-0.1804988
0.5640949,-0.01504491,-0.03933413,0.7499758,0.5171945,-0.1333935
0.6321473,0.03378866,-0.05344622,0.7624024,0.5340758,0.01677122
0.7006975,0.06595552,-0.01322936,0.7438501,0.525685,0.0263206
0.7387799,0.06306125,-0.0220235,0.5917363,0.4199032,0.0135431
0.7094671,0.06358454,-0.004289426,0.3823777,0.1641329,-0.0272753
0.7371181,0.07576193,0.01077207,0.3136739,0.06227129,-0.0838824
0.8166975,0.05038965,-0.02802081,0.4280437,0.3166242,0.02466149
0.9197097,-0.03883336,-0.0459949,0.5598539,0.7169008,0.07394451
1.07771,-0.1741583,-0.05065745,0.6574494,0.6359259,-0.02664159
1.21414,-0.2537701,0.03548601,0.6638445,0.06076449,-0.1338584
1.369296,-0.1630708,0.1620437,0.5834319,-0.3270348,-0.1610335
1.656528,0.01675921,0.1949219,0.5247028,-0.007837251,-0.1209781
1.921445,0.1433632,0.1897059,0.3530979,0.3964964,-0.0115159
1.912918,0.1469612,0.2123445,0.2520688,-0.02487372,0.2268012
1.692601,0.04696083,0.2276683,0.5103894,-0.2906956,0.3337456
1.513235,-0.01127154,0.1740466,0.7453998,0.004936934,0.1706031
1.325969,-0.0219702,0.126648,0.7428974,-0.07196024,-0.06131786
1.157802,0.005838062,0.1401139,0.6972076,-0.1877064,-0.120076
1.114111,0.09888066,0.1457915,0.6663863,-0.215902,0.06890071
1.004258,0.1051959,0.1410729,0.6164252,-0.3172632,0.1894282
0.9101261,0.0730294,0.1335922,0.5247959,-0.2379291,0.1375008
0.8512272,0.07878837,0.1144127,0.4763255,-0.2604506,0.0302515
0.7041614,0.05544999,0.08914274,0.4256594,-0.2487602,-0.1366582
0.6034336,0.07127774,0.07560625,0.3131648,-0.1648017,-0.2704432
0.4835119,0.08893187,0.07753663,0.2253571,-0.277299,-0.2965355
0.3999211,0.0929268,0.07008003,0.1063661,-0.356376,-0.1878728
0.4362572,0.1027228,0.07297934,0.0002288435,-0.4268938,0.008988169
0.4912389,0.0297828,0.08172969,0.004460303,-0.5465122,0.2707614
0.6575912,-0.07744158,0.07620235,0.08667329,-0.7079245,0.474546
0.8360192,-0.1528551,0.04595767,0.2657038,-0.8625712,0.4082748
0.9318248,-0.1413278,-0.02169117,0.5054195,-0.7617262,0.1750625
1.02758,-0.05916536,-0.06607516,0.6372043,-0.4929672,-0.1982829
1.056742,0.02162481,-0.06033518,0.5883541,-0.2728617,-0.5122884
1.041441,0.1460256,-0.02075293,0.540007,-0.3174902,-0.4267425
1.058701,0.2353179,0.02354337,0.4501482,-0.4154861,-0.2560094
1.056153,0.2280114,0.007888262,0.1114595,-0.1436449,-0.1095168
0.9941904,0.2067665,-0.0137331,-0.2737365,0.08985831,0.1929956
0.9670028,0.1506925,-0.002226708,-0.5082983,0.08415653,0.3851877
1.044448,-0.008283197,-0.03451478,-0.5441363,0.117333,0.4268695
1.182259,-0.205195,-0.0987423,-0.3467235,0.1888953,0.3837371
1.38403,-0.2765068,-0.1713241,-0.08493736,0.3973788,0.1281043
1.673622,-0.2372833,-0.2181539,0.1183355,0.5738728,-0.2466355
1.848837,-0.124725,-0.156312,0.2550091,0.541544,-0.6599363
1.659585,0.1160812,-0.04565202,0.2807374,0.5787146,-0.8123732
1.377712,0.3197637,0.05201935,0.08713696,0.5791744,-0.5371979
1.23431,0.352955,0.1119364,-0.2649327,0.1414887,-0.2516631
1.07192,0.276365,0.06827964,-0.3901244,-0.6544165,0.1442465
1.03999,0.1413648,-0.02547483,-0.224026,-1.077196,0.638837
1.084807,-0.01146277,-0.1424537,-0.03869122,-0.7738848,0.6934054
0.9891477,-0.1483591,-0.2173737,0.2304413,-0.2700309,0.5268079
0.9185216,-0.2064638,-0.1512691,0.6075233,0.2355074,0.4084956
0.8137282,-0.187413,-0.1015916,0.7597976,0.5625513,0.2458527
0.6798475,-0.140401,-0.07767782,0.6888436,0.3797438,0.1545506
0.6957098,-0.05034159,-0.01314272,0.6611821,0.1926673,0.1171951
0.7707039,0.03930027,-0.03693275,0.5558138,0.1922309,0.05619529
0.8458941,0.10713,-0.05781949,0.3018018,0.2623416,0.0276221
0.8544902,0.1742411,-0.03585917,0.03672835,0.6004179,0.05215148
0.821992,0.1919181,-0.054055,-0.2039038,0.6746224,0.09568524
0.8557733,0.1674019,-0.0404544,-0.2540907,0.4964122,0.190579
0.8579851,0.1513885,-0.03962144,-0.2024351,0.6016415,0.2920326
0.8181659,0.1354681,-0.04330493,-0.2668489,0.7440026,0.2643689
0.7467309,0.1035587,0.03122323,-0.2805402,0.8573712,0.1825445
0.6939576,0.07262179,0.1166693,-0.2328741,0.6011353,0.1226266
0.8675942,0.06367482,0.1427445,-0.1145721,0.07444022,0.09329951
1.09793,0.08754169,0.07197813,0.1106656,0.1226273,0.01558831
1.062637,0.145856,0.01767688,0.1374907,0.387822,-0.2331735
0.8849015,0.2064933,0.06700269,0.03797418,0.4877085,-0.4269605
0.7698092,0.2448223,0.09853216,0.06733698,0.4604839,-0.4370524
0.7817719,0.2182338,0.1021397,0.06494959,0.2708194,-0.3613085
0.9989476,0.03679296,0.1266123,-0.01165591,0.2465201,-0.07214305
1.252221,-0.2059903,0.1597938,-0.1093135,0.2199096,0.430932
1.326475,-0.2759611,0.1810663,-0.2153362,-0.04287444,0.6521001
1.442012,-0.2666163,0.1328918,-0.1874954,-0.4694418,0.1781734
1.70317,-0.3651918,0.03816541,-0.1927875,-0.7328823,-0.4897953
1.764546,-0.319059,-0.01705843,-0.4345567,-0.3796243,-0.6959717
1.627792,-0.02256733,0.003452487,-0.6620086,0.2352097,-0.5441522
1.566084,0.1863634,0.04217931,-0.7308625,0.7541334,-0.3214432
1.449305,0.1648661,0.06627145,-0.7969443,0.7839231,-0.1260385
1.274096,0.06926872,0.1812459,-0.9521619,0.04145371,0.1163014
1.137683,0.08230563,0.3086313,-1.109638,-0.5609423,0.3148104
0.9963795,0.1179687,0.2524277,-1.252788,-0.5881113,0.2798382
0.9587115,-0.1140421,0.05116093,-0.1634373,0.4025042,-0.004372589
1.050211,-0.232022,0.07257646,-0.1826981,0.6832925,-0.1762256
1.082445,-0.3197401,0.09326164,-0.3446796,0.3228076,-0.4481626
1.149711,-0.2403214,0.1009758,-0.4916422,-0.302724,-0.5758717
1.528643,-0.0962026,0.1051775,-0.4211669,-0.5747727,-0.3419023
1.885012,-0.04265678,0.1217212,-0.3850742,-0.1976034,-0.1221688
1.8731,-0.07587283,0.1444284,-0.6836585,0.205517,-0.0446754
1.802744,-0.1390619,0.2028732,-0.8506361,0.02036012,0.09043438
1.675288,-0.1485638,0.2200778,-0.3418712,0.01973324,-0.05040404
1.212871,-0.09924152,0.1926605,0.3856455,0.3894797,-0.2907316
0.9943916,-0.02370017,0.1989588,0.540622,0.370412,-0.08936956
1.112322,0.1011727,0.1932017,0.1980771,0.03777824,0.1962866
1.027237,0.1579699,0.1819991,-0.06300058,-0.2567407,0.2689712
1.017929,0.1215951,0.1643439,-0.1675223,-0.2630245,0.276798
0.9567179,0.095926,0.1133652,-0.2157505,-0.02166119,0.2201
0.6590269,0.04151811,0.0881847,-0.1894246,-3.232398e-05,0.2345392
0.540362,-0.003401468,0.07884539,-0.2307614,-0.004197424,0.2248878
0.4936161,0.0114919,0.0691757,-0.3190668,-0.04588042,0.05208222
0.4555524,0.01277504,0.07731288,-0.454946,-0.2986923,-0.06305941
0.4086021,0.0004376876,0.067399,-0.6666184,-0.3100499,-0.1926554
0.3823732,0.001594942,0.06426805,-0.7503184,-0.2770402,-0.2958336
0.5327175,-0.02859917,0.1005998,-0.7186727,-0.3486467,-0.28877
0.6427638,-0.09478634,0.1453696,-0.5618954,-0.4460022,-0.294366
0.7827749,-0.1283963,0.1612501,-0.2143158,-0.6391716,-0.1228953
0.9048835,-0.1328729,0.09057274,0.02313866,-0.5103285,0.09222882
0.8936862,-0.1183033,-0.002006511,-0.04479805,-0.1912133,0.07601327
0.8981058,-0.06467458,0.01117123,-0.1631386,-0.02774872,-0.07957701
0.7960095,-0.02076962,0.08005575,-0.1111584,-0.1287066,-0.226094
0.7704356,-0.02228519,0.1138767,0.02978718,-0.5357249,-0.1589693
0.9779618,-0.100642,0.06758972,0.2691308,-0.7438841,0.1322072
1.346162,-0.241762,-0.09956675,0.4505732,-0.5354493,0.4271488
1.771776,-0.3311898,-0.335414,0.3245781,0.1941147,0.3440644
1.93815,-0.3017042,-0.4307237,0.08212502,1.089265,-0.149126
1.936247,-0.1919897,-0.2059743,-0.1380303,1.08811,-0.4503957
1.828476,-0.05008955,0.09428808,-0.1330948,0.6296789,-0.3231988
1.550868,0.1000995,0.1902006,-0.009376845,0.542048,-0.1726397
1.31498,0.1816653,0.243007,-0.2165356,0.1945997,-0.2360235
1.182527,0.2135464,0.264497,-0.4078979,-0.6429939,-0.01964873
1.159982,0.2508719,0.1485457,-0.4722955,-1.250729,0.5951869
1.15992,0.1868211,0.04223313,-0.5159102,-1.083541,0.9202807
1.112402,0.03131468,-0.09224871,-0.4211106,-0.3132868,0.8720131
1.013314,-0.1071853,-0.2435803,-0.5799917,0.2369026,0.6286866
0.8176731,-0.182994,-0.147771,-0.6762005,0.1830569,0.3411439
0.6386067,-0.1970109,0.03945805,-0.3746916,-0.1232875,0.2774981
0.5425461,-0.2036386,0.01598928,-0.06637274,-0.2248045,0.2600211
0.5835705,-0.1643464,-0.04387062,0.2121932,-0.02170113,0.1792551
0.6456528,-0.1137567,-0.03385527,0.2717168,0.2039549,-0.006173613
0.6417392,-0.1068314,-0.05905798,0.2337875,0.4298749,-0.2846428
0.7345659,-0.0765141,-0.03857283,0.3922442,0.6050518,-0.4491892
0.7430711,-0.05257623,-0.009643291,0.5371172,0.6883354,-0.4786111
0.6285176,0.005786217,-0.005369678,0.5803847,0.783547,-0.376925
0.5468787,0.115662,0.04213612,0.3781968,0.5829398,-0.2195019
0.5154067,0.1805388,0.04144852,0.113586,0.2003551,0.03840072
0.7082175,0.1816232,0.03786521,0.03295919,-0.03274763,0.3242936
0.9698997,0.0421649,0.02527718,-0.06224662,-0.02333365,0.3415012
1.077236,-0.2117856,-0.02909868,-0.12421,0.3770371,0.2032555
1.128245,-0.4255988,0.0150329,-0.1288966,0.6577758,-0.0577735
1.198054,-0.4774846,0.08577648,-0.1507653,0.3599019,-0.402552
1.320034,-0.3262676,0.1266308,-0.1328889,-0.1566449,-0.5074778
1.484087,-0.1374492,0.1355805,-0.006454856,-0.349737,-0.3482107
1.774296,-0.03096813,0.1088154,0.09483721,-0.1175405,-0.09570167
1.955913,-0.02317278,0.1617429,-0.09811709,0.09366854,0.2343429
1.727842,-0.1111461,0.2161186,-0.2453384,0.1124987,0.5182895
1.462216,-0.1802539,0.2328325,0.04301849,0.2108218,0.2588697
1.294245,-0.1577571,0.2573177,0.3917514,0.3568101,-0.2371102
1.128152,-0.03116078,0.2261569,0.3986998,0.1600423,-0.1989467
1.12453,0.141463,0.1918632,0.1859645,-0.1572798,0.01039396
1.095802,0.1984685,0.1710075,-0.07265644,-0.1359644,0.1886743
0.9260241,0.1041392,0.1447351,-0.3366344,-0.133075,0.3929263
0.771938,0.001048746,0.1326543,-0.3928428,-0.2562248,0.3182186
0.6437198,-0.04973752,0.08999926,-0.2795175,-0.2589893,0.2159527
0.5832333,-0.0909606,0.05878305,-0.2415378,-0.1570045,0.08248804
0.5344889,-0.07970346,0.07908708,-0.2410872,0.09542436,-0.1616448
0.4211206,-0.03206809,0.118984,-0.2769533,0.1936647,-0.2565206
0.3684148,0.004611174,0.1557996,-0.3553396,-0.08412704,-0.3480485
0.4322714,0.04816157,0.1367615,-0.442749,-0.4304292,-0.3462655
0.5853248,0.04315619,0.09197141,-0.5635953,-0.5992975,-0.1753909
0.7790654,-0.00213513,0.08510549,-0.6071871,-0.566789,0.005900854
0.9298451,-0.08741316,0.07952509,-0.4936002,-0.4751555,0.1318572
0.9993838,-0.2024378,0.06395967,-0.3314762,-0.3861105,0.05231754
0.9840649,-0.2014504,0.04857444,-0.2558748,-0.3163827,0.008042137
0.9054926,-0.1210783,0.01657294,-0.2268275,-0.2810341,0.06687443
0.8576839,-0.08564588,-0.02428983,-0.1459725,-0.2533732,0.1034075
0.9651714,-0.1281377,-0.08502205,-0.05021804,-0.2526153,0.3567421
1.21325,-0.2374437,-0.1434069,-0.02864496,-0.06504098,0.5360628
1.485106,-0.3355201,-0.1525944,-0.11294,0.2690232,0.3165194
1.704137,-0.3861698,-0.146245,-0.1396352,0.3599249,0.07079354
1.873213,-0.3615359,-0.1494662,0.06539057,0.2962071,0.0551036
1.932449,-0.2754135,-0.1257055,0.2945673,0.3481386,0.01712278
1.677054,-0.05580327,0.01581098,0.213777,0.4684646,-0.3441324
1.298133,0.3139027,0.2357742,-0.1334425,0.3338619,-0.6819363
1.204507,0.4049772,0.2642794,-0.5019794,-0.3607054,-0.3838752
1.214499,0.2396035,0.05826759,-0.6635449,-1.222855,0.4290665
1.116113,0.226965,-0.147696,-0.547186,-1.267059,1.184167
1.104324,0.1372117,-0.2233296,-0.5192768,-0.463886,1.398706
1.093821,-0.09541868,-0.1664232,-0.6070456,0.193654,0.8291887
0.869327,-0.290138,-0.09512242,-0.4926743,0.4685625,0.08701107
0.6925862,-0.4058096,-0.07007891,-0.3254741,0.4982179,-0.2237671
0.7179633,-0.2170669,-0.02017687,-0.07023892,0.4321034,-0.4104806
0.6651486,0.01057072,0.02369937,0.1901814,0.5732843,-0.4263934
0.5797723,0.03842583,0.03865838,0.1936469,0.5468925,-0.2680238
0.6104895,0.09185399,0.02342944,0.2398719,0.4485319,-0.2423686
0.5888686,0.09496163,-0.02342068,0.265944,0.5245755,-0.123643
0.6042553,0.09382817,-0.0380774,0.1235506,0.4686727,-0.009877236
0.754838,0.07871728,-0.05908466,-0.1182208,0.5733196,0.06724242
0.8143721,0.005199406,-0.07402851,-0.5161505,0.7575155,0.1773562
0.7443222,0.04878781,-0.02434716,-0.636515,0.7758775,0.04120593
0.6304889,0.04229287,0.05900263,-0.5485668,0.6455583,-0.07385978
0.5462567,0.01963229,0.1322997,-0.7224632,0.1476223,-0.03701414
0.6181123,0.01618878,0.08894806,-0.8743759,-0.1940582,0.0456083
0.789219,-0.1494982,0.02694917,-0.8935447,-0.04234924,0.1789353
0.9947095,-0.3482445,0.04902546,-0.8893072,0.07999904,0.1210264
1.299388,-0.5120893,0.0242561,-0.8327077,-0.0004591778,-0.1303968
1.66068,-0.5039457,0.04988472,-0.8292014,0.08424637,-0.5613652
1.888201,-0.2992057,0.1474079,-0.8440716,0.2476571,-0.8896301
1.846771,-0.07813741,0.1595387,-0.8102856,0.04482559,-0.5854568
1.745969,0.1045223,0.1634801,-0.717904,-0.1002244,-0.06193866
1.718417,0.09329394,0.1752665,-0.6271301,-0.005694515,0.1411196
1.554309,-0.02457679,0.1368039,-0.7147229,0.04206091,0.10269
1.329654,-0.1086765,0.1073718,-0.8233353,0.2161773,-0.07623914
1.168204,-0.1457222,0.1139206,-0.7573535,0.3071879,-0.1725687
0.993188,-0.05391482,0.134548,-0.7406469,0.2207683,-0.1098738
0.8971979,0.0290804,0.1353059,-0.8253357,0.1013961,0.006810525
0.8594293,0.1010823,0.1096913,-0.9148273,-0.100393,0.2307
0.8272872,0.1525245,0.0528174,-1.120225,-0.1601654,0.3584841
0.8255171,0.07003287,-0.02481075,-1.364057,-0.01322973,0.3464382
0.7521214,0.003175871,-0.05215739,-1.506342,0.1580154,0.3652692
0.658454,-0.0577178,-0.03526554,-1.512351,0.2570911,0.3070351
0.5998915,-0.12423,-0.01761453,-1.343951,0.3370218,0.2307321
0.5528305,-0.1368042,0.02016772,-1.147235,0.3415484,0.1465998
0.5616036,-0.1574926,0.07698068,-0.9941353,0.115489,0.04657581
0.5995019,-0.1087088,0.1065265,-0.877621,-0.1844399,0.05597702
0.6773049,-0.04034705,0.08604657,-0.8730175,-0.3028953,0.01791713
0.7607248,-0.05064379,0.07482295,-0.9443351,-0.07960457,-0.1180778
0.7908657,-0.06937703,0.1062196,-0.9930579,0.132552,-0.2904074
0.8124559,-0.08336998,0.1461934,-0.8174212,-0.05836005,-0.3862024
0.8248323,-0.07754414,0.1640071,-0.5246823,-0.3414824,-0.2622939
0.8846328,-0.05999799,0.09653366,-0.4726374,-0.4664793,-0.1577434
0.9693002,-0.0394543,-0.002803501,-0.5239227,-0.1838258,-0.1867566
0.9201712,0.009110606,-0.0032186,-0.5733349,0.238064,-0.1757969
0.8079908,0.00161036,0.01076646,-0.6342385,0.03659484,-0.01459424
0.8339563,-0.185748,-0.02874641,-0.4702768,-0.1812189,0.3989294
1.165193,-0.5135682,-0.04748477,-0.2320205,0.09853816,0.6081844
1.722434,-0.680932,-0.08336924,-0.2713512,0.5315272,-0.2316077
1.947553,-0.5266959,-0.0976084,-0.536753,1.056003,-1.445655
1.728849,-0.1823448,0.03437728,-0.7311677,0.8245685,-1.336279
1.587205,0.2163829,0.1677771,-0.6814113,0.0001076456,-0.03525315
1.493144,0.314343,0.1387663,-0.6689542,-0.1469403,0.9360762
1.386408,0.02858974,0.08883609,-0.9744647,-0.1668759,0.8141119
1.459285,-0.1349386,0.09932196,-1.283182,-0.4410839,0.2971407
1.424169,-0.151254,0.01549753,-1.352074,-0.6319308,0.2747304
1.297532,-0.1726583,-0.1256478,-1.332455,-0.5747573,0.1723251
1.191221,-0.08609056,-0.1576596,-1.278047,-0.088071,-0.0257372
0.9436626,-0.05757669,-0.1213145,-1.248135,0.03216943,0.1479815
0.8005789,-0.0501886,-0.08489872,-1.264638,-0.1551697,0.1129679
0.7658645,-0.02651739,-0.07625972,-1.249209,-0.2175214,0.2201224
0.7465391,-0.1125056,-0.1022735,-1.155045,-0.3598115,0.3919728
0.8377813,-0.1708818,-0.1201551,-0.9167669,-0.028794,0.1229814
0.8432882,-0.2466648,-0.1143993,-0.67374,0.403172,-0.04833165
0.7610428,-0.271581,-0.08406064,-0.5225223,0.4667059,-0.3892957
0.6383141,-0.1658531,-0.06507297,-0.2968732,0.4694851,-0.5890554
0.5332864,-0.1061765,-0.05997628,0.05694262,0.3936547,-0.3176252
0.5705143,-0.03577262,-0.05705464,0.3406277,0.4557955,-0.2310901
0.5970429,-0.004147153,-0.06082026,0.339967,0.5072462,-0.124841
0.6491057,-0.02896012,-0.02712092,0.1498298,0.5220708,-0.2094656
0.7277877,-0.01703927,0.01365908,-0.014423,0.474353,-0.477232
0.739907,-0.01773292,0.03225295,0.003316639,0.1851065,-0.4118913
0.8093584,0.01697918,0.01889862,0.165663,0.1640148,-0.3144297
0.8660277,0.03179254,-0.03861735,0.1909243,0.3336995,-0.1594993
0.8384022,-0.02306338,-0.06324062,0.002442727,0.4984985,0.02219364
0.7740264,-0.175347,-0.01702537,-0.2788223,0.5518432,0.112393
0.7537056,-0.4519179,0.07388458,-0.3568666,0.2100533,0.1928108
0.9797791,-0.6343391,0.1204511,-0.1186862,-0.06156949,0.01050021
1.49174,-0.6273183,0.1303227,0.04417543,-0.04128854,-0.3228861
1.950002,-0.4583055,0.2176159,-0.01092371,0.02367068,-0.6429267
1.942301,-0.1390336,0.2814058,-0.2407777,-0.07365356,-0.7806967
1.640403,0.1468348,0.2340037,-0.4552331,-0.3512154,-0.310069
1.406675,0.1665679,0.1631683,-0.2911208,-0.4789916,0.2820658
1.249564,-0.02845754,0.1215642,-0.1095282,-0.1506899,0.284566
1.212332,-0.1775432,0.1267024,-0.2163867,0.4207934,0.1890909
1.195141,-0.222281,0.197767,-0.1848745,0.401453,0.2575781
1.079497,-0.1601214,0.2698398,0.02953409,-0.01511939,0.05924689
0.9884724,-0.05736295,0.2186029,0.1940366,-0.1535842,-0.04862998
0.8661145,0.007943728,0.1140311,0.2524609,-0.2074416,0.1144387
0.7106917,0.1269429,0.05090597,0.03657427,-0.07163997,0.1894162
0.6098279,0.1118156,0.001568808,-0.3158396,0.02688705,0.307331
0.5466861,-0.002466904,0.01615246,-0.4997774,-0.08130656,0.3322744
0.5395459,0.02279884,0.05817255,-0.5431776,-0.05219207,0.1122178
0.5021043,-0.03204442,0.082834,-0.5137241,-0.1403515,-0.1847101
0.4715694,-0.06051275,0.108164,-0.516532,-0.2222347,-0.5105076
0.5119002,0.03552305,0.09714668,-0.5230953,-0.2749804,-0.6069532
0.4925836,0.005671134,0.1069541,-0.4562646,-0.4942239,-0.5450221
0.4994531,-0.004002096,0.1188097,-0.4239261,-0.6169709,-0.5156487
0.6220172,-0.03195427,0.09174225,-0.2785428,-0.8125219,-0.3417453
0.8224896,-0.1631367,0.08136128,0.009041569,-0.9321758,-0.1226598
0.9992233,-0.1810318,0.0491424,0.2546992,-0.6669562,-0.01884685
0.9796187,-0.1525727,0.03154602,0.3847583,-0.3346761,-0.04876497
0.9680017,-0.1086621,0.04049829,0.3302547,-0.2027653,-0.1218374
1.024271,-0.04712826,0.02228176,0.2596722,-0.2652157,-0.1080046
0.9224036,-0.03086635,0.03349905,0.228146,-0.3478871,-0.03705084
0.8974967,-0.006644242,0.0296564,0.1896872,-0.4276357,0.1619424
1.069708,-0.08643156,-0.00480582,0.2539779,-0.3394571,0.3244293
1.310355,-0.2951059,-0.05526062,0.2996943,0.08232557,0.1559072
1.586707,-0.4850302,-0.183697,0.3586493,0.4644035,-0.1489496
1.742448,-0.5304525,-0.2370026,0.5649482,0.5442204,-0.3220004
1.833578,-0.3309525,-0.1105824,0.6735736,0.5285255,-0.3526309
1.850116,-0.01389349,0.043176,0.4552006,0.6449282,-0.5203313
1.609766,0.2467501,0.1328913,-0.04656405,0.4313936,-0.7726656
1.30633,0.4229868,0.1867097,-0.5640671,-0.3532788,-0.3431136
1.138078,0.4372837,0.1978034,-0.7059394,-1.050349,0.6427288
1.121984,0.2288099,0.07598588,-0.414928,-1.241446,1.153464
1.122273,-0.05718877,-0.1159996,-0.1677785,-0.7399418,0.9722841
1.007087,-0.2495911,-0.178277,-0.118069,-0.08997703,0.5139719
0.8715854,-0.2998981,-0.1287938,0.06438397,0.02229879,0.1468432
0.7241188,-0.244908,-0.09237126,0.3273776,0.05500661,0.01756839
0.6642971,-0.1767915,-0.05724884,0.5151261,0.1233699,0.08639367
0.7300184,-0.07775164,-0.02224068,0.5887761,0.2034531,0.1260023
0.7371797,0.01502544,-0.03298238,0.504456,0.3884937,-0.03797876
0.7332004,-0.003120728,-0.03449872,0.4423531,0.3487928,-0.09256798
0.7041407,-0.02979649,-0.02028365,0.4451929,0.3056162,-0.06658291
0.6214405,-0.04310628,-0.03513476,0.4962098,0.3330797,-0.04493074
0.6167616,-0.07450723,-0.02292018,0.5927847,0.3186012,0.1364489
0.6542468,-0.05025165,0.01008142,0.5541204,0.3989036,0.1382991
0.7191347,0.002334272,0.04255454,0.3902233,0.3688752,0.04503851
0.8046235,0.06057725,0.06425285,0.1747459,0.1933217,0.01630145
0.8102388,0.06755586,0.03185022,0.05343957,-0.04529335,-0.03519092
0.7880442,-0.03466406,0.003284549,0.2109042,-0.1410856,0.1009785
0.8282148,-0.1300238,-0.02683043,0.4481839,0.1147834,0.1699646
0.8892379,-0.2014405,-0.05881028,0.6302615,0.4314157,0.05130978
0.9650693,-0.3453559,-0.01578412,0.7248364,0.5192701,-0.07877638
1.065081,-0.4598739,0.0437391,0.626534,0.1259386,-0.1604041
1.206857,-0.3722039,0.09857879,0.5397664,-0.2951962,-0.1561656
1.563856,-0.2069854,0.1453669,0.4691524,0.01621731,-0.365299
1.958514,-0.1403614,0.142449,0.1763596,0.2912434,-0.5730391
1.942603,-0.09809142,0.1731758,-0.01010349,0.04940062,-0.3378405
1.649029,-0.06800893,0.2286538,0.3691804,0.07294141,-0.09799213
1.373629,-0.01788445,0.2149811,0.9136739,0.2153024,-0.2003705
1.182019,0.1057778,0.1869677,0.8659531,0.1461295,-0.1442378
1.157579,0.1806488,0.1885824,0.4814543,0.09517577,0.2759519
1.135682,0.2077821,0.1814462,0.2146374,-0.03605441,0.5531435
0.9793389,0.1777066,0.1645386,-0.111999,-0.06271926,0.580244
0.8142148,0.1035916,0.1330052,-0.2816503,0.03589008,0.4909118
0.6487452,0.1004989,0.09044688,-0.3033084,-0.04443279,0.3893354
0.5309763,0.06884832,0.05073505,-0.4027513,-0.1223593,0.4061751
0.5052502,-0.0009766529,-0.000699636,-0.4030007,-0.1668399,0.3824801
0.4968005,-0.05676295,-0.00835699,-0.4991935,-0.07011475,0.3258085
0.5372432,-0.09898866,0.04663048,-0.6171049,0.142542,0.07222461
0.5840146,-0.05183256,0.09998111,-0.6257242,0.003296494,-0.3997185
0.5964674,-0.009265763,0.1258444,-0.6827594,-0.2847119,-0.5270721
0.6519218,-0.01365403,0.08929375,-0.6280859,-0.51383,-0.3463087
0.7459661,-0.05889348,0.03067725,-0.5736441,-0.5963093,-0.1184866
0.8091936,-0.1920961,0.007926335,-0.4537525,-0.2898447,0.1635019
0.7481958,-0.2559367,-0.01012904,-0.2155347,-0.03959107,0.2810758
0.6229002,-0.2147885,-0.02251246,-0.1466416,-0.04168443,0.1917438
0.5794076,-0.2029143,-0.05174939,-0.04391443,-0.1550197,0.2178167
0.7314852,-0.2516877,-0.07894579,0.1324392,-0.3014296,0.4104681
1.184488,-0.3820419,-0.06073126,0.2327591,-0.1519468,0.4207305
1.610002,-0.5192899,-0.06484541,0.2480115,-0.02066298,0.04753071
1.735528,-0.4784675,-0.08607095,0.2281559,-0.07272061,-0.5702305
1.907141,-0.2894699,-0.09622837,0.3464123,0.1624263,-0.8253015
2.003297,-0.0535362,-0.09439438,0.3366381,0.4349818,-0.6068707
1.679143,0.260244,-0.006282303,-0.06830234,0.2998905,-0.4978594
1.382978,0.4307887,0.1163375,-0.6637944,-0.194552,-0.07075984
1.240754,0.3745362,0.1201665,-0.9161345,-0.6929887,0.7858067
1.089032,0.2579663,-0.01078531,-0.6004225,-0.6606427,1.032187
1.140868,-0.0429136,-0.1468886,-0.2904096,-0.02688841,0.7011918
1.150324,-0.305517,-0.1671972,-0.09788964,0.5760614,0.3686967
1.042651,-0.2800849,-0.106812,0.02645698,0.677548,-0.06682457
0.9679368,-0.1657411,-0.04084097,-0.1236976,0.6247546,-0.3851413
0.7376335,0.03658843,0.04472572,-0.1527975,0.7041284,-0.2854788
0.5526229,0.1808136,0.1090325,-0.0985214,0.582,-0.232186
0.4641836,0.2092994,0.09372191,-0.06640749,0.228284,-0.1887907
0.4545362,0.255019,0.05532628,0.136106,0.08673822,0.1305562
