accx,accy,accz,gyrox,gyroy,gyroz
0.9769762,0.233909,-0.1403358,0.6070254,-0.4723947,0.1298935
0.8719359,0.2524876,-0.09302238,0.1161546,-0.5226669,0.2207831
0.8507794,0.1608297,-0.09144244,-0.02542024,-0.4623961,0.1828994
0.8426907,0.01759534,-0.1037831,0.004966927,-0.5279776,0.2243181
0.8386791,-0.0335539,-0.08250353,-0.06252714,-0.5572383,0.2187027
0.8539602,-0.03566581,-0.09808388,0.01442289,-0.3585008,0.194403
0.8701019,-0.01671914,-0.08570964,0.03821862,-0.0926117,0.202193
0.8467468,0.04962432,-0.07003198,-0.01106101,0.2146012,0.2230216
0.8252492,0.09204463,-0.1034466,-0.05368273,0.3711617,0.3140713
0.7617439,0.1420841,-0.1375189,-0.254832,0.3934331,0.3948576
0.7011233,0.1512168,-0.1551117,-0.4810071,0.5161583,0.4606232
0.7033511,0.09866485,-0.07529693,-0.5961569,0.581983,0.4932718
0.7294742,0.0349923,0.03408757,-0.573863,0.5449288,0.4709405
0.8334755,-0.02965353,0.02412303,-0.5245095,0.5252245,0.4451788
0.9084495,0.006486181,-0.01563352,-0.5809803,0.5278162,0.3448039
0.8706885,0.06073765,-0.02348828,-0.6519549,0.4656963,0.1881326
0.8394488,0.04851452,-0.03716507,-0.7609083,0.3581568,0.07622864
0.8364194,0.04028705,-0.01139736,-0.8180105,0.323176,0.02522596
0.8191091,0.01273263,0.0191143,-0.7755744,0.2841078,-0.01158501
0.7768492,0.008786868,-0.04705995,-0.8812477,0.254156,-0.07702351
0.7627843,-0.01335602,-0.1390829,-1.090907,0.2960479,-0.1494793
0.8694783,-0.1826261,-0.1625271,-1.309781,0.4181335,-0.2834109
1.180892,-0.4439938,-0.1550066,-1.400455,0.6408099,-0.5659717
1.607045,-0.6534968,-0.138754,-1.109611,0.8017754,-0.9364452
1.846927,-0.7011289,-0.04287157,-0.6849739,0.748932,-1.191875
1.813169,-0.6475145,0.1770505,-0.3373143,0.3391489,-1.167478
1.697602,-0.4739579,0.2930079,0.01390981,-0.1631641,-0.8371689
1.621293,-0.1328419,0.1122123,0.2045662,-0.0645903,-0.2838559
1.556148,0.03650581,-0.05532821,0.1644201,0.4194575,0.1678
1.432104,-0.02725034,0.01289683,0.1023002,0.5638269,0.3005078
1.241233,-0.03081688,0.1050365,0.05529905,0.3340241,0.3144384
1.143868,-0.05520493,0.157938,-0.1152357,0.06695796,0.3272059
1.127082,-0.1420843,0.2175076,-0.2183563,0.1022505,0.3429933
0.967019,-0.1548631,0.2095083,-0.1333896,0.2118137,0.4114803
0.8162693,-0.1068461,0.1472028,-0.1521062,0.06615037,0.4733241
0.757239,-0.0370161,0.06508844,-0.2324835,-0.03098509,0.5087003
0.7024614,-0.03527072,0.03717291,-0.2966919,-0.175963,0.5079828
0.7581788,-0.0752229,0.0873292,-0.4137101,-0.3052655,0.4621465
0.7443093,-0.08160671,0.08633954,-0.3971726,-0.202154,0.3795345
0.6986814,-0.1212575,0.0924142,-0.3290371,-0.3081866,0.1803445
0.7862463,-0.1610119,0.1290036,-0.2876131,-0.3831667,-0.02526112
0.8100835,-0.2086592,0.1326873,-0.130734,-0.3393246,-0.09440358
0.8451496,-0.2708621,0.1666821,0.08127216,-0.4405454,-0.1119478
0.8600601,-0.2991597,0.1386875,0.3440878,-0.3675548,-0.1094539
0.8209646,-0.3630593,0.08728443,0.5763324,-0.3694223,-0.1181309
0.8718626,-0.3404566,0.1103457,0.6283764,-0.5238214,-0.1841927
0.8574618,-0.1916188,0.08423597,0.6000214,-0.6584948,-0.2487062
0.8441897,-0.106873,0.05062833,0.5812825,-0.8133676,-0.2604329
0.8658404,-0.08021414,0.02976908,0.5848929,-0.6866001,-0.1899744
0.8390934,-0.120264,-9.28561e-05,0.6224943,-0.5579096,-0.0952289
0.8797366,-0.1583789,0.01983208,0.6725289,-0.5420916,-0.06780753
0.9070938,-0.08072247,0.02021388,0.6694678,-0.3106109,-0.08972535
0.9157679,-0.0283675,0.01902471,0.5881307,-0.1329631,-0.1060743
0.9033704,-0.02204199,0.0558671,0.5054631,-0.09248878,-0.09510023
0.8186417,-0.03257498,0.08473631,0.4613891,-0.06698452,-0.0705994
0.7602223,-0.06852901,0.1217975,0.4655207,-0.01823726,-0.03166544
0.6854623,-0.06251389,0.1571983,0.4526359,0.07298303,0.006019558
0.6675579,-0.06924474,0.1667262,0.3734057,0.03845361,0.07552311
0.8243546,-0.1080388,0.09473146,0.3483014,-0.1024878,0.2783143
1.123688,-0.1957063,-0.1011226,0.4163657,-0.1205614,0.4357032
1.477132,-0.3288826,-0.2533326,0.5249949,0.2479103,0.3556579
1.645209,-0.360032,-0.2097031,0.6090285,0.678089,0.2765812
1.66576,-0.2875314,-0.1515987,0.6002202,0.5243456,0.2635071
1.691677,-0.1792136,-0.1771396,0.409826,0.2730169,0.02023214
1.546931,-0.08808084,-0.06769132,0.03002723,0.2951634,-0.3515619
1.313742,-0.08476566,0.0989423,-0.1087493,0.007873293,-0.454489
1.301705,-0.1303098,0.1287511,0.1776342,-0.4044582,-0.3441362
1.359656,-0.1558568,0.0995072,0.4587056,-0.632643,-0.328738
1.272261,-0.1427409,0.009679045,0.5784225,-0.8895917,-0.3644082
1.206386,-0.1279257,-0.07740598,0.6405558,-0.9993164,-0.3174033
1.164407,-0.08986895,-0.103341,0.6529163,-0.9378317,-0.2717116
1.028504,0.009793453,-0.1459911,0.5468526,-0.8543954,-0.1821599
0.9319925,0.07228264,-0.1499996,0.3299201,-0.6963243,-0.006964603
0.8885478,0.04892382,-0.132597,0.2069227,-0.5517331,0.1342231
0.8002933,-0.007470735,-0.123409,0.171245,-0.6012695,0.2904362
0.7486609,-0.07016915,-0.1081822,0.1511495,-0.7104847,0.4173574
0.8011518,-0.1061966,-0.1294428,0.1915189,-0.5279581,0.4021744
0.8574895,-0.08043437,-0.1458842,0.2002802,-0.2766838,0.3708035
0.8897052,-0.04427965,-0.1491163,0.2041676,-0.1486823,0.3679109
0.9535308,-0.03366349,-0.1364802,0.2259417,-0.009229833,0.3726221
0.9944095,-0.005119373,-0.1251801,0.1892242,0.08659521,0.3862287
1.035158,0.009455308,-0.1603675,0.1276069,0.3474869,0.3587373
1.05291,0.003676096,-0.1766804,0.0005127824,0.5283419,0.2699447
0.957319,-0.006343719,-0.1404045,-0.1381492,0.3480036,0.125344
0.8702159,-0.04770884,-0.08789268,-0.195929,0.2598252,0.04247509
0.839054,-0.05196425,-0.07191588,-0.2553041,0.2705233,0.05948369
0.8162966,-0.03124433,-0.07576585,-0.3290682,0.3029645,0.05235041
0.7790174,-0.02469095,-0.05702676,-0.4332059,0.4009028,0.04376546
0.7363312,0.0002874108,-0.032085,-0.5010745,0.4122705,0.08789785
0.796576,-0.01810962,0.001978174,-0.4423794,0.3881077,0.1711346
0.8991399,-0.04308091,-0.01875302,-0.4026303,0.3724532,0.2715752
0.9423934,-0.008559122,-0.05349004,-0.395335,0.4287302,0.2919483
0.9409034,0.02374721,0.008774823,-0.3872659,0.4883911,0.2431634
0.9253188,0.05162758,0.05137701,-0.443711,0.4584391,0.2063832
0.9397662,0.07666915,0.03129138,-0.5260694,0.474112,0.1289639
0.9035932,0.08543808,0.02347544,-0.6715328,0.4971703,0.004912395
0.8240931,0.09831799,0.01751692,-0.8357369,0.4663366,-0.1157947
0.7982461,0.07898203,0.01128994,-0.9408927,0.4049099,-0.2147705
0.8252815,0.00110791,-0.02418689,-1.100033,0.3371214,-0.2451235
0.9452447,-0.09529787,-0.09646807,-1.265909,0.3306086,-0.2597954
1.098726,-0.2037052,-0.1336369,-1.346078,0.415562,-0.3772945
1.271792,-0.3868087,-0.1293843,-1.322083,0.5752574,-0.5954836
1.500492,-0.5789802,-0.1420116,-1.080285,0.7115205,-0.7812759
1.560865,-0.5591702,-0.1297655,-0.694495,0.7310379,-0.7870155
1.509261,-0.4402058,-0.004679384,-0.3791417,0.5759465,-0.6416089
1.602346,-0.4224071,0.1519078,-0.1498396,0.3875342,-0.4349136
1.617079,-0.3067215,0.192589,0.05962425,0.4004116,-0.1854383
1.505894,-0.1716267,0.144115,0.1969138,0.4547429,-0.01721593
1.458035,-0.09061708,0.1403361,0.2040793,0.3973726,-0.003085547
1.333745,0.08012092,0.164708,0.05729491,0.3134709,0.006219503
1.243751,0.02331174,0.1458568,-0.1722666,0.1941039,0.123742
1.173382,-0.08669984,0.156055,-0.2180957,0.1422329,0.3201978
0.9296399,-0.02922719,0.1836062,-0.1190765,0.1687361,0.5312755
0.8191599,-0.1291103,0.1822088,-0.101488,0.04772812,0.6919649
0.7616485,-0.1101644,0.1841608,-0.07043213,-0.1573936,0.7159414
0.6759126,-0.04043057,0.1554261,-0.06392475,-0.3042159,0.5595642
0.7574376,-0.1223296,0.1237801,-0.1232651,-0.4209607,0.286706
0.7408194,-0.06515762,0.1118802,-0.1183178,-0.4784217,0.005867955
0.7325112,-0.09160977,0.09889978,-0.09827822,-0.4900192,-0.1479283
0.8334861,-0.1598621,0.1019633,0.009707417,-0.4562493,-0.153753
0.8370274,-0.1636356,0.09098905,0.2740996,-0.3929489,-0.1358533
0.8445348,-0.2698769,0.09734858,0.5645398,-0.4284376,-0.09517885
0.8279845,-0.2819896,0.1059471,0.7874868,-0.6067071,-0.04826322
0.8412353,-0.2262824,0.05087393,0.854039,-0.8118751,-0.09193263
0.8909734,-0.1391181,-0.001839035,0.8330906,-0.8464794,-0.1545654
0.8764453,-0.06426444,-0.01671759,0.8414622,-0.7973577,-0.1658251
0.9202009,-0.1068238,-0.01552414,0.8424921,-0.7387389,-0.1329397
0.9355769,-0.09317371,-0.02154122,0.827396,-0.5493007,-0.08008169
0.9262638,-0.07946427,-0.02092755,0.7911492,-0.5053015,-0.07228315
0.9608693,-0.08124337,0.003757494,0.7325044,-0.4952168,-0.08120171
0.9535415,-0.04546475,0.01151431,0.6887605,-0.2219611,-0.06765862
0.922626,-0.05358673,0.03453372,0.6425324,-0.1386858,-0.05264474
0.8432364,-0.0413515,0.07439432,0.5740258,-0.2155793,-0.03781956
0.7899279,-0.03393985,0.09089349,0.5045139,-0.2058233,-0.04741611
0.7867998,-0.03625421,0.100837,0.4279409,-0.2624443,-0.08549243
0.7687364,-0.03556726,0.09412845,0.3456627,-0.1697005,-0.1176639
0.7964011,-0.08736549,0.09169599,0.2958771,0.0128794,-0.09300691
0.858708,-0.15475,0.06647198,0.270769,0.05874592,0.06467054
1.044972,-0.2460709,-0.07147568,0.2910871,0.1585553,0.2795402
1.341954,-0.3262122,-0.2818873,0.3931132,0.473778,0.333876
1.484055,-0.3514705,-0.3779326,0.486873,0.7764267,0.281588
1.455142,-0.3080568,-0.2669364,0.4877926,0.5046308,0.3195615
1.480623,-0.1812442,-0.1609861,0.4320048,0.1254691,0.2919873
1.568206,-0.07499207,-0.1381285,0.309825,0.275207,0.05860554
1.478966,-0.04172808,-0.01712529,0.0594768,0.08650635,-0.147727
1.365838,-0.08895249,0.1105493,-0.08083464,-0.3743692,-0.1409484
1.424284,-0.1681732,0.08070244,0.07049122,-0.3211867,-0.06841919
1.366137,-0.1818669,-0.005589269,0.1956446,-0.4402234,-0.1081938
1.229108,-0.1603615,-0.04686227,0.2365941,-0.7995233,-0.1096834
1.148694,-0.06963453,-0.08779978,0.3023744,-0.8129304,-0.02444876
0.9769802,0.06781985,-0.1239532,0.1658506,-0.8210396,0.03559561
0.8549469,0.09182679,-0.1078121,-0.08181314,-0.8618257,0.1698891
0.8318415,0.03128908,-0.1159421,-0.2219692,-0.8027221,0.2590843
0.781717,-0.03632931,-0.1409921,-0.2569218,-0.7846902,0.2564813
0.8249414,-0.09552189,-0.1341242,-0.1263473,-0.6454734,0.3145115
0.9282202,-0.08095377,-0.1474703,0.0348148,-0.3365118,0.3289781
0.9162832,0.006584293,-0.1474167,0.04976482,0.05608525,0.3682333
0.88302,0.09255893,-0.1341995,-0.04675276,0.3348628,0.4204289
0.8969659,0.1522262,-0.1317224,-0.2586541,0.4108337,0.3812839
0.8933724,0.1658384,-0.1167202,-0.5625602,0.5527454,0.3884298
0.9097558,0.120809,-0.1185812,-0.8171575,0.5969546,0.37653
0.921033,0.0329171,-0.1124797,-0.9340754,0.4354734,0.3674985
0.9144065,-0.08146458,-0.09420746,-0.9734677,0.3770658,0.4167997
0.9287794,-0.08748257,-0.09880076,-1.004956,0.3928237,0.4232157
0.9152496,-0.01015803,-0.09228908,-1.063844,0.4872357,0.465291
0.9148053,-0.02407281,-0.07395837,-1.156263,0.6536966,0.5401377
0.9258588,-0.02176525,-0.07392414,-1.214629,0.7304277,0.5853596
0.9166604,-0.006837743,-0.06732463,-1.280766,0.7466988,0.5577043
0.9319003,-0.05058189,-0.02773629,-1.380617,0.6587057,0.4591104
0.9215283,-0.04707152,-0.000528972,-1.40934,0.4926159,0.3774583
0.892962,-0.05866917,-0.01322787,-1.377414,0.3662145,0.2793648
0.8788565,-0.07583004,-0.0239284,-1.34761,0.3525709,0.2366954
0.8782428,-0.06286532,-0.017794,-1.324452,0.4749182,0.2333529
0.9086719,-0.08696861,-0.003094336,-1.264774,0.544118,0.1440883
0.9119752,-0.09459037,0.02565627,-1.177964,0.5080429,0.08898348
0.8888264,-0.09415447,0.05129728,-1.151762,0.4086053,0.04884642
0.8566062,-0.09453883,0.0345794,-1.184979,0.2696989,-0.008474418
0.8307371,-0.09467542,-0.06299988,-1.28481,0.2568082,-0.03150657
0.8879454,-0.1339706,-0.2279187,-1.487686,0.428493,-0.1251476
1.068562,-0.2075197,-0.3262208,-1.693475,0.8275092,-0.2471071
1.399842,-0.3389003,-0.3063095,-1.744916,1.363732,-0.3389628
1.650952,-0.472691,-0.2668221,-1.682654,1.590174,-0.4398232
1.602371,-0.5832409,-0.1362844,-1.63599,1.27534,-0.5685088
1.562892,-0.6048964,0.09122219,-1.522315,0.6795149,-0.6610531
1.633551,-0.3540889,0.1391015,-1.447523,0.3098341,-0.4777904
1.581608,-0.002885731,-0.008168141,-1.707405,0.6585137,-0.1268785
1.504682,0.1000603,-0.09528046,-2.043987,1.221794,0.05919225
1.391164,-0.0260342,-0.06893503,-2.098538,1.07757,0.1384636
1.178529,-0.1186239,-0.01071517,-2.185857,0.8084554,0.1993071
1.066598,-0.1404603,0.04227454,-2.450415,0.7636646,0.2371381
0.9819271,-0.1874048,0.04692069,-2.495975,0.5384668,0.2837133
0.8704467,-0.1804497,0.0006147866,-2.414731,0.6780257,0.2855226
0.7922739,-0.1753037,-0.03591883,-2.400223,0.8272765,0.2273252
0.654107,-0.2215343,-0.05135976,-2.287856,0.5153572,0.1069712
0.5998229,-0.2255048,-0.04708033,-2.194898,0.3146537,-0.03519764
0.6534467,-0.2773338,-0.0126683,-2.054634,0.06457542,-0.1152657
0.6865419,-0.3629415,0.02750105,-1.721686,-0.01929554,-0.1731426
0.7722185,-0.4022637,0.05733805,-1.401401,0.1589013,-0.2149127
0.8414757,-0.4187647,0.0641172,-1.123836,0.1107504,-0.2289426
0.8676018,-0.3844077,0.06657036,-0.9305037,0.07472644,-0.2448718
0.9125827,-0.3277315,0.07687569,-0.8240204,-0.06150468,-0.2381423
0.9585708,-0.2466635,0.06129785,-0.7220007,-0.2238463,-0.2073816
1.013775,-0.2028547,0.04313386,-0.7050491,-0.05566193,-0.13941
0.9798481,-0.2479514,0.03740451,-0.6882362,0.1146025,-0.04294334
0.8499238,-0.241764,0.04330529,-0.640844,0.1392868,0.05489885
0.7236487,-0.2122714,0.08605686,-0.6081439,0.04676767,0.1425033
0.6544253,-0.206072,0.129741,-0.5320315,-0.04709338,0.1337183
0.695689,-0.1855808,0.1524105,-0.4704519,-0.05656414,0.04229727
0.7223662,-0.2084807,0.1811764,-0.4353182,-0.1411888,-0.08148557
0.7185594,-0.2270769,0.2133375,-0.4043784,-0.2888731,-0.2336907
0.7895693,-0.2158286,0.2126217,-0.2977931,-0.4300354,-0.2901989
0.8399279,-0.2209877,0.1832216,-0.06084567,-0.463542,-0.2733228
0.8687058,-0.209183,0.1521876,0.1005932,-0.2960076,-0.2882399
0.8656167,-0.1776079,0.1034407,0.1470662,-0.01941179,-0.2488587
0.8187193,-0.1699316,0.0928482,0.1972645,0.1537819,-0.1561418
0.8466796,-0.2539489,0.1138756,0.2622838,0.1357134,-0.02548732
0.9322248,-0.4156406,0.03805764,0.4728079,-0.03251448,0.1870261
1.209794,-0.5418065,-0.1335517,0.8909253,-0.1974013,0.3158145
1.693481,-0.621136,-0.3178352,1.266447,0.02024563,0.274362
1.941714,-0.6233206,-0.3966453,1.465894,0.3190639,0.1719008
1.782379,-0.409788,-0.3580759,1.523623,0.2716248,-0.104954
1.393672,-0.09198834,-0.216181,1.165166,0.3267739,-0.5546008
1.018449,0.01456714,0.09297701,0.555872,0.3136904,-0.6950338
0.9784993,-0.0332785,0.2258591,0.3964337,-0.1591065,-0.5107044
1.221326,0.02002195,0.04272881,0.4092221,-0.6878475,-0.369582
1.325854,0.07882687,-0.05596335,0.2205454,-1.020056,-0.125187
1.298817,0.04119041,-0.07838092,0.2028526,-0.9371415,0.006938527
1.255064,-0.00227524,-0.102737,0.1519246,-0.496142,-0.1811427
1.051332,-0.04445752,-0.07339994,-0.089206,-0.2458493,-0.2693209
0.9177455,-0.0436468,-0.0989076,-0.2601362,-0.4239158,-0.4181121
0.9134988,-0.02283018,-0.09991419,-0.3804967,-0.8260269,-0.5463728
0.834543,-0.07600617,-0.1031774,-0.3009503,-0.971565,-0.3483427
0.8378759,-0.1124611,-0.1523287,-0.1044797,-0.8738067,-0.2494676
0.8894711,-0.1320071,-0.1300066,0.09106025,-0.7459742,-0.1465773
0.8956744,-0.1928067,-0.1330354,0.4312077,-0.4586437,0.04498585
0.9395637,-0.1924656,-0.1533713,0.5828373,-0.2473331,0.07854128
0.981464,-0.1167439,-0.1323839,0.5364808,-0.07042746,0.1268378
0.9853283,-0.02923538,-0.123318,0.5001107,0.1514195,0.07504115
0.9202268,0.04123461,-0.05994005,0.3120896,0.129542,-0.01655499
0.8408828,0.07624683,-0.0031886,0.1734445,0.08192526,0.01558669
0.8249387,0.091172,-0.05138355,0.1023905,0.02557773,0.004742226
0.8157319,0.09356623,-0.09161836,-0.133531,-0.1255654,0.06000529
0.8259678,0.0546571,-0.05388119,-0.3115587,-0.1052646,0.1852394
0.9307805,-0.02822525,-0.03366759,-0.279597,0.1605571,0.3331502
1.005676,-0.06983154,-0.0520802,-0.2192511,0.6322102,0.4750976
0.9322365,-0.06803422,-0.02001513,-0.2241008,0.9230815,0.4585628
0.8327389,-0.09437748,0.03931778,-0.2251509,0.7355698,0.3631742
0.7709766,-0.1131384,0.07585897,-0.2300899,0.407981,0.2373914
0.7837277,-0.1354252,0.06044626,-0.1775596,0.1786456,0.1853375
0.8579657,-0.1579422,0.005231999,-0.03525336,0.100239,0.2295098
0.8753126,-0.13707,0.002321019,0.02086628,0.204127,0.1448917
0.8879049,-0.1195354,0.007498405,0.02522399,0.2318315,0.01186779
0.9110268,-0.08219611,-0.004351548,0.07679753,0.2194065,-0.06419167
0.9110317,-0.03426618,0.002388526,0.1153624,0.4067791,-0.122498
0.8947382,-0.02528718,-0.03002788,0.05666467,0.5440228,-0.1538862
0.8599682,-0.04830137,-0.07654993,-0.1266514,0.6159708,-0.1848717
0.9208865,-0.1794269,-0.1051111,-0.3140383,0.7495531,-0.2193641
1.087714,-0.4057818,-0.110668,-0.3731059,0.8473537,-0.3610978
1.315305,-0.5876344,-0.08491068,-0.217818,0.9503342,-0.6269874
1.553154,-0.6560133,-0.005344716,0.03218957,0.8915964,-0.8255017
1.66825,-0.6286833,0.1981257,0.2677025,0.607035,-0.8944757
1.682113,-0.4763389,0.3280421,0.5296746,0.2038917,-0.8395571
1.586885,-0.1417614,0.2108275,0.5825591,-0.06796744,-0.6052955
1.421076,0.1310437,0.06616525,0.3585341,0.04411378,-0.2435912
1.346745,0.09898377,0.03289388,0.1155145,0.1783414,-0.02170812
1.281355,-0.06507857,0.1027927,0.01362237,0.2575973,-0.01771824
1.199116,-0.1824966,0.2237683,0.01931407,0.2400683,0.06374776
1.163833,-0.2244456,0.2371352,-0.02314065,-0.002654826,0.246941
1.075307,-0.2171136,0.1920877,0.02470889,-0.03461356,0.3385786
0.931362,-0.2398591,0.1779287,0.1679554,0.01648143,0.35852
0.7978124,-0.2160637,0.09260691,0.1456616,-0.01799757,0.3107241
0.7378651,-0.1258155,0.02444225,0.03813857,-0.04587248,0.2246839
0.7575164,-0.1191827,0.05857887,-0.09584333,-0.1880673,0.1772189
0.7575739,-0.133205,0.07623152,-0.1844866,-0.214686,0.1538447
0.7592132,-0.1342527,0.0927374,-0.1295519,-0.2323425,0.1206069
0.7878653,-0.1871186,0.1140002,-0.09297656,-0.3759932,0.04222182
0.8109028,-0.1714398,0.09923974,-0.0411103,-0.5024968,0.0111129
0.8594483,-0.1345765,0.1039707,0.08608391,-0.65185,0.02489216
0.9262753,-0.1579121,0.1207146,0.2298339,-0.6496089,-0.0660137
0.9609256,-0.1930618,0.1375082,0.4586119,-0.6289386,-0.1762176
0.9479197,-0.2909813,0.1676443,0.7130813,-0.7466149,-0.2215128
0.9399726,-0.3297138,0.1812623,0.9064527,-0.8789575,-0.2116614
0.9487824,-0.241151,0.1566991,1.036021,-1.095362,-0.1499274
0.9514454,-0.1655955,0.09094489,1.077799,-1.166642,-0.1012784
0.9682294,-0.1209807,0.0178039,1.08668,-0.9943228,-0.0560201
0.9550472,-0.1329916,-0.0115786,1.09878,-0.7902096,-0.01170559
0.9149759,-0.1744892,0.0006957579,1.101705,-0.5395212,0.02785317
0.8710109,-0.1763302,0.005394501,1.088255,-0.3234136,0.03107903
0.7831725,-0.1564186,0.005698499,1.039674,-0.2814797,-0.05017048
0.7216237,-0.1014465,0.02099292,0.9792958,-0.3752219,-0.1198689
0.7324377,-0.06722521,0.02582243,0.9545085,-0.4682923,-0.1672399
0.7794746,-0.07720138,0.05115288,1.000234,-0.536736,-0.1965593
0.8583001,-0.06871366,0.1051802,1.029536,-0.6171626,-0.1876678
0.933271,-0.04536918,0.1323691,0.9349016,-0.5880761,-0.1928536
0.9719561,-0.005009494,0.1316408,0.8143643,-0.4617047,-0.1469332
0.9882912,0.01939614,0.1035204,0.7516811,-0.2948296,-0.0658414
1.002001,-0.003322611,0.07169903,0.6898451,-0.05971963,-0.02300747
1.008426,-0.07183387,0.06594758,0.5915776,0.09464153,0.01769906
1.040551,-0.2090406,-0.006147632,0.5175546,0.1343765,0.106775
1.178752,-0.3244783,-0.1590953,0.5601072,0.2022122,0.2133431
1.363922,-0.3489057,-0.2158166,0.6632258,0.4363999,0.1708234
1.45294,-0.3289813,-0.1473285,0.7347321,0.7025387,0.06598516
1.482059,-0.2790176,-0.1179819,0.7661318,0.4945007,0.05606202
1.530893,-0.2228525,-0.1373224,0.6880046,0.1792332,0.01326341
1.451922,-0.1445785,-0.09861803,0.432355,0.3389412,-0.1415101
1.242983,-0.05625747,0.0265783,0.1167439,0.2530758,-0.4083257
1.195074,-0.08272207,0.1532681,0.0527639,-0.1810181,-0.5586512
1.250637,-0.1747129,0.1257622,0.2622857,-0.400493,-0.4759112
1.216753,-0.1913998,0.03955437,0.3614538,-0.6492601,-0.4035828
1.20406,-0.1454359,0.02396537,0.3273299,-0.8783281,-0.2474859
1.190942,-0.06726199,-0.08782167,0.2925744,-0.9822857,-0.05481888
1.106646,-0.02335028,-0.1979786,0.1555399,-1.008097,-0.02167861
1.012486,-0.05385082,-0.1577993,0.02616635,-0.8856593,0.06711944
0.9230523,-0.07548372,-0.1552984,0.0008729084,-0.8790317,0.1328219
0.8727934,-0.1374821,-0.1562823,0.1073096,-0.8094927,0.1235783
0.8554412,-0.2596621,-0.1137302,0.3535004,-0.6051672,0.2221881
0.8507477,-0.2721748,-0.1243964,0.565309,-0.4388232,0.3123979
0.8701666,-0.1761866,-0.1305343,0.7148882,-0.1699466,0.3707651
0.8981387,-0.0669197,-0.1491894,0.7327419,-0.08464084,0.4024703
0.9308428,0.0380733,-0.1862604,0.6051348,-0.06298835,0.3929349
0.9646348,0.07061958,-0.1921226,0.4747166,0.1321737,0.412343
1.028957,0.02654519,-0.1924263,0.3107309,0.2835122,0.3754412
1.069366,-0.01924638,-0.1697201,0.2569816,0.4770622,0.3068377
1.007222,-0.0525807,-0.1140244,0.295748,0.4573858,0.2566401
0.9247307,-0.05113071,-0.06984482,0.2016112,0.2253317,0.1859211
0.8554317,-0.005707053,-0.08361861,0.08204936,0.1133907,0.1518889
0.8143352,0.01500927,-0.09861358,-0.04872811,0.05897052,0.1339649
0.8460027,-0.004624465,-0.06629108,-0.1382632,0.1813918,0.09868514
0.8871868,-0.0353883,-0.04172931,-0.08406394,0.2766476,0.08694664
0.9276054,-0.06421782,-0.01528853,-0.04068897,0.2917436,0.129448
0.9523399,-0.05481144,-0.006807941,0.01618372,0.4451341,0.2181942
0.9016646,-0.01961265,-0.00506549,0.06641383,0.4154812,0.2904012
0.8556727,0.004599764,0.03801981,0.006686038,0.2617569,0.342005
0.844995,0.008002685,0.02943366,-0.03598149,0.160809,0.3636138
0.8263261,-0.01675545,0.005622401,-0.07241111,0.09009607,0.3122527
0.8338893,-0.04598202,0.02737539,-0.1142538,0.1236325,0.22109
0.856005,-0.07082938,0.0152736,-0.06955001,0.1420711,0.1189939
0.8680612,-0.07707368,0.009131313,-0.03162027,0.2498543,0.02487278
0.854222,-0.0493026,0.005394598,-0.06755985,0.4047678,-0.05156786
0.7938112,-0.03719632,-0.04637799,-0.1942749,0.393355,-0.1377349
0.7661691,-0.0762837,-0.1010236,-0.4395445,0.384695,-0.2449687
0.8637181,-0.2039351,-0.1470644,-0.6125349,0.427593,-0.4262931
1.110232,-0.4191748,-0.1482462,-0.5373307,0.5480231,-0.6798642
1.422549,-0.5658507,-0.1312684,-0.2980672,0.8350488,-0.8188291
1.618207,-0.5624867,-0.1068897,0.01880013,1.004809,-0.7916873
1.628078,-0.5359403,0.05108441,0.3055845,0.6887395,-0.7261756
1.579639,-0.5001445,0.2025455,0.4715014,0.2074205,-0.5655784
1.525666,-0.3299303,0.1469487,0.531551,0.1698304,-0.3026715
1.401211,-0.1355386,0.0661653,0.3073142,0.3238603,-0.1051658
1.337504,-0.06629064,0.08149936,-0.05037116,0.3478401,0.01258186
1.357902,-0.01107227,0.08177346,-0.1619956,0.3781634,0.06427466
1.272476,-0.006971541,0.08922815,-0.3265292,0.27629,0.06608614
1.157028,-0.1251273,0.1089624,-0.5620954,0.09570303,0.1217564
1.044514,-0.1549737,0.0750297,-0.529204,0.0557137,0.2425594
0.8919632,-0.1617876,0.06835187,-0.4711558,0.08082774,0.3772928
0.8103914,-0.2339037,0.08367902,-0.4093511,0.06286454,0.4306465
0.7349549,-0.1774745,0.07490665,-0.2941474,-0.08319455,0.3533917
0.6631078,-0.1434309,0.07627435,-0.3587705,-0.2632411,0.2385114
0.6861644,-0.1873932,0.06572311,-0.396091,-0.3401124,0.109526
0.7222481,-0.1807102,0.08699516,-0.2526034,-0.3865518,-0.03490586
0.7549522,-0.2363854,0.1205913,-0.07755162,-0.4786348,-0.1122242
0.8086829,-0.268097,0.1090449,0.1344642,-0.5384614,-0.1174143
0.8532911,-0.2747291,0.1101421,0.3932406,-0.4943167,-0.1131562
0.8797678,-0.3064317,0.1095457,0.60755,-0.5002625,-0.1292402
0.8964087,-0.2087357,0.1034126,0.6513728,-0.6097912,-0.1645252
0.9035485,-0.0952022,0.09975596,0.5802587,-0.7081781,-0.1934069
0.9122127,-0.06559426,0.07389335,0.5573826,-0.7271,-0.1837071
0.9322418,-0.08042033,0.05215752,0.5219928,-0.597123,-0.1121979
0.9131695,-0.1040843,0.04476582,0.4768851,-0.4430613,-0.007174987
0.8809284,-0.08967401,0.05410798,0.4876845,-0.3780327,0.04483235
0.8825739,-0.09084586,0.05885605,0.4513568,-0.3240224,0.01597603
0.8793778,-0.08364044,0.06420298,0.4220395,-0.2229024,-0.03501401
0.8746476,-0.09452644,0.09895419,0.459457,-0.0832833,-0.1021965
0.8561483,-0.1376091,0.1220073,0.4847425,-0.05890217,-0.1966097
0.8205015,-0.1187712,0.1137485,0.5328126,-0.1439208,-0.2298552
0.8041803,-0.1047129,0.09367322,0.5635682,-0.1650506,-0.2061173
0.8037601,-0.1070379,0.08936497,0.5327163,-0.1295658,-0.1963247
0.8236442,-0.115105,0.1039306,0.4991251,-0.08350954,-0.1286021
0.8808297,-0.1617892,0.07668064,0.4727451,-0.1031154,0.03157593
1.003869,-0.1849231,-0.08728167,0.508482,-0.2373692,0.2514237
1.218492,-0.2352353,-0.324943,0.5644193,-0.2708376,0.4598075
1.498337,-0.3340213,-0.3711259,0.587925,0.1430349,0.492724
1.68023,-0.3596443,-0.2832096,0.7290391,0.7502923,0.3135707
1.63415,-0.2442888,-0.2667632,0.8616297,0.8334406,0.02276196
1.509947,-0.03362843,-0.1768185,0.6015537,0.5724312,-0.3080614
1.418622,0.07455257,-0.04160925,0.07713319,0.3188122,-0.5980079
1.345381,-0.04006435,0.09281088,-0.1574702,-0.06085166,-0.6453478
1.305423,-0.1679715,0.300416,0.0635114,-0.1948391,-0.391382
1.286196,-0.1352086,0.2282791,0.3431841,-0.3024612,-0.1700054
1.304032,-0.0952107,-0.01582888,0.4076327,-0.6722668,-0.1259614
1.2445,-0.06637186,-0.01059626,0.4333262,-0.6593785,-0.0680456
1.067084,0.06800912,-0.03180502,0.3722218,-0.6579416,0.009591282
0.9278756,0.1726531,-0.06589192,0.09055042,-0.8286557,0.08524392
0.8255794,0.1750116,0.001059656,-0.161123,-0.6926722,0.2242711
0.7899102,0.1027746,-0.06883089,-0.3260045,-0.7984393,0.3709321
0.8071803,-0.004108969,-0.09887638,-0.3716611,-0.8685077,0.4640423
0.8431992,-0.02906904,-0.1103963,-0.2753071,-0.6571968,0.4619883
0.9363912,-0.02936415,-0.1780177,-0.2617518,-0.5423816,0.3623028
0.9326838,-0.0375727,-0.1328684,-0.2455156,-0.09459544,0.2652879
0.8896013,0.005237566,-0.1194738,-0.2177312,0.2435113,0.1907794
0.902672,0.05828077,-0.09251824,-0.2921481,0.2459835,0.1516035
0.8860055,0.09913703,-0.04749852,-0.3836122,0.4576368,0.175635
0.8909853,0.09790429,-0.08667983,-0.5254656,0.4950122,0.2017465
0.861635,0.07419475,-0.08385903,-0.7253547,0.3880862,0.2865304
0.8165889,0.05338216,-0.1085113,-0.978155,0.400983,0.4128354
0.8371189,0.01685981,-0.1078729,-1.143392,0.4146496,0.4589343
0.8571976,0.0008391267,-0.03249193,-1.120616,0.4879355,0.4601543
0.9091439,-0.02266863,0.004102081,-1.130415,0.5531661,0.4390843
0.9532327,-0.03656559,0.03694453,-1.180092,0.5724733,0.4182351
0.9217255,0.01238319,0.01239366,-1.257227,0.4173096,0.3674798
0.8894605,0.06647739,-0.02278801,-1.425899,0.1160579,0.2673945
0.9092069,0.1018333,-0.02354889,-1.560785,-0.03813844,0.2345989
0.9634999,0.105129,-0.05225127,-1.616148,-0.03377152,0.2459405
1.033154,0.1033248,-0.06103127,-1.604795,0.09242563,0.2727671
1.074575,0.1236484,-0.09200436,-1.583327,0.2605707,0.3127897
1.017675,0.07583416,-0.09457334,-1.562081,0.3234023,0.3194724
0.9528996,0.004661855,-0.06233627,-1.45931,0.2633303,0.3453033
0.9167431,-0.04314818,-0.1166208,-1.389858,0.2254005,0.3748249
0.8372065,-0.181155,-0.2056121,-1.433694,0.3231877,0.3430563
0.8734139,-0.346386,-0.3204946,-1.453705,0.4765448,0.1947379
1.156721,-0.4675262,-0.3838787,-1.436344,0.8635461,-0.09306673
1.527159,-0.5978278,-0.3738004,-1.456157,1.532696,-0.3982438
1.700596,-0.5888603,-0.3627737,-1.452965,1.769426,-0.5835358
1.681536,-0.3770297,-0.1950873,-1.417508,1.180764,-0.563574
1.631222,-0.1700416,-0.04987922,-1.446358,0.6883053,-0.2859789
1.467101,-0.01723296,-0.1475473,-1.608667,0.987386,0.09107425
1.336849,0.05590763,-0.2020857,-1.847848,1.268718,0.2122448
1.323684,-0.07496655,-0.1408579,-1.920669,1.177499,0.1317361
1.223489,-0.2561255,-0.101225,-1.838923,1.105953,0.1657778
1.166113,-0.3021256,-0.06067163,-1.805099,0.8703405,0.1849339
1.107111,-0.3029144,-0.03967875,-1.696536,0.7981972,0.1441464
0.9480958,-0.3204669,-0.06274041,-1.540774,1.076947,0.1782643
0.8483258,-0.2995835,-0.05703912,-1.471687,1.125989,0.1600805
0.7377906,-0.273557,-0.02027807,-1.3612,1.004263,0.08985429
0.6920739,-0.2949198,0.0125735,-1.253139,0.7431901,-0.01558458
0.7613124,-0.3100048,0.07456847,-1.124391,0.3845445,-0.1541959
0.8015324,-0.3134733,0.0962192,-0.8670404,0.2553437,-0.1869251
0.8418791,-0.3197345,0.08408553,-0.6345998,0.1900715,-0.1920464
0.8247603,-0.306356,0.1222577,-0.4861422,0.1496316,-0.2240684
0.7768315,-0.2934396,0.1346862,-0.3704823,0.09707715,-0.2380068
0.7860491,-0.2538229,0.1301131,-0.2349728,-0.0991255,-0.2714874
0.7940752,-0.2041412,0.1277063,-0.09821237,-0.3319176,-0.2799515
0.8272295,-0.1981157,0.1116873,-0.007284967,-0.5406886,-0.2820139
0.8706827,-0.1999227,0.1213355,0.1100608,-0.6146846,-0.3084794
0.9090809,-0.2000839,0.1235545,0.1889568,-0.6418121,-0.3145601
0.9684419,-0.1995776,0.1287814,0.2360202,-0.651211,-0.2907731
0.9828977,-0.1925112,0.1264328,0.3370837,-0.5252103,-0.1934748
0.937544,-0.1760645,0.1088857,0.4099723,-0.4240024,-0.05646211
0.8665825,-0.1307055,0.1228807,0.4746643,-0.4242376,0.03162718
0.7954953,-0.08601163,0.1319965,0.5471233,-0.5029527,0.04834951
0.761958,-0.07012986,0.1458126,0.6107666,-0.5794592,-0.01407937
0.7700083,-0.08015029,0.1608581,0.6606336,-0.623953,-0.1406415
0.8002598,-0.09838512,0.1555382,0.6572587,-0.6677647,-0.286732
0.8492196,-0.1044435,0.166479,0.6837852,-0.6264442,-0.3421385
0.8862773,-0.09915859,0.1625339,0.7214594,-0.5976905,-0.2922811
0.8868282,-0.06828017,0.1380614,0.6852758,-0.6023806,-0.2657525
0.9082434,-0.02738813,0.1220347,0.6038293,-0.5983496,-0.2563197
0.9345372,-0.01797921,0.1179833,0.4720211,-0.6122255,-0.2313411
0.9105397,-0.03540973,0.1311799,0.3235653,-0.475547,-0.2349941
0.8991334,-0.07070029,0.1422128,0.2240468,-0.1903909,-0.2397141
0.9143949,-0.1401994,0.1571677,0.1938674,0.07678273,-0.2256121
0.959853,-0.243603,0.137002,0.2535619,0.1881599,-0.1752974
1.097293,-0.3417538,-0.01231665,0.3906053,0.1951756,-0.128707
1.306307,-0.4236097,-0.1943137,0.5688965,0.3575077,-0.2305423
1.503898,-0.4791113,-0.2149035,0.7298253,0.4954458,-0.3306775
1.558656,-0.4402566,-0.1739151,0.763714,0.3988101,-0.1978524
1.510849,-0.3082371,-0.2097853,0.6925375,0.3147195,-0.07418861
1.500367,-0.1607226,-0.1619734,0.6032119,0.2588884,-0.1310644
1.410915,-0.1031704,-0.04640447,0.4917276,0.1047197,-0.165216
1.301607,-0.1841787,0.01153209,0.5375233,-0.06978882,-0.1563462
1.303037,-0.2394015,0.06752608,0.7358689,-0.2883468,-0.1695156
1.230445,-0.1971215,0.0471525,0.8361707,-0.6041948,-0.1524268
1.133682,-0.1641216,-0.007141442,0.9102864,-0.8823994,-0.1573387
1.089617,-0.08911797,-0.03199885,0.8909528,-0.9682225,-0.1816943
0.9944956,-0.006295851,-0.09935447,0.7500466,-0.9511526,-0.1655865
0.9408041,-0.02774192,-0.07952371,0.6936167,-0.9751336,-0.1319866
0.9041963,-0.04516696,-0.0569217,0.6405752,-0.9663355,-0.0412084
0.8469294,-0.0346437,-0.1072929,0.6479179,-0.9374474,0.07408403
0.8679773,-0.04142306,-0.09320904,0.6787004,-0.8950614,0.1467128
0.9076713,-0.01780274,-0.1117183,0.6204746,-0.7267098,0.2211401
0.9388375,0.008513379,-0.1250533,0.634823,-0.5217014,0.2783917
0.9669593,0.01421648,-0.1045017,0.5783512,-0.3502407,0.3139348
0.9703797,0.01459961,-0.1279325,0.4605521,-0.2172472,0.3353875
0.9909401,0.01007284,-0.1037828,0.4137916,-0.05451083,0.3153981
0.9878035,-0.006954979,-0.05726607,0.3530543,0.2388791,0.2757403
0.9501802,-0.0405108,-0.009164232,0.3654638,0.4220441,0.165202
0.922427,-0.03850961,0.005274213,0.3742369,0.3636341,0.01013924
0.8420611,0.009475548,-0.03602921,0.3414704,0.2385683,-0.04219205
0.728049,0.08812187,-0.04117227,0.2795124,0.170563,-0.015257
0.7046902,0.1627372,-0.06615605,0.08534429,0.2560893,0.02436671
0.753544,0.1214317,-0.05706816,-0.03555494,0.4137844,0.1074671
0.7859929,0.01540422,0.00836757,0.001305973,0.470795,0.2194899
0.8269639,-0.02903517,-0.00245568,0.09258846,0.47818,0.3292731
0.895915,-0.03555842,-0.01065854,0.1710072,0.5261288,0.3915236
0.9349937,-0.02970362,-0.005593363,0.1393642,0.5481654,0.3290502
0.9122869,-0.03030397,-0.01997752,0.0932474,0.4823726,0.2106447
0.8438638,-0.02681417,0.0150455,0.0748399,0.3799625,0.1130047
0.8098887,-0.005670244,0.05693748,-0.00902918,0.3177973,-0.002587853
0.822619,0.004423175,0.07279512,-0.140774,0.2867658,-0.08868493
0.8278649,0.04577424,0.0290598,-0.305177,0.2732476,-0.1621741
0.8779638,0.03544925,-0.06633697,-0.5024868,0.3591962,-0.298328
1.003383,-0.1439593,-0.109612,-0.6134189,0.5227792,-0.481619
1.194831,-0.3734098,-0.107213,-0.5611299,0.688749,-0.7649141
1.377279,-0.524726,-0.09748307,-0.4462839,0.761724,-1.073686
1.494569,-0.6118819,-0.03412173,-0.2548583,0.5416531,-1.16432
1.605431,-0.6274221,0.1074525,0.06921271,0.1378104,-0.9721244
1.609076,-0.4637513,0.1880811,0.3566941,-0.1360549,-0.5710295
1.535518,-0.2236536,0.1278236,0.4711557,-0.1600629,-0.08132815
1.517481,-0.08946636,0.0765028,0.4654731,0.03748191,0.2087332
1.480779,-0.01991017,0.0614877,0.4268406,0.1857133,0.2125758
1.433116,-0.02178943,0.08271311,0.3077056,0.08525262,0.2365265
1.320643,-0.05747965,0.1682016,0.1284053,-0.06772522,0.2926495
1.161706,-0.1148743,0.1848578,0.1418503,-0.120662,0.309576
1.055208,-0.2329351,0.1704001,0.3287946,-0.09707709,0.4392217
0.9060493,-0.2495867,0.1806636,0.4564196,-0.05302065,0.5427467
0.7967185,-0.1775645,0.1380372,0.4947361,-0.1033159,0.5714495
0.7651495,-0.111748,0.1119881,0.4174471,-0.1889345,0.5650826
0.7284426,-0.04991062,0.1117787,0.2957138,-0.2643809,0.4668294
0.7178108,-0.04516454,0.1046402,0.2244698,-0.4624213,0.3716456
0.7196995,-0.072143,0.1143933,0.1694979,-0.6200887,0.2386049
0.7846158,-0.1121629,0.1125759,0.2358704,-0.6052553,0.1430368
0.8792382,-0.1589274,0.1178642,0.4135883,-0.580805,0.1426093
0.936512,-0.2211195,0.1204163,0.6442103,-0.5764008,0.1024352
0.9850283,-0.2829192,0.1152466,0.9012923,-0.6058315,0.0292872
0.9767616,-0.2445184,0.1216866,0.9772513,-0.6771884,-0.1228033
0.9660931,-0.1594234,0.08856431,0.9632771,-0.7300764,-0.1827649
0.9817203,-0.1040304,0.04353145,0.9938644,-0.7212688,-0.09046411
0.9457581,-0.09374352,0.02637531,0.9604279,-0.6078919,-0.05373935
0.8759358,-0.1391059,0.02367588,0.9260566,-0.5032957,0.02607169
0.8209803,-0.160681,0.03554529,0.9199449,-0.5036558,0.0522416
0.8291485,-0.159324,0.03900034,0.9334212,-0.5240332,-0.03141858
0.8689873,-0.1619714,0.02899602,0.9675059,-0.4612397,-0.05474424
0.8725218,-0.1403596,0.02522235,0.9635514,-0.3197388,-0.1313956
0.8487855,-0.1325242,0.06421235,0.9657325,-0.2343653,-0.2325188
0.8290047,-0.1297599,0.1267204,0.9621973,-0.2811577,-0.2724236
0.8612,-0.09764453,0.1381518,0.938501,-0.3359023,-0.2864228
0.9172521,-0.05301548,0.1235677,0.9170517,-0.2514337,-0.2375215
0.9209164,-0.02385384,0.1315336,0.8559728,-0.1370892,-0.1903597
0.9007378,-0.03681466,0.1515215,0.7685222,-0.09788038,-0.1737405
0.8942023,-0.042193,0.164754,0.6641103,-0.08975824,-0.1536172
0.9032529,-0.03249064,0.1572022,0.502922,-0.1346515,-0.08881457
0.9387332,-0.05475779,0.1371879,0.2530903,-0.1480349,0.1150613
1.013603,-0.07876653,0.08037848,0.07882729,-0.08715577,0.3714763
1.202265,-0.1503678,-0.09210572,0.1425364,0.07392233,0.4425786
1.429769,-0.3012355,-0.2763718,0.1642975,0.2404551,0.2885606
1.427272,-0.3763842,-0.2161128,0.05943638,0.01851367,0.1347274
1.301039,-0.3034594,-0.03904147,0.09140191,-0.3014516,0.09807025
1.372544,-0.2413419,-0.04208488,0.1229221,-0.2348608,0.1082941
1.59828,-0.2496705,-0.1838222,0.06127635,-0.03278976,0.05086904
1.739296,-0.2106806,-0.3080801,0.02818926,0.06301991,-0.2770974
1.478095,-0.1876805,-0.1851309,-0.01295923,-0.1349708,-0.7217247
1.013756,-0.2479178,0.06668445,0.1343876,-0.4468432,-0.8505525
0.9514147,-0.2895834,0.06289893,0.4962266,-0.444864,-0.7503377
0.9496403,-0.2854236,0.02772076,0.740825,-0.5570262,-0.6173622
0.8114467,-0.1737332,0.01675222,0.860295,-0.8699049,-0.276753
0.9434439,0.01991285,-0.1451954,0.8904517,-0.8034318,0.1561778
0.9988069,0.1145724,-0.2072689,0.7850597,-0.6430537,0.3937767
0.9565136,0.115655,-0.216848,0.6323601,-0.5823179,0.5112547
1.025706,0.08118788,-0.2310204,0.5075254,-0.2619487,0.5272129
0.9778009,0.001502772,-0.1711305,0.4984524,0.03482826,0.4084291
0.9865041,-0.07965629,-0.1222635,0.5807085,0.08251236,0.2454571
0.9923751,-0.1076993,-0.03372458,0.6774244,0.1632495,0.06666617
0.9065571,-0.05122307,-0.01946613,0.724594,0.3120688,0.02189849
0.8597944,0.05697923,-0.07590473,0.5754114,0.3914055,0.1323535
0.7520704,0.1284644,-0.06350699,0.3248758,0.3844073,0.2442342
0.7481582,0.09830112,-0.06834162,0.1948734,0.3737743,0.3330937
0.8089851,0.001123821,-0.0522756,0.1704604,0.3665031,0.340143
0.810306,-0.07604117,-0.02891427,0.1830101,0.3337914,0.2741306
0.8587389,-0.09379971,-0.01824394,0.1987432,0.3044992,0.206204
0.8835515,-0.03458683,0.01481763,0.1888728,0.278159,0.1825992
0.9458594,0.02403846,-0.002393176,0.1802636,0.3093444,0.2038586
0.9843137,0.01036275,-0.006072211,0.1724225,0.334377,0.173015
0.9358516,0.01170287,0.02068616,0.166431,0.2657894,0.1131975
0.9429984,0.04127521,0.03020589,0.1699558,0.2314763,0.02183229
0.9083217,0.05959382,0.03939932,0.1173828,0.2645084,-0.1254901
0.8125914,0.07305841,0.02001854,-0.02705957,0.2904432,-0.251359
0.7278001,0.04389074,-0.0322841,-0.2858587,0.2855893,-0.3717551
0.7316199,-0.03679926,-0.107463,-0.5618811,0.3198641,-0.464689
0.9736784,-0.2299187,-0.1395638,-0.6141782,0.4606306,-0.5276256
1.329719,-0.4942761,-0.1204526,-0.4596389,0.6553333,-0.5933054
1.504786,-0.5461429,-0.1215118,-0.1713153,0.801442,-0.5496467
1.458367,-0.399359,-0.06794152,0.146156,0.6881902,-0.470023
1.483289,-0.3490929,0.04707698,0.1620211,0.3299843,-0.4930363
1.642587,-0.3846255,0.1634001,0.2140225,0.06278182,-0.4339879
1.728164,-0.3321319,0.2878456,0.623775,0.09527225,-0.2083273
1.719724,-0.1802465,0.2946002,0.6991908,0.3494571,0.05206895
1.563568,-0.005900106,0.181614,0.4996971,0.463625,0.2700038
1.306301,0.07373822,0.1057458,0.4800346,0.3623194,0.3613544
1.147021,0.04059924,0.04584093,0.2627973,0.2929799,0.4212176
1.042297,-0.006693721,0.04270738,0.03817884,0.2282221,0.5745088
0.8737498,-0.07920591,0.1187073,0.02522742,0.1004063,0.7352852
0.6924557,-0.1554951,0.1538459,-0.007631277,-0.1094536,0.8502515
0.639918,-0.1611241,0.186698,0.05875651,-0.3371353,0.8359251
0.6519587,-0.1677765,0.177638,0.09630999,-0.4521433,0.7036419
0.6509816,-0.1963484,0.1152992,0.07686048,-0.511777,0.5165086
0.7028566,-0.2000994,0.1140791,0.1055222,-0.5869521,0.2533386
0.7439824,-0.1925903,0.09170087,0.1133721,-0.7579765,0.09044744
0.8293999,-0.164376,0.0854846,0.2409507,-0.9569799,0.02886573
0.958611,-0.1500386,0.1134786,0.4119451,-0.9759998,-0.0305155
0.9807953,-0.2049564,0.09338289,0.5757293,-0.7712741,-0.003059188
0.9560032,-0.2710655,0.1248837,0.7463661,-0.5157702,-0.01366168
0.9175953,-0.2614396,0.1428986,0.8122258,-0.5291695,-0.08286747
0.8873072,-0.1850179,0.09714878,0.8442657,-0.7047368,-0.09314958
0.8818401,-0.1243082,0.05326511,0.7977264,-0.7440262,-0.0597891
0.8594361,-0.1202205,-0.001200035,0.7394662,-0.674347,0.0420916
0.8346214,-0.1360151,-0.00147038,0.7637251,-0.5222169,0.1072971
0.7704442,-0.1214847,0.02092862,0.7371948,-0.4113525,0.07488809
0.73667,-0.09793973,0.02847664,0.6911737,-0.4020531,0.03013262
0.8003753,-0.1022223,0.05435462,0.6128218,-0.3911717,-0.05122677
0.9011035,-0.1063809,0.06903758,0.5054164,-0.3446133,-0.1261152
0.9841949,-0.1088187,0.08612487,0.4682143,-0.1829395,-0.1364207
0.9757254,-0.09594814,0.09310135,0.4466524,-0.04260845,-0.1393946
0.939915,-0.05953642,0.1013534,0.4127148,-0.03868376,-0.1714453
0.9279778,-0.0450586,0.1255247,0.3610062,-0.0147046,-0.2132261
0.8949749,-0.0345022,0.1385049,0.2556656,0.02641451,-0.2239313
0.9310094,-0.04950205,0.1145582,0.08805063,0.04224094,-0.1511663
1.122779,-0.127878,-0.08106206,-0.06244819,0.07584969,0.07202456
1.381306,-0.212965,-0.3235262,-0.05991144,0.2094378,0.3457565
1.463873,-0.2759045,-0.3025456,0.009411744,0.4873012,0.4168229
1.366252,-0.3629072,-0.1790726,0.0178643,0.6013585,0.2509547
1.338485,-0.4742045,-0.1167242,0.03148613,0.244628,0.06756251
1.363875,-0.4261148,-0.01704782,0.02361284,-0.1110184,-0.01942207
1.461393,-0.2286991,-0.08252186,-0.08649177,0.0745325,-0.1141517
1.618335,-0.1352665,-0.2238319,-0.2597657,0.1951566,-0.3185234
1.479542,-0.1205226,-0.07349073,-0.3832818,-0.1436239,-0.5631112
1.240588,-0.1368601,0.07387016,-0.2976745,-0.3979447,-0.6504684
1.225541,-0.1966842,0.05557526,-0.09650177,-0.5967748,-0.6177978
1.135616,-0.2173495,0.02315702,0.03955869,-0.7970992,-0.606758
1.014669,-0.2148987,-0.09631628,0.1734956,-0.7688959,-0.4766089
0.9727193,-0.1564899,-0.1331129,0.2916417,-0.7716973,-0.2179847
0.8323258,-0.07626277,-0.1139176,0.3909235,-0.7946548,0.0697346
0.7774286,-0.03847355,-0.1620584,0.4548571,-0.6977149,0.3443368
0.8281206,-0.0213931,-0.1360607,0.4362902,-0.5806944,0.4726231
0.8234142,-0.05887746,-0.1480639,0.5139496,-0.4780675,0.5129164
0.8778866,-0.07291667,-0.1555994,0.6159968,-0.395251,0.5016219
1.017246,-0.09586322,-0.1170702,0.641608,-0.08224742,0.4215708
1.094107,-0.1305644,-0.1491251,0.6805309,0.3783942,0.3469264
0.9851216,-0.04151442,-0.1313795,0.5992873,0.4987702,0.2624656
0.7816072,0.04692717,-0.1112612,0.3989071,0.3675218,0.2643691
0.6334918,0.0639943,-0.09739364,0.2058077,0.3181609,0.3223499
0.5813248,-0.01926732,-0.03025262,0.1753615,0.2822964,0.3395925
0.6653899,-0.1641844,0.0006826488,0.3494499,0.2083563,0.3534537
0.7710199,-0.1664068,0.03457045,0.4460016,0.2904941,0.2569157
0.8445227,-0.07607586,0.03627293,0.4482791,0.3787428,0.1785357
0.9628018,0.03586518,-0.01195603,0.4166607,0.3517915,0.284285
1.014178,0.1214357,-0.05611903,0.2899991,0.5077423,0.3605183
0.9623475,0.109356,-0.09653703,0.1300458,0.6517241,0.2824886
0.8857657,0.09349482,-0.06808883,-0.05191748,0.4679249,0.1464641
0.8008228,0.08499226,-0.01927543,-0.1442601,0.2878806,0.009055612
0.7554956,0.07018021,-0.005929128,-0.2198007,0.3665094,-0.192207
0.7395869,0.04813303,-0.03380705,-0.483215,0.4602835,-0.4197347
0.7740063,-0.03354507,-0.1094208,-0.7851235,0.4750772,-0.556686
1.028008,-0.183486,-0.141699,-0.9511226,0.5722716,-0.5632314
1.463825,-0.3478045,-0.1667568,-0.9331129,0.6502829,-0.459495
1.696026,-0.3948666,-0.1851449,-0.8435048,0.6770198,-0.3293066
1.652143,-0.4368445,-0.1054201,-0.7554183,0.6162909,-0.2216582
1.675557,-0.6251485,0.02729536,-0.5593968,0.3939186,-0.2713998
1.697008,-0.6673357,0.2120643,-0.231665,0.2494638,-0.4199614
1.551076,-0.4276467,0.3112656,0.07317937,0.1325193,-0.4047754
1.456062,-0.1854562,0.1952814,-0.02753547,0.1499337,-0.2948963
1.415364,-0.1006352,0.09413018,-0.2560561,0.3589564,-0.1281992
1.305737,-0.1225926,0.08527156,-0.142475,0.2878444,0.04040092
1.173822,-0.1698362,0.08949784,-0.2006044,0.1698021,0.1579538
1.064158,-0.2418665,0.1268095,-0.3225746,0.1188241,0.3791628
0.9729394,-0.284452,0.1361456,-0.1527373,-0.02136113,0.5214721
0.8569448,-0.2330841,0.1255645,-0.1195664,0.05349799,0.5357027
0.7644779,-0.181982,0.1138015,-0.1010736,0.04969551,0.505685
0.7025148,-0.1068542,0.05878741,-0.148607,-0.08853021,0.3176675
0.6444476,-0.04054507,0.02778135,-0.4012922,-0.1145385,0.1350271
0.6580436,-0.1090764,0.04299113,-0.4297669,-0.2528333,0.02785793
0.7106292,-0.175137,0.05847433,-0.3362162,-0.3844358,0.006733222
0.8064539,-0.2166201,0.06210145,-0.1721518,-0.4604181,0.05061885
0.9116622,-0.2918836,0.06612864,0.1060626,-0.4608823,4.131712e-05
0.925685,-0.3303679,0.08659707,0.3150008,-0.3725621,-0.05059973
0.9236179,-0.3512228,0.1046247,0.5298254,-0.4688476,-0.1780198
0.9251409,-0.321993,0.1090686,0.6564046,-0.5977153,-0.3792007
0.9200926,-0.2611826,0.08653048,0.6742396,-0.6945634,-0.4103801
0.9233254,-0.2063879,0.02518389,0.6685678,-0.6921245,-0.3084056
0.8874939,-0.1156233,-0.03392475,0.6422949,-0.4598177,-0.1093102
0.8293031,-0.1160978,-0.02079312,0.6611409,-0.3637393,0.05913546
0.7935628,-0.1624241,0.03646047,0.6224952,-0.367298,0.07723439
0.8331146,-0.1086817,0.04350316,0.570814,-0.3088306,0.03573084
0.8907658,-0.08498306,0.05175964,0.5391935,-0.2288807,-0.02518477
0.8798446,-0.07615719,0.07265494,0.445882,-0.04300987,-0.05752101
0.8730793,-0.03472506,0.0746278,0.3508063,0.03609296,-0.1003465
0.8798809,-0.06114208,0.1243363,0.2250632,-0.01363656,-0.1379038
0.8881388,-0.07010753,0.1496909,0.1221234,-0.05107646,-0.1276546
0.9129277,-0.04852221,0.1281995,0.06436719,-0.08817677,-0.1459276
0.908501,-0.06759017,0.1319786,-0.0311732,-0.03661538,-0.144512
0.9205628,-0.09261324,0.1311699,-0.1857109,0.06708835,-0.09251501
1.003095,-0.1585334,0.09964164,-0.3949537,0.1865893,0.09673561
1.134458,-0.2226729,-0.04898631,-0.4630282,0.3083709,0.4251164
1.263802,-0.2619121,-0.247812,-0.4104845,0.4456047,0.5555531
1.309822,-0.3441832,-0.2670133,-0.4371797,0.5304857,0.3986731
1.339081,-0.3676226,-0.2025541,-0.4415486,0.2574652,0.2345191
1.564462,-0.3260227,-0.2646106,-0.398521,-0.007754399,0.1725455
1.895362,-0.3288857,-0.4032324,-0.3856801,0.3316797,0.06314278
1.884267,-0.3228712,-0.4626583,-0.3985564,0.587059,-0.1986232
1.509126,-0.313679,-0.2492131,-0.4029443,0.07545821,-0.5513394
1.199119,-0.3522398,0.107412,-0.2888514,-0.3789454,-0.6604862
1.109517,-0.3557662,0.1251866,-0.08917288,-0.3852012,-0.4271135
1.14249,-0.2757898,-0.03922139,0.03332419,-0.6358884,-0.3248033
1.057353,-0.1139653,-0.08920556,0.04653528,-0.9326629,-0.2943757
0.8749597,0.021403,-0.2169218,0.033767,-0.8693083,-0.07772984
0.7773416,-0.01614496,0.01670431,-0.963474,0.7795311,-0.08984584
0.6993665,-0.01165413,0.02559058,-0.9905464,0.5888625,-0.1547931
0.6983934,-0.02885134,-0.03469866,-1.065662,0.4079356,-0.191909
0.7501985,-0.08841096,-0.1187582,-1.15956,0.3519139,-0.2535818
0.8709773,-0.2031691,-0.177353,-1.332159,0.5151734,-0.3473982
1.119619,-0.3251196,-0.1876883,-1.474838,0.8931958,-0.4847557
1.409817,-0.4497211,-0.1644902,-1.419054,1.307222,-0.7054714
1.651004,-0.5831547,-0.1044288,-1.276752,1.421292,-0.8579084
1.737718,-0.5901511,0.05323906,-1.108486,0.9648507,-0.8403278
1.667971,-0.4524289,0.2089944,-0.9053333,0.3027936,-0.7038847
1.675052,-0.3350625,0.1685759,-0.7590577,0.1674637,-0.3815546
1.656959,-0.1905057,0.05285646,-0.7922253,0.454498,-0.04321753
1.506352,-0.01924102,0.04016312,-0.9173551,0.5997274,0.09045458
1.445125,-0.04951786,0.05672743,-0.8948833,0.486998,0.1632188
1.372487,-0.1680556,0.1202916,-0.9278761,0.3755994,0.2483848
1.184751,-0.1624821,0.2035437,-1.083166,0.3005933,0.3339292
1.030241,-0.1848507,0.1850505,-1.043901,0.1136637,0.469827
0.9347517,-0.2241529,0.1605075,-0.9297485,0.06306348,0.5931529
0.8500085,-0.1678554,0.149324,-0.8258216,0.08630234,0.6210224
0.7637777,-0.1397274,0.09816121,-0.774497,-0.05280821,0.5853877
0.729539,-0.1066834,0.06488311,-0.8568156,-0.1311052,0.5294706
0.6974934,-0.08788629,0.06454417,-0.8261238,-0.2316417,0.3796298
0.6666869,-0.1628436,0.09311254,-0.7518719,-0.4044982,0.1616744
0.7408997,-0.2045447,0.1089169,-0.6291835,-0.4350211,0.008573749
0.8419086,-0.2471669,0.09709115,-0.3398969,-0.339157,-0.08217068
0.9263243,-0.2872307,0.09335919,-0.100445,-0.2336523,-0.1299343
0.9528394,-0.2855497,0.08677828,0.1416561,-0.3253191,-0.1757387
0.913825,-0.2962317,0.07848019,0.3388355,-0.5310386,-0.24723
0.927801,-0.2403546,0.05602951,0.4045704,-0.6818427,-0.2643172
0.9529066,-0.1827328,0.01323973,0.4884765,-0.7557087,-0.2485182
0.9673865,-0.1768043,-0.02799997,0.5191877,-0.5396534,-0.2327723
0.9721255,-0.1737804,-0.03573384,0.5188911,-0.2636449,-0.1928231
0.9269916,-0.1804049,0.002686389,0.5116746,-0.2441441,-0.18824
0.8983549,-0.1468447,0.01884294,0.4321824,-0.2569331,-0.217463
0.8929892,-0.1105784,-0.00372473,0.3437006,-0.162475,-0.2161599
0.8836596,-0.06251388,-0.01492723,0.2332628,0.03740585,-0.1658487
0.8436711,0.01131107,0.007808647,0.1240866,0.2145474,-0.07298868
0.7602894,0.04330991,0.05993976,0.03020642,0.218016,-0.01201149
0.6953875,0.0592592,0.1217364,-0.08739108,0.08354614,-0.02869919
0.6842745,0.02923701,0.1803439,-0.1829664,-0.1081998,-0.09350097
0.7470651,-0.03340104,0.192544,-0.2499162,-0.1562974,-0.181922
0.821651,-0.06826534,0.1800972,-0.2734881,-0.07687184,-0.2142072
0.8333464,-0.0714692,0.1909943,-0.2474756,-0.04853534,-0.1538273
0.8739874,-0.08154529,0.1761656,-0.2185096,0.005248213,-0.0287771
1.045512,-0.1912081,0.096332,-0.1028558,0.1568733,0.1915013
1.280102,-0.2823932,-0.1322647,0.1127621,0.3860387,0.3380094
1.352122,-0.2655554,-0.363064,0.1845814,0.4933683,0.220758
1.223977,-0.2620134,-0.229592,0.09495271,0.3537749,0.07719123
1.166178,-0.2739338,0.004330142,0.08761374,0.2254914,0.04980914
1.306663,-0.2650108,-0.05209155,0.1441698,0.184005,0.02188675
1.581361,-0.2001349,-0.1767385,0.1420081,0.1752784,0.02809755
1.774471,-0.07960711,-0.2450895,0.06176755,0.1649393,-0.004685781
1.558681,-0.02832444,-0.1807514,-0.1078289,-0.06571698,-0.08944649
1.231108,-0.08441829,0.007968821,-0.1985455,-0.30074,-0.06638393
1.235253,-0.1528187,0.007905481,-0.07072304,-0.2414759,-0.04590314
1.184286,-0.1633942,-0.0007465989,0.0823707,-0.3117569,-0.05526157
1.017568,-0.1181128,0.05546404,0.1205628,-0.6963199,0.007199218
1.070895,-0.03240555,-0.06801632,0.1220107,-0.9316048,0.07059481
1.054911,0.03433305,-0.1523496,0.04477985,-0.883919,0.1228997
0.9606582,0.06725993,-0.1690787,-0.172129,-0.7656659,0.1716909
0.9533565,0.09644927,-0.1665515,-0.3886175,-0.6066553,0.2291287
0.8885384,0.04863471,-0.1053835,-0.4741649,-0.4497532,0.2816771
0.8878638,-0.02722123,-0.1179163,-0.4451983,-0.3887249,0.287996
0.9138475,-0.04396082,-0.10397,-0.3903372,-0.294452,0.3063292
0.8888506,-0.04225077,-0.1019191,-0.3329293,-0.03588712,0.2839932
0.8733369,0.01291972,-0.1385064,-0.2939553,0.2582917,0.216074
0.7709575,0.1026891,-0.1174064,-0.3944527,0.4334432,0.1907806
0.6996263,0.1382146,-0.136599,-0.6082825,0.5479163,0.1745351
0.7079569,0.1030938,-0.1255976,-0.8025434,0.6827787,0.1897842
0.7051592,0.04375943,-0.1014051,-0.9070523,0.8307357,0.2205006
0.7234391,0.02849355,-0.07426632,-0.9046431,0.9249748,0.2436936
0.7702699,0.04876509,0.03525668,-0.8892448,0.8278873,0.3258087
0.8752176,0.07847911,0.05728983,-0.8917443,0.6769756,0.4273357
0.9584525,0.07121083,-0.01529339,-0.9275745,0.6817171,0.4891446
0.9690063,0.01521842,-0.0665771,-1.037645,0.6930075,0.4622492
0.9340287,-0.02855416,-0.05053758,-1.128656,0.6284452,0.3409244
0.8432706,-0.06974172,-0.002382267,-1.164814,0.5021379,0.146545
0.8149478,-0.1005268,0.01194541,-1.145584,0.3356108,-0.1200757
0.836558,-0.1123793,0.03254344,-1.115006,0.3298798,-0.3361065
0.8323367,-0.1189889,-0.04805338,-1.171494,0.4850909,-0.4779827
0.8758455,-0.1541565,-0.1798859,-1.305297,0.6262827,-0.5880391
1.020769,-0.2785362,-0.1701338,-1.476445,0.6786499,-0.6619433
1.296553,-0.365004,-0.1372418,-1.460042,0.6425619,-0.7420656
1.560092,-0.3398372,-0.1237522,-1.187325,0.630793,-0.6600371
1.639602,-0.3419613,-0.03200478,-0.9891498,0.5811073,-0.4460375
1.642878,-0.4165939,0.1383763,-0.905292,0.3470809,-0.3551409
1.666387,-0.4447829,0.2547894,-0.7183536,0.1256128,-0.2699341
1.595781,-0.2633051,0.2049791,-0.4883934,0.05759395,-0.1758069
1.461093,0.01300392,0.1591141,-0.556589,0.00620345,-0.0895394
1.446449,0.07097761,0.1580096,-0.8096451,0.03977806,0.1395055
1.404326,-0.06409112,0.09560742,-0.8333785,0.2304685,0.3405515
1.211229,-0.1526295,0.09144374,-0.8699591,0.2687324,0.4311228
1.058208,-0.1813466,0.1299783,-0.9184459,0.1032279,0.4966822
0.928838,-0.2234411,0.1177981,-0.7655364,-0.0004931189,0.5564766
0.8099709,-0.2391085,0.1149246,-0.6601114,-0.002869134,0.6900802
0.776431,-0.233515,0.09789528,-0.527627,0.1192363,0.7893899
0.7155426,-0.2155683,0.06296029,-0.4721462,0.23036,0.7743374
0.6465094,-0.1814378,0.04437239,-0.5481203,0.1627823,0.6925328
0.6653348,-0.1973461,0.04511071,-0.4823371,0.0499831,0.5042084
0.7308724,-0.2525957,0.09245208,-0.4414059,-0.1366334,0.2916685
0.78776,-0.290064,0.1190858,-0.3169374,-0.3523803,0.1263765
0.8562964,-0.273242,0.1098015,-0.06818692,-0.3984819,0.006515506
0.9400345,-0.2394595,0.11209,0.09371416,-0.3618662,-0.04476344
0.9982839,-0.2639332,0.09583481,0.2962174,-0.2934863,-0.09593543
1.072909,-0.2802326,0.08294945,0.4663395,-0.1275356,-0.1713522
1.054466,-0.2671452,0.08621685,0.5920212,-0.01921822,-0.2051038
0.884757,-0.2264157,0.08866671,0.6809834,-0.1787429,-0.158031
0.7880358,-0.1092806,0.08703965,0.6475168,-0.4635328,-0.05776212
0.7906593,-0.05274119,0.0739526,0.5927163,-0.6275249,0.0258292
0.8021237,-0.09988031,0.05362288,0.481665,-0.6297661,0.04600816
0.7780583,-0.1259617,0.02132864,0.4107008,-0.5262592,-0.005970334
0.7449449,-0.1414669,0.02717766,0.4275215,-0.4870125,-0.07507455
0.7837146,-0.138078,0.05153333,0.3714062,-0.5213368,-0.1417142
0.8058751,-0.08870129,0.03972224,0.3092558,-0.5342632,-0.2123109
0.8300334,-0.05619692,0.04542051,0.2567283,-0.5782673,-0.2468159
0.8686679,-0.04804531,0.04882049,0.2106062,-0.5878568,-0.2720852
0.8767997,-0.03618029,0.0492135,0.2220434,-0.5278403,-0.2928098
0.9416291,-0.0333055,0.08242432,0.2187716,-0.4578841,-0.3019537
0.9693978,-0.04441385,0.1048182,0.2225907,-0.3709591,-0.3131765
0.968214,-0.04396624,0.1228148,0.2372906,-0.2457416,-0.2642283
1.000953,-0.03473343,0.1418189,0.1607902,-0.06289769,-0.1763758
0.9829371,-0.04414073,0.1639738,0.002493397,0.08095223,-0.05411865
1.026973,-0.08466518,0.1507903,-0.09553042,0.1713524,0.1462309
1.161918,-0.1623229,-0.03727651,-0.02710815,0.3240116,0.2885945
1.308697,-0.2396107,-0.3236742,0.02489939,0.6209308,0.2699815
1.368526,-0.2863426,-0.397912,-0.1018552,0.8752358,0.1792872
1.264009,-0.2986675,-0.2247466,-0.1865502,0.5409463,0.116435
1.216892,-0.2776714,-0.09846496,-0.1480424,0.07464356,0.08547593
1.294657,-0.2726737,-0.0907709,-0.1382178,0.2790221,0.06894824
1.368246,-0.2584022,-0.07533143,-0.1158496,0.3418182,0.03196027
1.433495,-0.2139145,-0.06325282,-0.02978385,-0.009581297,-0.04991935
1.439393,-0.1964548,-0.04418651,0.04965034,-0.124124,-0.09959671
1.379603,-0.1719374,-0.0283857,0.07400639,-0.2944434,-0.12893
1.299907,-0.1593377,-0.04306069,0.08197851,-0.383866,-0.189498
1.204612,-0.1801744,-0.02847992,0.1364674,-0.3724223,-0.2202818
1.110352,-0.1684501,-0.02768408,0.2260278,-0.6658802,-0.171422
1.028442,-0.1640758,-0.06800153,0.3373744,-0.6991542,-0.06145264
0.9614276,-0.1542639,-0.1110814,0.3999442,-0.5980176,0.01946104
0.8879577,-0.09795441,-0.1473175,0.3705276,-0.6834467,0.09395404
0.8330811,-0.05665481,-0.1579006,0.3325579,-0.6051858,0.1870147
0.8346463,-0.04201666,-0.1712928,0.2874407,-0.5478369,0.1975497
0.8616222,-0.05020239,-0.1653747,0.2644747,-0.4121237,0.1562232
0.8838989,-0.0479495,-0.1245198,0.2823147,-0.1776305,0.1028028
0.8792632,-8.890255e-05,-0.1024406,0.2184169,-0.09537633,0.07342742
0.8673443,0.04182226,-0.09574299,0.09740217,0.02235793,0.1070941
0.8604045,0.07168245,-0.1177149,-0.04289506,0.1348903,0.1549042
0.8172449,0.1189817,-0.1374105,-0.2906233,0.2590763,0.2401261
0.773137,0.1371736,-0.1121018,-0.5627379,0.3351833,0.3116535
0.7711923,0.07121708,-0.08373136,-0.6994026,0.2386136,0.3586135
0.8060602,-0.01334056,-0.06550388,-0.7128589,0.2295497,0.472679
0.8906909,-0.05556896,-0.09248111,-0.6998346,0.3220321,0.5491983
0.9538235,-0.08323861,-0.1382544,-0.716284,0.492551,0.5257907
0.9155832,-0.05803052,-0.1159723,-0.7904837,0.6499307,0.4507765
0.8726689,-0.01648828,-0.05998892,-0.8957968,0.5788401,0.3214556
0.8986966,-0.03321437,-0.01191464,-0.9668521,0.5108113,0.1937129
0.9171481,-0.022892,0.00307727,-1.024079,0.5464755,0.109734
0.926131,0.01860819,-0.00501391,-1.113198,0.4710123,0.03813518
0.9436614,0.03377604,0.006749485,-1.192428,0.3667734,-0.01384974
0.9252802,0.03379316,-0.02203036,-1.216733,0.3886622,-0.03391763
0.9154079,0.001301753,-0.07688583,-1.258601,0.4576059,-0.08069468
0.9159193,-0.05649253,-0.09955353,-1.389501,0.5463137,-0.1743305
0.9269056,-0.1563882,-0.1396967,-1.529328,0.6369843,-0.2654433
1.064366,-0.3292056,-0.1903436,-1.55986,0.6810588,-0.3415752
1.307614,-0.5104547,-0.2485189,-1.408322,0.8368678,-0.4083965
1.507457,-0.6304669,-0.2939498,-1.100627,1.189679,-0.4383019
1.574662,-0.6791536,-0.215867,-0.7404975,1.448565,-0.4335122
1.563583,-0.6691998,-0.007220569,-0.3841197,1.181642,-0.4743067
1.546181,-0.5128475,0.1878271,-0.148553,0.5868186,-0.5096825
1.495933,-0.1964349,0.183824,-0.1880852,0.3340094,-0.3678809
1.444768,-0.01508504,0.1085489,-0.3391573,0.4240041,-0.1339648
1.365935,-0.06222159,0.1843474,-0.3469297,0.4384763,-0.01359503
1.228347,-0.100245,0.211794,-0.3812452,0.2843135,0.02160673
1.129851,-0.1102077,0.167318,-0.4954432,0.2193984,0.09360822
1.029827,-0.149464,0.186255,-0.5272676,0.28799,0.2165315
0.8967141,-0.1667516,0.1445229,-0.5665306,0.2410514,0.3787398
0.7832646,-0.1829,0.1326367,-0.5110413,0.2274648,0.5475967
0.6767592,-0.1858487,0.1655021,-0.4118892,0.1839983,0.5901744
0.6652913,-0.1590641,0.1378176,-0.4590542,-0.0758895,0.4827056
0.7391608,-0.1304497,0.1506733,-0.4588252,-0.3074958,0.2872726
0.7426308,-0.1049895,0.1255198,-0.4833528,-0.5076692,-0.000554746
0.7455506,-0.1173264,0.05406644,-0.5247782,-0.6119844,-0.2039283
0.8171823,-0.1478681,0.04427839,-0.3955251,-0.6144394,-0.1928692
0.8975004,-0.1849477,0.06690363,-0.1678763,-0.6446242,-0.1144573
0.9986114,-0.2724701,0.1012867,0.1837821,-0.5840396,0.0005054107
1.057148,-0.3366356,0.07629802,0.4964103,-0.5216879,0.07186574
1.04129,-0.3192131,0.05796896,0.6169776,-0.4633071,-0.07498535
0.9767056,-0.2477442,0.1063938,0.649311,-0.5083811,-0.2389059
0.9014617,-0.1512837,0.1039786,0.6253166,-0.7579929,-0.2124775
0.981644,-0.1172107,0.04980278,0.6232939,-0.8361053,-0.1179503
1.081314,-0.1476032,-0.007337715,0.6350419,-0.655064,-0.05161884
1.022705,-0.1417291,0.0005499709,0.6100446,-0.4251888,-0.03519429
1.004245,-0.1124848,0.02993334,0.5610641,-0.3393869,-0.06454554
1.009627,-0.1039623,-0.00204621,0.4684734,-0.2386685,-0.06501247
0.9460124,-0.09442333,0.01080511,0.3636328,0.03122559,-0.0337625
0.8975542,-0.08144932,0.04242826,0.2747578,0.05756924,-0.0009976225
0.8249412,-0.06573105,0.0620196,0.2113889,-0.03843771,0.04948918
0.7538919,-0.06047836,0.1119726,0.1526646,-0.07754972,0.06594379
0.7474588,-0.07965221,0.115036,0.09796419,-0.2636062,0.03519585
0.7576813,-0.08599221,0.1058878,0.05373532,-0.3200281,0.01753658
0.7873516,-0.09311668,0.09763022,0.004385242,-0.2518272,0.002967319
0.8301831,-0.1281793,0.05971873,0.0218127,-0.1925393,-0.009008696
0.8354664,-0.1518481,0.05630456,0.07286038,-0.02298484,-0.03467821
0.7815455,-0.1427835,0.07397034,0.07831984,0.06660385,-0.1007848
0.7420629,-0.1342839,0.1124913,0.06196186,0.03690288,-0.1408132
0.8570939,-0.1786395,0.1211301,0.003530016,0.03807531,-0.07834507
1.129308,-0.2277311,-0.06008585,-0.03683967,0.09194233,0.1401737
1.441333,-0.2343152,-0.3624716,-0.00699203,0.2941352,0.3720627
1.577593,-0.2598585,-0.4369103,-0.0002507545,0.6762344,0.3362363
1.412414,-0.2814033,-0.1578218,-0.027987,0.7864497,0.1348507
1.302594,-0.2693974,0.04627138,-0.04194066,0.2343109,0.04718019
1.465939,-0.2529646,-0.07566301,-0.03880373,-0.2321475,0.0423887
1.548344,-0.2231128,-0.1515558,-0.05648721,0.1311512,0.02144548
1.459099,-0.2048301,-0.04811719,-0.1500447,0.4183349,-0.1172441
1.370644,-0.1966258,0.01713562,-0.2321498,-0.1091942,-0.3465373
1.266008,-0.1881643,0.07972373,-0.1450225,-0.5360019,-0.3663112
1.197287,-0.1982474,0.08578992,0.03600432,-0.5314948,-0.2667365
1.14505,-0.1847516,-0.03155352,0.1417693,-0.6357177,-0.2748601
1.071518,-0.1569187,-0.05006817,0.1820929,-0.7134103,-0.2457122
1.056499,-0.1166053,-0.05168112,0.1588512,-0.7571743,-0.1948783
0.9514128,-0.01903964,-0.1174076,0.08613687,-0.8542384,-0.1077168
0.8293318,0.0298641,-0.102784,0.03400073,-0.8221987,0.09938301
0.8910545,-0.01465743,-0.1135123,-0.03103642,-0.722255,0.2600002
0.8927946,-0.04829471,-0.1325949,-0.04555661,-0.5752533,0.3498188
0.8577978,-0.0692736,-0.1203981,-0.01423329,-0.4130359,0.4040002
0.943806,-0.07252141,-0.1487089,-0.04674475,-0.1689358,0.3869939
0.9666504,-0.04203212,-0.1494231,-0.06956937,0.1283263,0.315418
0.9432331,-0.03328242,-0.1315948,-0.1198759,0.2389063,0.2049483
0.9283613,-0.0177677,-0.09575819,-0.2234885,0.3298923,0.1603751
0.9068225,0.01846648,-0.08563646,-0.3084403,0.4490067,0.2005948
0.9273385,0.03301444,-0.1218062,-0.4060921,0.4610163,0.227942
0.9234158,0.04319229,-0.1174365,-0.4657542,0.4793174,0.2600606
0.8928459,0.03956497,-0.1134193,-0.5421957,0.5004697,0.3046605
0.8580765,0.02751151,-0.0897443,-0.6703301,0.4899233,0.3347985
0.8433596,0.02953324,-0.06270046,-0.7466101,0.5283706,0.375277
0.8914176,0.02005652,-0.07926065,-0.8500674,0.620756,0.3958533
0.935981,0.01345558,-0.08006564,-0.980916,0.6800757,0.3842047
0.9714239,0.01111311,-0.08846118,-1.094541,0.6865344,0.4008528
1.001159,0.00685635,-0.08900176,-1.240098,0.709664,0.4115835
1.009067,0.01518089,-0.07184218,-1.342616,0.7389347,0.3856183
1.006908,0.01144208,-0.04730611,-1.378164,0.6960616,0.357658
0.9833584,0.0004249077,0.009073608,-1.414631,0.6104728,0.3096659
0.9665136,-0.0002725683,0.04805351,-1.475742,0.493634,0.2693427
0.9181699,0.02755432,0.06644511,-1.538096,0.1955218,0.2446358
0.8610649,0.06351675,0.06112311,-1.554684,-0.1821841,0.1995266
0.901525,0.03300448,0.01226799,-1.525972,-0.2932615,0.1763328
0.9764535,-0.01361671,-0.05578683,-1.46991,-0.06982389,0.1341543
1.013494,-0.03262182,-0.1342321,-1.414823,0.2777227,0.01660219
0.9843618,-0.09303184,-0.1987253,-1.414644,0.5703594,-0.09785383
0.9239372,-0.1768979,-0.2497544,-1.495404,0.7933516,-0.2009219
0.9777412,-0.275075,-0.2852587,-1.652728,1.010053,-0.3192912
1.22515,-0.4502662,-0.2885721,-1.829108,1.265615,-0.4265718
1.660898,-0.5823328,-0.2437396,-1.851909,1.353059,-0.6419601
1.921273,-0.4949354,-0.1529887,-1.664066,1.18991,-0.8243288
1.683415,-0.322806,-0.133496,-1.552734,1.155285,-0.5196122
1.456157,-0.1978773,-0.1812481,-1.705805,1.241915,-0.079305
1.469419,-0.08195925,-0.188658,-1.914325,1.36316,-0.03206658
1.331208,-0.09855646,-0.1861961,-2.082117,1.536807,-0.01155205
1.198399,-0.1840356,-0.1154542,-2.342444,1.299126,0.01622166
1.171095,-0.2074525,0.02317369,-2.474698,0.870957,-0.1180088
1.053725,-0.3025112,0.05071604,-2.270692,0.8280999,-0.0950147
0.9366075,-0.3344235,0.02734174,-2.082005,0.9257189,-0.02009276
0.8054823,-0.2648965,0.05778454,-2.033637,0.93351,0.005533691
0.7011534,-0.2398958,0.05462091,-2.037148,0.7993576,0.06685151
0.6797622,-0.1513385,0.03825549,-2.154769,0.5427467,0.01154426
0.702835,-0.1393503,0.05432105,-2.16891,0.3425371,-0.04710681
0.8534655,-0.2598745,0.06345819,-2.005737,0.2495533,-0.115713
0.9476898,-0.3160897,0.0872687,-1.761224,0.292434,-0.2045928
0.9161942,-0.3391355,0.1063031,-1.492501,0.3107281,-0.1117563
0.903509,-0.331923,0.0987048,-1.314194,0.1801144,-0.07880999
0.8723908,-0.3347907,0.1145856,-1.039764,0.03772823,-0.2374254
0.8646539,-0.3666602,0.1286257,-0.7027444,-0.1147139,-0.3907467
0.8475719,-0.3637035,0.1259492,-0.4855821,-0.2483403,-0.4388892
0.8193174,-0.3699923,0.1250315,-0.2415214,-0.3806476,-0.381982
0.8457483,-0.3396055,0.1060499,-0.00796271,-0.5661841,-0.3537204
0.8557451,-0.3012775,0.09028616,0.1705855,-0.6318308,-0.3375994
0.8875526,-0.2929441,0.08547795,0.347588,-0.6121186,-0.3286778
0.9170992,-0.2544325,0.08109288,0.5187885,-0.5906747,-0.4058054
0.9098763,-0.2341535,0.08006754,0.6701008,-0.5088321,-0.4394433
0.8963832,-0.2246433,0.06696199,0.7380455,-0.4819916,-0.4156825
0.8442082,-0.2196583,0.05127046,0.8099202,-0.4978854,-0.3716731
0.8252234,-0.2078799,0.04091487,0.8759605,-0.4389928,-0.2773822
0.8120781,-0.1558626,0.03376563,0.8601507,-0.3627359,-0.1907135
0.7511219,-0.1219378,0.03895487,0.862389,-0.3596672,-0.1182512
0.7229786,-0.08475367,0.05952328,0.8729361,-0.4345721,-0.08062209
0.7267836,-0.05712824,0.08902434,0.8615655,-0.4822643,-0.09638523
0.7504176,-0.07347391,0.1017741,0.8270855,-0.4664996,-0.158963
0.7905368,-0.08739332,0.1036607,0.7313018,-0.4262918,-0.2977166
0.8535661,-0.1091697,0.1241597,0.6421328,-0.3882271,-0.4351894
0.9587506,-0.1134207,0.148243,0.6543277,-0.3877714,-0.4734161
1.037115,-0.08842064,0.1516859,0.7251919,-0.3444882,-0.4376633
1.033809,-0.07388503,0.138966,0.7371705,-0.2133535,-0.358929
0.9891297,-0.07493952,0.1209984,0.6763949,-0.0914672,-0.1678146
1.00786,-0.1241077,0.07365544,0.5757982,-0.03554637,0.08327733
1.180734,-0.2162395,-0.06891366,0.526842,0.06228188,0.1796557
1.426576,-0.2861316,-0.2490737,0.5972356,0.4107907,0.09129905
1.524571,-0.2924843,-0.2584313,0.6340232,0.7180768,-0.02987969
1.503659,-0.2412104,-0.1405149,0.5726358,0.4352277,-0.06908807
1.544312,-0.1607081,-0.1044885,0.4665454,0.02869965,-0.06330391
1.538621,-0.08462496,-0.08515177,0.3140861,0.03841134,-0.07826794
1.449159,-0.07459611,-0.01537559,0.2114384,-0.09279392,-0.1052348
1.378347,-0.1366528,0.05076799,0.2090639,-0.4120912,-0.1582047
1.312996,-0.2060404,0.07821435,0.2834747,-0.5752536,-0.1966145
1.296174,-0.2290823,0.03178675,0.4371041,-0.8206901,-0.2416318
1.246274,-0.1666455,-0.002919085,0.5503463,-0.9519531,-0.3221551
1.11727,-0.07329819,-0.04058209,0.536861,-0.9548308,-0.3309047
1.000931,-0.04940744,-0.1026987,0.4641863,-1.059447,-0.2927029
0.863279,-0.07060241,-0.08715654,0.3854937,-1.019025,-0.2420681
0.7801554,-0.08033351,-0.09235869,0.350031,-1.027989,-0.139926
0.7705039,-0.09089696,-0.1122678,0.3646754,-1.110757,-0.008160567
0.7884831,-0.1021406,-0.09808296,0.3800189,-1.05512,0.1293582
0.8876188,-0.08866784,-0.1324582,0.4160189,-0.9372185,0.2404544
0.9855232,-0.06528276,-0.1407981,0.4526836,-0.5309807,0.3561987
1.04262,-0.05867553,-0.1369683,0.4304258,-0.07937496,0.4478379
1.047318,-0.05398212,-0.1385387,0.3414202,0.047962,0.4175758
1.016972,-0.05062185,-0.1000625,0.200572,0.1147226,0.3069578
1.006824,-0.05540751,-0.07793608,0.127029,0.2188626,0.1368089
0.9388475,-0.05373187,-0.06193902,0.1538888,0.274488,-0.02998848
0.8730125,-0.05467543,-0.07166233,0.1602104,0.2484354,-0.03524772
0.8540732,-0.06000019,-0.08351721,0.1794679,0.2432543,0.06056975
0.8272575,-0.06677776,-0.06537326,0.2694196,0.2855521,0.1475539
0.8355326,-0.08180643,-0.07143161,0.3904125,0.2745969,0.2465371
0.8576935,-0.1086026,-0.05325193,0.5251139,0.3400969,0.3185016
0.8858174,-0.1455017,-0.03201386,0.6352787,0.4428388,0.356938
0.9068679,-0.1414367,-0.04592472,0.7220567,0.4719371,0.3760508
0.9239817,-0.08758943,-0.05187012,0.7677549,0.4674945,0.3493294
0.9693703,-0.04043634,-0.0614522,0.7172762,0.3918984,0.3347336
0.9458345,-0.01791164,-0.06301558,0.6429939,0.2873962,0.316373
0.9069814,-0.02805641,-0.0468503,0.5907446,0.1962576,0.2386983
0.9367749,-0.0406836,0.001789706,0.55686,0.1487813,0.1243943
0.9395552,-0.03367176,0.06044816,0.589534,0.163731,0.003444484
0.9311904,-0.03167439,0.04709056,0.6366407,0.222383,-0.03061937
0.9145531,0.01173371,0.0170262,0.6228444,0.290056,-0.006141508
0.835745,0.09181474,0.02846258,0.5356172,0.1741658,-0.01409317
0.7784831,0.1240656,0.023155,0.3569768,-0.04796833,0.003871572
0.7671121,0.1199587,0.0009216774,0.1387686,-0.1218875,0.007638128
0.7477013,0.1117765,-0.02323121,-0.1043033,-0.1178344,-0.08848593
0.8068326,0.03399047,-0.05567027,-0.3544367,-0.09293677,-0.3132038
1.060262,-0.1598216,-0.07640091,-0.4184694,0.03069843,-0.618156
1.441806,-0.3644267,-0.1410964,-0.3201374,0.3090088,-0.773941
1.677295,-0.473504,-0.2041163,-0.2229661,0.4701316,-0.7757957
1.63018,-0.4888655,-0.08519062,-0.001354819,0.120786,-0.752616
1.642569,-0.4685557,0.08876188,0.3151904,-0.1979677,-0.543287
1.77597,-0.4020161,0.09759734,0.5089281,0.1323657,-0.1943529
1.625164,-0.2069387,0.05469374,0.5653376,0.4854767,-0.02996678
1.391959,-0.08248348,0.07298426,0.5095417,0.4271928,-0.03949205
1.29781,-0.1286049,0.106089,0.4388728,0.3519361,0.004817813
1.136831,-0.1142127,0.1433443,0.3914795,0.2691846,0.12128
1.042443,-0.1078086,0.157518,0.267136,0.1234639,0.2334863
0.9728053,-0.1359732,0.1398877,0.1952804,0.06975797,0.3643846
0.8334231,-0.1134482,0.1397094,0.2222598,0.02286821,0.4808809
0.7635019,-0.1330889,0.1239231,0.1918068,-0.0523219,0.5079723
0.6849857,-0.1162147,0.08381759,0.1399681,-0.2610196,0.4510802
0.6681129,-0.09520807,0.06777363,0.1187662,-0.5743038,0.324408
0.7021409,-0.1307564,0.05373154,0.1290881,-0.7123204,0.1481282
0.7366268,-0.1524498,0.04291971,0.2018381,-0.7268088,-0.01840814
0.8675074,-0.2145786,0.04792571,0.3435981,-0.636791,-0.07715009
0.939737,-0.2599066,0.05866382,0.5702893,-0.5034323,-0.06317719
0.9599852,-0.2759443,0.0748635,0.8023029,-0.5366095,-0.08548512
0.9658118,-0.2990204,0.07108711,0.9789911,-0.5849411,-0.09845048
0.9362663,-0.280853,0.06258053,1.13687,-0.638492,-0.108155
0.958569,-0.2611196,0.05328867,1.250349,-0.8052753,-0.1110067
0.9586443,-0.2261141,0.009366147,1.32096,-0.8471974,-0.04896342
0.9669445,-0.1942919,-0.03288364,1.341079,-0.6407674,0.007475784
0.956718,-0.19048,-0.03925984,1.287094,-0.45585,0.04566146
0.872782,-0.1523803,-0.02560977,1.223508,-0.498815,0.09108271
0.8369573,-0.1039043,-0.01750368,1.13515,-0.5045032,0.1517006
0.8283008,-0.06311132,-0.0192867,0.9945506,-0.3315582,0.2105051
0.8242061,-0.03039357,0.0040749,0.852751,-0.2274316,0.2061107
0.7865057,-0.01670546,0.05699865,0.7059378,-0.2270433,0.1556683
0.727107,-0.01661698,0.1142017,0.5786155,-0.3081148,0.04019677
0.7339588,-0.04753693,0.1709315,0.5216397,-0.4554452,-0.1259842
0.775463,-0.0916957,0.1987906,0.5105151,-0.4733154,-0.2789233
0.8944296,-0.1278586,0.1616149,0.5081324,-0.2832764,-0.3830182
1.000339,-0.1494421,0.09789631,0.512521,0.05884876,-0.3375531
0.9990003,-0.1506927,0.03748662,0.5559992,0.3260494,-0.1589033
1.107337,-0.167222,-0.1036279,0.6633924,0.4376447,0.0697616
1.325471,-0.2032995,-0.3059811,0.7480719,0.6867638,0.1944862
1.387214,-0.2282828,-0.3335317,0.7090615,0.8589567,0.1047656
1.331641,-0.2695101,-0.1677376,0.6891518,0.5057654,0.04858303
1.391282,-0.3062375,-0.09866465,0.8047967,0.1284885,0.05004909
1.504338,-0.2453197,-0.1752153,0.8244761,0.2409845,-0.0746825
1.53381,-0.1342407,-0.1930101,0.5656044,0.2378589,-0.2626267
1.422041,-0.0835667,-0.08700986,0.2447532,-0.128718,-0.4265491
1.242338,-0.1016979,0.03264147,0.2175896,-0.3155925,-0.3735616
1.261987,-0.1227448,0.03506262,0.3667453,-0.4232579,-0.2076898
1.253465,-0.08409596,-0.02636454,0.3569448,-0.6488871,-0.1447071
1.062957,-0.05906583,-0.06623393,0.327586,-0.81359,0.03953485
1.049635,-0.07790723,-0.1128142,0.3382247,-0.8289428,0.1613955
1.044004,-0.08364838,-0.115002,0.2947222,-0.7191549,0.1055316
0.9635545,-0.1129276,-0.09191939,0.3354419,-0.6927876,0.1540616
0.9710835,-0.1269443,-0.09485176,0.4040724,-0.6657563,0.1487221
0.891962,-0.1114751,-0.07500489,0.4661904,-0.6934985,0.1371706
0.8665289,-0.1152037,-0.09096606,0.5623953,-0.8384979,0.2052599
0.9376,-0.09151526,-0.1390309,0.6259959,-0.6825339,0.2084936
0.959233,-0.06985874,-0.139665,0.7066529,-0.4473287,0.2408989
1.003992,-0.06160307,-0.1315769,0.7558564,-0.2874547,0.2099683
0.9867734,-0.02685332,-0.1259226,0.7506505,-0.08766473,0.1441463
0.9581816,0.0140725,-0.1224536,0.698533,-0.0346915,0.1489707
0.9677029,0.05751534,-0.1305676,0.5301678,0.1118416,0.1391393
0.9277909,0.06142209,-0.1229473,0.3597502,0.2541025,0.1741359
0.920039,0.02250229,-0.09962395,0.265335,0.2287937,0.1861387
0.9043955,-0.004909135,-0.06872496,0.236443,0.27476,0.1989386
0.8716306,-0.01744477,-0.06515672,0.2068109,0.266741,0.2654642
0.8670918,-0.01329323,-0.09085177,0.1176511,0.2836801,0.2971456
0.8368718,0.005292362,-0.09773705,0.02192898,0.424744,0.3778647
0.8245258,0.04320778,-0.0969236,-0.1537545,0.5575472,0.4633757
0.8226265,0.07253552,-0.07983766,-0.4026805,0.6467168,0.53835
0.82816,0.03817207,-0.04226909,-0.609489,0.6085707,0.6205147
0.876441,-0.006681453,-0.0191966,-0.6995086,0.5615552,0.6048054
0.9174355,-0.00188996,0.001104045,-0.6696601,0.5467223,0.5697464
0.9508097,0.02984452,0.001677024,-0.7518303,0.5077731,0.505513
0.9760075,0.06633047,-0.01167093,-0.9421272,0.5163795,0.3755038
0.9795165,0.07243044,0.00127064,-1.041757,0.4799353,0.2712474
0.9652495,0.03636469,0.009299652,-1.10728,0.4045472,0.2075313
0.9221596,0.009096855,0.01263893,-1.172715,0.270464,0.1989003
0.8808328,-0.002399013,0.005424714,-1.218807,0.03580843,0.2020509
0.8716083,-0.05063911,-0.06115079,-1.231215,-0.00898641,0.1680779
0.9116122,-0.1662178,-0.1567618,-1.233859,0.1811561,0.06814942
0.9918544,-0.2900305,-0.2246236,-1.28501,0.4706344,-0.1323612
1.098202,-0.3572645,-0.2353081,-1.322095,0.9275832,-0.3389925
1.275354,-0.4511054,-0.2025535,-1.362689,1.393868,-0.5037891
1.523605,-0.6163263,-0.1249359,-1.363968,1.663811,-0.6581325
1.681455,-0.6895271,0.04261379,-1.158043,1.585972,-0.7865892
1.612873,-0.5054241,0.1602458,-0.8307465,0.9074702,-0.8439742
1.543337,-0.1800676,0.08360004,-0.6652249,0.2879208,-0.7051545
1.58663,-0.01743293,0.007495942,-0.8060384,0.6606192,-0.4240784
1.482119,-0.02878903,0.0515421,-0.9552526,1.086294,-0.2808263
1.323901,-0.03865673,0.07617388,-0.9924271,0.7244829,-0.2201748
1.251086,-0.03810993,0.09143902,-1.267165,0.5568382,-0.07760021
1.113735,-0.04240464,0.1079956,-1.548881,0.6149193,0.03258532
0.9388499,-0.08475028,0.06614858,-1.554371,0.49527,0.1647153
0.728332,-0.1354432,0.04906421,-1.556647,0.6311292,0.3093343
0.5665689,-0.1116269,0.03135199,-1.570818,0.5751775,0.2714545
0.5385767,-0.1012248,0.005280133,-1.644286,0.2772868,0.1621911
0.4928675,-0.1451999,0.04901907,-1.833024,0.03110277,0.02892058
0.5471748,-0.1996905,0.08556768,-1.895453,-0.3982235,-0.1406335
0.7042699,-0.2517052,0.1007955,-1.805676,-0.4361107,-0.1416045
0.8374622,-0.2722924,0.05702315,-1.638348,-0.2231949,-0.02444893
1.065112,-0.2937399,-0.0355274,-1.443852,-0.1576853,0.02021537
1.120028,-0.3149741,-0.01268656,-1.255828,0.07130419,-0.006750428
0.9565727,-0.3216991,0.06243274,-1.079268,0.07029847,-0.06130209
0.9671607,-0.3624812,0.1067672,-0.8678965,-0.04246439,-0.0827624
0.9866162,-0.3740969,0.1129365,-0.5809142,0.02321834,-0.04527414
0.957224,-0.324107,0.0813484,-0.4650255,0.09486125,0.0276669
1.013515,-0.2640833,0.1034289,-0.4601549,0.2356485,0.09760309
0.9573234,-0.1720921,0.1233589,-0.3694728,0.1381825,0.08578333
0.9146918,-0.1416634,0.127844,-0.3619596,-0.08923588,0.01237951
0.9570809,-0.1901386,0.1639928,-0.3451216,-0.1899192,-0.05816446
0.9379391,-0.1753381,0.1669054,-0.2767685,-0.2982792,-0.1060532
0.9491999,-0.172648,0.1686267,-0.2408671,-0.210964,-0.1049345
0.9509714,-0.171492,0.1691257,-0.1907169,-0.07694763,-0.1071681
0.9368884,-0.08054219,0.1640893,-0.2285352,-0.07606926,-0.1084838
0.9434224,-0.02753187,0.1802897,-0.2898997,-0.0520861,-0.04965453
0.9023681,-0.02099074,0.1699385,-0.3533318,-0.1085755,0.01294912
0.8774533,-0.004240974,0.1764695,-0.4847338,-0.1649398,0.04801105
0.8741237,-0.009623671,0.1928632,-0.573989,-0.09842,0.04692494
0.8686937,-0.04696217,0.1866742,-0.650206,-0.0469844,0.01022663
0.8456874,-0.08585312,0.1960151,-0.6979471,-0.04055837,-0.03159678
0.8024954,-0.087614,0.1922755,-0.6756865,-0.07388263,-0.0827441
0.7994081,-0.1103484,0.1980408,-0.5980148,-0.1449602,-0.1149694
0.7986543,-0.1459524,0.2056492,-0.4497812,-0.1768922,-0.1322533
0.7908799,-0.1352111,0.1650995,-0.4013028,-0.09716985,-0.1548076
0.7722925,-0.1150053,0.1099235,-0.4647536,0.08789053,-0.1413835
0.7521294,-0.1091895,0.05700032,-0.4500865,0.1596254,-0.03492777
0.8419191,-0.1889941,-0.04016961,-0.3121406,-0.07688708,0.187016
1.098582,-0.395526,-0.2711515,-0.03716368,-0.3027205,0.3062589
1.518338,-0.6148942,-0.4596062,0.3437333,-0.1502143,0.1543088
1.837803,-0.6844038,-0.3870929,0.7691276,0.000171292,0.009750349
1.77668,-0.5749711,-0.3404439,1.032375,-0.08909459,-0.03134965
1.60613,-0.4041913,-0.3920225,0.8738039,0.002722991,-0.238825
1.461398,-0.2226566,-0.2282819,0.6929079,0.1077554,-0.4375256
1.1704,-0.147534,-0.0008643988,0.8302363,-0.1222119,-0.3530067
1.069203,-0.2098135,0.04978881,0.8308753,-0.4657991,-0.2812947
1.17073,-0.1543436,-0.004673402,0.725536,-0.8858395,-0.2594706
1.084058,-0.03742233,-0.08416937,0.746959,-1.147804,-0.06447732
1.078585,-0.03797007,-0.1247586,0.6012759,-0.8825724,0.01570673
1.107144,-0.02467508,-0.1465529,0.4113473,-0.5832724,-0.09909332
0.9227704,0.0002428689,-0.1303811,0.2181847,-0.6789962,-0.1659039
0.8199545,-0.01843853,-0.08084541,-0.01979144,-0.8032187,-0.2029217
0.7823492,-0.04661005,-0.09498952,0.00800629,-0.8630741,-0.1607244
0.8150983,-0.1011342,-0.09234751,0.07749036,-0.9581298,-0.04837354
0.9352066,-0.1227197,-0.1108662,0.1108862,-0.8251607,0.01102234
0.981779,-0.1070934,-0.1825458,0.2760343,-0.563385,0.07772286
1.050262,-0.1001627,-0.175675,0.3598094,-0.2919331,0.118187
1.051398,-0.08941391,-0.1539256,0.3912587,0.0497255,0.07949553
1.031283,-0.08591294,-0.1143472,0.4129962,0.2216428,0.01854689
1.058433,-0.07266183,-0.04847423,0.4075573,0.3321538,-0.0714836
0.9772586,-0.02848097,-0.04439816,0.3807368,0.4068337,-0.1581483
0.9149291,0.04664474,-0.05138665,0.2091877,0.3022252,-0.1757439
0.8489015,0.1139367,-0.06417526,-0.0265262,0.2816212,-0.1169311
0.7977618,0.1249717,-0.09280457,-0.2787846,0.3055489,-0.001592183
0.8427426,0.1050856,-0.1070658,-0.4953172,0.3209794,0.1401801
0.8372128,0.0518039,-0.1087999,-0.5745693,0.3823365,0.2750598
0.8574835,-0.03485598,-0.1041784,-0.6004381,0.3749419,0.3887045
0.8724485,-0.08778684,-0.09377439,-0.5779505,0.4282071,0.4854672
0.8223262,-0.09970696,-0.05695276,-0.5157404,0.4990329,0.520018
0.8065717,-0.1195692,-0.02195908,-0.4413121,0.4502614,0.4715411
0.7928849,-0.1323369,-0.0001127086,-0.328038,0.4211483,0.3847408
0.8274779,-0.115979,0.02120705,-0.2335979,0.4582211,0.2591956
0.8714913,-0.0988053,0.0303067,-0.1898126,0.4643748,0.1187477
0.8608484,-0.06207457,0.04182505,-0.1592838,0.3963638,-7.672201e-05
0.874243,-0.009178095,0.03090256,-0.07322833,0.3247184,-0.1155811
0.8928138,-0.00367472,-0.02532858,-0.03228131,0.3196982,-0.2055938
0.9221346,-0.0850573,-0.09258832,-0.2042293,0.4291527,-0.3206793
1.019635,-0.2874873,-0.1096402,-0.4017083,0.5656819,-0.6000435
1.231307,-0.5431343,-0.08633528,-0.3757247,0.6056703,-0.9689044
1.479386,-0.644911,-0.1083603,-0.1582631,0.7340425,-1.130942
1.574026,-0.5122946,-0.1144143,0.07825222,0.9842837,-0.9833024
1.553879,-0.3867293,-0.02205204,0.2169664,0.9992161,-0.7469955
1.53492,-0.4109444,0.1064937,0.3871263,0.5994284,-0.5186693
1.520576,-0.3538532,0.2040584,0.6471208,0.09376697,-0.319595
1.524522,-0.1980037,0.2258206,0.7116524,-0.007287841,-0.2688162
1.497675,-0.104618,0.1820768,0.546389,0.2493364,-0.2110732
1.352926,-0.02491309,0.1429345,0.4256035,0.3428505,-0.08688083
1.136333,-0.007854463,0.1545733,0.3400402,0.2042541,0.03127807
0.9683294,-0.05635819,0.1767998,0.2199357,0.0002844339,0.274681
0.8330654,-0.05795191,0.1697743,0.1639915,-0.2763576,0.4998039
0.7202473,-0.07626166,0.1819581,0.1897611,-0.4284682,0.6214343
0.7120392,-0.1026361,0.1821048,0.2188898,-0.4496054,0.6988851
0.7131254,-0.1047432,0.1410797,0.2030695,-0.5621139,0.6172787
0.683091,-0.1415767,0.1076213,0.1986078,-0.6184677,0.4540939
0.7093174,-0.1729426,0.08612866,0.2082154,-0.6789355,0.1935915
0.7503256,-0.1875544,0.102157,0.252552,-0.8977228,-0.09183239
0.8563108,-0.1962802,0.1112703,0.4398503,-0.9701824,-0.1261328
0.9850279,-0.209958,0.08611663,0.6856875,-0.8750308,-0.01595954
0.9766305,-0.2707279,0.09049605,0.918989,-0.7964471,0.1091004
0.9215264,-0.2973233,0.09335578,1.150747,-0.75075,0.1803102
0.8690975,-0.2479982,0.08530602,1.307186,-0.9284079,0.08639192
0.8308182,-0.1940115,0.03781267,1.382541,-1.264941,-0.0379619
0.8780069,-0.1731303,-0.06771628,1.436519,-1.299925,-0.05274112
0.9121713,-0.1960886,-0.103688,1.522065,-0.9037216,-0.01176089
0.8766035,-0.203938,-0.05851828,1.587977,-0.49543,-0.003928899
0.8410792,-0.1546002,-0.030936,1.581313,-0.4665217,-0.02055309
0.8316843,-0.07752255,-0.02526226,1.522889,-0.5621303,-0.04223202
0.8390328,-0.003451268,0.005013571,1.402441,-0.4474726,-0.07157848
0.8561641,0.02117677,0.03852804,1.302117,-0.3114181,-0.09354987
0.8629183,0.01478192,0.06805447,1.255036,-0.1783527,-0.131983
0.8556422,0.01033228,0.149058,1.198947,-0.03658344,-0.1995961
0.8652537,-0.02481357,0.2051256,1.129378,-0.09630995,-0.292774
0.9436126,-0.08702187,0.1563351,1.040972,-0.08669839,-0.2923788
1.191116,-0.1655797,-0.009670379,1.004062,0.1997716,-0.04276806
1.422237,-0.2422022,-0.2434761,1.081804,0.6112489,0.2492954
1.29526,-0.2427494,-0.266135,1.147556,0.859356,0.2573807
1.109358,-0.1942643,-0.03977944,1.033262,0.4424103,0.1215252
1.22004,-0.180516,0.06593231,0.8194511,-0.1512266,0.1516297
1.404303,-0.1490885,-0.07587166,0.6413461,-0.0839596,0.3006158
1.544264,-0.1009846,-0.1916484,0.3694529,0.3605747,0.3871092
1.509038,-0.1029377,-0.07768884,0.02218362,0.6120774,0.2429427
1.307336,-0.1250959,0.0792132,-0.08690646,0.1721048,-0.03582908
1.307388,-0.1874082,0.1075363,0.07622665,-0.5116785,-0.10276
1.298657,-0.2370933,0.05782006,0.1977284,-0.5430197,-0.1200816
1.16757,-0.1810097,-0.03568651,0.2340585,-0.6046937,-0.1939519
1.159254,-0.1286848,-0.05274374,0.2904853,-0.9204489,-0.1172288
1.046245,-0.1048552,-0.06658517,0.2397185,-0.8686938,-0.05575015
0.8995771,-0.0449553,-0.1812512,0.1828302,-0.8147214,0.03250793
0.890512,-0.0309194,-0.175972,0.183883,-0.7860199,0.1921271
0.8767828,-0.0812478,-0.1386727,0.1346851,-0.7533677,0.26016
0.8554797,-0.1105772,-0.1783812,0.1770687,-0.8567659,0.3606641
0.8471887,-0.129497,-0.1604365,0.2660763,-0.7181181,0.4080144
0.9321868,-0.1550314,-0.1774051,0.3729034,-0.4815561,0.371628
1.009773,-0.1627596,-0.2035656,0.5456318,-0.1554478,0.369106
1.003201,-0.1686983,-0.1812868,0.628867,0.1806587,0.3016958
0.9725857,-0.1214145,-0.1798676,0.6658307,0.1520684,0.2397322
0.883664,-0.03089948,-0.1667759,0.6541941,0.2539828,0.1900093
0.8764485,0.00608769,-0.1678387,0.5788443,0.5509531,0.09424155
0.8341982,0.035736,-0.1607832,0.4500593,0.6436863,0.05184817
0.6775771,0.1045317,-0.09815951,0.140352,0.5627308,0.08187922
0.6278409,0.1660318,-0.02903709,-0.1834932,0.4581534,0.1396113
0.650148,0.1634259,0.01459436,-0.4197232,0.5618658,0.1718097
0.7275688,0.1373594,0.0355135,-0.5590008,0.6342469,0.2084795
0.8393179,0.1111215,0.05359692,-0.4906237,0.568161,0.2421555
0.922606,-0.002389869,0.02787513,-0.4011998,0.4878362,0.2423019
0.9359992,-0.07849377,-0.006638811,-0.3414722,0.2425616,0.2374674
0.8434081,-0.03869912,0.01250219,-0.2707141,0.09181954,0.1247849
0.7643903,-0.02433234,0.007779482,-0.3012808,0.09033039,-0.08481033
0.7119356,-0.02152502,-0.01777399,-0.3206189,0.1773652,-0.3137
0.6937042,-0.01252172,-0.03466817,-0.3862917,0.4574709,-0.5808112
0.7345061,-0.07393179,-0.05617129,-0.5911443,0.6399509,-0.8562375
0.9187205,-0.2529568,-0.07453726,-0.6278967,0.8293929,-1.124436
1.380524,-0.4843968,-0.1260137,-0.4318518,0.9575269,-1.261829
1.775026,-0.5655162,-0.1233471,-0.2449862,0.5102172,-1.20896
1.848429,-0.4982354,0.03700364,-0.07228815,-0.1743268,-1.081023
1.835365,-0.4692903,0.179383,0.2489846,-0.3867655,-0.8188183
1.821018,-0.4069593,0.1358679,0.4955938,0.1576331,-0.4724843
1.702576,-0.210772,0.09143256,0.3330289,0.8301171,-0.3169963
1.485451,-0.05863595,0.1816471,0.1659773,0.7739021,-0.1946853
1.293337,0.0147682,0.1968238,0.1182245,0.3633217,0.1566167
1.139591,0.06256259,0.1090552,-0.2574914,0.03689936,0.4422093
0.9898289,0.009878193,0.05183298,-0.5788525,-0.2272364,0.6150988
0.8973311,-0.07100164,0.0206108,-0.5367059,-0.2293107,0.8711473
0.826224,-0.1652162,0.05042792,-0.4103786,-0.1760721,1.001681
0.7561942,-0.2685719,0.06722933,-0.2110421,-0.1900861,0.9920104
0.7383046,-0.2850846,0.04391428,-0.05391222,-0.1569303,0.8720368
0.7452757,-0.3032163,0.05977068,0.03103296,-0.2240734,0.5629185
0.7412755,-0.314506,0.03834057,0.1373652,-0.2924327,0.2477505
0.7445299,-0.281697,0.02688249,0.2088005,-0.3504649,0.06166313
0.7794712,-0.2546437,0.05619928,0.3651889,-0.4954132,0.05419874
0.8596539,-0.1791199,0.07164569,0.5897807,-0.626498,0.1333199
0.9412294,-0.1461411,0.1034554,0.7873071,-0.6763015,0.18257
0.9476472,-0.2027312,0.09194827,0.9568324,-0.5625371,0.1813913
0.9256785,-0.2470739,0.08171139,1.057164,-0.5050117,0.06800296
0.924456,-0.2807163,0.1210251,1.145557,-0.7096816,-0.04225535
0.9107368,-0.2789845,0.1226613,1.216715,-1.001611,-0.0630202
0.9523286,-0.2374778,0.07573079,1.260216,-1.124693,0.0008680202
1.036595,-0.1902831,-0.01234835,1.282536,-0.8430502,0.0929666
1.031927,-0.1438843,-0.05630995,1.239062,-0.4788041,0.1016699
0.9717666,-0.1145135,-0.02361596,1.175402,-0.4403616,0.1076697
0.9279997,-0.08398147,-0.01644821,1.076421,-0.4469875,0.09441236
0.9109696,-0.06364775,-0.01771537,0.9601909,-0.2947823,0.04068554
0.9050165,-0.04786983,0.007383984,0.8846204,-0.137667,0.008331955
0.8499254,-0.02361738,0.04684916,0.8195026,-0.09325022,-0.05869057
0.7891475,-0.02932105,0.1143955,0.8088367,-0.1508804,-0.1382024
0.7800324,-0.04044639,0.1769808,0.8365753,-0.2632084,-0.2525015
0.796677,-0.04564689,0.1903447,0.8604799,-0.427258,-0.3608622
0.8396032,-0.05478411,0.1730446,0.9157621,-0.4968392,-0.3641362
0.8730339,-0.04261235,0.1613177,0.9329523,-0.3878478,-0.3157811
0.8727342,-0.03511699,0.1465582,0.8686431,-0.2780679,-0.2239473
0.8734309,-0.05277192,0.1212461,0.7536843,-0.1698641,-0.1009582
0.9426847,-0.1124151,0.05825773,0.6270186,0.02478688,0.08561779
1.185873,-0.251616,-0.1658405,0.6049346,0.2642372,0.2425155
1.466029,-0.3879435,-0.490752,0.6765393,0.6573478,0.1550522
1.476681,-0.3861902,-0.520834,0.6576321,0.8866101,0.00641212
1.319017,-0.2817649,-0.1925462,0.4608827,0.3003362,-0.03673799
1.327138,-0.2107372,-0.01848167,0.2211117,-0.2867425,-0.04554787
1.492114,-0.2044449,-0.2056657,0.1709638,0.2320731,-0.02329486
1.59002,-0.2118388,-0.3279366,0.2299977,0.6387163,-0.07895879
1.430408,-0.210948,-0.1181118,0.1957833,0.01380768,-0.235013
1.177604,-0.2213311,0.06092476,0.24534,-0.4456752,-0.380363
1.180883,-0.2228916,-0.01841953,0.3855459,-0.4874661,-0.4519036
1.181977,-0.1692233,-0.06723248,0.3948055,-0.5679191,-0.3780826
1.037648,-0.07874362,-0.06847865,0.3541682,-0.5692815,-0.2901415
1.000236,0.006999303,-0.1105635,0.2885282,-0.7517332,-0.2097218
0.906908,0.03014028,-0.09598525,0.1811496,-0.9606062,0.01627105
0.8250526,-0.007378139,-0.1391844,0.1304191,-0.9528468,0.225155
0.877409,-0.03670284,-0.209405,0.1413411,-0.8658458,0.3353809
0.8774791,-0.09177212,-0.209466,0.221218,-0.6114048,0.3761679
0.9359721,-0.1527568,-0.2144855,0.3355123,-0.4303892,0.2833021
1.012045,-0.1501474,-0.200416,0.4589453,-0.2039758,0.1593267
1.011405,-0.1289001,-0.189828,0.5705247,0.2495764,0.04097178
1.000227,-0.07621271,-0.1753788,0.6034248,0.5305041,-0.06518205
0.9246463,0.02072071,-0.1520516,0.5829746,0.7086971,-0.1116034
0.836974,0.08866539,-0.1648127,0.4890343,0.8205495,-0.1181072
0.7266083,0.112338,-0.1315419,0.2667435,0.7786795,-0.01856724
0.6429452,0.1131024,-0.07790918,-0.03333048,0.6816684,0.1478992
0.6839367,0.08012824,-0.03566591,-0.2363038,0.5039797,0.2617346
0.7472681,0.02705236,0.0002837694,-0.2891819,0.4505275,0.313215
0.835209,0.02107376,-0.0422003,-0.3604894,0.5228013,0.3092556
0.8775675,0.05154365,-0.07727146,-0.4939727,0.5598638,0.261766
0.8220111,0.0566829,-0.03459469,-0.6619488,0.6141534,0.1895599
0.801377,0.04803471,0.01843674,-0.7421857,0.5593018,0.1423279
0.788539,0.0413575,0.04722941,-0.6726851,0.4049918,0.1099705
0.776659,0.04588085,0.03183097,-0.6603077,0.3467742,0.04799829
0.789303,0.0591515,-0.02718037,-0.7108269,0.3645501,-0.009406412
0.7780186,0.03623157,-0.1079305,-0.9038449,0.3382169,-0.1215676
0.8333816,-0.1087282,-0.156699,-1.27106,0.3019388,-0.3860745
1.081415,-0.3912116,-0.1248277,-1.309107,0.4859267,-0.767718
1.530418,-0.5746894,-0.0953903,-0.9365558,0.9634446,-1.031023
1.905444,-0.5452579,-0.08519408,-0.570559,1.417319,-0.9570936
1.896775,-0.4929097,0.07528647,-0.3650479,1.296177,-0.7764464
1.692384,-0.3718521,0.2849765,-0.2054959,0.3697292,-0.5478063
1.557799,-0.1354745,0.2708109,0.0397459,-0.3999732,-0.03970162
1.487151,-0.07431093,0.1842437,0.1141555,0.05405274,0.2814067
1.438716,-0.16267,0.2099134,-0.002130595,0.6785858,0.195014
1.318427,-0.1438907,0.2246868,0.04061795,0.4117043,0.1687778
1.16258,-0.09454591,0.2163089,-0.02245986,0.2249178,0.1476647
1.040791,-0.09336627,0.1948192,-0.2223021,0.1267546,0.1415202
0.8920582,-0.1155981,0.1307223,-0.2072669,-0.2712069,0.315872
0.7983377,-0.1613914,0.1303933,-0.08758359,-0.2261521,0.4968066
0.7742608,-0.1510143,0.140362,0.1014564,-0.2680906,0.679918
0.7764693,-0.1408008,0.0838322,0.1836213,-0.6068433,0.7057279
0.818487,-0.1839749,0.06452548,0.1316051,-0.5850611,0.5368491
0.8162785,-0.1802868,0.06805513,0.2450924,-0.5805416,0.3498648
0.8116973,-0.1695587,0.06302158,0.3041654,-0.5717799,0.0881065
0.8222806,-0.1682984,0.05977822,0.3327775,-0.5344094,-0.03989495
0.8130499,-0.1455727,0.05766802,0.4899966,-0.6145557,0.008666934
0.8601393,-0.1749678,0.0943892,0.6422858,-0.6183988,0.06667087
0.9286298,-0.2573159,0.1123238,0.876967,-0.7042675,0.1428123
0.9817214,-0.3385677,0.094832,1.074282,-0.6733119,0.0997933
0.9891531,-0.3164899,0.08028586,1.152607,-0.6326076,-0.002056208
0.9668689,-0.1660565,0.04046087,1.165761,-0.8134107,-0.03976187
1.001945,-0.0576062,-0.03456146,1.076751,-0.8231566,-0.01608793
1.014138,-0.06479707,-0.09597323,1.000443,-0.574196,0.08462668
0.980503,-0.09484138,-0.05300371,0.8937384,-0.2414694,0.1299739
0.9226086,-0.06777473,0.03487657,0.7735535,-0.2108956,0.1273418
0.8519477,-0.04157105,0.07612537,0.6775287,-0.2751492,0.1254607
0.8642177,-0.03432974,0.0784046,0.4902553,-0.05351231,0.1070525
0.8580681,0.03480165,0.04856723,0.3398543,-0.04102576,0.1313179
0.7830579,0.05704766,0.07968986,0.2644667,-0.151134,0.1263014
0.7801032,0.002456733,0.1404746,0.2073503,-0.2005432,0.04767269
0.8250206,-0.0265694,0.17248,0.2036567,-0.3709375,-0.07781257
0.8722084,-0.05463398,0.2055143,0.1808489,-0.3640699,-0.1841053
0.9335262,-0.05096418,0.1614018,0.1279864,-0.1868055,-0.1693878
0.9482134,-0.0407839,0.128901,0.09453098,0.0356286,-0.1270534
0.9074247,-0.06269895,0.1505775,0.08356305,0.2400437,-0.0988919
0.8654745,-0.07119916,0.1424552,0.04799126,0.2265132,-0.01071912
0.8671611,-0.1233952,0.1243254,-0.0007334086,0.1288934,0.1417303
0.9876556,-0.193682,-0.06921907,0.0455185,0.1174337,0.3220694
1.251628,-0.2528013,-0.3855164,0.1114953,0.3303728,0.3862544
1.511492,-0.360064,-0.4659269,0.1710781,0.6414531,0.3518056
1.618046,-0.4155941,-0.3361679,0.413481,0.695516,0.3327121
1.609874,-0.326057,-0.233911,0.5848738,0.5255214,0.1277763
1.498129,-0.1475203,-0.1558444,0.1674738,0.17461,-0.3474533
1.290106,-0.007712092,-0.01536388,-0.4533677,-0.09316516,-0.7112482
1.225068,-0.0685972,0.1045814,-0.5082665,-0.1132318,-0.6768446
1.31237,-0.2054805,0.1036743,-0.2382216,-0.3043763,-0.5253231
1.28982,-0.176439,0.02404866,-0.0703626,-0.5617362,-0.4766848
1.176206,-0.1540472,-0.03513529,0.122452,-0.848882,-0.320754
1.066273,-0.1858374,-0.08471966,0.2748913,-1.058435,-0.1502333
0.9671522,-0.1144252,-0.1358374,0.3093056,-0.7164303,-0.07241203
0.8656949,-0.08497965,-0.1076945,0.2786232,-0.5021875,0.1045677
0.7538201,-0.09067984,-0.08718845,0.2198351,-0.5899024,0.2723304
0.7524479,-0.08263695,-0.08643655,0.2829391,-0.6834589,0.3877507
0.8434687,-0.1077211,-0.09982641,0.3488577,-0.9653153,0.5187459
0.970257,-0.08425912,-0.2117761,0.3323804,-0.6927727,0.5284567
1.101966,-0.08427098,-0.2346678,0.3478806,-0.1423879,0.4471991
1.077426,-0.0833541,-0.1725958,0.3120052,0.04679165,0.3585042
1.016107,-0.04196622,-0.1323697,0.2466749,0.2478789,0.263195
1.026323,-0.03715837,-0.07454038,0.1909876,0.2240031,0.1742663
1.00731,-0.01653829,-0.07234478,0.1467252,0.2893416,0.09198015
0.9986919,-0.01447626,-0.05202943,0.1618291,0.499393,0.02229813
0.9481514,0.00370562,-0.04057105,0.1041519,0.3821532,-0.01588472
0.8814972,0.04799413,-0.08674433,-0.02742163,0.3135559,0.03288901
0.9005901,0.02749529,-0.08178502,-0.1509988,0.1769039,0.1416653
0.9238998,0.004759043,-0.08413415,-0.2377287,0.06958915,0.2668732
0.9415241,-0.035233,-0.073673,-0.2409046,0.2353901,0.3679333
0.9238611,-0.06899074,-0.05572921,-0.2941629,0.2722309,0.3963965
0.8591178,-0.05687153,-0.08281562,-0.4043053,0.2842597,0.4351381
0.8296277,-0.06539732,-0.08675225,-0.4725204,0.3457953,0.4523459
0.8269509,-0.07425537,-0.08569296,-0.5408987,0.3673968,0.4118393
0.8400096,-0.1168976,-0.07597266,-0.5459893,0.3927957,0.3946896
0.8467638,-0.1725822,-0.06537118,-0.4767498,0.3956957,0.3309144
0.8447663,-0.1452086,-0.06292353,-0.4058091,0.4694807,0.2185807
0.837092,-0.09062598,-0.01222599,-0.3247687,0.5265962,0.1250301
0.8062853,-0.06666868,0.03845312,-0.3072364,0.5439448,0.03396046
0.8107514,-0.04455974,0.03208598,-0.3824037,0.5831696,-0.03560717
0.7965586,0.04752592,-0.006618657,-0.4850933,0.5383376,-0.09264854
0.7175241,0.1545201,-0.05273691,-0.6278617,0.4179616,-0.1612391
0.6609777,0.09030086,-0.1370059,-0.8043465,0.3146106,-0.2445279
0.6928371,-0.05464059,-0.1991957,-0.9965402,0.3860902,-0.3092244
1.003348,-0.2114417,-0.1929425,-1.166878,0.6522793,-0.3959055
1.535806,-0.5334047,-0.2880374,-1.246756,1.042527,-0.6675814
1.747086,-0.6813696,-0.356041,-1.214745,1.321426,-0.9749167
1.574882,-0.4923753,-0.07578674,-0.8544396,0.983982,-0.9864413
1.509097,-0.385895,0.2658457,-0.3010021,0.3076547,-0.6921029
1.532731,-0.2882142,0.2450647,-0.2110685,0.04997606,-0.2461154
1.480185,-0.2344116,0.114352,-0.2794455,0.3015478,0.09423711
1.515294,-0.3430233,0.14455,-0.06160257,0.5660627,0.06907072
1.519906,-0.2614275,0.1520265,-0.1264872,0.3628736,-0.1490384
1.446097,-0.190648,0.1823547,-0.3155886,0.09786173,-0.220196
1.388457,-0.1991846,0.2621996,-0.2665007,0.09106164,-0.07106249
1.193842,-0.1233632,0.1859036,-0.271746,0.03592562,0.2014589
0.9778832,-0.1685047,0.1044719,-0.1917033,0.03983056,0.4268932
0.8215972,-0.1086938,0.0885374,-0.1826541,-0.1563614,0.5664924
0.7012438,-0.02863241,0.03605239,-0.3941764,-0.5213184,0.6313959
0.7369048,-0.1213867,0.02982814,-0.5144552,-0.4835937,0.5486925
0.7495891,-0.155611,0.05287828,-0.5871933,-0.4495661,0.4046487
0.7272956,-0.2510577,0.06944984,-0.5008041,-0.5093753,0.2134484
0.7746525,-0.2852014,0.07167622,-0.3933766,-0.4096337,0.05240438
0.7838762,-0.2143597,0.06212781,-0.3969286,-0.3657262,0.08901486
0.8349328,-0.2487825,0.08386581,-0.1979167,-0.3663384,0.1005851
0.9272935,-0.2533943,0.08913816,-0.03578385,-0.4391913,0.04353914
0.9865387,-0.2730845,0.08223022,0.03771439,-0.5187844,0.003197408
0.9990267,-0.282128,0.07744078,0.1291708,-0.5861845,-0.1224031
0.9568287,-0.2274132,0.056031,0.100127,-0.7382593,-0.1510979
0.967723,-0.2097412,0.01841786,0.1505869,-0.8069333,-0.06695384
1.019473,-0.1819482,-0.05374837,0.2645478,-0.6188213,-0.05060037
1.059395,-0.2102754,-0.07892201,0.3584063,-0.2513898,-0.08694832
1.057679,-0.2384636,-0.02416704,0.4375607,-0.1636876,-0.1742008
0.9493147,-0.004812045,-0.02362762,-0.1049658,-0.8622403,-0.05291594
0.9612511,0.02025399,-0.08813845,-0.1240858,-0.776534,0.1714094
0.9230839,0.06874407,-0.1036859,-0.2319499,-0.8195027,0.3157563
1.013971,0.03635093,-0.1421765,-0.3013192,-0.8442824,0.4231187
0.9512441,-0.008549804,-0.133098,-0.3048435,-0.7616757,0.5015028
0.823989,-0.05973942,-0.08052558,-0.2375446,-0.743459,0.4518162
0.8857674,-0.1199387,-0.09456,-0.09048037,-0.4873137,0.425442
0.8507445,-0.09216215,-0.08328638,-0.02839471,-0.2081907,0.3548122
0.8157791,-0.08376902,-0.06689185,0.03224026,-0.04763289,0.265666
0.8395006,-0.06669832,-0.08504568,0.09708346,0.1492346,0.3317081
0.8272046,0.04250177,-0.1174029,0.01036467,0.3561484,0.4038535
0.876857,0.1211199,-0.1763223,-0.1477635,0.679292,0.4740775
0.845785,0.1536602,-0.142312,-0.3273742,0.7789128,0.4984614
0.8156773,0.1099089,-0.06315235,-0.4625579,0.6607422,0.4365307
0.8604251,0.03184766,-0.03333608,-0.4765609,0.7650576,0.4170808
0.8600733,0.02817638,0.0134668,-0.4614239,0.8257415,0.3166321
0.8987826,0.04587636,0.02579634,-0.5048097,0.7226239,0.2103213
0.9300099,0.08740287,-0.003617409,-0.6041821,0.638624,0.2299094
0.9270451,0.1109375,-0.02111425,-0.6992529,0.5670638,0.2137388
0.9016311,0.0934351,-0.02840491,-0.7869236,0.4870848,0.1737044
0.8218503,0.09358876,-0.004266762,-0.8880338,0.3419906,0.1301447
0.785002,0.06448884,0.003493149,-0.959196,0.2601694,0.05335042
0.7701968,0.01494038,-0.03400993,-1.028707,0.3262462,-0.0525244
0.7643061,-0.09774797,-0.07060647,-1.194714,0.3685906,-0.2755764
0.8773191,-0.338433,-0.07578204,-1.331019,0.4523397,-0.5937186
1.173904,-0.5839654,-0.0522019,-1.123439,0.8091818,-0.9116383
1.522103,-0.6776151,-0.02761346,-0.6496173,1.400445,-1.062851
1.638907,-0.59047,0.03352641,-0.2710506,1.597536,-0.9469321
1.589573,-0.4285296,0.1564813,-0.1285664,0.6067133,-0.7107703
1.583107,-0.2417543,0.2487633,-0.2028535,-0.4602003,-0.3251381
1.547774,-0.1463746,0.1821357,-0.2634675,0.05556082,0.109435
1.489196,-0.2076162,0.08000249,-0.2240593,0.595471,0.2133027
1.443445,-0.1925924,0.18203,-0.2562524,0.1221405,0.1754451
1.332594,-0.1344251,0.2658539,-0.241005,0.1633959,0.2758505
1.217323,-0.1490604,0.1893409,-0.2126945,0.1881276,0.3427766
1.093835,-0.1395011,0.1670512,-0.2681166,-0.1385903,0.3912431
0.9216923,-0.16188,0.1158374,-0.2427579,0.02854986,0.4835753
0.8374313,-0.1490873,0.04911302,-0.2384983,-0.1148746,0.5685298
0.7923991,-0.08918577,0.05947954,-0.2564143,-0.343262,0.6572706
0.7203212,-0.1055587,0.03453986,-0.2620004,-0.327149,0.6628006
0.7432656,-0.1199313,0.05236156,-0.3290525,-0.4737834,0.5910961
0.7647573,-0.1740955,0.09237392,-0.2917139,-0.3544216,0.4585011
0.7386696,-0.2257991,0.09988044,-0.2051391,-0.4205307,0.2148377
0.7688811,-0.1662911,0.1213545,-0.1092319,-0.6052361,0.0113601
0.7873202,-0.12165,0.1047354,0.06083363,-0.5639699,-0.09481643
0.8206776,-0.1195852,0.1232398,0.2240751,-0.6829315,-0.1793665
0.8702505,-0.1657051,0.1544655,0.440543,-0.5790273,-0.2141618
0.8388494,-0.2519972,0.1454485,0.601518,-0.4471119,-0.2153023
0.7880379,-0.287691,0.1515993,0.6441045,-0.435823,-0.2140085
0.717922,-0.2580386,0.1228774,0.6960284,-0.4607326,-0.2032102
0.6857179,-0.1503176,0.08887637,0.6675838,-0.7832691,-0.1945304
0.771445,-0.01382636,0.02928199,0.5862873,-0.8609342,-0.1922006
0.860126,0.0229739,-0.02703649,0.5311971,-0.7187091,-0.209783
0.9340383,-0.07326472,0.04025849,0.4860232,-0.5743804,-0.2428122
0.9715328,-0.1298907,0.09657547,0.4939065,-0.34778,-0.2797145
0.9592524,-0.06293789,0.100656,0.4516267,-0.2812147,-0.3255555
0.9822849,-0.04288409,0.1107105,0.3139476,-0.03775049,-0.3336023
0.9834219,-0.09856694,0.1038871,0.2036631,0.3132801,-0.2423531
0.9924556,-0.1621923,0.07994068,0.136551,0.3563908,-0.00288422
1.123495,-0.2072328,-0.101419,0.1063197,0.3092976,0.3311615
1.326376,-0.1949575,-0.3922428,0.08696323,0.339007,0.4730932
1.444455,-0.1990725,-0.4444076,-0.05538951,0.3298397,0.3307896
1.395783,-0.2567854,-0.2301429,-0.2814683,0.1357232,0.2113804
1.394596,-0.3034712,-0.1044483,-0.3105518,0.01311948,0.1928918
1.496422,-0.3031061,-0.1900577,-0.1393031,0.1620529,0.1115315
1.467661,-0.2711223,-0.2188687,-0.06939909,0.2804357,-0.05733271
1.362049,-0.2522556,-0.1061312,-0.07936698,0.1560132,-0.2409294
1.23496,-0.2350947,-0.01952924,0.04815578,-0.03953909,-0.2240663
1.077161,-0.1724806,0.005145538,0.2526171,-0.1623135,-0.09530978
1.046142,-0.07171989,-0.01905823,0.3185374,-0.4636424,-0.1126303
1.074773,-0.002877229,-0.08197177,0.2238533,-0.7974889,-0.04162026
1.059861,0.01797949,-0.1336568,0.1523547,-0.7944933,0.07099201
1.016516,0.03734551,-0.1765224,0.06648489,-0.6143647,0.03851595
0.9279156,0.04880131,-0.211445,-0.09199327,-0.3823963,0.08856813
0.867184,0.03972225,-0.1984221,-0.1698554,-0.215452,0.1339773
0.7928061,-0.01063087,-0.1279094,-0.1810659,-0.2197793,0.1136808
0.6825492,-0.08101966,-0.07551569,-0.1078645,-0.2249831,0.1290928
0.6859067,-0.08707609,-0.09319752,0.04465008,-0.0684219,0.1365227
0.7181361,-0.03678627,-0.1164137,0.07684433,0.2180871,0.2143259
0.6342528,0.06677787,-0.1384101,-0.06929782,0.4734013,0.3138985
0.5742667,0.1759373,-0.1682599,-0.3120866,0.5940961,0.4138055
0.6506335,0.1283799,-0.1279221,-0.4209267,0.5191321,0.5511225
0.8123579,-0.01005047,-0.0748957,-0.3480284,0.4648939,0.6236143
0.9709119,-0.06228879,-0.08911511,-0.3453857,0.5715948,0.6117438
0.9585774,-0.03797395,-0.05816057,-0.3951782,0.5825285,0.5094774
0.8942739,0.01938463,0.01465532,-0.406049,0.5585771,0.3916175
0.9653423,0.0586698,-0.005751149,-0.4758982,0.5817404,0.324213
0.9232948,0.05862689,-0.05126557,-0.6686917,0.5387438,0.2565184
0.8081257,0.05311746,-0.05436266,-0.9310448,0.4298871,0.1244229
0.793983,-0.005811258,-0.07180934,-1.117861,0.2679783,-0.08938852
0.8014334,-0.1471207,-0.09715174,-1.248719,0.274154,-0.3206892
0.9961995,-0.3653979,-0.1216578,-1.331099,0.4430019,-0.6687183
1.363567,-0.5814336,-0.08864283,-1.129179,0.5012253,-1.045725
1.719848,-0.6347192,-0.00678206,-0.8315818,0.4360436,-1.102607
1.893676,-0.5347765,0.002020058,-0.7510211,0.1926016,-0.8112882
1.718074,-0.3716876,-0.01030724,-0.5756208,-0.1802809,-0.3641914
1.544643,-0.2624886,-0.01691764,-0.303503,-0.2042498,-0.002582359
1.532364,-0.3043223,-0.02822638,-0.1445125,0.4863736,0.1886899
1.440068,-0.3767456,0.06904574,0.08679232,1.113226,0.2261789
1.304769,-0.370828,0.2051589,0.1358657,0.6456818,0.07637663
1.204203,-0.2862726,0.21591,-0.02971911,0.02932972,-0.0325923
1.174059,-0.1626557,0.1071957,-0.05020571,0.1735391,0.02290174
1.092248,-0.1247101,-0.001431067,-0.09042507,0.1991329,0.1009614
0.8764892,-0.1618308,-0.02066859,-0.07532104,0.05928379,0.2180047
0.759797,-0.1541484,0.01284173,0.01358836,0.03561821,0.3868521
0.7486583,-0.16371,0.04928457,-0.05280112,-0.2367806,0.4645129
0.7304069,-0.2147119,0.1033096,-0.04704987,-0.3802632,0.4088056
0.7265974,-0.2189899,0.1603364,-0.01370495,-0.4034975,0.2996427
0.7323095,-0.2115459,0.1428468,-0.03424632,-0.5318959,0.1221039
0.766344,-0.1773806,0.08436839,0.02913605,-0.4962807,-0.02194105
0.7933884,-0.1377329,0.07916251,0.1073614,-0.5390862,-0.0005187416
0.7972835,-0.2071778,0.09081643,0.318567,-0.6378384,0.02747188
0.8172063,-0.3275266,0.1050239,0.5729245,-0.6253379,0.009185006
0.8340108,-0.4035695,0.1011006,0.6409425,-0.6240902,-0.04298976
0.8319489,-0.3846704,0.06191579,0.6817527,-0.5653956,-0.1826437
0.8069327,-0.3055898,0.03544636,0.7189089,-0.5602351,-0.2549932
0.79178,-0.2196551,-0.02245026,0.6835576,-0.4985822,-0.201741
0.7943529,-0.100792,-0.06085792,0.6491669,-0.2171125,-0.1248297
0.7735162,-0.04824688,-0.02297312,0.5875257,-0.03394683,-0.07441377
0.7560365,-0.06998649,0.01825522,0.475793,-0.2233071,-0.1304907
0.7974037,-0.06918175,0.08016997,0.4246797,-0.4740928,-0.2728113
0.8942123,-0.08890565,0.1318543,0.4432021,-0.2326673,-0.3667203
0.9555746,-0.1030318,0.1407322,0.4025672,0.1244442,-0.379351
0.9588202,-0.08683998,0.1643124,0.3092721,0.2637923,-0.3473566
1.003186,-0.08788981,0.1977418,0.2024563,0.4551335,-0.2783938
1.112367,-0.09852397,0.1591079,0.02086947,0.4559931,-0.1289775
1.231128,-0.1219764,-0.09673728,-0.143127,0.4435803,0.09690245
1.306616,-0.1497948,-0.3600989,-0.1537112,0.6812574,0.177548
1.323806,-0.1976302,-0.215209,-0.1899653,0.7322282,0.07179564
1.34472,-0.2780827,0.007743258,-0.3011347,0.3962557,0.05771981
1.462449,-0.2924856,-0.08413757,-0.2030543,0.01213798,0.1045288
1.580534,-0.2155893,-0.1500227,-0.1062571,0.2122116,0.06112549
1.449288,-0.1601292,-0.1251915,-0.3099608,0.3756202,-0.03654244
1.218003,-0.1668634,-0.06924382,-0.4135585,-0.2747965,-0.1309675
1.19213,-0.1760482,0.09831605,-0.1788337,-0.6681487,-0.04617571
1.195235,-0.1571782,0.04464027,0.1007605,-0.4589602,0.09675778
1.09579,-0.09570833,-0.07305225,0.1601677,-0.4119959,0.06171263
1.050963,0.009261672,-0.03711343,0.0327796,-0.6140298,0.09697703
1.046136,0.0602499,-0.126881,-0.07187648,-0.7363917,0.2134027
0.988496,0.0172378,-0.1468173,-0.1637405,-0.6495245,0.1927623
0.8906068,-0.007339356,-0.1349224,-0.2861285,-0.6798401,0.1759492
0.8653969,-0.01469514,-0.2025205,-0.3332019,-0.7450864,0.1918473
0.910171,-0.09493462,-0.1277794,-0.3021361,-0.6621362,0.173819
0.9014649,-0.1726781,-0.1265426,-0.1960213,-0.5195293,0.1679252
0.9051323,-0.1607424,-0.1563107,-0.04066056,-0.1471895,0.1227142
0.9081271,-0.09165807,-0.1095665,0.01107859,0.1666745,0.06143913
0.8494858,0.007293201,-0.1231741,-0.0957938,0.2659958,0.05523647
0.8415099,0.09435842,-0.09028458,-0.2283991,0.4038916,0.07380305
0.8702788,0.1063969,-0.1011598,-0.3316603,0.5023403,0.1045309
0.8879272,0.09744575,-0.1303018,-0.4397352,0.5293223,0.1534188
0.8841193,0.09736496,-0.07202848,-0.4733798,0.4894006,0.1889262
0.8664875,0.02485712,-0.05302788,-0.4503329,0.4518391,0.2002111
0.8871959,-0.02409143,-0.03196889,-0.4336503,0.4710872,0.2428051
0.8862325,-0.006307925,-0.0259386,-0.4102416,0.4811284,0.2831937
0.8690871,-0.02732724,-0.03822471,-0.4640792,0.526484,0.2575261
0.8768055,-0.01202814,-0.01884109,-0.5442584,0.55056,0.2352014
0.8885602,0.00495409,-0.02621938,-0.5501393,0.5195812,0.2322791
0.9190429,-0.01381234,-0.02942797,-0.596861,0.4674996,0.2306272
0.9088731,0.03213575,-0.0384356,-0.7359655,0.349445,0.2485495
0.8526747,0.08287534,-0.04043408,-0.87588,0.1514176,0.2590162
0.7815708,0.1118414,-0.009751223,-0.9505706,-0.03126164,0.2691783
0.70308,0.07268013,-0.01073966,-1.001089,-0.04352236,0.257239
0.713596,-0.04230164,-0.05543884,-1.125765,0.07930881,0.1677863
0.8111615,-0.1549772,-0.1468251,-1.301827,0.2335285,-0.00304061
1.022973,-0.3527541,-0.2187829,-1.421364,0.5154593,-0.2730931
1.410468,-0.5872073,-0.2214583,-1.425302,1.095204,-0.612709
1.730242,-0.7230565,-0.1475286,-1.234515,1.442446,-0.8903245
1.748581,-0.6816113,0.01701615,-0.9648974,0.6786058,-0.8991763
1.586176,-0.3600461,0.08126537,-0.9919696,-0.1187962,-0.5314443
1.466354,0.06233477,-0.04144663,-1.289991,0.4382071,0.02816113
1.414197,0.1838218,-0.1285785,-1.623918,1.024311,0.4610989
1.338733,-0.02603249,-0.07168151,-1.985553,0.8395319,0.5326821
1.254562,-0.1608437,0.007418948,-2.22302,0.6422624,0.3548169
1.222362,-0.2032879,0.03523287,-2.354422,0.231746,0.208894
1.197429,-0.3297819,0.03247975,-2.432887,0.05781535,0.0886366
1.093176,-0.3320072,-0.0364154,-2.304923,0.4818912,0.03690449
0.960596,-0.2628157,-0.1159702,-2.176924,0.6723375,0.09544255
0.8427548,-0.2218691,-0.1235075,-2.107624,0.7125973,0.1131557
0.7149592,-0.1430109,-0.1073785,-2.043192,0.4382616,0.1906825
0.6952514,-0.1512743,-0.08766389,-2.113622,-0.05504546,0.2944015
0.7938929,-0.1745398,-0.08700477,-2.12118,0.05796744,0.2169869
0.8823074,-0.1869298,-0.0770162,-2.051492,0.142747,0.0876715
0.9247349,-0.2584498,-0.05658545,-1.990467,0.05703629,-0.03517568
0.895136,-0.2762283,-0.09713442,-1.851334,0.2357129,-0.1233126
0.8587755,-0.2860614,-0.1140678,-1.718217,0.1922423,-0.0483989
0.8700021,-0.3385077,-0.09305304,-1.48539,-0.02502626,0.01841713
0.9240963,-0.3867975,-0.08625004,-1.17251,-0.1234142,-0.01433846
1.046164,-0.4053228,-0.07278735,-1.008839,0.07133408,-0.02244878
1.084743,-0.3753294,-0.05722543,-0.9099421,0.4326927,-0.03485253
0.97804,-0.3247877,0.01091286,-0.8137512,0.4283478,-0.01536664
0.8954408,-0.2454223,0.1080472,-0.7700811,0.2769878,0.03453368
0.8858022,-0.1764259,0.1472803,-0.7588017,0.188828,-0.01043997
0.9035353,-0.1424098,0.1321856,-0.7435614,0.05217381,-0.03761809
0.9042493,-0.1042647,0.09456559,-0.7205014,0.1016721,0.005367361
0.8942982,-0.09315194,0.06310371,-0.707263,0.2013881,0.01488172
0.9009217,-0.086689,0.0601224,-0.6748584,0.2061675,0.01932553
0.8864188,-0.06627481,0.08523252,-0.6461411,0.2750305,0.01737081
0.8765016,-0.0755863,0.08721937,-0.6437167,0.2551398,-0.005438069
0.8891008,-0.1059305,0.08739543,-0.6363545,0.1816137,-0.01966862
0.8894965,-0.1487838,0.1061461,-0.6257995,0.1605975,-0.01220105
0.8916716,-0.1758315,0.08891364,-0.584453,0.0398926,0.01120442
0.8940611,-0.184531,0.08422645,-0.4883758,-0.05321585,0.0001812656
0.8958121,-0.2338914,0.093615,-0.3525964,-0.1172062,-0.03620032
0.8987016,-0.2755805,0.1064314,-0.195546,-0.2850462,-0.08203097
0.8982913,-0.2607849,0.1419975,-0.06611105,-0.3852293,-0.1220367
0.9066425,-0.2390133,0.1314387,-0.005454208,-0.4240732,-0.1137669
0.909451,-0.2081892,0.1157884,0.03503955,-0.4758015,-0.09827222
0.9156117,-0.1885309,0.1275842,0.1254977,-0.4506355,-0.07200739
0.9327579,-0.2227867,0.1354911,0.2212824,-0.2952288,-0.01867615
0.9468524,-0.2750615,0.1499187,0.2682235,-0.001857103,0.0319509
0.983414,-0.3291429,0.08575482,0.3230816,0.2089516,0.09598564
1.056879,-0.3602758,-0.1001956,0.510405,0.1292346,0.128645
1.207522,-0.3518782,-0.3062441,0.7891155,-0.07750709,0.0749536
1.427162,-0.3875934,-0.4141006,0.8906648,-0.165092,-0.08304499
1.505219,-0.4650921,-0.4250809,0.8930328,-0.007599807,-0.2625413
1.415406,-0.446617,-0.4002814,1.003273,0.2600721,-0.2810682
1.381757,-0.2831544,-0.2836671,0.9973927,0.3499154,-0.2785138
1.338356,-0.111774,-0.1322682,0.8387502,0.3173751,-0.4322714
1.246651,-0.08880706,-0.107497,0.6678307,0.1582212,-0.514553
1.245299,-0.08434789,-0.132429,0.4684489,-0.200591,-0.4516239
1.208249,0.03788155,-0.1117035,0.2487772,-0.3824253,-0.3517455
1.186747,0.06213252,-0.1402667,-0.02413521,-0.4681632,-0.2060785
1.244824,-0.006391387,-0.2013958,-0.1829678,-0.5998847,-0.1443784
1.163289,-0.02876809,-0.1729991,-0.2250394,-0.4623162,-0.1992221
1.048035,-0.1301045,-0.1311608,-0.3107524,-0.4212629,-0.2295339
0.9787966,-0.1766154,-0.1362666,-0.2382491,-0.5861115,-0.2490602
0.8817735,-0.1582309,-0.1294053,-0.109984,-0.612612,-0.2518326
0.8164712,-0.2617468,-0.1440437,0.02404468,-0.6530165,-0.2211065
0.7800721,-0.2682462,-0.1466121,0.3291257,-0.6625975,-0.2152586
0.829392,-0.1971902,-0.1358724,0.5655683,-0.5973764,-0.1823171
0.8845804,-0.1505309,-0.1783566,0.6948584,-0.4143997,-0.1144435
0.8961027,-0.02689781,-0.1899116,0.7114033,-0.1082458,-0.08566967
0.9303001,0.002177371,-0.1519128,0.5937419,-0.0451896,-0.04788803
0.8983864,0.02758336,-0.1013933,0.4923423,-0.07064853,0.02521746
0.9154754,0.1319262,-0.07399246,0.3034246,0.02872155,0.08297526
0.9197789,0.09144438,-0.0994871,0.0789253,0.07150187,0.1120602
0.8245918,0.06923994,-0.09607366,-0.1074589,0.04464046,0.1115143
0.8465597,0.08450188,-0.08164757,-0.2570082,0.02885761,0.1509203
0.9012063,-0.0001634078,-0.08737996,-0.291067,0.1613397,0.2446706
0.945474,0.003757861,-0.08456669,-0.3552731,0.4157253,0.2651808
0.9405346,0.005233528,-0.08152453,-0.4307615,0.5884215,0.2118418
0.8612695,-0.08050291,-0.02011801,-0.4256113,0.5397643,0.1916959
0.897796,-0.08179658,0.0391182,-0.3586269,0.3979004,0.2271705
0.9261163,-0.06684692,-0.01310914,-0.2542231,0.3980241,0.2687946
0.9379719,-0.070772,-0.05998268,-0.2458253,0.422445,0.2850406
0.9653974,-0.06637508,-0.01071946,-0.2522038,0.4256406,0.2878494
0.9218685,-0.08171361,0.02330613,-0.1805247,0.3876168,0.2427916
0.9443713,-0.07073058,0.00915224,-0.09168213,0.2839444,0.1512105
0.9382415,-0.057633,0.03225955,-0.02712118,0.3147089,0.08858825
0.8979357,-0.02514505,0.04231846,-0.03873681,0.2807414,0.0281014
0.9073694,0.02050485,0.000713592,-0.05372558,0.1397056,-0.0623369
0.8582856,-0.01716654,-0.05918894,-0.1221089,0.1150387,-0.141966
0.8597445,-0.1287765,-0.1452321,-0.3254912,0.0615644,-0.2450562
0.9695215,-0.2905579,-0.192671,-0.4695491,0.1193642,-0.3937868
1.210968,-0.4541405,-0.2118077,-0.4250521,0.5270876,-0.5628928
1.500642,-0.581832,-0.227572,-0.2323743,1.160827,-0.7341274
1.551196,-0.6302893,-0.1114843,0.09073012,1.500408,-0.7918938
1.461551,-0.5456038,0.09842134,0.4673891,1.041531,-0.7168811
1.438513,-0.4325499,0.196443,0.6688051,0.3449624,-0.6123341
1.458692,-0.2598711,0.1494715,0.7175412,0.0667926,-0.3879161
1.489576,-0.0510465,0.1012696,0.7569527,0.1049177,-0.08997429
1.492278,-0.0461746,0.09993921,0.688362,0.2717682,0.006029238
1.377185,-0.1065376,0.09939349,0.61815,0.2753806,-0.004509062
1.173119,-0.1023063,0.1252093,0.593453,0.1675408,0.0756028
1.085414,-0.1445357,0.147596,0.5493936,0.1317367,0.1408506
0.981776,-0.1583498,0.157703,0.6448616,0.02332054,0.1957556
0.7228648,-0.1513522,0.1902424,0.7755296,-0.05689647,0.2722615
0.6458022,-0.1204958,0.1592095,0.8352312,-0.1918986,0.2410638
0.694894,-0.03437792,0.1075183,0.8241166,-0.450754,0.142922
0.63433,-0.03682121,0.1200201,0.6995077,-0.701452,0.04071516
0.6778233,-0.08434684,0.1105749,0.6326713,-0.9387383,-0.06187595
0.8221194,-0.1509803,0.06810855,0.6546212,-0.8642985,-0.07099055
0.9047388,-0.2889365,0.03904899,0.7797227,-0.6146374,-0.06183768
0.9029371,-0.3178399,0.04263443,1.004722,-0.4904367,-0.09622375
0.8353656,-0.2514194,0.06693786,1.131869,-0.4290298,-0.09958889
0.8412532,-0.2263654,0.07279842,1.165246,-0.5620262,-0.1355889
0.8432925,-0.1436048,0.08622787,1.157503,-0.7403257,-0.172761
0.8213895,-0.06475616,0.0724645,1.148766,-0.8417483,-0.1562302
0.9261055,-0.09613117,0.01623684,1.151608,-0.7073476,-0.1607336
0.9730678,-0.1142533,0.01172618,1.133254,-0.3629625,-0.1428385
0.9395665,-0.1156862,0.0485793,1.136253,-0.4000729,-0.09370431
0.932922,-0.1124196,0.07528023,1.095494,-0.4204907,-0.04128424
0.903803,-0.06113532,0.07490378,1.032464,-0.1780739,0.03823654
0.8702862,-0.03332873,0.07860037,0.9795428,-0.1987112,0.09691153
0.7964194,-0.008977614,0.1266681,0.8852178,-0.2647632,0.1123977
0.7767617,0.02223844,0.1505606,0.7913723,-0.3010016,0.09384662
0.8068798,0.02873555,0.1756084,0.674399,-0.2627136,0.09870817
0.8224039,0.02506183,0.1931428,0.589377,-0.1040919,0.2235451
1.012084,-0.04939884,0.03720398,0.5842772,-0.03968839,0.4400857
1.266076,-0.1459024,-0.1648392,0.6034083,0.2803989,0.5521914
1.358871,-0.2007563,-0.175674,0.6164215,0.5166305,0.3887384
1.324729,-0.2294036,-0.1064613,0.5143697,0.1685935,0.1356551
1.317565,-0.1660888,-0.1033939,0.3437104,-0.0559921,0.03499506
1.396741,-0.09067455,-0.09416973,0.2043874,0.119014,0.02027588
1.439835,-0.1149703,-0.06776018,0.08069128,0.187012,-0.02872244
1.447066,-0.1412965,-0.04050511,0.05893157,0.02337841,-0.1570368
1.397593,-0.1374406,0.04010747,0.1444036,-0.144066,-0.2218583
1.30588,-0.1693184,0.05377254,0.2524788,-0.294426,-0.1633923
1.278906,-0.1898305,-0.003289593,0.3328224,-0.3681054,-0.187207
1.228102,-0.152396,-0.003323669,0.301365,-0.3873671,-0.2369343
1.131818,-0.0772683,-0.04892395,0.1836852,-0.6409654,-0.2262779
1.019065,0.004877854,-0.1185882,0.06485576,-0.8142337,-0.2129148
0.9639254,-0.008512459,-0.1180155,-0.03952267,-0.7488839,-0.1239596
0.9665108,-0.06988024,-0.1198908,-0.06587422,-0.7761922,-0.02733728
0.8361057,-0.07924611,-0.1330335,-0.01662442,-0.7636709,0.02574383
0.7575712,-0.1328055,-0.1350872,0.0841205,-0.7266639,0.09541331
0.8352105,-0.1664331,-0.1318846,0.3309053,-0.6737625,0.1503888
0.8521365,-0.1528291,-0.1555314,0.5845092,-0.4662812,0.1944564
0.8748875,-0.1747173,-0.1873728,0.6726956,-0.2587817,0.219923
0.8933131,-0.1130417,-0.1872365,0.6899681,0.002968623,0.2193032
0.8541027,-0.03471678,-0.1999041,0.651359,0.2691811,0.180096
0.8390619,-0.0226823,-0.1827708,0.5680045,0.3815636,0.1213739
0.7848962,0.0004438563,-0.1118708,0.4923178,0.4985752,0.1277619
0.758496,0.0004061517,-0.05097864,0.4460133,0.685654,0.143669
0.7941353,0.003865005,-0.005660858,0.4604399,0.7507819,0.1584582
0.7829822,0.00166735,0.0183247,0.4371536,0.5273711,0.2432081
0.8160245,0.00462189,0.01724385,0.3827084,0.2815874,0.3402768
0.8898537,0.03999043,-0.01589659,0.3716477,0.3033926,0.376353
0.9066119,0.02124726,-0.03656257,0.3433836,0.4044608,0.3414857
0.9229776,0.0272388,0.02654842,0.2954238,0.4612271,0.2823748
0.9498809,0.06167499,0.08792594,0.2228837,0.5389965,0.1970819
0.9546656,0.0758411,0.06771662,0.1224581,0.5543891,0.08490997
0.9320145,0.1269982,0.04356928,-0.02113784,0.4191643,0.02360207
0.8941777,0.1324456,0.0410625,-0.2476107,0.2534962,-0.01533414
0.8605598,0.08854613,-0.006500035,-0.4875586,0.2251921,-0.05301514
0.8662494,-0.01407346,-0.0547638,-0.7230533,0.3430094,-0.1085153
1.027925,-0.2378233,-0.06173487,-0.8700188,0.6352403,-0.3430453
1.334868,-0.4425797,-0.07241594,-0.8005868,1.113587,-0.6813302
1.584592,-0.5289258,-0.01804376,-0.5512308,1.29546,-0.8352391
1.633075,-0.4995283,0.122063,-0.1760349,0.7620794,-0.7965384
1.496895,-0.3479385,0.2036402,0.01739176,0.1153191,-0.6656533
1.369633,-0.1796523,0.1727957,-0.1051241,-0.004036583,-0.4052768
1.388105,-0.1651118,0.1472161,-0.08778132,0.1254925,-0.1297297
1.406041,-0.2178193,0.184563,0.01686266,0.09974975,0.001251726
1.339346,-0.1569961,0.1807601,-0.1299904,-0.07287928,0.06673973
1.298535,-0.1184022,0.1522197,-0.2647173,-0.1726021,0.1383001
1.262669,-0.1637537,0.135112,-0.2668914,-0.1276569,0.2074996
1.165447,-0.1969579,0.08225295,-0.2119827,-0.05860414,0.2695665
1.022724,-0.2425168,0.08697089,-0.1106876,-0.03323063,0.3111984
0.8865472,-0.2188377,0.1093996,-0.1429404,-0.0773918,0.3548155
0.8324887,-0.1487747,0.07848516,-0.2404046,-0.1683455,0.37165
0.7963785,-0.1647242,0.08271104,-0.29132,-0.2613334,0.3600194
0.7623538,-0.1917135,0.07161639,-0.3209247,-0.3083549,0.3099131
0.7828231,-0.214839,0.05650336,-0.2318385,-0.3238167,0.1894638
0.7817904,-0.2313205,0.08475695,-0.1234498,-0.3980662,0.1467504
0.7999406,-0.2064721,0.09398154,-0.03410626,-0.4739051,0.1871497
0.8653316,-0.2128488,0.1113493,0.1157752,-0.4808201,0.1638123
0.9279496,-0.2224032,0.1249569,0.2334528,-0.4151259,0.07274509
0.9821597,-0.2212457,0.122724,0.3458099,-0.2857577,-0.0646566
0.958885,-0.2380014,0.1358379,0.4552705,-0.2077904,-0.1470181
0.9214581,-0.2276066,0.1389397,0.5427938,-0.2473291,-0.1228248
0.9272655,-0.2077832,0.1492603,0.6648609,-0.3447152,-0.08892621
0.9299595,-0.1853206,0.155385,0.7431103,-0.4167219,-0.04766807
0.9632041,-0.1611473,0.1357536,0.7666985,-0.4087199,-0.004349099
0.9672878,-0.1388519,0.1237349,0.7730877,-0.3271124,-0.01415617
0.9238728,-0.09667694,0.1235552,0.7477548,-0.2802683,-0.04972754
0.8991136,-0.09442141,0.1301401,0.7011351,-0.3416876,-0.08345583
0.8868476,-0.1264801,0.1285732,0.6562122,-0.3760139,-0.1123954
0.9030349,-0.1365403,0.110736,0.6562788,-0.2832639,-0.1264647
0.9014854,-0.1263531,0.09195949,0.631219,-0.1638506,-0.1389668
0.8464212,-0.0809607,0.09043717,0.5256212,-0.1477865,-0.1408956
0.7850479,-0.03109453,0.1180055,0.414627,-0.2557365,-0.1421977
0.7619799,-0.02014053,0.1464787,0.3367524,-0.4021187,-0.1874627
0.8255963,-0.05545192,0.1527463,0.3172291,-0.4742084,-0.2510816
0.9086227,-0.09350264,0.1361785,0.3055049,-0.4170242,-0.2982634
0.9453573,-0.0806932,0.1153109,0.2442769,-0.3206855,-0.306362
0.9562063,-0.07950984,0.1168843,0.2137168,-0.2261025,-0.2658932
0.9360459,-0.1002501,0.1196629,0.2103193,-0.09104784,-0.2109673
0.9394648,-0.09927376,0.1166703,0.15942,0.02516472,-0.112129
1.001946,-0.1070264,0.08366122,0.08932339,0.09057431,0.08146614
1.103186,-0.1136356,-0.06668396,0.05719609,0.08004244,0.2916266
1.214505,-0.1351224,-0.2436764,0.06465108,0.05448685,0.349202
1.282364,-0.215485,-0.2337067,0.06389179,0.09115765,0.277691
1.317012,-0.3063122,-0.146525,0.06264233,0.05438485,0.2015155
1.340063,-0.3170467,-0.1612248,0.09678038,0.01522778,0.04409881
1.409461,-0.2520715,-0.1446557,0.1283827,0.09198357,-0.1300561
1.509151,-0.2026683,-0.1151421,0.1210584,0.1757682,-0.2346641
1.454083,-0.1474302,-0.1060145,0.07140288,0.1876244,-0.377044
1.294113,-0.09063481,0.04170529,0.04275778,-0.07955739,-0.3926378
1.199454,-0.09979243,0.136403,0.121806,-0.4852093,-0.2372106
1.151633,-0.1005734,0.06091545,0.2421769,-0.58878,-0.116733
1.110097,-0.06803096,0.002746487,0.2689739,-0.587923,-0.009695839
1.049785,0.0002191896,-0.04768093,0.1797005,-0.6778871,0.04234438
0.996157,0.09163373,-0.08874997,0.01613198,-0.7279831,0.03982262
0.9424662,0.08276414,-0.08683181,-0.1914554,-0.8742927,0.09465123
0.8914553,0.03042353,-0.1052513,-0.3318181,-0.9897605,0.1753896
0.9271839,-0.01472962,-0.1389545,-0.3137963,-0.8199021,0.27945
0.9550568,-0.1081535,-0.1423928,-0.2211845,-0.5799554,0.3326287
0.948105,-0.1295949,-0.131708,-0.1190496,-0.3578392,0.3068288
0.9529268,-0.0648463,-0.1353444,-0.07562913,-0.1005469,0.2679286
0.9028229,-0.03314143,-0.1104044,-0.1404831,0.07204873,0.1651596
0.8783879,-0.01519311,-0.09573034,-0.1959537,0.1692002,0.07542965
0.8574971,0.01711847,-0.1156291,-0.252771,0.219378,0.07633347
0.7918105,0.056622,-0.1149613,-0.3674329,0.2267127,0.1241697
0.8058575,0.07060287,-0.1231548,-0.4495094,0.2724792,0.2115552
