accx,accy,accz,gyrox,gyroy,gyroz
0.6292234,0.1060658,-0.0003893258,0.3226748,-0.2327913,0.3219186
0.6496102,0.03336769,-0.02987041,0.2580576,0.2154688,0.3913206
0.8726365,0.03513867,-0.01852339,-0.07167274,0.605049,0.2851122
1.164015,0.1473728,0.03977171,-0.4351793,1.435781,0.2346887
1.27811,0.235568,0.1142919,-0.6593383,1.821582,0.4596138
0.9806071,0.1520593,-0.03011194,-0.8145245,1.15395,0.6204739
0.5408304,-0.04760921,-0.2023545,-0.9082569,0.7461927,0.3769927
0.4361368,-0.1973952,-0.2279466,-0.6136574,-0.7727339,-0.007597149
0.4977787,-0.3519984,-0.2314606,-0.1830265,-2.059827,-0.1203957
0.7906451,-0.5211446,-0.1757945,-0.4577949,-1.810578,-0.07858057
1.517343,-0.6852202,-0.08092325,-0.7138262,-1.294293,-0.05273604
1.972329,-0.6668679,-0.07064606,-0.3874607,-0.1847399,0.02692876
1.836136,-0.4639756,-0.3499955,-0.3578005,1.48856,0.1419727
1.745761,-0.356247,-0.5608473,-0.3491083,1.987409,0.2059502
1.721382,-0.3008039,-0.09682782,0.1511725,0.5480489,0.2575062
1.295618,-0.1898249,0.3822465,0.5094568,-0.7981478,0.3594161
0.8595723,-0.0651636,0.1716083,0.2607509,-1.065986,0.4132413
0.8482946,-0.1012071,3.781186e-05,-0.07736716,-0.8804342,0.4218053
0.8602077,-0.2511557,0.1458569,0.1714976,-0.3412329,0.3363793
0.7388799,-0.2291484,0.0810954,0.3038047,-0.07830361,0.1249026
0.6376553,-0.1618138,0.0764273,0.05046584,0.006928585,0.03042972
0.4810665,-0.07121707,0.1186993,0.02811461,-0.1951625,-0.06971261
0.355798,0.02803028,-0.02406564,-0.1721453,-0.6384144,-0.1810194
0.3672641,-0.04615217,0.0488058,-0.4312849,-0.7220569,-0.1301278
0.4512977,-0.08894858,0.08571024,-0.6256866,-1.09992,-0.2550038
0.5754433,-0.1227744,0.01817237,-0.984249,-1.245012,-0.4508428
0.7523812,-0.1705681,0.08882778,-0.874911,-1.036218,-0.5054472
1.029483,-0.1804609,0.004308517,-0.5673532,-1.211023,-0.60623
1.2897,-0.3016434,-0.08973235,-0.276024,-1.003955,-0.5823045
1.302195,-0.3058677,-0.1631228,0.07328082,-0.2458532,-0.4862003
1.20942,-0.2822175,-0.2265049,-0.05544267,0.5788035,-0.4929758
1.190309,-0.3661335,-0.07421047,-0.06511623,0.4683297,-0.4108067
1.089623,-0.2924521,-0.009823182,0.2080138,-0.5439333,-0.2925226
1.04718,-0.2261786,-0.06056403,0.2081031,-1.067586,-0.2379616
1.218178,-0.204482,-0.1291497,0.2383371,-1.150149,-0.2004342
1.330476,-0.1695956,-0.3146037,0.3556201,-0.5344412,-0.1463412
1.341386,-0.1963442,-0.5169167,0.5295622,0.4302839,0.006487969
1.454515,-0.1041299,-0.6280417,0.6785832,0.6754945,0.1254331
1.710583,0.01786004,-0.6178933,0.675238,1.182054,0.1548052
1.815028,0.05422841,-0.6060663,0.5823308,2.35761,0.05161466
1.404876,0.01926874,-0.4126391,0.04863469,3.41334,-0.4955065
0.7959824,-0.05754503,0.05297927,-0.4126436,3.394781,-0.9019708
0.5954737,0.06153187,0.3125054,0.007746283,1.558424,-0.3394862
0.6928067,0.2179325,0.3157824,0.5029023,-1.38313,0.3563357
0.7617185,0.1858349,0.2187071,0.3220411,-3.435783,0.2281706
0.9865958,0.05358229,-0.07716956,-0.0973424,-2.847094,-0.0701871
1.28106,-0.1029225,-0.3603345,-0.2891446,-0.8196502,-0.03190231
1.264986,-0.05400334,-0.3062981,0.01201066,0.8768944,0.02051685
1.050849,0.08277879,-0.09103293,0.4442887,1.477791,0.2297834
0.8332248,0.0764836,-0.03016351,0.1520879,0.186739,0.4319119
0.7617208,0.07818498,-0.002809521,-0.2406081,-0.9455396,0.3398985
0.8966385,0.02090523,-0.03509918,-0.1276493,-0.9122339,0.3272084
0.9863021,-0.04174322,-0.1429728,-0.2113506,-0.6340083,0.2315833
1.009479,0.0019006,-0.08417738,-0.2424315,0.4428442,0.07716309
1.031627,-0.003627499,-0.05357234,-0.1944104,1.027322,0.1538773
0.9708256,0.02335809,-0.04654074,-0.326636,0.7821538,0.2345255
0.8763468,0.05898414,0.04728083,-0.1208912,0.4629662,0.4073146
0.8223236,-0.0241963,0.006139424,0.06831866,-0.3161921,0.5275064
0.8536177,-0.1119777,-0.06733994,0.110941,-0.3079295,0.3618498
0.8904747,-0.1231047,-0.1358737,0.1690251,0.09225392,0.2195665
0.8456317,-0.07320065,-0.1623443,0.09213582,0.08043281,0.2448514
0.8110628,-0.05702365,-0.09235594,0.1403961,0.2696825,0.282236
0.8001991,-0.06343737,-0.1068045,0.1264191,0.1628303,0.2374308
0.8315922,-0.02594559,-0.07362338,0.07293006,0.1317535,0.2435801
0.9305249,0.01117096,-0.02798242,0.1146729,0.2710886,0.234088
0.946342,0.03412955,-0.07737698,0.02847674,0.5022376,0.1661982
0.8576071,0.02510801,-0.03606605,-0.1257638,1.286319,0.1339664
0.7508621,0.03216214,0.06456681,-0.4149727,1.58479,0.003990047
0.6213156,0.05078682,0.1359625,-0.4880411,1.029736,-0.05725728
0.529521,-0.03877752,0.01051694,-0.2029596,0.1518866,0.005100034
0.6370293,-0.2302915,-0.2228933,-0.1656736,-0.9524092,-0.02914396
1.068214,-0.4433491,-0.2132824,-0.4771735,-1.89462,-0.1359779
1.607596,-0.5290636,-0.1659694,-0.8008897,-1.804279,-0.3269143
1.815094,-0.4616486,-0.2136502,-0.7805194,-0.3060723,-0.4704097
1.700224,-0.3728246,-0.1804731,-0.593157,1.138882,-0.4086039
1.559592,-0.2546385,-0.09109445,-0.3507074,1.020184,-0.2147308
1.40891,-0.1645399,0.07058805,0.1387408,-0.07691079,0.0188606
1.353136,-0.1427156,0.1581576,0.2675685,-0.6343074,0.1396183
1.458728,-0.0650801,0.02833491,0.1446126,-0.4536752,0.2137421
1.383943,-0.01848904,-0.04396288,0.2697229,-0.2632418,0.3551107
1.111226,-0.09762491,0.05386883,0.2308169,-0.05146356,0.3616491
0.8212943,-0.161734,0.1259724,0.2642041,0.1276697,0.3049909
0.6492931,-0.1510686,0.1226623,0.4659581,0.003263255,0.3482025
0.6723291,-0.1131904,0.1174185,0.4667641,-0.4328825,0.2776587
0.5458988,-0.08046554,0.1192441,0.3991566,-0.9817852,0.1314123
0.4909291,-0.07223678,0.1033888,0.1560801,-1.120717,0.02784238
0.6554801,-0.08510019,0.04714623,-0.1827804,-0.7322269,-0.11445
0.6064505,-0.1076152,-0.02818399,-0.4684618,-0.2630989,-0.2220633
0.6572691,-0.1212671,-0.0327645,-0.7247832,-0.2145197,-0.2756904
0.7330769,-0.1290783,-0.001707685,-0.7453889,-0.4318273,-0.1904156
0.6839842,-0.137378,-0.01462176,-0.6902659,-0.6841659,-0.06999794
0.8824139,-0.149904,-0.007619828,-0.6293165,-1.067351,-0.186516
1.029631,-0.1919243,-0.009316651,-0.442624,-1.091479,-0.2583963
1.171554,-0.2543728,-0.08867764,-0.3465876,-0.6334219,-0.2134139
1.269674,-0.2859046,-0.1799434,-0.5117131,-0.1646165,-0.2597962
1.136402,-0.2793147,-0.2001034,-0.6470459,-0.01726921,-0.2872876
1.204618,-0.2844816,-0.1005413,-0.3109796,-0.05751582,-0.2792738
1.166322,-0.2588187,-0.01186182,0.06311972,0.04014093,-0.1970354
1.010214,-0.1942342,-0.05608496,0.04769796,-0.203925,-0.09380537
1.100954,-0.1988882,-0.08907645,0.1259071,-0.7387249,-0.114749
1.117381,-0.2150651,-0.1197104,0.4320579,-1.021964,-0.08800351
1.182103,-0.1884563,-0.3548489,0.6715049,-1.044734,0.01111809
1.347448,-0.1616058,-0.7211422,0.7117681,-0.4337241,0.04878268
1.576456,-0.1036459,-0.8849293,0.6597037,0.6699676,0.09169545
1.812042,-0.07124665,-0.7469778,0.5575312,2.098828,0.05691871
1.530263,-0.07635161,-0.50172,0.104885,3.98939,-0.2092272
1.078863,0.002365567,-0.1595601,-0.339323,4.406897,-0.3443164
0.7798628,0.1711734,0.2353724,-0.2065588,1.93274,0.06078711
0.4626932,0.2689679,0.4122216,-0.05424446,-1.443173,0.4779481
0.62603,0.1112245,0.2702631,-0.2153437,-3.262278,0.2537474
1.0725,-0.1551562,-0.1433348,-0.2585338,-2.607875,-0.06999042
1.236236,-0.1958552,-0.4482667,-0.2494751,-0.7307281,-9.309664e-05
1.313513,-0.04226598,-0.3240713,-0.1479051,0.6098629,0.1090985
1.204507,0.05817392,-0.1780162,0.09542519,1.141475,0.2160436
0.9515335,0.0268022,-0.1711238,-0.08392844,0.378912,0.1348343
0.8406911,0.02439851,-0.01104618,-0.3071207,-0.5625151,-0.09238347
0.7826768,0.1328641,0.1124335,-0.1403687,-0.5988616,0.1249197
0.8957763,0.161497,0.01818412,-0.1857872,-0.9684011,0.3097308
1.035059,0.1163668,-0.04841134,-0.2763275,-0.6959269,0.2510655
1.028194,0.06529185,-0.07955122,-0.2291679,0.1508554,0.2991362
1.071139,-0.04553779,-0.1225975,-0.3046247,0.4096731,0.210513
1.005584,-0.05269281,-0.0445199,-0.1969151,0.7688703,0.2176459
0.9189124,-0.00790251,0.01229739,-0.01689464,0.3872442,0.3222627
0.9315354,-0.0622914,0.000789825,0.009782806,-0.03984407,0.3115173
0.9138906,-0.08799968,-0.00496349,0.06174278,0.1538515,0.3121266
0.9589438,-0.1020712,-0.07046734,0.1224401,0.1345733,0.1789019
0.9469805,-0.09538836,-0.08732818,0.1423664,0.5720731,0.1148868
0.8821362,-0.02851058,-0.0861193,0.08820057,0.6519627,0.1341279
0.8173898,-0.00757759,-0.1314317,0.002461294,0.4692129,0.09950214
0.7482623,-0.002939692,-0.1227417,-0.1032685,0.6259657,0.1674889
0.8621928,0.0142351,-0.08543467,-0.2208876,0.2781871,0.2125091
0.9637396,0.01755828,-0.04846871,-0.2486951,0.2051499,0.3038754
0.9368813,-0.03003999,-0.08849915,-0.3324001,0.4586693,0.3570754
0.8775696,-0.1135278,-0.1448269,-0.5252826,0.6927481,0.2600918
0.8130488,-0.07895781,-0.05898181,-0.7167586,0.907578,0.2252658
0.8965445,0.05324584,0.1134543,-0.7826885,0.6960701,0.1806077
0.9469279,0.1273187,0.244497,-0.6447749,0.5251381,0.2452907
0.769984,0.04221906,0.09429272,-0.5998704,0.2437597,0.342915
0.6120929,-0.1315846,-0.1940725,-0.6889368,-0.1094969,0.155148
0.669195,-0.1868187,-0.2090935,-0.6924489,-0.4911686,-0.050895
0.8762955,-0.2544975,-0.1587768,-0.7108457,-1.282148,-0.1492396
1.211599,-0.4378148,-0.2311694,-0.7909967,-1.379013,-0.2952612
1.605438,-0.5121939,-0.3201472,-0.9247224,-0.5278656,-0.4516527
1.712016,-0.4817829,-0.4041349,-0.9109045,0.5269242,-0.5163765
1.609845,-0.3904228,-0.250725,-0.5807456,1.168738,-0.4133048
1.494724,-0.1883785,0.08474403,-0.2970693,0.5019876,-0.2251301
1.251417,-0.02535911,0.2093702,-0.1295657,-0.2062456,-0.06698075
1.206411,-0.01254136,0.1422424,-0.01919823,0.2093484,0.08064125
1.265253,-0.02981537,0.1069396,-0.1897067,0.1354819,0.1887939
1.069071,-0.01915832,0.1352639,-0.3872683,-0.4509626,0.2332819
0.9361211,-0.07221465,0.06417272,-0.3900226,-0.4026275,0.369066
0.797301,-0.08973699,-0.06465599,-0.3867174,-0.2335343,0.5043342
0.6632277,-0.06182956,-0.05344275,-0.4048919,-0.09431586,0.4091116
0.7197972,-0.1359066,-0.01377888,-0.4372551,-0.1745676,0.2978983
0.6684169,-0.1818934,0.00627828,-0.447204,-0.5334845,0.2628627
0.6559848,-0.1845108,0.0210157,-0.4104962,-0.5108961,0.2005789
0.7092101,-0.2234746,-0.03510109,-0.3669377,-0.4705507,0.1818622
0.6978447,-0.2344633,-0.06176276,-0.234129,-0.2655698,0.06227983
0.7824981,-0.2097856,-0.05100427,-0.1487337,0.2515393,-0.1188097
0.7400258,-0.1169695,-0.04883856,-0.2254087,0.2910505,-0.1315551
0.6964356,-0.05249038,-0.04461459,-0.3452921,0.1235224,-0.1516494
0.8507272,-0.08334043,-0.02215632,-0.4768387,0.06118557,-0.2446
0.9382925,-0.09205998,0.02446705,-0.4646697,0.04299016,-0.2638721
0.976712,-0.09242094,0.01900664,-0.4294958,-0.1035196,-0.2192467
1.083644,-0.1475147,0.03762369,-0.6406114,-0.5385039,-0.1713459
1.285401,-0.2233794,0.115619,-0.7958579,-0.5881699,-0.2069467
1.348531,-0.208281,0.1311004,-0.7925723,-0.07933759,-0.2441536
1.19257,-0.1256638,0.1190962,-0.8603003,0.4187235,-0.1527461
1.150043,-0.09246714,0.1295687,-0.9537903,0.4262083,-0.08418576
1.133753,-0.09871958,0.1445102,-0.9840112,0.06693456,-0.08198838
1.063667,-0.1348165,0.1228598,-0.8793577,-0.3577537,0.006213041
1.03748,-0.1652716,0.03881075,-0.6837259,-1.099502,0.143765
1.070961,-0.1888457,-0.08663727,-0.5806888,-1.280406,0.1590939
1.348618,-0.2074402,-0.3011136,-0.4772247,-0.0008269154,0.01352974
1.610857,-0.1539229,-0.5191024,-0.2250735,1.726891,-0.1590586
1.50558,-0.0111663,-0.5038184,-0.08436641,2.354634,-0.2368227
1.304524,0.1380062,-0.3985399,-0.2751766,1.267228,-0.1622079
1.207038,0.02180915,-0.4247809,-0.6339235,0.3633334,-0.09408353
1.044533,-0.1534836,-0.269296,-0.9032578,0.8673138,-0.231842
0.8217769,0.0141622,0.04705293,-0.8228218,0.7259916,-0.3153625
0.7851773,0.09871106,0.1059945,-0.5725016,-0.3607703,-0.2096849
0.9145857,-0.02327012,0.04293642,-0.5477685,-1.062899,-0.1687101
1.028947,-0.03533147,-0.02991153,-0.5696802,-1.195052,-0.2125703
1.093911,-0.06890321,-0.1426883,-0.5758545,-0.3796171,-0.2321002
1.083042,-0.04962097,-0.1728707,-0.6311651,0.456378,-0.2014834
0.9759106,0.04340999,-0.1596306,-0.5876015,0.1702205,-0.1652509
0.8251565,0.03863944,-0.1076136,-0.6303256,-0.3238995,-0.1385463
0.7932718,0.05416763,-0.07528737,-0.7731491,-0.5096519,-0.09692971
0.8987893,0.06283122,-0.09337565,-0.8853873,-0.3113425,-0.0802749
0.9740744,0.05602934,-0.08625286,-0.947398,0.1501852,-0.02436007
0.9895339,0.0955114,-0.07324048,-0.8776189,0.1220763,0.07265141
0.9701575,0.08467914,-0.03661401,-0.8728049,-0.102148,0.1581213
0.9684455,0.06589782,-0.03834119,-0.8832692,-0.08998651,0.2561396
1.034206,0.06312853,-0.05081888,-0.7799784,0.07081596,0.3089705
1.113409,0.04683409,-0.02480155,-0.6791998,0.3295349,0.358475
1.155379,0.02130992,-0.02845315,-0.5297734,0.2696757,0.3989409
1.139753,-0.05090943,-0.01622246,-0.4941856,0.2342495,0.3356989
1.097381,-0.08884881,-0.0280042,-0.5138364,0.6361988,0.2341068
1.020429,-0.04648882,-0.04048587,-0.3898099,0.840758,0.1456593
0.8813684,0.01425157,0.009215896,-0.3073031,0.6172991,0.1601865
0.7833078,0.05823107,0.05349626,-0.2231756,0.01814389,0.2969216
0.8027901,0.01604705,0.08141095,-0.1440634,-0.6262614,0.3771359
0.8625857,-0.04905496,0.03922337,-0.1383107,-0.5666337,0.3532519
0.9088437,-0.008941723,-0.07383007,-0.1288423,-0.02358247,0.3283258
0.9966848,0.04409983,-0.1671984,-0.1652968,0.3069791,0.3575623
1.042752,0.04910657,-0.1490829,-0.1630758,0.2842794,0.364583
0.9616594,0.02997848,-0.0875247,-0.2031381,0.1814548,0.3278587
0.8989406,-0.03346848,-0.140265,-0.3833124,0.2576299,0.2942972
0.8821353,-0.03870853,-0.1305278,-0.4729559,0.4451945,0.2372247
0.869965,0.009099352,3.050532e-05,-0.4463195,0.6898578,0.2526221
0.851773,0.0009555992,0.08959949,-0.3809784,0.8120792,0.317553
0.7165628,-0.01572053,0.1277921,-0.3341105,0.6288055,0.3166084
0.5441924,-0.02045764,0.08867306,-0.3521627,0.3688983,0.3710461
0.5227196,0.04955817,0.0893947,-0.3496152,0.008962613,0.4388536
0.6469663,0.1116876,0.07577377,-0.3524558,-0.5625488,0.4226916
0.7950015,-0.1372914,-0.1611297,-0.4551477,-1.176446,0.3246246
1.05901,-0.5718649,-0.386475,-0.6892416,-1.535935,-0.004249068
1.612612,-0.7787639,-0.4268838,-0.8563156,-0.8612807,-0.4602362
2.014073,-0.6698628,-0.3672646,-0.7181424,0.625647,-0.6493767
1.880183,-0.4796761,-0.2483388,-0.4917946,1.115372,-0.5371959
1.622927,-0.3247798,-0.1483857,-0.3722584,0.04886314,-0.4311368
1.491539,-0.2048251,-0.1244316,-0.2583915,-0.8563755,-0.3334723
1.426388,-0.2095982,-0.1102619,-0.1862988,-0.3041908,-0.1306104
1.429352,-0.1508727,-0.07649963,-0.211587,0.2128689,0.08220206
1.304247,-0.02218681,-0.09707666,-0.2447142,-0.1643471,0.3026492
1.044104,-0.07716605,-0.1067494,-0.2612442,0.005581897,0.4477566
0.8169271,-0.1042374,-0.104031,-0.2886037,0.1799975,0.5003026
0.6469773,-0.1065012,-0.125351,-0.2363403,-0.07351589,0.5182111
0.6347345,-0.2052697,-0.07450902,-0.08255976,-0.05161946,0.4051623
0.7105745,-0.2431666,-0.03303062,0.08881923,-0.6119185,0.2478631
0.8021129,-0.3237433,-0.03616623,0.282461,-1.051341,0.02254024
0.9423814,-0.3625411,-0.09136536,0.4416452,-0.5798058,-0.1775012
0.9512979,-0.2909548,-0.1713364,0.5509627,-0.09385266,-0.2041913
0.8518227,-0.2748459,-0.1126605,0.6033269,0.347802,-0.2845655
0.7386545,-0.2005398,-0.02436371,0.5393723,0.4153159,-0.2752523
0.598052,-0.09203624,0.01498164,0.5135166,0.08982297,-0.1787974
0.521346,-0.02731392,0.02566076,0.4430919,-0.1845235,-0.140006
0.4998631,0.01864798,-0.001289892,0.2672668,-0.4179132,0.02197852
0.5189804,0.0146315,0.03899567,0.2222323,-0.2919684,0.07001616
0.5450131,0.04098806,0.0819149,0.08630847,-0.0489203,-0.0129198
0.5741534,0.0341332,0.08308537,-0.2466246,-0.05969862,-0.1905096
0.709949,-0.05681194,0.07635288,-0.5091072,-0.3722721,-0.5761143
0.8614148,-0.105677,0.009176977,-0.6015366,-0.9197433,-0.6498295
0.8825037,-0.09528757,-0.06550821,-0.4822871,-1.064122,-0.4249076
0.8946024,-0.1248987,-0.1625008,-0.3174243,-0.8706644,-0.389755
1.167433,-0.3408152,-0.3201458,-0.234864,-0.7903914,-0.4674262
1.443869,-0.5410685,-0.3853463,-0.2116621,-0.2865709,-0.494399
1.265269,-0.3837951,-0.322588,-0.1913764,0.6571368,-0.3699074
1.015831,-0.1545202,-0.2958772,-0.0348879,0.8876285,-0.1889666
1.003456,-0.1773906,-0.3021676,0.1336888,-0.1064544,-0.1547932
0.9853458,-0.2585537,-0.3279099,0.3398524,-1.641636,-0.179439
1.204203,-0.3371235,-0.5574416,0.6720764,-2.282977,-0.2108698
1.692335,-0.3892006,-0.8346036,0.8512711,-0.8474184,-0.2813946
1.936438,-0.1958519,-0.8458234,0.8547246,1.653564,-0.2847705
1.93501,0.04034608,-0.70375,0.6746543,2.995789,-0.2106266
1.662053,0.07328508,-0.4155049,0.3732514,2.667073,-0.1388591
1.029313,0.0817984,0.146955,0.4347587,1.609049,0.07093251
0.6441055,0.09060796,0.5000262,0.8162519,0.1848266,0.3879871
0.6911658,0.02783973,0.3228076,1.021249,-1.300549,0.4100538
0.7089703,-0.02534842,0.09882297,0.8400843,-1.745387,0.1494367
0.7441864,-0.07208797,-0.12394,0.5931878,-1.396078,-0.05775781
0.9777277,-0.1171391,-0.4257188,0.7256378,-0.8156269,-0.1477932
1.125226,-0.09821405,-0.4294815,0.8862005,0.5249974,-0.1376357
1.080378,-0.04485617,-0.3926234,0.8277097,1.0672,-0.0884391
1.044566,-0.00219485,-0.4211008,0.6829258,0.4106343,-0.09016707
0.9866492,0.02283271,-0.2618098,0.3228597,0.529448,-0.1655291
0.9466697,0.00418818,-0.1622399,0.2351148,0.5322773,-0.2883154
0.963419,0.00488986,-0.07075177,0.4516077,0.07621623,-0.2945442
0.8919213,0.05129847,-0.005095038,0.398313,-0.115272,-0.1798067
0.8711621,0.06362202,-0.1074279,0.3860133,-0.6846541,-0.08144965
0.9172966,0.03686611,-0.1474916,0.4223562,-0.7578083,0.004153184
0.9380163,-0.006529803,-0.185151,0.4085123,-0.2722378,0.02218892
1.000001,-0.00926268,-0.2011162,0.4939937,-0.01521229,-0.001696094
1.00588,0.02913746,-0.1549192,0.3815712,0.1970236,0.01249295
0.9885863,0.03597063,-0.1763835,0.2317089,0.1608047,0.006733358
1.014174,0.03699651,-0.1493417,0.1939871,0.4134317,0.03554826
1.022811,0.03223708,-0.1274043,0.1521537,0.8474749,0.105388
1.026145,0.02110992,-0.1357132,0.1172921,0.8118107,0.1558555
0.9863583,-0.001382645,-0.08505167,-0.008096352,0.7032687,0.2014525
0.9280743,-0.05609822,-0.05921976,-0.002115747,0.5877248,0.1998469
0.8920418,-0.06351245,-0.05837304,0.137133,0.65478,0.22487
0.852646,-0.05288867,-0.06934588,0.2193885,0.8199125,0.2911236
0.8242999,-0.07829419,-0.07249292,0.2868948,0.7745775,0.2642001
0.8287528,-0.08583221,-0.06979482,0.1999966,0.7100923,0.1970792
0.8714547,-0.07743211,-0.0847091,0.1209572,0.5084324,0.184344
0.8913045,-0.05638676,-0.07668039,0.2148385,0.3524343,0.2888054
0.8601837,-0.04225282,-0.09949944,0.3504606,0.3312881,0.4277284
0.8279697,-0.06924408,-0.1192912,0.4658562,0.4078875,0.3697717
0.823899,-0.07389866,-0.062538,0.3036025,0.6929612,0.2387142
0.8112666,0.02317255,0.01426525,0.0700135,0.651076,0.2036447
0.717685,0.107501,0.04021185,0.179558,0.3038569,0.1730801
0.5849605,-0.02112987,-0.06946763,0.2212864,-0.04373083,0.1054256
0.5709795,-0.2415877,-0.2297754,0.03380864,-0.5254981,-0.08881525
0.8814324,-0.3770238,-0.2639816,-0.1282835,-0.8976721,-0.3112161
1.464976,-0.4674042,-0.1917671,-0.3121492,-0.8204097,-0.3524477
1.80764,-0.4472979,-0.1468041,-0.337203,0.02691981,-0.3260846
1.710226,-0.3811468,-0.1639667,-0.2994473,0.9338064,-0.3230179
1.617841,-0.3996586,-0.0870329,-0.3078935,0.802255,-0.3908772
1.589517,-0.3262263,0.1308452,0.2131475,0.2667456,-0.4059722
1.325471,-0.1639951,0.2427819,0.7811659,-0.4184291,-0.06155793
1.099486,-0.06549805,0.08582709,0.5809262,-1.214418,0.3843913
1.102046,-0.07871008,-0.06615308,0.3545761,-0.6250101,0.4795155
1.075004,-0.1964022,0.04076279,0.4848715,0.3149263,0.3474372
0.9448064,-0.2010069,0.1219119,0.4369615,-0.2698425,0.2663211
0.761986,-0.1278253,0.07090423,0.3215831,-0.6338662,0.1836981
0.6971079,-0.1190554,0.07538188,0.2897422,-0.5449001,0.1722075
0.7269159,-0.1008295,0.004615728,0.1172006,-0.9783204,0.2539129
0.6702245,-0.1449251,-0.09451931,-0.1275784,-0.6554298,0.06760671
0.638435,-0.1582395,-0.07861195,-0.3608106,-0.3013838,-0.1674518
0.6182717,-0.1184898,-0.03534487,-0.4257073,-0.4843867,-0.1648233
0.6270704,-0.1412958,0.05163162,-0.2128431,-0.5176364,-0.1442873
0.7534951,-0.1339774,0.05882542,-0.01386882,-1.195499,-0.1136072
0.9092273,-0.1568709,-0.1066416,0.06582617,-1.606486,-0.2005415
1.05309,-0.1618968,-0.2685097,-0.1249575,-1.08873,-0.3845575
1.147005,-0.1287214,-0.2965434,-0.3786676,-0.3555794,-0.414343
1.200505,-0.1436688,-0.1943185,-0.1491957,0.5414886,-0.2498162
1.086733,-0.102656,-0.1019582,0.01881239,0.6788569,-0.03286431
0.8888308,-0.1071221,-0.02907296,-0.1234853,0.187388,-0.1298688
0.9254897,-0.1513537,0.01160073,-0.08008327,-0.05682732,-0.2701243
0.9140352,-0.1556873,-0.04688666,-0.0436783,-0.3653555,-0.1944938
0.805279,-0.1880098,-0.06005296,-0.0776491,-0.7532413,-0.2328636
0.9269554,-0.1904938,-0.08785019,-0.007041318,-0.9792312,-0.2198007
1.0681,-0.2499889,-0.1798567,0.108921,-0.8948381,-0.196774
1.101215,-0.3330692,-0.2342076,0.2343866,-0.650904,-0.2690267
1.081561,-0.2984946,-0.3098989,0.2252796,-0.4412418,-0.2302841
1.025199,-0.2808864,-0.3115232,0.1940268,-0.2063557,-0.2940117
1.053631,-0.2871702,-0.2076394,0.3559539,0.0520804,-0.3709172
1.052813,-0.2067545,-0.136044,0.4996816,0.2945661,-0.2682351
1.019203,-0.1245459,-0.1650887,0.4924519,0.1192067,-0.08181839
1.124297,-0.1586505,-0.2850942,0.4376527,-0.2193214,0.1013837
1.278496,-0.2186346,-0.3359607,0.4953061,-0.08702362,0.002450281
1.402755,-0.206395,-0.3502217,0.9177446,0.2322979,-0.1565426
1.483989,-0.1569223,-0.5011631,1.260412,0.7569194,-0.06965658
1.55262,-0.08464787,-0.7467843,0.739294,1.838615,-0.1098488
1.523598,-0.08317173,-0.7727495,0.1500939,3.293923,-0.3303778
1.151633,-0.1047183,-0.3132807,0.4976996,3.903135,-0.454027
0.6177497,-0.0007576007,0.2649933,0.8835448,2.379806,-0.3773005
0.3748151,0.06829719,0.4553788,0.8797859,-0.2098384,-0.175763
0.5993812,0.0239048,0.2651664,0.9654416,-2.249715,-0.1467067
0.9439223,-0.0308067,-0.001072563,0.7539021,-2.64372,-0.2544209
1.121126,-0.06089558,-0.2360919,0.5419778,-0.7827363,-0.2688751
1.284759,-0.007866668,-0.3746349,0.6571927,1.054367,-0.1752212
1.212944,0.07416184,-0.1741898,0.5279996,1.141476,-0.0394365
0.9819956,0.08232708,-0.01898541,0.3486787,0.3665901,-0.0641862
0.9456004,0.05559553,-0.08735501,0.14467,-0.5037026,-0.104507
0.8890449,0.05092078,0.02043172,-0.04086366,-0.6519293,-0.01135311
0.9497616,0.0511114,0.007341648,0.09916098,-0.303543,-0.03382942
1.05924,0.02934352,-0.09433457,0.08838639,-0.208471,-0.03306079
1.014415,0.01022864,-0.02965545,0.04421701,-0.2638614,0.05201289
1.051244,-0.008536704,-0.06990454,0.1627038,-0.3997009,0.09413768
0.9950651,-0.03977034,-0.07326147,0.2066723,-0.3429101,0.1672419
0.9702816,-0.05387308,-0.03200869,0.3637397,-0.2829184,0.1623013
1.049902,-0.03651583,-0.06524876,0.4498086,-0.228431,0.1228918
1.023089,0.007683696,-0.06448473,0.3420205,-0.0673296,0.11088
1.070359,0.05294889,-0.1112706,0.2549684,-0.1764517,0.07493565
1.045808,0.05725888,-0.1262356,0.2003872,-0.1500212,0.07987291
0.9960723,0.02294843,-0.09437196,0.2188432,-0.03627381,0.06705448
1.019742,0.001691021,-0.09824056,0.2618545,-0.02347401,0.08521079
0.9494172,-0.008596935,-0.071772,0.3457632,0.0690008,0.1337209
0.9647043,-0.01287992,-0.0539131,0.5243566,-0.02932521,0.1213481
1.006167,0.004827773,-0.05650861,0.5910709,-0.02296255,0.1230517
1.017697,0.003035411,-0.08335739,0.4439456,0.1656157,0.1153278
1.028641,0.01264729,-0.1262535,0.2867395,0.2585513,0.1160876
0.9787851,0.03189193,-0.1165933,0.2582868,0.2320423,0.1239504
1.013104,0.01091614,-0.07519756,0.2482849,0.1206062,0.07048659
1.063523,0.01033058,-0.0362213,0.1912687,0.2229845,0.04145578
1.095431,0.01786202,-0.03389321,0.07560862,0.3468656,0.06573085
1.098895,0.01422983,-0.04632676,-0.07012761,0.3902847,0.1158998
1.024922,0.01813917,-0.02178154,-0.08847743,0.4462422,0.1568481
1.006386,-0.008217299,-0.008269184,-0.03949146,0.2533094,0.1787313
0.9533368,-0.04363946,-0.01841797,-0.06517158,-0.00800454,0.1979778
0.9302882,-0.0601278,-0.02441681,-0.05306649,-0.2584943,0.1702528
1.045234,-0.04812152,-0.03304637,-0.01654593,-0.2820422,0.1495764
1.092889,-0.03428577,-0.03720087,-0.07543821,0.2489809,0.1627878
1.059263,-0.04616735,-0.02942231,-0.1142008,0.6445193,0.157436
0.9784328,-0.03712555,-0.007618241,-0.1008141,0.4100644,0.141039
0.9045409,-0.0253692,0.01998431,-0.1230865,-0.0118286,0.1097481
0.9263927,-0.02135663,0.01884415,-0.1366314,-0.1470728,0.09816685
0.9665516,-0.003704913,-0.01926369,-0.1293864,-0.03101094,0.1334195
0.9915726,-0.004535438,-0.04418931,-0.1226497,0.1520188,0.1646032
0.9924469,-0.0111946,-0.02017526,-0.1239386,0.3698852,0.1539967
0.9901193,-0.01670038,0.02766939,-0.1504566,0.4756658,0.1339207
0.978765,-0.0289874,0.06221368,-0.1585058,0.4816951,0.1527057
0.892442,-0.02954217,0.06716831,-0.1026429,0.3962166,0.2156056
0.7943465,-0.01750338,0.06198773,-0.04178408,0.1901253,0.3102509
0.7677995,0.02387814,0.07412248,-0.1031884,0.0005119363,0.3380013
0.8288919,0.08761788,0.08906659,-0.254284,-0.07558932,0.3115518
0.8732013,0.1116234,0.0954505,-0.3958219,0.08529779,0.3898697
0.8351595,0.07769674,0.1050462,-0.5410788,0.2783229,0.4817616
0.8256198,0.05535305,0.1290586,-0.6945895,0.4018151,0.4988803
0.8229381,0.06752907,0.1635574,-0.777238,0.4444999,0.5305586
0.7404225,0.02463021,0.1283295,-0.5973744,0.02019801,0.5061672
0.6545742,-0.1153992,-0.0465346,-0.3814712,-0.6354662,0.3457027
0.7268878,-0.3015529,-0.2586363,-0.5705743,-1.123562,0.1216694
1.076094,-0.4949957,-0.3292978,-0.8054017,-1.357768,-0.09978596
1.598808,-0.6748113,-0.3076656,-0.8002107,-0.8703787,-0.2890375
1.934626,-0.6997436,-0.3786092,-0.8348315,0.4694224,-0.4124185
1.872543,-0.4486988,-0.392767,-0.9533999,1.316531,-0.4573949
1.601516,-0.1583739,-0.2322737,-1.180111,0.2696206,-0.3758252
1.316989,-0.08935197,-0.1530166,-1.334608,-0.7162363,-0.2138876
1.177405,-0.1457676,-0.1553891,-1.258699,0.5588941,-0.2027823
1.195803,-0.1446279,-0.04253781,-1.242556,1.403833,-0.1915961
1.124479,-0.1047779,0.1251213,-1.184432,0.100145,0.02665394
1.053794,-0.1536301,0.1183391,-1.00113,-0.7452511,0.1578688
1.004121,-0.2162285,-0.1039457,-0.9475818,-0.4537168,0.2429311
0.8628418,-0.2197284,-0.25221,-0.9994845,-0.01493383,0.3950814
0.8519304,-0.2349168,-0.2214321,-1.053011,0.5185183,0.3895277
0.8700005,-0.2425298,-0.1002691,-0.9762104,0.5584593,0.3136547
0.8719822,-0.2794943,0.01395541,-0.7897981,0.1537024,0.1752403
0.9448724,-0.3047074,-0.001913028,-0.6201803,0.002306036,-0.01801381
0.9179949,-0.250092,-0.03789013,-0.5157251,0.05552894,-0.0178373
0.918914,-0.2180376,-0.03820791,-0.5373832,0.155174,0.06797935
0.9423782,-0.1946397,-0.02542911,-0.4394306,0.2181421,0.06411835
0.8923199,-0.1791459,0.01842375,-0.2842276,0.2905062,-0.02675669
0.8297729,-0.1420288,0.02186814,-0.3795648,0.4197689,-0.1668449
0.6885296,-0.04288656,0.03209596,-0.5144235,0.454943,-0.2050366
0.6120101,-0.01459499,0.06369565,-0.6115996,0.2089457,-0.08811175
0.6162319,-0.01132869,0.08739027,-0.6505099,-0.2042944,-0.001555352
0.6283565,-0.0008784653,0.07761491,-0.6069769,-0.3041091,-0.06072744
0.6933359,-0.03242841,-0.02657047,-0.7525629,-0.2644132,-0.123658
0.7022023,-0.04098348,-0.101999,-0.9837519,-0.3484983,-0.1633423
0.8201915,-0.1247217,-0.04800081,-0.9575626,-0.1463653,-0.2899764
1.079836,-0.2563672,0.07857205,-0.5164449,0.07093133,-0.3838153
1.132841,-0.2413235,0.1405476,-0.1019434,-0.1502426,-0.2903965
1.07142,-0.1873541,0.06810143,-0.4194484,-0.2715236,-0.1881079
1.135269,-0.2025543,0.005595848,-0.7193403,0.05203222,-0.2993282
1.19448,-0.1993152,0.04750331,-0.207769,0.3326453,-0.3885867
1.141256,-0.1655983,0.1213194,0.06568272,0.2582896,-0.277776
1.052945,-0.06976346,0.1540717,-0.3018126,0.02252278,-0.1462796
0.9896502,0.03842995,0.1526912,-0.4669208,-0.3118623,-0.04144484
0.9940996,-0.06515101,0.1173791,-0.3719527,-0.5928361,-0.08993371
1.02516,-0.2591021,0.0390245,-0.2934414,-0.5288844,-0.2422129
1.001238,-0.2821217,-0.05498853,-0.1244689,-0.5291017,-0.1897106
1.038305,-0.2430027,-0.1724562,0.08567269,-0.8548429,-0.04839807
1.170731,-0.2365247,-0.3984989,0.04090312,-0.9142326,0.1572207
1.313588,-0.2460882,-0.7173138,-0.08007888,-0.3980298,0.3176728
1.494595,-0.2405175,-0.8063812,0.03993626,0.4192232,0.06835048
1.627682,-0.1280839,-0.6478389,0.05113078,0.9356676,-0.142459
1.632464,-0.04491586,-0.5240795,-0.103444,1.04933,-0.1143884
1.474934,-0.1527669,-0.3363445,-0.2712554,1.459902,-0.4871194
1.154408,-0.2230132,-0.1029373,-0.3789656,1.773573,-0.8865144
0.9021656,-0.006125929,0.08118928,-0.1673885,0.7933275,-0.4277107
0.8135353,0.187991,0.2012256,-0.05241532,-0.9768292,0.2028935
0.8482088,0.03366547,0.07230357,-0.1060842,-1.667396,0.1191729
0.9165577,-0.09867738,-0.1122488,0.01455854,-1.08104,0.01809302
0.8760837,-0.02964987,-0.1626101,0.1605593,-0.8327606,0.1752579
0.8710845,-0.03533234,-0.190791,0.3577773,-0.9963799,0.1387924
0.9060009,-0.02377712,-0.1696083,0.2089247,-0.8228643,0.1803025
0.9093483,0.081428,-0.1530277,-0.1349086,-0.5666045,0.2499683
0.9842924,0.1248833,-0.1519756,-0.07544123,-0.1043459,0.2288384
0.9760831,0.1114535,-0.1192247,-0.2112783,0.2395691,0.2907556
0.9215213,0.07213796,-0.1112044,-0.396281,0.01021204,0.20311
0.9479928,0.02132445,-0.06424549,-0.1995132,-0.01957772,0.07549179
0.9434684,-0.02769332,0.01668299,-0.02583957,0.1357404,0.04464821
0.9626921,-0.0358813,0.04328514,0.2375435,0.1517995,0.02792219
0.9545889,0.01624641,-0.006290077,0.3793766,0.3664141,0.1369046
0.9046098,0.02847054,-0.1153118,0.1636154,0.4232786,0.2833077
0.9214924,0.00780746,-0.1614925,0.1447988,0.2972233,0.4058425
0.9047041,-0.03068118,-0.1351035,0.4630345,0.2475944,0.5223993
0.8664723,-0.1168413,-0.1358709,0.7316917,0.01981219,0.576517
0.8511592,-0.1447101,-0.1519977,0.6599187,0.02333969,0.5493311
0.9090157,-0.07770565,-0.1456442,0.5015393,0.3845572,0.509618
1.113471,0.04962997,-0.09014985,0.5381063,0.723506,0.5354242
1.204031,0.1181873,-0.04548538,0.4747406,1.124524,0.486943
0.9269491,-0.05262771,-0.0958889,0.244153,1.285783,0.2801813
0.4824128,-0.2643892,-0.1418875,0.07007429,1.099829,-0.1343974
0.3074392,-0.2240217,-0.07307687,0.1340738,0.8447657,-0.5921455
0.4131188,-0.1108599,0.02252279,0.2192946,0.2056542,-0.5842007
0.6087391,-0.1220688,0.05328266,-0.2291379,-0.9077627,-0.1508343
1.148695,-0.2025818,0.01745305,-0.6860837,-1.600827,0.1856116
1.798215,-0.4333706,-0.1656996,-0.663036,-0.9974541,0.04096168
1.899251,-0.7901727,-0.3317108,-0.7612504,0.5098076,-0.4320142
1.767719,-0.9309714,-0.1101799,-0.6000927,1.999401,-0.7348468
1.675877,-0.5514708,0.2753281,0.4644571,2.168359,-0.7347297
1.241587,0.06066175,0.3395787,1.275464,0.2481165,-0.2829016
0.9293269,0.1582222,0.1412098,0.5854078,-1.546859,0.3590614
1.083759,-0.1158401,0.01339939,-0.1874241,-1.502869,0.4403296
1.049744,-0.1685977,0.08050986,0.4948538,-0.7562872,0.1738463
0.832565,-0.1201418,0.1216393,0.9153074,-0.2894746,0.09798142
0.6660991,-0.05994404,-0.01339269,0.5005812,-0.3773971,0.1689806
0.4614858,-0.02570447,-0.104436,0.5673854,-0.5595613,0.206613
0.465753,-0.1295745,-0.09295432,0.4428192,-0.6148796,0.1177012
0.5726183,-0.2493758,-0.04980798,0.2252501,-0.8497071,-0.1218551
0.5929686,-0.2736457,0.008508351,0.405547,-0.8551612,-0.5151871
0.5997328,-0.1330174,-0.07151134,0.2792396,-0.7447604,-0.6539764
0.5512185,-0.005010909,-0.1857282,0.3410344,-0.69673,-0.4235727
0.5637511,-0.02430767,-0.1894661,0.5288336,-0.6245858,-0.4009917
0.702316,-0.1255598,-0.1559787,0.5195677,-0.6250752,-0.596527
1.061262,-0.3251162,-0.02508079,0.8291184,-0.3398771,-0.823145
1.41322,-0.4158739,0.08959499,1.179236,-0.03092313,-0.946576
1.206209,-0.2531055,0.009054338,1.310607,-0.1434338,-0.591631
0.9825752,-0.1051618,-0.09322325,0.8582262,-0.4008785,-0.2470073
1.199601,-0.194406,-0.05969459,0.3327118,-0.4963828,-0.4419243
1.222062,-0.2639227,-0.0260193,0.8808962,-0.3442569,-0.5538529
1.107575,-0.1654037,-0.05532291,1.319361,-0.2085924,-0.3466945
1.149107,-0.1704304,-0.05809332,0.9291698,-0.2818145,-0.2901402
1.092058,-0.171681,-0.1080651,0.8875742,-0.3339913,-0.2583452
1.065476,-0.1010072,-0.212327,1.190102,-0.146107,-0.07494237
1.079747,-0.09680536,-0.3967157,1.259013,0.1089439,0.02212661
1.016793,-0.03302411,-0.6579942,1.18785,0.3844284,0.04067571
1.12802,-0.001472822,-0.7057194,1.121328,0.656066,0.0613114
1.4483,-0.05752592,-0.6628997,1.086347,0.7244892,0.1952688
1.756088,-0.1603469,-0.727729,0.7949667,1.492332,0.2328034
1.660978,-0.2941125,-0.6398403,0.1304163,3.415533,-0.4300386
1.227598,-0.2222126,-0.2411429,-0.1585667,4.368058,-1.056644
0.8954617,0.005231037,0.3401248,0.2675145,2.371146,-0.4606854
0.603378,0.2049301,0.5671415,0.545066,-1.294804,0.3469648
0.5948237,0.2476047,0.2959199,0.2628785,-3.471365,0.2055319
0.8950319,0.01436345,0.06080107,0.1147413,-2.75891,-0.07921423
1.049141,-0.1376623,-0.1181421,0.3127775,-0.6647055,-0.0845224
1.149559,0.008987688,-0.1917842,0.4222313,0.4502577,0.06141783
1.066543,0.1236053,-0.006272206,0.4524103,0.01819563,0.4649074
0.9280694,0.08731324,0.002841869,0.2860277,-0.4987342,0.477199
0.9861097,0.05023681,-0.06314949,0.009637354,-0.1325975,0.2514362
0.9224693,0.04061918,0.007470357,0.2045813,0.3938,0.2699434
0.8794392,0.05033756,-0.0131161,0.4065151,0.6059284,0.170254
0.7958909,0.08202728,0.02012586,0.2977595,0.5966907,0.2744392
0.6719415,0.06356152,0.008105213,0.3687537,0.3108592,0.4237552
0.7778598,0.01159228,-0.06906984,0.3439802,0.6038405,0.2835397
0.7957158,-0.007441754,0.02608607,0.2416354,1.03233,0.3327157
0.8039813,-0.0107599,0.03994633,0.4706668,0.6118562,0.4590474
0.8166214,0.003272765,-0.04323374,0.5900084,0.4482424,0.5527794
0.6992597,-0.002286957,-0.1307485,0.28854,0.3774737,0.525735
0.7121296,-0.01461941,-0.1969817,-0.07009238,0.4889144,0.3003056
0.7028665,0.01100683,-0.08444858,-0.07646457,1.241573,0.1722786
0.6440726,0.02860388,0.01651868,0.1990501,1.213704,0.06520452
0.5991584,-0.006209576,0.004034044,0.2828693,0.5431194,-0.03729489
0.5693065,-0.2846262,-0.07059801,-0.03899875,-0.6533453,-0.1465816
0.9193862,-0.6664643,-0.1520131,-0.3308831,-2.065077,-0.180353
1.591372,-0.6556047,-0.1709053,-0.05042553,-1.814633,-0.04727471
2.037538,-0.5050247,-0.3594832,0.2492674,0.198062,-0.1130378
1.955661,-0.5398212,-0.513347,0.1705576,2.10663,-0.1906644
1.688231,-0.4213455,-0.0529511,0.6244348,1.48588,-0.1130754
1.50304,-0.2226875,0.5140736,1.219125,-0.4629138,-0.0372428
1.246108,-0.1934155,0.3725891,0.9231799,-1.055612,0.1514651
1.169337,-0.1770929,0.0975854,0.6751162,-0.9779537,0.1763979
1.175605,-0.156069,0.1162119,0.9059401,-0.3149071,0.0970769
0.8865321,-0.1069833,-0.0007213466,0.7725755,0.1828963,0.178975
0.613203,-0.0111609,-0.009954336,0.5209492,-0.4057521,0.1536171
0.4537741,-0.002800568,0.05558476,0.5018094,-0.571106,0.142065
0.3376817,-0.02649312,-0.05430498,0.4214268,-0.6683429,0.1894456
0.3579365,-0.06645642,0.00148199,0.2654113,-0.9723156,0.07335468
0.4365308,-0.1362464,0.02720103,-0.04426792,-1.104173,-0.1641968
0.5518702,-0.1588061,-0.0101271,-0.2114073,-1.367413,-0.5116995
0.5862356,-0.1637766,0.01391884,0.02745363,-1.063218,-0.6317352
0.6279765,-0.1751538,-0.0799802,0.1573042,-0.8471835,-0.513169
0.9321363,-0.1778321,-0.04725596,0.2046222,-1.095297,-0.680715
1.27805,-0.1210344,-0.02329954,0.2562038,-0.9718045,-0.8373316
1.370673,-0.06614455,-0.1261723,0.1944281,-0.3829793,-0.6942905
1.25139,-0.1291982,-0.1123376,0.2765244,0.5168619,-0.6028436
1.158114,-0.2081085,-0.06790099,0.3328908,0.6410274,-0.5570866
1.089292,-0.2481579,0.05261458,0.4626599,-0.002900079,-0.482504
1.020862,-0.280867,0.1217298,0.8181277,-0.4247243,-0.4709517
1.094929,-0.2605398,0.03140678,1.027505,-0.7452592,-0.4331727
1.119521,-0.1881019,-0.08080825,1.084243,-0.8379482,-0.2964625
1.111731,-0.1379066,-0.2642131,0.9855264,-0.6979119,-0.1678462
1.16321,-0.1620944,-0.3217834,0.9046069,-0.3817406,-0.140532
1.130433,-0.2186372,-0.3021437,1.064496,0.2240016,-0.1140708
1.22247,-0.2135761,-0.458961,1.111189,0.6863372,-0.04862396
1.432797,-0.06037948,-0.5606775,0.8677705,1.04947,-0.01673318
1.63251,0.1343059,-0.5631337,0.5020142,1.771082,0.01638792
1.712365,0.1027064,-0.5392276,0.2136834,2.637065,-0.05439514
1.343803,-0.1033461,-0.3061425,-0.1467015,3.106408,-0.4553011
0.7893438,-0.156333,0.07595692,-0.5051098,2.566949,-0.7927818
0.4547632,0.07346857,0.4065968,-0.09123344,0.2450155,-0.3422691
0.4419271,0.3041922,0.5656734,0.6725764,-2.90848,0.3493292
0.7339705,0.166329,0.3497493,0.679692,-4.14645,0.3113934
1.044642,-0.06061708,-0.1154765,0.2247374,-2.611455,0.09274935
1.227452,-0.01264537,-0.3788761,-0.05377727,-0.43781,0.1782331
1.189824,0.06941831,-0.3400181,0.006214188,0.5643784,0.2761653
1.012559,0.1335875,-0.1682291,0.1057531,0.4198963,0.4489329
0.9067603,0.1319444,-0.04820566,-0.1335706,-0.4498647,0.4423958
0.8463151,-0.003129117,-0.02848171,-0.2278876,-0.7954726,0.2654265
0.9526292,0.01559795,-0.02331732,-0.1154481,-0.2281909,0.2283161
1.079873,0.04831407,-0.04056453,-0.1560862,0.1533095,0.09047413
1.068275,0.04937553,-0.02986308,-0.07335393,0.4514064,0.108767
1.523331,-0.3413499,0.05643265,0.6614055,-1.097333,-0.238106
1.439216,-0.2777549,-0.2054395,0.6789211,-0.9949986,-0.0881405
1.590201,-0.217928,-0.2126038,0.2837558,-0.3433005,-0.03171119
1.34399,-0.1929898,-0.149553,0.78075,-0.0737154,0.1325799
0.9471356,-0.1369372,-0.04316009,0.8388982,0.09397225,0.1825416
0.5874596,0.009791563,0.08114499,0.5992545,-0.2204626,0.2167605
0.3779678,0.04629532,-0.008573988,0.7638309,-0.6514757,0.4860898
0.5237797,-0.0446396,-0.007628704,0.4001983,-0.7137561,0.4721924
0.4981928,-0.1149889,0.02100743,0.2002555,-0.7928709,0.2363225
0.5682716,-0.1908479,-0.02078505,0.1959483,-0.3961883,-0.07065547
0.7725668,-0.2427727,0.04557161,-0.154889,0.1309195,-0.5742402
0.5635395,-0.1593778,0.005177879,-0.2710538,0.1230147,-0.6834092
0.4443117,-0.0558231,0.006079346,-0.5380985,0.1004088,-0.4825207
0.5337685,-0.05282154,0.1182749,-0.6978884,-0.02425288,-0.4569921
0.6664814,-0.07331167,0.1251003,-0.425174,-0.6445905,-0.34978
0.9522081,-0.08784229,-0.01237264,-0.3063858,-1.274637,-0.3369217
1.068738,-0.1274496,-0.2130669,-0.3594918,-0.8393449,-0.5520765
1.048705,-0.1968873,-0.1473356,-0.4624476,0.1690679,-0.6047931
1.103414,-0.2647927,-0.04767923,-0.3393346,0.3049789,-0.5586192
1.122502,-0.2564674,-0.1203815,-0.1611286,-0.2307865,-0.4794174
1.072198,-0.2292826,-0.04865553,0.0001412919,-0.8938844,-0.3535386
1.090269,-0.2721665,-0.04102138,0.2536498,-1.042807,-0.3386495
1.203932,-0.2861042,-0.169497,0.267451,-0.6217858,-0.3414343
1.303106,-0.2517698,-0.3089289,0.4575275,-0.4417522,-0.272895
1.369998,-0.2307075,-0.5168986,0.6183489,-0.007408185,-0.1070997
1.347361,-0.170012,-0.5973802,0.4938314,0.6284478,0.03773442
1.364472,-0.08498075,-0.5825297,0.74001,0.9290776,0.01673353
1.429586,0.02991464,-0.586115,0.8615922,1.172609,0.02563841
1.323525,0.1391192,-0.5410765,0.3701453,1.380113,0.03803438
1.155242,0.1021507,-0.3706456,-0.2586532,1.639573,-0.02270355
0.9020496,0.07523538,-0.01638471,-0.3779916,1.051659,0.04362966
0.7047974,0.155088,0.1515764,0.09597322,-0.4129373,0.2668105
0.809642,0.1456447,-0.0539045,0.2748129,-1.119654,0.4401457
1.000388,0.04116012,-0.3008282,-0.1188541,-0.8793498,0.2193208
1.165223,-0.05082077,-0.4255439,-0.3993793,0.2749971,-0.1966729
1.099023,-0.04099291,-0.2779406,-0.1008656,1.251674,-0.2394314
0.8535026,0.05199269,0.0582222,0.2830389,0.3153688,-0.06555832
0.8295596,0.1078138,0.1344082,0.2026503,-1.052873,0.1078445
0.8838066,0.1561061,-0.05120577,0.07775417,-1.138303,0.3359379
0.9381779,0.1425825,-0.1951214,-0.03427641,-0.4679791,0.3908917
1.000956,0.0757166,-0.1900059,-0.1993114,0.04740214,0.3315051
0.9725854,0.09251112,-0.11244,-0.1937838,-0.01723961,0.3566613
1.001115,0.07667419,-0.1048565,-0.2144894,-0.1252143,0.3531632
1.001328,0.03414811,-0.1212297,-0.169259,0.2823875,0.347409
0.9175578,0.01867221,-0.1032068,-0.09341194,0.5899358,0.4099286
0.8152565,-0.01844926,-0.06442734,-0.06132397,0.4480623,0.4902565
0.6898689,0.01964897,0.007090641,0.04939907,0.2582709,0.5549731
0.7070437,0.03607562,-0.0159595,-0.05678022,0.03438085,0.5921077
0.8141314,-0.01766921,-0.1036319,-0.1335835,-0.00246153,0.6136492
0.9279471,-0.05279078,-0.1467741,0.0662061,0.133318,0.5839494
1.025464,-0.1051003,-0.1823062,0.2166179,0.178785,0.4990259
0.9907145,-0.08932552,-0.1777648,0.2272127,0.5123413,0.37632
0.9109917,-0.03448849,-0.1841417,0.04529169,0.7616249,0.2434973
0.7470336,-0.02141846,-0.1913366,-0.1397291,0.494921,0.1906997
0.5297684,-0.03546007,-0.1776688,-0.1388593,-0.01612608,0.1397135
0.5099522,-0.1693321,-0.2628403,-0.1478408,-0.6716316,0.03728901
0.7604388,-0.3730819,-0.3634224,-0.3260298,-0.9015616,-0.009947154
1.26205,-0.4869963,-0.4395609,-0.5910004,-0.3560039,-0.1048687
1.650582,-0.4824866,-0.5710984,-0.6498433,0.4248295,-0.306616
1.653618,-0.5127024,-0.6054374,-0.5025602,0.8504836,-0.5420354
1.625853,-0.5575836,-0.2926322,-0.1358491,0.4943184,-0.7233195
1.616556,-0.3794104,0.06577298,0.4415659,-0.3265188,-0.5427992
1.433679,-0.1734013,-0.06325557,0.6079889,-0.6670645,-0.1568371
1.373106,-0.1222955,-0.1922912,0.3555204,-0.4500289,0.05964518
1.409188,-0.06394777,0.0221029,0.2727943,-0.2425434,0.2732156
1.174583,-0.01067324,0.05216988,0.2326155,-0.2287943,0.3919421
0.8308251,0.01440887,0.05225625,0.01908771,-0.297154,0.4032196
0.5634212,0.01337917,0.1245356,-0.1775275,-0.3457668,0.5589897
0.4556115,-0.0476918,0.04720113,-0.2822292,-0.5634918,0.5853298
0.5603978,-0.1691953,0.07182534,-0.3754687,-0.7798717,0.3570837
0.6160825,-0.3011371,0.03968044,-0.4800358,-0.6102682,-0.03827415
0.6293966,-0.2838528,-0.09775806,-0.614329,-0.2194311,-0.4782716
0.6272277,-0.1685295,-0.08196632,-0.8531764,0.2716807,-0.6478955
0.5174168,-0.06453692,-0.03556975,-1.009099,0.3653007,-0.5957412
0.5551771,0.002204633,0.00673084,-0.8272133,-0.4112794,-0.4378483
0.8055031,-0.06894356,-0.0937387,-0.4581849,-1.207735,-0.2634864
1.028295,-0.1374601,-0.246105,-0.1409021,-1.017027,-0.2961586
0.9806699,-0.128222,-0.1948344,-0.06283733,-0.04796493,-0.3567059
0.8381713,-0.1762166,-0.2077444,-0.1000301,0.520173,-0.2839063
0.9062329,-0.1880722,-0.2492989,-0.002187523,-0.03528715,-0.2862944
0.9406058,-0.1734409,-0.2046976,-0.02479399,-0.6518097,-0.3327818
1.025576,-0.2229525,-0.2469043,-0.0345271,-0.2359322,-0.3307158
1.20842,-0.2141534,-0.2577585,0.0910369,0.05871529,-0.4123377
1.123935,-0.192927,-0.1880539,0.03442615,-0.2733388,-0.5163976
1.076695,-0.2295764,-0.1237864,0.1952057,-0.3098603,-0.530383
1.137668,-0.231911,-0.1123978,0.5392612,-0.5495466,-0.4400985
1.090954,-0.265089,-0.2187594,0.6184474,-0.7159886,-0.3012028
1.15566,-0.3443749,-0.3527207,0.6521671,-0.2968103,-0.2805953
1.21022,-0.3444185,-0.4230661,0.7499403,-0.06566913,-0.2529523
1.215614,-0.2104824,-0.4781736,0.9259995,0.3698556,-0.1302534
1.355822,0.0264824,-0.5778453,0.9731344,0.8574957,-0.03845173
1.552059,0.1358051,-0.6829886,0.7732866,1.307446,0.04474913
1.668503,0.01051234,-0.6935313,0.3188059,2.532357,-0.06167543
1.484652,-0.09735314,-0.5046043,-0.2993935,3.535552,-0.3772446
1.017134,-0.03734169,-0.04926517,-0.2005218,3.138142,-0.4385604
0.5348357,0.1679707,0.4276419,0.1754799,1.153243,-0.02786941
0.4499584,0.3110138,0.4335382,0.05679872,-0.9646487,0.423016
1.042308,0.01441982,-0.1555117,0.2251077,-1.193922,0.3296147
1.502511,-0.3433306,-0.6486759,0.35688,-0.487277,-0.05693354
1.156543,-0.1480286,-0.4274312,0.2302072,0.1604675,-0.2764317
0.8513827,0.03899082,-0.1673753,0.3673406,0.8827153,-0.3690064
0.9623925,0.007886392,-0.2710459,0.282297,0.05650146,-0.1369654
0.8449859,0.2285166,-0.1115587,0.1088556,-1.388777,0.181818
0.7761697,0.2285084,-0.03921156,-0.05188589,-0.5904164,0.1609093
1.001238,0.06384283,-0.2275993,-0.3939858,0.1824936,0.1750776
0.9917292,0.1832195,-0.1061155,-0.5011552,-0.2983907,0.2377656
0.9603102,0.1372759,-0.1080244,-0.5195472,-0.001432136,0.2438627
1.023674,0.06394607,-0.1778814,-0.4352064,-0.1269048,0.3399284
0.9834289,0.08176282,-0.03726552,-0.2557614,-0.214251,0.3432398
1.059512,-0.03284051,-0.09540431,-0.25438,0.414605,0.3307621
1.050713,0.008077162,-0.0785614,-0.2291049,0.3113043,0.3583545
0.9425675,0.03368247,-0.04828799,-0.305274,0.6362571,0.3916274
0.8881616,0.002759265,-0.131583,-0.4191294,0.8018083,0.5097829
0.7991395,0.07380344,-0.02261173,-0.4102714,0.270731,0.5492051
0.8652109,0.01023241,-0.01254074,-0.4301691,0.3000762,0.5281546
0.9175788,-0.02441652,-0.06991713,-0.4462015,0.3088686,0.5435339
0.8960698,0.006017973,-0.0850846,-0.5340858,0.4312842,0.6007604
0.9502411,-0.01206689,-0.1239928,-0.5520297,0.3136479,0.6558841
0.9454909,0.008495287,-0.09260433,-0.4701729,0.02610479,0.5551946
1.003998,-0.02197272,-0.1685341,-0.4887381,0.4190989,0.4108475
1.041512,-0.02690427,-0.2138748,-0.6085351,0.7552629,0.3868517
0.9896416,0.059029,-0.09567059,-0.8754023,1.073327,0.4773492
0.9555321,0.1449639,0.03606842,-0.9589158,0.8876338,0.5979182
0.7532041,0.1352829,0.08523411,-0.6602609,0.1029719,0.6010602
0.5129695,-0.04610397,-0.08635313,-0.4139463,-0.4355754,0.4208573
0.4830329,-0.2666,-0.2978097,-0.488221,-1.186701,0.1083564
0.7334877,-0.4342215,-0.4074683,-0.6856423,-1.402663,-0.1709667
1.225916,-0.4950689,-0.4785247,-0.7455486,-0.5724439,-0.319004
1.556115,-0.4313358,-0.5129223,-0.7397201,0.5106293,-0.2806568
1.484116,-0.3484528,-0.5366298,-0.7297802,1.218027,-0.07485221
1.389614,-0.3107321,-0.4373078,-0.6695549,0.8989818,0.008189764
1.496173,-0.3984585,-0.1481999,-0.4356651,0.3624856,-0.150769
1.4481,-0.462894,0.1622875,-0.02288733,-0.1819725,-0.2914889
1.28289,-0.281425,0.171254,0.06941365,-1.028376,-0.1518565
1.203176,-0.05788668,-0.05751955,-0.114549,-0.7501758,0.1577325
1.065409,-0.0127667,-0.1729174,-0.2671526,-0.01251498,0.410471
0.9985382,-0.02985207,-0.2510064,-0.5872781,-0.1392997,0.5535671
0.9209758,-0.0643028,-0.183603,-0.7369206,-0.2006077,0.4288092
0.7597781,-0.1494708,-0.01811211,-0.6107317,-0.309013,0.2661829
0.6739664,-0.1130507,-0.1209267,-0.7401019,-0.5213426,0.3265573
0.5426455,-0.04475779,-0.1718612,-0.9574921,-0.3370666,0.2864916
0.5200218,-0.1132375,-0.1272811,-0.9859499,-0.4235484,0.209417
0.5729208,-0.1327024,-0.1498437,-0.943608,-0.5045119,0.1547078
0.5633454,-0.142026,-0.04564661,-0.8665265,-0.4780515,0.03006803
0.673653,-0.180968,-0.04625713,-0.8429197,-0.6395607,0.02881383
0.780516,-0.1692252,-0.09133989,-0.8163272,-0.4103176,-0.1377567
0.8581511,-0.2108308,-0.01224697,-0.6498436,-0.2716746,-0.3825406
0.8673988,-0.2022175,-0.03644385,-0.4427979,-0.4241217,-0.2116512
0.8481756,-0.1646374,-0.09915705,-0.3194946,-0.4937668,-0.05805128
1.059268,-0.2232135,-0.1952317,-0.3437848,-0.6021459,-0.2170483
1.218839,-0.2294147,-0.2514716,-0.3402568,-0.4625273,-0.2619705
1.166799,-0.1954978,-0.1629936,-0.2536727,-0.3253859,-0.1535612
1.148339,-0.1618,-0.1518113,-0.3912167,-0.3983407,-0.08910469
1.22334,-0.1353921,-0.1850109,-0.6647888,-0.2899499,-0.0068344
1.252952,-0.1888454,-0.1887928,-0.7723072,0.04072221,-0.00291794
1.171323,-0.2168977,-0.2221057,-0.6083504,0.3041067,-0.0008693436
1.137178,-0.1734086,-0.3672504,-0.3592822,0.1174885,0.2629041
1.149097,-0.1619205,-0.6929082,-0.3302992,0.0127622,0.4979983
1.146205,-0.2530213,-0.8599499,-0.2236397,0.6309666,0.4257011
1.12923,-0.3484378,-0.6992313,-0.03892359,1.414671,0.08054567
1.118816,-0.2618596,-0.5160943,-0.1192555,1.52653,-0.2926445
1.250863,-0.02751622,-0.4423087,-0.07586076,0.7653929,-0.2946891
1.384207,0.1495466,-0.4579443,-0.09181085,0.2149092,-0.2042718
1.328213,0.07760328,-0.476611,-0.7715744,0.8085466,-0.3894745
1.130518,-0.04945854,-0.2982095,-1.53943,1.345475,-0.5238545
0.9220603,0.05411563,-0.0162107,-1.541287,0.883318,-0.4362989
0.8742182,0.0804328,0.07976218,-1.025911,0.2170515,-0.2072509
0.9204607,-0.03761617,-0.007914003,-0.7114382,-0.5466736,0.1051019
0.9089512,-0.04944626,-0.13781,-0.5747228,-1.051557,0.1886853
0.8880797,-0.06973489,-0.2176534,-0.5611624,-0.465049,0.02316891
0.8997456,0.002127258,-0.1848332,-0.6082822,-0.1241314,0.01391474
0.8909984,0.1587405,-0.1354661,-0.4387863,-0.4610813,0.1493623
0.8963432,0.1566667,-0.1830247,-0.5562918,-0.3204197,0.2775067
0.9491355,0.1024641,-0.2076969,-0.8441568,-0.1536777,0.3919258
0.9891594,0.0382822,-0.1140327,-0.8183312,0.01363393,0.3745624
1.022106,0.01544549,-0.05756775,-0.794572,0.3878697,0.3472957
0.9969453,0.0446171,-0.05867425,-0.6405357,0.3792466,0.3873914
0.9476089,-0.00338875,-0.03151677,-0.4493547,0.3326945,0.3906694
0.9707694,-0.0220834,-0.02608554,-0.3778042,0.4043976,0.4332467
0.9640048,-0.01304304,-0.01397058,-0.2752264,0.3701326,0.4953232
0.9516378,-0.02934005,0.01233027,-0.2380624,0.2196377,0.5551334
0.9742351,-0.03963679,-0.01143524,-0.02923705,-0.05035507,0.590255
0.9906615,-0.06097515,-0.1022692,0.1229652,-0.01386972,0.508299
1.026851,-0.05351925,-0.1965607,0.1363884,0.3302908,0.4359703
1.011347,-0.02327308,-0.1721717,0.1847002,0.5306261,0.4184933
0.9691459,0.05236689,-0.06865353,0.01495618,0.3870573,0.4153636
0.9517976,0.1122106,-0.0247069,0.06264525,0.1500664,0.4375823
0.8878082,0.09539481,-0.1079854,0.1189733,0.2382812,0.414999
0.8292708,0.1187628,-0.2003711,-0.1531294,0.3755484,0.3716547
0.833872,0.1391103,-0.1523737,-0.2500505,0.3975751,0.272756
0.7961852,0.1062363,-0.1086797,-0.3162879,0.4118269,0.1241348
0.6235013,0.0256916,-0.1492013,-0.1911435,0.3172865,0.0376099
0.4405448,-0.1256785,-0.1907038,0.1017364,0.3655285,-0.1352867
0.4053025,-0.2266102,-0.2971118,0.03752573,0.2640264,-0.3094309
0.5683821,-0.3024292,-0.453483,-0.3305332,-0.4773955,-0.2418741
1.066702,-0.5336323,-0.5916438,-0.868954,-0.9594358,-0.1686199
1.73754,-0.7537447,-0.6800424,-1.151613,-0.01172184,-0.2289365
1.959293,-0.6825978,-0.6228137,-1.224986,1.395947,-0.301034
1.723436,-0.5290057,-0.4295246,-1.132377,1.27184,-0.3340099
1.595016,-0.3831554,-0.07364883,-0.7111505,0.1526494,-0.221089
1.468717,-0.06404386,0.1980103,-0.6994452,-0.9039123,0.06214378
1.290488,0.02201015,-0.04574501,-0.7233128,-1.526728,0.4128481
1.370491,-0.2356951,-0.3155107,-0.373963,-0.4204266,0.5256951
1.261821,-0.3583551,-0.2021989,-0.06736906,0.8949629,0.3254359
0.8893894,-0.3480869,-0.08941369,0.3798632,0.5456064,0.3001753
0.6979277,-0.2589999,0.04657111,0.5070599,0.05629913,0.3690172
0.5318993,-0.1239402,0.1232614,0.5012942,-0.4160732,0.2827676
0.4954136,-0.1363537,-0.03488653,0.610473,-0.991865,0.242654
0.6326267,-0.23618,-0.09206848,0.3964057,-0.812898,0.03692582
0.6717885,-0.3238417,-0.09142674,0.4914274,-0.439011,-0.2743844
0.684906,-0.2799495,-0.1209049,0.5514021,-0.08462763,-0.3917449
0.6479533,-0.1499454,-0.04807065,0.3661752,0.0791918,-0.3955698
0.6248241,-0.06757715,0.01526261,0.4452894,-0.08096995,-0.3590591
0.6619347,0.03381989,0.06571453,0.2436218,-0.06042304,-0.4505599
0.6606741,0.04103451,0.08091349,-0.03364008,-0.1471446,-0.5632254
0.6859927,-0.01734757,0.05327534,-0.2418768,-0.3327835,-0.6354532
0.6426729,-0.02616404,0.05816249,-0.4197044,-0.5005128,-0.7129214
0.6349382,-0.1092254,0.01578685,-0.2915737,-0.9145412,-0.5450154
0.9039165,-0.2165084,-0.05771144,-0.2005573,-1.227819,-0.4582996
1.261303,-0.2960172,-0.1765067,0.07989938,-1.292532,-0.6979101
1.366092,-0.3098484,-0.2917836,0.3769541,-0.8756824,-0.9149622
1.25416,-0.2719283,-0.2459195,0.3330518,-0.2750233,-0.9455142
1.282794,-0.3150277,-0.1633637,0.4717716,-0.4216129,-0.8794157
1.319283,-0.29595,-0.14966,0.6605792,-0.412954,-0.8621621
1.161802,-0.1671091,-0.2350094,0.7234989,-0.00798473,-0.6374454
1.102762,-0.07958537,-0.4454038,0.7990424,-0.3960194,-0.2057727
1.215944,-0.09434828,-0.6323612,0.8204635,-0.5064384,-0.05405113
1.390946,-0.1172165,-0.7363268,0.8669908,0.5272961,-0.1345231
1.513901,0.06858871,-0.7724569,0.8397774,1.365392,-0.1538302
1.510073,0.2218432,-0.7266847,0.5834762,1.378268,-0.06839178
1.392208,0.1046839,-0.550188,0.121409,1.366127,-0.08526805
1.118988,0.04296371,-0.2087282,-0.3273724,1.584845,-0.2733099
0.8477832,0.1288456,0.05037062,-0.4184487,1.153205,-0.3508729
0.7036162,0.1804548,0.1235598,-0.2683748,0.006757398,-0.09600946
0.7297961,0.1837349,0.1130264,-0.2506877,-1.464789,0.2885926
0.8484005,0.1562092,-0.01055804,-0.2985839,-2.170655,0.2404819
0.8515201,0.01373874,-0.1165364,-0.2211044,-0.7963491,-0.04584203
0.930221,-0.1504846,-0.2163488,-0.0101126,0.2561883,-0.0922853
0.9550154,-0.0871538,-0.244551,0.2710223,-0.383138,-0.03482644
0.7682926,0.04708108,-0.07157092,0.3326522,-0.6457355,0.1653275
0.7765926,0.08274975,-0.08497458,0.2178291,-0.6479912,0.3101792
0.8911234,0.1106499,-0.2077057,0.2404868,-0.4627942,0.2786075
0.9699143,0.05524477,-0.2326609,0.2301538,0.3049864,0.2939933
0.9668669,-0.02321758,-0.2463904,0.2050277,0.6310433,0.1733296
0.8180268,-0.01420066,-0.1039532,0.315395,0.6498018,0.1311316
0.7987974,0.004383539,-0.06197136,0.3920948,0.4686528,0.3543901
0.7685597,0.02788958,-0.1138731,0.4524472,-0.04925135,0.5376771
0.7630674,0.001423494,-0.09382825,0.4440258,-0.1114005,0.5894731
0.9228939,-0.038738,-0.1628798,0.3559642,0.4462031,0.5337784
0.962991,0.01728439,-0.1441559,0.3493024,0.9203297,0.5460323
0.9686878,0.04500879,-0.1644002,0.2724865,0.8186924,0.5717035
0.9677338,0.03053452,-0.2125116,-0.006781981,0.775611,0.4705376
0.9926106,0.06497349,-0.07586226,-0.3224262,1.250652,0.3501987
0.9983518,0.08771305,-0.02853662,-0.3311839,1.396683,0.2143421
0.6829812,0.01888927,-0.1307323,-0.1654366,0.9301772,0.1963469
0.3286735,-0.1719704,-0.2982748,-0.2387647,0.2494952,0.1188684
0.29192,-0.37804,-0.3373961,-0.2713482,-0.4382028,-0.2452409
0.6999395,-0.4437449,-0.2016897,-0.2731802,-0.8662005,-0.4915626
1.348314,-0.3803606,-0.2062269,-0.4426331,-1.011677,-0.5442945
1.702053,-0.3396964,-0.4379966,-0.4602581,-0.5266912,-0.654127
1.650778,-0.3253496,-0.6229045,-0.3686292,0.8048675,-0.724602
1.497538,-0.2386373,-0.2691912,-0.1582017,1.57008,-0.5705944
1.543429,-0.1811862,0.145575,0.03875536,0.4109079,-0.3278019
1.588714,-0.1160447,-0.05777122,0.04882634,-0.9140055,-0.1404464
1.544112,-0.02248977,-0.1551154,0.1920319,-0.3020231,0.09698325
1.463026,-0.1030442,0.01069937,0.1697454,0.07786817,0.1242407
1.046808,-0.2164677,-0.008309005,0.08786458,-0.6225677,0.0446116
0.6775801,-0.2407441,0.07401866,0.2648579,-0.4466144,0.2194235
0.5902089,-0.2077925,0.09228165,0.2756012,-0.555385,0.2698652
0.471865,-0.08697126,-0.050611,0.400222,-0.8803924,0.2997327
0.446116,-0.07809433,-0.03229131,0.4958346,-0.5162459,0.3307284
0.4830721,-0.1240188,-0.08516784,0.1629813,-0.7451076,0.04463533
0.4926521,-0.09055622,-0.1346887,-0.09039489,-0.7319466,-0.1462748
0.5199692,-0.115217,-0.05035434,-0.1949136,-0.5547911,-0.2748839
0.5684996,-0.122787,-0.08545885,-0.1323544,-0.9099308,-0.3602803
0.6539803,-0.1449144,-0.06937636,0.03211876,-1.108885,-0.2558049
0.7696469,-0.2119945,-0.08513285,0.110382,-1.507144,-0.276982
1.027625,-0.1971789,-0.3172544,0.2742805,-1.069173,-0.2706334
1.26763,-0.225428,-0.4747625,0.3520732,0.09796058,-0.2783428
1.228726,-0.2807303,-0.4144855,0.3503913,0.289658,-0.4057383
1.090133,-0.2609322,-0.1894699,0.3182224,-0.0789099,-0.4356552
1.096483,-0.2483101,-0.03106633,0.2051585,-0.5907119,-0.4565322
1.11491,-0.2477802,-0.02427505,0.2042011,-0.7017888,-0.4497255
1.107954,-0.2468974,-0.06383386,0.3515763,-0.4077825,-0.4512099
1.200692,-0.2520376,-0.1547495,0.6332811,-0.4166988,-0.3859265
1.151588,-0.2482977,-0.2719082,0.6853974,-0.2576293,-0.1741742
1.073955,-0.2282246,-0.4821695,0.5493085,0.2040879,-0.1034869
1.104346,-0.1845422,-0.5925164,0.659746,0.889185,-0.1166253
1.099281,-0.06692376,-0.5388948,0.8271257,1.240036,-0.0734454
1.432026,0.2006096,-0.6092261,0.8996001,1.159707,0.09043366
1.79842,0.3831875,-0.6254414,0.423302,1.908513,0.1767468
1.565899,0.1498309,-0.4881831,-0.3869569,2.928695,-0.3473832
1.09855,-0.1029788,-0.2152038,-0.4381944,2.988416,-0.8622729
0.7294796,0.08156544,0.199357,-0.1968761,1.491309,-0.3873882
0.5622331,0.2405061,0.373189,-0.1356013,-1.411227,0.3259512
0.7362158,0.1513354,0.2603123,0.1210461,-3.289308,0.3537013
1.020811,0.05210148,-0.007987548,0.178418,-2.674776,0.1350369
1.166763,-0.1069162,-0.3955316,0.1036167,-0.4197076,0.01696834
1.088516,-0.04389057,-0.4477124,0.2019187,1.378055,0.04391859
0.8284036,0.1694641,-0.1292757,0.09949353,0.4161219,0.2407824
0.787092,0.1140768,-0.01513303,-0.0150957,-1.046472,0.3444103
0.9398608,0.09647061,-0.1129945,-0.05081627,-0.3127318,0.4428133
0.9573134,0.09827516,-0.1601258,-0.2662688,0.1359271,0.4307367
0.9884414,0.02893923,-0.1739286,-0.3084582,-0.01843121,0.3192642
0.9505314,0.1091609,-0.1255323,-0.2309617,0.275849,0.4421499
0.8917437,0.1079014,-0.07909797,-0.2686836,-0.1877576,0.4630684
0.9427289,0.04952865,-0.09369896,-0.2431292,-0.06649917,0.462485
0.8854705,0.007267479,-0.1296939,-0.2710187,0.4821753,0.5154939
0.881714,-0.05105051,-0.1655966,-0.3416989,0.3775105,0.4195212
0.888086,0.04210627,-0.1298465,-0.3908683,0.746999,0.5185221
0.8458711,0.0947184,-0.1058937,-0.4632532,0.4187991,0.6013575
0.89465,0.04999861,-0.133936,-0.5473858,0.08851588,0.6013186
0.9338318,0.0568499,-0.1226272,-0.8163134,0.8851921,0.7162752
1.085454,0.09254256,-0.04675876,-0.9963147,1.045758,0.7368055
1.174229,0.1209463,0.06865564,-0.7526125,0.6469037,0.7839151
1.004817,0.02317534,0.08556482,-0.4521118,0.01333755,0.7755703
0.8403931,-0.1346728,0.008398426,-0.3496477,-0.2254044,0.587903
0.8073357,-0.1671195,-0.02124307,-0.3241411,0.06666647,0.3678309
0.8779406,-0.008410163,0.007631292,-0.3895028,-0.02002569,0.2671317
0.8709168,0.1967938,0.02962647,-0.464339,0.1503444,0.3616516
0.7193153,0.1765255,-0.03782868,-0.2904354,0.07893824,0.4017182
0.500485,-0.0327589,-0.257081,-0.1412508,-0.4160667,0.4301137
0.4857655,-0.3763796,-0.5918155,-0.3432349,-0.9466246,0.3020449
1.092027,-0.7635662,-0.7737414,-0.6468649,-1.415775,-0.21406
1.83124,-0.8429178,-0.7624946,-0.9676168,-0.3649716,-0.5300114
1.87486,-0.6311713,-0.7913455,-1.157954,0.785539,-0.4327027
1.556884,-0.3348105,-0.5887121,-1.055622,0.2560998,-0.3321414
1.548373,-0.03833659,-0.2059632,-1.160913,-0.07869363,-0.4329153
1.58309,-0.01970639,-0.2169182,-1.331985,0.1619922,-0.406774
1.407275,-0.2057005,-0.2663289,-1.102169,-0.02785691,-0.01128627
1.277326,-0.2188994,-0.05578538,-1.005813,-0.1298511,0.282389
1.163145,-0.1854888,-0.06479386,-0.8883117,-0.05029408,0.3918565
0.9861575,-0.1620815,-0.1901303,-0.576089,0.08024067,0.5781203
0.7485982,-0.04482318,-0.2036719,-0.7613204,0.4714671,0.7881805
0.5735856,-0.04962448,-0.2072161,-0.8948011,0.3268864,0.9023316
0.5910789,-0.1563859,-0.1550224,-0.8121056,-0.09039625,0.8710775
0.6381396,-0.282622,-0.139222,-0.9449547,-0.116475,0.7046446
0.7894558,-0.4542358,-0.148142,-0.6611588,-0.2965165,0.2612279
0.9319667,-0.5132596,-0.1324094,-0.242797,-0.05884617,-0.114752
0.8504648,-0.414634,-0.1573259,-0.1148166,0.4086353,-0.153822
0.7907895,-0.2522031,-0.08809261,0.0391731,0.3467301,-0.2246799
0.7617713,-0.1903219,-0.008255848,0.1490137,0.3280893,-0.2869702
0.6875287,-0.1741486,-0.02236011,0.2107269,0.2198796,-0.3644284
0.6112055,-0.06968395,-0.01111468,0.1608834,0.01498938,-0.4358202
0.5718022,-0.04770626,0.003874877,0.1334138,-0.2221055,-0.3431212
0.6852314,-0.06026908,0.006927922,0.1987659,-0.4093212,-0.4067099
0.8918532,-0.04311971,-0.01552787,0.1379864,-0.02505696,-0.7304069
1.032123,-0.06535917,-0.05335645,0.09540914,0.1867324,-1.025494
1.017431,-0.03978976,-0.0668464,0.03133411,0.03260476,-0.8046126
1.048437,-0.04738324,-0.1083491,0.003657309,0.0757743,-0.3655956
1.28112,-0.1346993,-0.1808601,0.02529507,0.3748428,-0.4136165
1.387079,-0.1948838,-0.2246789,-0.09712564,1.309514,-0.5616265
1.116523,-0.1493017,-0.09141507,-0.1071687,2.011981,-0.6154685
0.7490509,-0.08482889,0.165979,-0.06544602,0.9551228,-0.6509812
0.7344882,-0.1874976,0.2994511,-0.07875996,-0.6475144,-0.5856957
0.869546,-0.2503374,0.2941641,0.03295309,-0.8403563,-0.6361791
0.8274772,-0.1420094,0.07092146,0.1168721,-0.6920937,-0.5020567
0.8607009,-0.09100305,-0.2608094,0.1082559,-0.9458041,-0.2602901
0.9310748,-0.1267258,-0.2939789,0.1403436,-0.7975098,-0.2920606
1.049914,-0.1987345,-0.3376711,0.3644352,-1.026139,-0.2381929
1.317123,-0.314673,-0.7399315,0.7030696,-1.173552,-0.1242362
1.337862,-0.3602728,-0.9527621,0.8224778,-0.188436,-0.06927383
1.312098,-0.1387327,-0.7856211,0.7450073,0.5626433,0.04711372
1.460105,0.1570321,-0.6359547,0.68257,0.3870512,0.182642
1.444076,0.124434,-0.5139514,0.5236806,0.2030684,0.2931668
1.459369,-0.005976167,-0.323659,0.04835971,0.5959634,0.009966174
1.517291,0.02005662,-0.1656114,-0.3933739,0.732985,-0.3675017
1.32401,0.06850271,-0.1126218,-0.348901,0.3717382,-0.2190726
1.081733,0.1439182,-0.1019845,-0.4040043,-0.005996426,-0.1625123
0.9511666,0.1467203,-0.02551255,-0.8475294,-0.7836299,-0.3652681
0.9210071,0.08529245,0.01752455,-0.774019,-0.9904749,-0.2515297
0.9402729,0.1037081,0.00322906,-0.2563133,-0.6785929,-0.03005197
0.9466491,0.07858255,0.008296992,-0.05322134,-0.8954424,0.1639724
0.9617182,0.05491444,-0.08108693,-0.07548789,-0.6924775,0.3138077
0.9572736,0.07882489,-0.2306308,-0.348848,-0.2326703,0.2701874
0.9606883,0.05728264,-0.2853914,-0.549931,0.17121,0.2808029
0.9574357,0.0651986,-0.1626269,-0.2771135,0.442842,0.2685528
0.8772416,0.06415193,0.02414645,-0.08494859,0.01851286,0.2353686
0.7731792,0.05147804,0.01547788,-0.05803936,-0.1797404,0.4001971
0.7296224,0.09379423,-0.06456201,-0.02207092,-0.1859878,0.5722585
0.7918583,0.102823,-0.1253374,0.03717514,-0.3659746,0.7254744
0.8960417,0.03496929,-0.2476508,0.2074547,-0.2224114,0.6325222
0.9701546,-0.1281824,-0.2776441,0.3096646,0.1424391,0.3134941
0.9328123,-0.2604415,-0.2632802,0.3425269,0.9536453,0.2332645
0.808687,-0.1681427,-0.2076021,0.2022945,1.388354,0.2719708
0.8026772,0.1006577,0.0442265,0.09566687,0.5049409,0.4794457
0.8217067,0.3214898,0.2064897,0.3114108,-0.4424939,0.8069577
0.7494896,0.2372063,-0.07095176,0.3441283,-0.4269617,0.8825048
0.648217,-0.005182215,-0.4486468,-0.02443744,0.3089105,0.7379747
0.4913582,-0.1061356,-0.3996377,-0.3596553,0.9122783,0.4672551
0.4074524,-0.1882139,-0.2286993,-0.1328889,0.6507508,0.2852725
0.4855448,-0.3362621,-0.230398,0.1304277,-0.090539,0.1012449
0.8784104,-0.5522761,-0.239135,-0.2304466,-0.6372493,-0.2427083
1.58855,-0.7358349,-0.4123538,-0.4366008,-0.6012322,-0.552148
1.878467,-0.6414103,-0.5333183,-0.1928932,0.1446757,-0.8578238
1.630535,-0.4933579,-0.2710156,0.4097833,0.6548459,-0.9878143
1.520387,-0.3836433,0.01018842,1.195621,0.09692272,-0.753988
1.516272,-0.1898319,0.0559327,1.300724,-0.5555933,-0.3830759
1.535172,-0.1530386,-0.0228456,1.188945,-0.5077024,-0.2192824
1.672156,-0.1200479,-0.02989859,1.371057,-0.2777071,-0.1437387
1.47984,0.009841547,-0.001281935,1.253248,-0.1298545,0.1365318
0.9613666,0.005753209,-0.0575879,1.034943,-0.09667191,0.3231044
0.5575701,0.04854493,-0.07011516,0.7679803,-0.2583218,0.5085692
0.3891328,0.06877211,-0.06450863,0.3928513,-0.4401742,0.6054755
0.443823,-0.09651145,-0.06082533,0.4067317,-0.6043799,0.2614446
0.4143433,-0.221717,-0.03819551,0.3642022,-0.7084255,-0.09549896
0.3283552,-0.2759132,-0.07049836,0.06379221,-0.5894846,-0.5060655
0.3784756,-0.2847509,-0.09126117,0.07586954,-0.4308374,-0.7839989
0.3199032,-0.2513272,-0.08945225,0.119653,-0.4088521,-0.6909582
0.3943435,-0.2287505,-0.02568808,0.2607226,-0.4982398,-0.7558656
0.7005296,-0.1705553,0.03832837,0.6202734,-0.8945491,-0.8303531
0.990211,-0.08743666,-0.1076146,0.4454816,-1.20933,-0.8544703
1.225233,-0.01479718,-0.3036441,0.117561,-0.6390096,-0.7919078
1.210416,-0.05262945,-0.3038058,0.08303896,0.006135891,-0.5663148
1.217634,-0.2267496,-0.1535182,-0.01196701,-0.3264401,-0.6141248
1.335954,-0.3343536,-0.06799389,0.1378767,-0.5548191,-0.5795523
1.273073,-0.3125416,-0.1813958,0.2967513,-0.2166856,-0.4162315
1.296474,-0.2695875,-0.2927677,0.2524974,-0.1848833,-0.4719057
1.323587,-0.2559511,-0.2584464,0.5979961,-0.03930954,-0.353456
1.141542,-0.1527203,-0.3272374,0.9092451,0.2407163,-0.05797368
0.9863478,-0.008298416,-0.508478,0.6273775,0.3159827,0.1622121
1.002104,-0.0274211,-0.5091907,0.3434311,0.7919124,0.1148303
1.218213,0.006602537,-0.4671725,0.5273697,1.18075,-0.03283184
1.546858,0.1074266,-0.5360796,0.6774069,1.132648,0.1530834
1.752793,0.03655088,-0.5282839,0.5095087,1.353229,0.1489593
1.458902,-0.02723311,-0.373936,0.3053289,2.133469,-0.3384348
0.8682704,-0.01320229,-0.03876726,0.1016259,2.721638,-0.6729294
0.5980506,0.09039328,0.3060088,0.1671767,1.390486,-0.4847896
0.5900496,0.2371228,0.323348,0.3227854,-1.182749,-0.02544552
0.8214838,0.1309087,0.03986654,0.2232088,-2.206691,0.1617593
1.170985,-0.06172348,-0.3184576,0.2851841,-1.333898,0.1283525
1.154937,-0.0739618,-0.4364816,0.3165561,0.04546115,0.03482269
0.9369742,-0.002604864,-0.1762718,0.3166964,0.8171048,-0.09255915
0.8019439,0.102101,0.03621051,0.4811646,0.1102726,0.109873
0.8341334,0.1297087,-0.06288888,0.425839,-1.081641,0.3466516
0.9378101,0.06712921,-0.1677234,0.4267486,-0.8120663,0.3675708
0.8921324,0.03575545,-0.1809899,0.4635941,-0.1661571,0.3575899
0.8706076,-0.02832441,-0.2123857,0.3005673,-0.10952,0.2023352
0.8135747,-0.04971324,-0.1601255,0.2772426,0.4329138,0.04670699
0.6618582,-0.007491396,-0.1148292,0.4391622,0.5032706,-0.0131528
0.6284412,-0.04650509,-0.1480668,0.6534683,0.2381439,0.0677574
0.6643578,-0.0435825,-0.1232514,0.6485515,0.5897606,0.1747929
0.8334851,0.02397176,-0.1039199,0.5257184,0.7423968,0.06880741
0.9750305,0.06837173,-0.08804334,0.5049348,1.082363,0.0895769
0.8234761,0.1235877,-0.06760679,0.2980776,0.9781162,0.2707357
0.5846056,0.1506923,-0.08825901,0.06324365,0.3155608,0.4349158
0.4661846,0.1295533,-0.06760762,-0.01716162,0.3606869,0.5029854
0.527855,0.05473842,-0.06518867,0.0177203,0.2725364,0.3668497
0.5784849,-0.01330756,-0.08545311,0.06220366,0.02972063,0.3137946
0.5601327,-0.1014932,-0.1554333,-0.3361686,-0.442395,0.2381168
0.8255967,-0.3623577,-0.3488435,-0.8158048,-1.213121,-0.09464523
1.409143,-0.6191334,-0.4476522,-0.7398799,-0.9658367,-0.3837086
1.848727,-0.636635,-0.4044585,-0.3179006,-0.2917694,-0.3606469
1.792306,-0.5006565,-0.3347782,0.272644,0.1368399,-0.2615856
1.653473,-0.4164986,-0.1752157,0.8148567,0.1252971,-0.4276256
1.738064,-0.3706115,-0.001824526,0.9297937,-0.4201171,-0.3994601
1.651349,-0.2084216,-0.0327333,0.7976503,-0.5448885,-0.1011129
1.514699,-0.03441473,-0.1427937,0.7711182,-0.5304147,0.06708493
1.430606,-0.02125125,-0.09065649,0.8062996,-0.4540067,0.2456278
1.129721,-0.1300623,-0.03549817,0.8887749,-0.1069864,0.1866895
0.8656598,-0.1556582,0.009017358,1.024934,-0.4533828,0.08075227
0.6870887,-0.06486291,0.0796419,0.9291654,-0.840076,0.1968997
0.5767513,-0.0241901,0.003416404,0.6891486,-0.5326489,0.07831679
0.6407791,-0.02326008,-0.02439014,0.5692472,-0.366954,-0.01665231
0.5682543,-0.06399112,-0.01192986,0.3825049,-0.285016,-0.1295973
0.4317563,-0.1137569,-0.083609,0.06998202,-0.2428227,-0.371924
0.412476,-0.1208765,-0.05439144,-0.09651982,-0.4375118,-0.3467771
0.4551802,-0.1527518,-0.01035026,0.1438259,-0.4757507,-0.3731807
0.6429785,-0.1573275,0.005086381,0.5334269,-0.7045266,-0.4733034
0.8285192,-0.1606976,-0.09069797,0.5587294,-1.026038,-0.5096815
0.9586961,-0.1724183,-0.3735071,0.2720723,-0.7792589,-0.557839
1.091247,-0.1735026,-0.4647913,0.03895562,-0.1319141,-0.5513904
1.106757,-0.2089767,-0.2286917,0.2329945,0.4279869,-0.6388335
0.9719831,-0.2116193,0.02592419,0.6050381,-0.09277594,-0.545719
0.8472936,-0.2249764,0.003109397,0.6941454,-1.26209,-0.3891904
0.9999705,-0.2529386,-0.1617929,0.9134539,-1.33701,-0.5672812
1.309347,-0.283849,-0.3411282,1.291344,-0.6079461,-0.6136509
1.476997,-0.3159861,-0.6542236,1.443894,0.2449498,-0.4068919
1.423708,-0.1964627,-0.7088231,1.280045,0.9752475,-0.1873394
1.262126,-0.03235374,-0.5123669,0.9687165,1.135811,-0.06509552
1.27188,0.04699527,-0.5199576,1.059013,1.056179,-0.09396924
1.398383,0.09803795,-0.5350348,1.033191,0.9214726,-0.08111191
1.481431,0.09533062,-0.4657421,0.6462824,1.032855,-0.1428057
1.409866,0.05549198,-0.247223,0.7104246,1.182459,-0.3558961
1.156044,0.06258209,0.145831,0.8007269,0.5549141,-0.3818987
1.069661,0.1823802,0.2085376,0.7913156,-0.6225826,-0.06488796
1.098736,0.270068,-0.04282883,0.8875067,-1.515323,0.2204757
1.066981,0.1126981,-0.2432539,0.581593,-0.7249442,-0.0007246041
0.9980593,-0.07499737,-0.3071666,0.3546188,0.412761,-0.2302679
0.7810809,-0.01134053,-0.1067423,0.5654411,-0.3631888,0.01253071
0.6893101,0.10133,0.104614,0.7116638,-1.012777,0.1793922
0.8154763,0.126235,-0.02931461,0.5747868,-1.064228,0.2379672
0.9515735,0.1715187,-0.2074952,0.3476604,-1.097462,0.3635317
1.048533,0.1187933,-0.2195832,0.1779653,-0.1222794,0.2374271
0.9924911,0.05701045,-0.2236685,-0.06690119,0.1738973,0.06824781
0.928888,0.1131465,-0.1649582,-0.2243199,-0.1577966,0.00295014
0.9462481,0.09712951,-0.1060295,-0.2281805,0.09032474,-0.02395093
0.9351881,0.07723966,-0.1287416,-0.09463361,0.05931001,0.1479248
0.9372297,0.0691027,-0.130464,0.2163746,0.2014974,0.3098217
0.919779,0.0163088,-0.1688907,0.2819604,0.3225896,0.3402605
0.8603738,0.03492884,-0.1814725,0.07643806,0.342923,0.3121277
0.7911717,0.0512624,-0.1622873,-0.1289572,0.6906657,0.2998568
0.7709276,0.09948772,-0.1696487,-0.1538908,0.3980391,0.5218908
0.7942452,0.1654937,-0.1271062,0.01274982,-0.08627204,0.7721198
0.7918043,0.04427194,-0.1861444,0.06498046,-0.1530411,0.7855882
0.8393214,-0.1146259,-0.2660723,0.05450838,0.391463,0.6296863
0.886465,-0.09890577,-0.2035214,-0.06883544,1.386001,0.4233454
0.8053134,-0.01703773,-0.1278543,-0.2500921,1.393528,0.2797859
0.6399823,0.005737427,-0.02673087,-0.204989,0.9567426,0.1456586
0.5005627,-0.004814732,0.03815692,-0.1692938,0.8319274,-0.01521143
0.4872965,-0.03116207,0.009544872,-0.1219482,0.2600043,-0.1106362
0.5392715,-0.09053782,-0.1265498,-0.07786389,-0.4546613,-0.02179375
0.7403835,-0.2568614,-0.407607,-0.3614899,-0.7877639,0.06745979
1.339495,-0.497505,-0.5366307,-0.6843399,-0.425429,-0.1012209
1.843146,-0.5283083,-0.4742608,-0.7008325,0.5354137,-0.1996249
1.740722,-0.4012111,-0.4129695,-0.7051547,1.114613,-0.1442835
1.616637,-0.3687526,-0.1579805,-0.677768,0.7727604,-0.2039979
1.67446,-0.2971394,0.1765109,-0.07450503,-0.1259025,-0.226527
1.546737,-0.1652873,0.1538517,0.4982658,-0.625763,-0.02547341
1.489899,-0.1336758,-0.1383224,0.3013957,-0.4208822,0.272009
1.431625,-0.146896,-0.288247,0.1222819,-0.03157318,0.339912
1.146933,-0.1595532,-0.1224267,0.2354524,0.1402247,0.2471594
0.8386982,-0.1832541,0.1039194,0.1547146,-0.2503404,0.2347948
0.5066222,-0.1562283,0.09926709,0.1379663,-0.7345476,0.1955949
0.4281411,-0.08531142,0.03031897,0.2263518,-0.7145557,0.2618465
0.5181988,-0.05086946,0.02372696,0.1068164,-0.6330773,0.3566633
0.460734,-0.07058719,-0.02393691,0.004457508,-0.7202593,0.1115483
0.5852745,-0.1298022,-0.03785499,-0.1133688,-0.7073564,-0.2293693
0.6530151,-0.1866188,-0.03778601,-0.3359322,-0.5665975,-0.4046633
0.6196022,-0.1831023,-0.06569592,-0.3749932,-0.372974,-0.5513272
0.7998564,-0.17657,-0.05947156,-0.4057073,-0.2702491,-0.6366331
0.9253705,-0.2344194,-0.1055133,-0.3518848,-0.7122347,-0.5211902
1.077765,-0.3006084,-0.1667323,-0.02821888,-1.162688,-0.4137208
1.213236,-0.3559145,-0.2137453,0.246537,-0.5434237,-0.5251671
1.255471,-0.4110044,-0.2863684,0.3990103,0.07981112,-0.613847
1.230492,-0.3644897,-0.2286102,0.370541,-0.2548065,-0.618826
1.00585,-0.2604819,-0.09687131,0.4258407,-0.6182896,-0.6658533
1.069438,-0.2652803,-0.1162197,0.7594604,-0.8238366,-0.5311763
1.259648,-0.2575754,-0.3255624,0.9200036,-0.7488594,-0.2543007
1.234773,-0.1812515,-0.5763856,0.9139193,0.271881,-0.1639462
1.30019,-0.1748748,-0.5813364,0.9858585,1.291516,-0.1586535
1.268264,-0.1275492,-0.394324,1.240821,1.187319,0.001713388
1.33476,0.01137991,-0.3517083,1.356352,0.9841813,0.1217667
1.475225,0.08622735,-0.4409293,0.8425557,1.581911,-0.1415859
1.27095,0.02534657,-0.4509091,0.2598,1.950442,-0.590847
1.010719,-0.04236021,-0.1993924,0.1959261,1.501983,-0.6932557
0.7364288,0.08520964,0.2017731,0.3819381,0.3832504,-0.267103
0.6636972,0.2188792,0.2705039,0.5871807,-1.671703,0.3101318
0.9328448,0.1532506,-0.01105474,0.7808253,-2.813558,0.3698307
1.156034,0.00454676,-0.3510203,0.5971748,-0.9570464,-0.09087319
1.282569,-0.127937,-0.5523665,0.2442563,1.113127,-0.3465268
1.045494,-0.04032893,-0.2888491,0.5062108,0.6806429,-0.1160826
0.6604174,0.1530213,0.08808395,0.6786318,-0.3916657,0.2096762
0.709839,0.14135,0.024575,0.3232599,-0.8174271,0.3365064
0.8673044,0.115244,-0.1415359,0.1893329,-0.6480358,0.3953133
0.9360314,0.1300783,-0.2101057,-0.00982444,0.1837016,0.3219987
0.9524891,0.1125102,-0.229766,-0.293043,0.4569212,0.1339012
0.8758802,0.1538174,-0.06452289,-0.3596556,0.1387364,0.213486
0.8799326,0.1591798,0.03902199,-0.4355634,-0.07297827,0.3392186
0.8854958,0.1274396,-0.03438417,-0.4097915,-0.2735529,0.3815673
0.8584742,0.08782769,-0.09278981,-0.4842595,0.0990153,0.499378
0.8807389,0.04690761,-0.1195895,-0.7630997,0.6102303,0.5119821
0.8816844,0.09859612,-0.07013971,-0.9825984,0.6398304,0.6191569
0.9301116,0.1488932,-0.02217292,-1.050322,0.3810584,0.7873
1.010519,0.1438211,-0.08564704,-1.057771,0.0937133,0.7980946
1.028766,0.08092455,-0.140615,-1.301918,0.5297995,0.8124952
1.01766,-0.04639993,-0.1048566,-1.560556,0.9095609,0.7372385
0.9874718,-0.1028745,0.01361202,-1.586649,0.4399425,0.6480254
0.9388689,-0.1077504,0.1109644,-1.411718,-0.1320492,0.6393319
0.8718242,-0.1304962,0.07220908,-1.017608,-0.5108188,0.6438819
0.8615659,-0.08000898,-0.00866918,-0.7586589,-0.3430248,0.7153055
0.8771349,0.08883937,-0.05026389,-0.6582576,0.06032092,0.7513489
0.7385922,0.2246969,-0.2467283,-0.4969414,0.08208493,0.8162484
0.5184083,0.131128,-0.5503564,-0.4788508,0.09896788,0.9507368
0.4784364,-0.1362163,-0.6060031,-0.8453785,0.05104786,0.9536685
0.8704995,-0.4463662,-0.5365731,-1.444255,-0.1631895,0.6361992
0.376634,0.04294533,-0.04111613,-0.1526769,-0.4182482,0.002935749
0.4564493,-0.07035999,0.01408222,-0.5900804,-0.5236953,-0.3030884
0.4239875,-0.1890282,-0.01093161,-0.7247205,-0.560759,-0.6067265
0.5518998,-0.1512375,-0.01205821,-0.5837131,-0.4884697,-0.8151024
0.620064,-0.0660202,-0.1263657,-0.4958461,-0.540886,-0.7510797
0.7569787,-0.1887313,-0.2086234,-0.4078216,-0.6145103,-0.723385
1.088988,-0.2264213,-0.207857,-0.08547328,-0.5040517,-0.6362714
1.236765,-0.1870411,-0.2532947,0.2610778,-0.2822512,-0.5833846
1.136292,-0.2196931,-0.2402373,0.3166451,-0.01616522,-0.6088392
1.063123,-0.2106237,-0.2108269,0.2103974,-0.2599476,-0.4644607
1.09831,-0.2140206,-0.1779389,0.1889137,-0.8238546,-0.4669398
1.160746,-0.218768,-0.1478549,0.2376763,-0.9303054,-0.5228932
1.287723,-0.2273365,-0.2109238,0.2933779,-0.763031,-0.4722721
1.288993,-0.2444338,-0.3466839,0.381737,-0.5357267,-0.3493863
1.187253,-0.2043645,-0.5097865,0.4235504,-0.1914722,-0.04722116
1.260259,-0.146009,-0.5790142,0.3936067,0.3134504,0.02910101
1.362768,-0.02974816,-0.5557118,0.4602136,0.8453532,0.06980008
1.463018,0.140045,-0.6134697,0.5103171,1.181576,0.6284047
1.438424,0.1969563,-0.6782114,0.2419812,1.658124,1.070101
1.203279,0.101616,-0.4841899,-0.3770213,1.921691,0.6136364
1.040313,0.02629801,-0.1174099,-0.8927819,1.659102,0.06026914
0.8652498,0.0252439,0.07717613,-0.7138629,1.157851,0.3734999
0.7899729,0.0150866,0.06468112,-0.2300059,-0.134504,0.6454019
0.904604,-0.01570104,-0.01457183,-0.08255218,-0.8888514,0.4840256
0.9625147,-0.1770764,-0.1603183,-0.03841495,0.1184099,0.2208053
1.030623,-0.3428007,-0.2904568,0.1782655,0.6160922,-0.425491
0.8752239,-0.1809906,-0.1155537,0.5581606,0.04890808,-0.5025602
0.6365619,0.07464312,0.1480313,0.7080454,-0.4963429,-0.04955019
0.8191848,0.1552857,-0.01426586,0.5189313,-1.045099,-0.0579009
0.9787002,0.2133403,-0.2603186,0.3638357,-0.9462101,0.1019306
0.9309445,0.1904553,-0.3025932,-0.1065735,-0.4311559,0.1498605
0.9663092,0.08302532,-0.2635833,-0.4788901,-0.2169316,-0.01739993
0.9437899,0.09171484,-0.06727062,-0.1640819,0.1001536,0.1628311
0.8766391,0.07518528,-0.05104542,-0.03691248,0.1718645,0.1592613
0.8435077,-0.002350938,-0.143472,-0.02714304,0.007475092,0.2461162
0.7732055,0.006178275,-0.06115858,0.1485382,0.2750308,0.394469
0.7587634,-0.003616167,-0.1150928,0.1255312,0.3737216,0.2742426
0.8323978,-0.03036244,-0.1185594,0.2663001,0.1048232,0.3685633
0.9176308,-0.05065418,-0.09017567,0.3976747,0.0129387,0.3888137
0.976611,-0.06376519,-0.2661275,0.2377895,0.1490683,0.3438786
0.9721413,-0.0007521724,-0.3130992,0.100541,0.6068562,0.406884
0.9583448,0.06639814,-0.1770023,-0.01429319,0.9093572,0.3377173
0.9566874,0.1311221,-0.02337767,-0.1253855,0.5922388,0.3361558
0.8543871,0.07752198,-0.0752842,-0.2325594,0.2594811,0.3161099
0.6903651,-0.1130152,-0.1843614,-0.3056483,0.3125097,0.2399694
0.6252584,-0.1664752,-0.1028869,-0.2691294,0.3839703,0.15492
0.6706201,-0.1603963,-0.1506366,-0.1936126,0.0894162,0.02395524
0.7736612,-0.259737,-0.2119938,-0.2348199,-0.4908351,0.05636408
1.036127,-0.4008148,-0.2819074,-0.6700946,-0.9863317,0.05805792
1.433912,-0.4664288,-0.595631,-1.236968,-0.6661637,-0.09875159
1.600537,-0.4509383,-0.7258066,-1.137856,0.1163137,-0.2873774
1.500671,-0.4591579,-0.3987522,-0.4034687,0.1728484,-0.4531275
1.474518,-0.3808055,0.06295433,0.210294,0.06070692,-0.3602359
1.470426,-0.2805658,0.08205606,0.4404541,-0.08991603,-0.1783881
1.377636,-0.2361776,-0.09776921,0.4728433,-0.7095076,-0.1803368
1.389402,-0.07912702,-0.03143331,0.4839416,-0.952928,-0.06111685
1.381662,0.01202005,-0.1495877,0.4717721,-0.5728273,0.2018592
1.096338,-0.008001535,-0.232484,0.4304351,0.07690373,0.3968419
0.7132586,-0.0002425582,-0.08127202,0.420176,0.170285,0.6039678
0.48576,-0.04940952,-0.0422448,0.2787055,-0.4145401,0.6225835
0.4737498,-0.1275648,0.0530212,0.1657827,-0.7943775,0.3943142
0.5654739,-0.2069872,0.06284899,0.1898462,-0.957164,0.1437154
0.5953458,-0.2235798,-0.06280767,-0.04018597,-0.608479,-0.1609875
0.575296,-0.1589956,-0.1074884,-0.4072745,-0.09341798,-0.2980694
0.550553,-0.1343887,-0.1201676,-0.5586885,-0.01732056,-0.2463963
0.5549668,-0.102996,-0.01619461,-0.5260295,0.0620149,-0.2958864
0.5959437,-0.06446088,0.04275516,-0.5629854,-0.1919078,-0.3365411
0.6977886,-0.05923511,-0.04232409,-0.6095949,-0.6629624,-0.3518697
0.9294209,-0.08838062,-0.1824783,-0.3979991,-0.8595832,-0.3672046
1.118824,-0.1920774,-0.3300073,-0.2486717,-0.6004301,-0.3747298
1.141231,-0.2764812,-0.2626765,-0.2903427,0.1335199,-0.4882473
1.071345,-0.252818,-0.1414224,-0.2345253,0.3577756,-0.5683006
1.009362,-0.1575176,-0.1381461,-0.1251404,-0.02169635,-0.5136197
1.057925,-0.08558306,-0.1241467,-0.1747182,-0.4146717,-0.4320036
1.111307,-0.1051201,-0.1493539,-0.3533672,-0.5332547,-0.4098596
1.180031,-0.1825027,-0.194243,-0.4000795,-0.3476695,-0.3784863
1.308401,-0.2423411,-0.2239347,-0.3602349,-0.393411,-0.2956031
1.275192,-0.2399626,-0.239516,-0.226747,-0.4287464,-0.2990966
1.185494,-0.2686339,-0.2450092,0.08287631,-0.3459389,-0.3136813
1.204072,-0.3430946,-0.3234513,0.3597681,-0.2492645,-0.2764441
1.192306,-0.2762492,-0.3739711,0.5199601,0.1733829,-0.2382762
1.178691,-0.04086224,-0.4051308,0.541169,0.4947606,-0.1056118
1.218929,0.1544151,-0.5158777,0.7418485,0.5909497,0.009619701
1.33683,0.1246103,-0.5798441,0.9816518,0.7046601,-0.0003370525
1.488487,0.02745537,-0.6561958,0.4792056,1.242672,-0.1034132
1.372201,0.01672726,-0.6724272,-0.1246413,2.205893,-0.4124087
1.05559,-0.06946239,-0.3152069,0.0106259,2.174445,-0.674699
0.8255793,-0.02120215,0.09496009,0.2514504,0.8087983,-0.3566574
0.7123528,0.2315316,0.09895703,0.2235024,-0.9077573,0.1942658
0.8460919,0.2379412,-0.08990722,0.1450235,-1.665958,0.214977
1.113526,0.08004569,-0.2305869,0.03522164,-0.4853502,-0.104687
1.222646,-0.0217109,-0.3387743,0.09659357,0.6418568,-0.2811224
1.0868,-0.02099005,-0.2440147,0.2324968,0.1253431,-0.2126275
0.7902923,0.1014454,-0.03755205,0.09802734,-0.5230589,-0.02603727
0.7545597,0.1175258,-0.07120135,-0.01622032,-0.8167974,0.04139113
0.9226369,0.1379728,-0.112352,-0.06160149,-0.7093977,0.1430396
0.9749099,0.1780248,-0.04566186,-0.156355,-0.2006154,0.2443042
1.063024,0.1232077,-0.09568702,-0.1568148,-0.3510115,0.2219161
1.093053,0.1476161,-0.1239448,-0.2451425,-0.1688997,0.3269045
1.053504,0.1065879,-0.1469202,-0.2528535,0.5847298,0.3894035
0.9954775,0.05481687,-0.140181,-0.1323563,0.4528002,0.4282799
0.8283056,0.08477304,-0.02230438,-0.1561344,0.2559143,0.5400854
0.7745353,0.03113737,-0.01466966,-0.1239704,0.2383019,0.5250919
0.764326,0.004984035,-0.05354197,-0.08941525,0.0153635,0.5814526
0.7121578,-0.015651,-0.1105926,-0.1027897,0.1444797,0.6308578
0.742123,-0.00740657,-0.177894,-0.157342,0.3264484,0.6205003
0.8112958,0.04888728,-0.09800097,-0.3518917,0.5073235,0.7144415
0.9377817,0.04176214,-0.05550845,-0.370836,0.4830119,0.7519945
0.9808841,0.05560096,-0.1354469,-0.264434,0.2198291,0.7803487
0.9373878,0.03052317,-0.2329932,-0.3194132,0.4685968,0.7493309
0.9798343,0.005846011,-0.2444756,-0.6496733,1.161934,0.5336131
1.003511,0.04944316,-0.04594454,-1.091413,1.814527,0.2488421
0.917621,0.05942557,0.1826218,-0.9951116,1.386228,0.1070153
0.6834597,0.03966576,0.1426909,-0.5096445,0.2653095,0.2284149
0.4558893,-0.1222668,-0.1563085,-0.277819,-0.1191232,0.1968012
0.5497138,-0.3655651,-0.4291839,-0.3764781,-0.7478882,-0.1308511
0.9362842,-0.4280713,-0.5093,-0.7307358,-1.457407,-0.3885148
1.427885,-0.3648219,-0.5038671,-0.9819128,-0.969861,-0.4175064
1.774662,-0.3672339,-0.5542187,-0.935235,0.2692942,-0.3256042
1.701804,-0.3903547,-0.5052213,-0.7264106,1.711549,-0.4115195
1.491396,-0.3011951,-0.1390673,-0.3826522,1.688887,-0.4710201
1.425194,-0.1495005,0.1632496,-0.1827164,-0.004269284,-0.2546259
1.324788,-0.0005620083,0.03342839,-0.1169867,-0.7499579,0.009876615
1.300836,0.01048919,-0.1433476,-0.09624246,-0.1224222,0.273164
1.253082,-0.1270658,-0.0563188,-0.3638895,0.4027136,0.313166
0.9602557,-0.1546716,0.02354921,-0.5024904,0.05076125,0.2353665
0.7168995,-0.1218872,0.01189826,-0.2850721,-0.3930619,0.3682241
0.5545401,-0.09416717,-0.02380231,-0.1843558,-0.4736036,0.4435109
0.4980201,-0.04422415,-0.1995431,-0.2631609,-0.8939231,0.54774
0.5633374,-0.08909769,-0.2412394,-0.4129278,-0.8215608,0.6166573
0.5415628,-0.1184976,-0.1504886,-0.5234615,-0.4186608,0.3188281
0.5784116,-0.1059961,-0.1899909,-0.5160069,-0.3926207,0.03185815
0.6324798,-0.1270097,-0.1336975,-0.5897034,-0.1248966,-0.0292412
0.6084574,-0.1237567,-0.1132633,-0.7573883,-0.2422165,-0.005960164
0.6668022,-0.1340974,-0.112417,-0.7881648,-0.3232606,-0.06049354
0.8038326,-0.1563798,0.04245517,-0.6306584,-0.03126226,-0.1719691
0.9166484,-0.1564215,0.023874,-0.5642515,-0.1775842,-0.09011496
0.8923216,-0.1262352,-0.0995303,-0.695928,-0.2135008,-0.05428315
0.9242028,-0.106221,-0.1727103,-0.7864216,-0.3311088,-0.2069357
1.104309,-0.1703376,-0.1465896,-0.7694858,-0.4199282,-0.2568684
1.193448,-0.2334366,-0.03984383,-0.8075047,-0.3342667,-0.1522486
1.250358,-0.22674,-0.06514571,-0.9452794,-0.569999,-0.07298762
1.281935,-0.2142074,-0.05890344,-0.9837938,-0.3054364,-0.2538252
1.232236,-0.2111022,-0.02674399,-0.9944584,-0.01371939,-0.4123017
1.150344,-0.1117204,-0.09113088,-1.082799,-0.239447,-0.1269254
0.9512953,0.07736535,-0.2402186,-1.065176,-0.3415859,0.3032853
0.8931132,0.118931,-0.6155331,-1.056331,-0.2757259,0.5208573
1.172334,-0.08867426,-0.8850295,-0.9713415,0.6086886,0.4698803
1.398643,-0.2593769,-0.8346803,-0.6578404,1.636143,0.3298514
1.469942,-0.1248157,-0.8360008,-0.4568377,1.294663,0.3222602
1.575837,-0.005795839,-0.868441,-0.664585,1.019267,0.1901239
1.537064,-0.1411274,-0.6844108,-1.376224,1.965892,-0.3664313
1.278792,-0.1527311,-0.3284678,-1.910853,2.595543,-0.8870116
1.02302,0.007921618,0.0556701,-1.452018,2.141269,-0.503037
0.7369406,0.07715202,0.2295388,-0.828261,0.5099626,0.2631685
0.5737778,0.008847142,0.1276635,-0.9336365,-1.703354,0.2714476
0.8501812,-0.1443265,0.02608693,-0.8720842,-1.705284,0.109809
1.064345,-0.1887376,-0.06058305,-0.3332998,0.193936,0.1317892
0.8984828,-0.1016777,-0.130673,-0.199802,0.8120902,-0.001095304
0.7944948,0.04007362,-0.02417137,-0.3176883,0.0006923947,0.1576557
0.7860352,0.1884894,0.0001033541,-0.4840454,-0.8461603,0.3523839
0.8474661,0.1416238,-0.1080477,-0.7616141,-0.6460575,0.3203024
1.048331,0.03640224,-0.1590848,-0.8405152,0.0890034,0.2863482
1.110856,0.04611923,-0.1738675,-0.8612057,0.2154213,0.1825448
1.014934,0.04698476,-0.07002124,-0.7697172,0.1556301,0.3157528
0.9593217,0.06654385,0.00988597,-0.6232572,-0.2427979,0.5025034
0.9658867,0.05062954,-0.05327704,-0.5360381,-0.4651157,0.4708051
1.017872,-0.02780098,-0.09822122,-0.3350255,-0.03250174,0.3915114
1.058933,-0.04507467,-0.1115293,-0.2602334,0.2291305,0.1911691
0.9999466,-0.04156144,-0.08843656,-0.2203444,0.5035315,0.1134062
0.8912101,-0.01196239,-0.06834752,-0.2129364,0.3101535,0.165286
0.8319786,0.04147776,-0.09195121,-0.2673632,-0.03721174,0.1794614
0.8079496,0.07138544,-0.1202772,-0.2356813,0.2407323,0.2563465
0.8329377,0.1006592,-0.1409095,-0.3516199,0.158943,0.2944288
0.8951923,0.09850147,-0.09973481,-0.3577949,0.07836729,0.3574164
0.9254859,0.0770934,-0.07218787,-0.2598938,0.1409712,0.4417839
0.9541264,0.02983811,-0.1470966,-0.2955481,0.05804619,0.4706929
0.9605298,-0.005212362,-0.2084266,-0.3463233,0.5581406,0.4812164
0.9052925,0.08090551,-0.1462874,-0.4650459,0.9627796,0.3852859
0.7720117,0.1416285,-0.05433355,-0.3805031,0.5871588,0.303406
0.5418761,0.03819971,-0.049625,-0.2397146,0.06567158,0.3054169
0.4304953,-0.08034605,-0.07728757,-0.2531709,0.009343107,0.26068
0.4948359,-0.08174039,-0.1368947,-0.1268441,0.09832594,0.2147925
0.5214833,-0.1081618,-0.2905508,-0.1992231,-0.154887,0.256942
0.7428482,-0.3664169,-0.5074119,-0.6083745,-0.6839349,0.2631741
1.417269,-0.6899371,-0.6342799,-0.9626037,-1.105019,0.03012295
2.010916,-0.7335671,-0.6162809,-1.047636,-0.2544652,-0.3050666
1.956248,-0.5633669,-0.6031829,-0.8184749,0.8478659,-0.4139713
1.676298,-0.4173896,-0.4054729,-0.4129323,0.2426764,-0.3054761
1.662701,-0.2629353,-0.07139595,-0.09081276,-0.2860993,-0.2505562
1.614243,-0.2193932,-0.1101955,-0.0508562,-0.003188135,-0.2094204
1.48548,-0.2866338,-0.1883015,0.09861638,-0.1660464,-0.002597036
1.343074,-0.166521,-0.04234437,0.4859554,-0.0414912,0.2354133
0.9879028,-0.09188862,-0.06856382,0.7366686,0.2020761,0.5013612
0.7060719,-0.1179973,-0.06662886,0.8676195,0.03372607,0.694782
0.560227,-0.03103072,0.001458533,0.6591409,0.01066396,0.6263759
0.4202811,-0.07147822,-0.06401707,0.3503248,-0.361813,0.5462982
0.4625229,-0.1892067,-0.03898038,0.2896519,-0.9215035,0.3685851
0.5613897,-0.3192911,-0.03721266,0.1828083,-0.9731567,-0.04510141
0.6490564,-0.4142855,-0.08025681,0.2941921,-0.6918464,-0.4092129
0.7061061,-0.2944148,-0.06728631,0.3927368,-0.3163908,-0.5869948
0.7258289,-0.2429099,-0.1196288,0.2832164,-0.2294861,-0.5735617
0.8297783,-0.2092922,-0.05322476,0.3467808,-0.1034294,-0.6293938
0.8327233,-0.04744239,0.03394954,0.2632477,0.08243269,-0.6967462
0.739702,0.02621602,-0.04782134,0.1529249,-0.2897318,-0.518616
0.6200489,0.04299469,-0.1143265,0.0927771,-0.6560652,-0.3921443
0.5400052,-0.01187085,-0.1603476,-0.02861691,-0.8318912,-0.3624576
0.7895303,-0.141645,-0.166409,0.09934651,-0.9499005,-0.4923758
1.116599,-0.2616842,-0.172055,0.2180957,-0.616845,-0.7879973
1.174172,-0.2716582,-0.2574503,0.2239341,-0.144439,-0.8132452
1.054002,-0.1529409,-0.2625413,0.1686378,-0.01095565,-0.6575024
0.9779773,-0.1357189,-0.2156275,0.05968644,-0.2777879,-0.5292116
1.070769,-0.1627106,-0.200734,0.1115465,-0.4958392,-0.5152122
1.139373,-0.218749,-0.1660532,0.2045983,-0.3729108,-0.6271505
1.144416,-0.3374866,-0.1591583,0.3883292,-0.2903866,-0.6299215
1.144477,-0.2796497,-0.2149059,0.5972215,-0.2699772,-0.5825818
1.092073,-0.1923966,-0.3062479,0.6062297,-0.2126756,-0.4361388
1.093588,-0.1485876,-0.4107308,0.7156914,-0.06380183,-0.145245
1.139803,-0.04983132,-0.5098357,0.9418383,0.3629359,0.02100914
1.315905,0.006125962,-0.6377476,1.01242,0.7700831,0.02797461
1.653647,0.1737448,-0.8429259,1.009207,1.20872,0.02096534
1.726869,0.3081309,-0.9222497,0.7398583,2.046816,-0.03977449
1.383247,0.08449191,-0.4873432,0.1725189,2.670707,-0.4779857
0.9115801,-0.09388451,0.1405745,0.04655925,2.530393,-0.8771998
0.5800156,0.1099721,0.2622979,0.2316309,1.234608,-0.4416811
0.5610446,0.2603508,0.1628239,0.2465641,-1.360134,0.1982472
0.8303569,0.09872134,0.0378506,0.4135861,-2.663178,0.2352779
1.156473,-0.07426291,-0.4043537,0.4316968,-1.207823,-0.01308633
1.244372,-0.1513238,-0.5173307,0.329407,0.4116741,-0.168814
0.9941064,-0.07078597,-0.1583346,0.5504963,0.9028509,-0.1398588
0.7524377,0.1478649,-0.0494272,0.5740406,0.111348,0.05046317
0.8168056,0.1632107,-0.1059171,0.3697215,-1.168653,0.216191
0.9463391,0.1089811,-0.1735284,0.1472022,-0.6149829,0.2464926
0.9808549,0.1268174,-0.2246396,-0.1247988,0.1417115,0.1691984
1.007119,0.052102,-0.1548009,-0.1941965,-0.04165449,0.09611698
0.9975906,0.06365092,-0.1016995,-0.1911938,0.4162315,0.1232135
1.002272,0.1028147,-0.05352477,-0.08284259,0.3204611,0.2154955
0.957455,0.05440832,-0.1007896,0.109629,0.1212816,0.3741651
0.8082173,0.02936946,-0.1661142,0.08918167,0.5435663,0.4794045
0.7600001,-0.03794931,-0.07742178,0.08034103,0.3443329,0.4466436
0.77592,-0.03193265,-0.0266411,0.1746504,0.3999834,0.4994416
0.7725173,0.0230988,-0.01872312,0.2879451,0.2120471,0.5965428
0.8296314,-0.0114214,-0.0939529,0.3884725,-0.2613768,0.6347595
0.931552,-0.002164675,-0.2529435,0.338674,0.3232732,0.6698518
1.038451,0.006664641,-0.2708456,0.05445695,0.880693,0.6068958
1.048431,0.02832815,-0.1677727,-0.4156771,1.086391,0.4848879
0.8765338,0.0852529,-0.088295,-0.5836835,0.8129019,0.3831298
0.5917081,0.01282572,-0.1615988,-0.39718,0.1941936,0.3484568
0.3860231,-0.08703208,-0.2833492,-0.34773,0.1472135,0.3445212
0.3266422,-0.1309884,-0.3263751,-0.2904683,-0.08516675,0.2694397
0.3949025,-0.2280642,-0.372424,-0.2391861,-0.374353,0.3124952
0.8512879,-0.4175397,-0.3774091,-0.4974547,-0.3106581,0.3602392
1.495538,-0.6135608,-0.4222084,-0.7210472,-0.2691047,0.06613588
1.674207,-0.6256567,-0.5046781,-0.6038791,0.03949655,-0.3700053
1.614267,-0.5251201,-0.3799008,-0.1673166,0.3214357,-0.5763308
1.679765,-0.4925552,-0.173425,0.5068601,0.2240666,-0.4812287
1.548461,-0.4273045,-0.1006953,0.9703466,0.002889383,-0.4219908
1.423185,-0.3208853,-0.09564326,0.9245855,-0.1263266,-0.4823409
1.457046,-0.2013052,-0.02540206,0.7187706,-0.3945985,-0.3042844
1.202394,-0.03906016,0.09243613,0.5630471,-0.7204889,-0.1072101
0.9854399,-0.01247775,0.07151928,0.4002937,-0.4473086,-0.0291746
0.8211912,0.01706523,0.01549163,0.3255257,-0.188845,0.2689781
0.4399227,0.2001396,0.06032478,0.1451201,-0.5682376,0.5210013
0.4286891,0.1644365,-0.00271286,-0.2995192,-0.9313115,0.4562249
0.467025,-0.008720504,-0.09674195,-0.7176501,-0.9926236,0.3319571
0.4327051,-0.09889019,-0.08422844,-0.8780855,-0.7995391,0.1835356
0.7960001,-0.2467029,-0.09462403,-0.6915711,-0.3215272,-0.135617
0.895633,-0.25256,-0.1068318,-0.4432524,0.0801789,-0.4269646
0.7831216,-0.199443,-0.118483,-0.3955844,-0.1127391,-0.4449172
0.8307349,-0.2957272,-0.1082024,-0.2685976,-0.7558165,-0.4066638
0.8126647,-0.3037105,-0.07609887,0.03613606,-0.9912448,-0.526888
0.8876186,-0.2850144,-0.1580927,0.4444486,-0.1900573,-0.646787
0.9276814,-0.2763706,-0.222641,0.6420992,0.639397,-0.621655
0.9037716,-0.232259,-0.1898272,0.3969324,-0.1332183,-0.5636054
0.9391577,-0.2648712,-0.2015964,0.2314524,-1.256849,-0.5568546
1.0036,-0.2759752,-0.2781477,0.159683,-1.119831,-0.5162806
1.138727,-0.2871926,-0.3549049,0.05813582,-0.7237005,-0.5174927
1.153527,-0.305733,-0.3903236,0.2735125,-0.2899249,-0.5379869
1.182675,-0.287899,-0.472072,0.4439968,0.1693124,-0.4174263
1.256682,-0.3023001,-0.5712223,0.5141626,0.3419022,-0.2416464
1.215046,-0.2680344,-0.5607157,0.8678384,0.8790663,-0.07112927
1.274055,-0.1769661,-0.5678076,1.130562,1.081517,0.04056272
1.406406,0.01562508,-0.6711356,0.9598656,0.9522675,0.112553
1.558742,0.2227613,-0.7315647,0.5980917,1.38574,0.138978
1.567375,0.1639007,-0.5750354,0.1750343,1.778547,-0.2092481
1.246332,0.08850777,-0.194048,-0.4484515,2.249974,-0.6080282
0.9005122,0.1777224,0.1312335,-0.5630781,2.193407,-0.3781335
0.7271639,0.161862,0.1839172,-0.01355733,0.3367531,0.1231732
0.799325,0.1050223,0.03214,0.07319971,-2.153716,0.3659134
0.9750645,0.04175058,-0.1301539,0.08567999,-2.840575,0.3092307
1.017128,-0.1205592,-0.2236997,0.4169621,-0.6500829,-0.00289367
0.9841478,-0.09826331,-0.2558649,0.593403,1.087905,-0.1527725
0.8533581,0.06748867,-0.1361861,0.7915128,-0.2002805,0.008939278
0.8287997,0.1065667,-0.02546295,0.6406187,-0.9682128,0.1162859
1.009676,0.1066934,-0.1389174,0.3567928,-0.05851654,0.1341161
1.090452,0.08611343,-0.2183955,0.2767779,0.2488692,0.1188565
1.036634,0.09201959,-0.1350276,0.01296166,0.5034859,0.1260943
0.9231772,0.1104178,-0.0700299,0.02790508,0.4165981,0.1671915
0.9016449,0.03463954,-0.04610501,0.1295612,-0.3074327,0.1506464
0.94739,0.01178837,-0.06649481,0.04768307,0.0175805,0.1674273
0.9198486,0.02716712,-0.114313,0.1177185,0.278554,0.170326
0.9627516,0.03040107,-0.1045972,0.09388418,-0.05550481,0.2190476
0.9986421,0.04132891,-0.118501,0.09097028,0.2197013,0.3566604
1.023522,0.009908725,-0.1847828,0.0548216,0.2181529,0.3742701
1.043735,0.01522249,-0.1825209,-0.1268065,0.3281473,0.340421
0.9334452,0.0324462,-0.1450387,-0.174985,0.7268575,0.3237329
0.8962697,0.0439177,-0.1005596,-0.2407552,0.3439673,0.3433479
0.9636254,0.05089859,-0.01999639,-0.2851896,0.1754072,0.4035819
1.045787,0.0233278,0.01944831,-0.2185194,0.3051069,0.4702757
1.074193,0.04886828,0.0181986,-0.1058112,0.2930013,0.6110308
1.010015,0.07606383,0.01715521,0.02654607,0.4079487,0.6901782
0.9714255,0.09553769,0.0007190504,-0.006922715,0.2083423,0.676945
0.9103898,0.1114086,-0.06789212,-0.1785825,0.008504222,0.6110359
0.8964988,0.08807478,-0.177312,-0.4083606,0.05485341,0.4638545
0.8798761,0.1114708,-0.2265307,-0.5706578,0.2070475,0.4138149
0.7071304,0.1041029,-0.2152686,-0.5978498,0.5149243,0.4195998
0.5870123,0.07977583,-0.1657695,-0.7682889,0.680512,0.3583396
0.4935069,0.09543853,-0.06848226,-0.941633,0.5956465,0.3067617
0.3524782,0.002844886,-0.05787447,-0.8303875,0.02415718,0.2900676
0.3722842,-0.2813266,-0.2863725,-0.8627145,-1.127836,0.2857366
0.8065352,-0.7761481,-0.5877793,-1.336893,-2.0499,0.1451378
1.586388,-1.058732,-0.6305142,-1.634441,-1.624311,-0.2848316
1.91395,-0.6837852,-0.6004462,-1.170242,-0.08244209,-0.6610781
1.615078,-0.1890381,-0.6892984,-0.6360681,0.9085552,-0.394491
1.54381,-0.133062,-0.5869792,-0.8254459,0.5337588,-0.01304727
1.743802,-0.2902421,-0.4518391,-0.9840148,-0.01540204,-0.2736363
1.710721,-0.3640931,-0.4837799,-0.815911,0.5027986,-0.3884841
1.504299,-0.2490733,-0.2949562,-0.8652495,0.7198125,-0.1662031
1.249796,-0.09387169,-0.02538418,-0.5548643,0.1202184,-0.1149338
1.064624,-0.09771902,-0.08342068,-0.007434291,0.1644505,0.2836066
0.9750708,-0.08398484,-0.2049411,0.04289913,0.1840053,0.6471787
0.7902591,-0.03891883,-0.1855149,-0.1128991,0.04775819,0.5226888
0.7202508,-0.1041482,-0.1961545,-0.3645661,0.1189657,0.5260237
0.7820102,-0.1776301,-0.1825984,-0.4747143,-0.08184376,0.488365
0.7127919,-0.2530862,-0.1261176,-0.345346,0.09457041,0.3228217
0.717787,-0.278489,-0.1479543,-0.2564534,0.1516139,0.2662657
0.738776,-0.2342664,-0.1371147,-0.1380968,-0.009870218,0.2040881
0.7012203,-0.2114231,-0.1014468,-0.1722096,0.06700124,0.2172538
0.7733042,-0.1271703,-0.1115237,-0.2080063,-0.08162063,0.2274377
0.7793053,-0.06182527,-0.1107016,-0.1605597,0.2547872,0.1709565
0.756853,-0.08318281,-0.1445557,-0.3620053,0.816952,0.01770905
0.6971576,-0.08316513,-0.146244,-0.6905438,0.9126903,-0.266199
0.5570725,-0.09330419,-0.06931907,-1.047364,0.6972252,-0.428792
0.5931152,-0.118335,0.02140168,-1.151584,0.2079429,-0.5157768
0.6546259,-0.1483374,0.08293203,-0.8374565,-0.1161142,-0.621185
0.7592635,-0.2152334,0.02408646,-0.427928,-0.6435198,-0.6296581
1.104961,-0.2884405,-0.08476749,-0.1359852,-0.9778643,-0.6813116
1.297125,-0.2856869,-0.1583614,-0.1254758,-0.02834858,-0.7978892
1.183642,-0.148183,-0.137027,-0.2634669,1.055924,-0.7519567
1.094948,0.008541381,0.01170787,-0.401954,0.8487478,-0.5874458
1.035159,0.05017616,0.0921352,-0.5899726,-0.1796703,-0.3489384
0.9222891,-0.02137564,0.06751478,-0.6542246,-0.8806162,-0.07977478
0.9984969,-0.1343389,-0.01084149,-0.5582404,-0.9521254,-0.0900744
1.121755,-0.2039669,-0.1671515,-0.4283268,-0.6242346,-0.153255
1.058631,-0.2099885,-0.3825534,-0.2426372,-0.4901906,0.03603362
1.105391,-0.2083856,-0.6790705,-0.0300819,-0.5454579,0.1738699
1.202926,-0.2712455,-0.8248377,0.06405367,0.04848096,0.1546161
1.230753,-0.2741451,-0.6732785,0.1492856,0.7140773,-0.05090025
1.368772,-0.05986646,-0.5583373,0.2927402,0.784421,-0.2406171
1.509469,0.1202366,-0.5937676,0.2440814,0.5208289,-0.007604741
1.587531,-0.007635144,-0.5292266,0.09983727,0.4496911,0.1229794
1.407406,-0.1467048,-0.2898652,-0.05241292,1.177183,-0.3673499
0.9992755,0.0166018,0.01327275,-0.2363035,1.575459,-0.7336277
0.8947873,0.1622275,0.1781985,-0.1194263,0.4261915,-0.3155241
0.955139,0.1299456,0.04034591,0.04103882,-1.142777,0.1405497
0.9263831,0.1018189,-0.1137519,-0.07028294,-1.29516,0.03171117
0.9310029,0.0275107,-0.09821957,-0.006377606,-0.4320646,-0.002754256
0.847217,0.04393031,-0.08739301,0.1922068,-0.3385708,0.1360892
0.7793726,0.1243576,-0.03788883,0.2450955,-0.9642367,0.1445107
0.9111685,0.07958044,-0.1069683,0.2163314,-1.434054,0.3077262
1.073792,0.07292137,-0.2526093,0.1271554,-0.948043,0.3969424
1.089079,0.03342128,-0.1698779,0.1448803,0.1684882,0.1944641
1.00547,-0.002009791,-0.122854,0.1808143,0.4634107,0.07910302
0.9581226,0.06494318,-0.1146641,0.1232284,0.2988742,0.1012893
0.846768,0.0936927,-0.04734136,0.1446664,0.2035928,0.1772605
0.7012992,0.1780295,-0.06718548,0.1004661,0.1695136,0.3196453
0.7266031,0.1799108,-0.05625269,0.05915967,0.1648368,0.5040705
0.7824005,0.05936186,-0.1013573,0.1767798,-0.04087556,0.6419819
0.8013924,0.03661178,-0.1667188,0.2193996,0.239392,0.6519464
0.9586142,0.025522,-0.1349169,0.1034499,0.6541461,0.6555392
1.075491,0.0433231,-0.1670211,-0.02630209,0.8025625,0.6543899
0.8895331,0.04118539,-0.2150918,0.007270818,0.986876,0.6176881
0.6379466,-0.06687003,-0.2497193,0.009773683,0.8748681,0.5462971
0.4986888,-0.1624141,-0.2532034,-0.1113881,0.901009,0.320857
0.3408941,-0.2417821,-0.2218587,-0.06104007,0.7668072,0.0470087
0.3391237,-0.3088359,-0.2414498,-0.05681911,-0.1451034,-0.1431234
0.7666847,-0.4160335,-0.2316706,-0.2094451,-1.407436,-0.2222073
1.444783,-0.5235512,-0.2491513,-0.2647004,-2.075085,-0.2142219
1.863886,-0.5934635,-0.2982299,-0.1878063,-0.9207416,-0.2834703
1.883166,-0.6821295,-0.2615146,0.175963,0.689256,-0.5135528
1.76436,-0.538273,-0.2027953,0.7555758,1.006248,-0.7558179
1.516865,-0.2043287,-0.1392169,1.12891,0.5901011,-0.6245964
1.250781,-0.007633907,-0.1186201,1.029962,-0.1024802,-0.2328592
1.205028,0.02114509,-0.1438202,0.7164472,-0.5404749,-0.04481172
1.220837,-0.039316,-0.1030222,0.7460371,-0.539326,0.02517453
1.077257,-0.006993111,-0.01921194,0.8210158,-0.2533583,0.003032834
0.7948635,0.07076161,0.06215459,0.4815306,0.1966417,0.002096187
0.6086443,0.07966728,0.04685895,0.1435877,0.1293696,0.1749022
0.4953242,0.08403029,-0.05098209,-0.05838907,-0.2769418,0.1505126
0.2835473,-0.01543051,-0.0701788,-0.3210105,-0.7754409,-0.05301376
0.270288,-0.108243,-0.07214891,-0.6000306,-1.098204,-0.3379242
0.3804151,-0.1518502,-0.0802094,-0.7544583,-0.7931768,-0.6161891
0.2697518,-0.2713787,-0.07065748,-0.5687405,-0.6569483,-0.5824185
0.318272,-0.2837364,-0.1049978,-0.2905655,-0.8000228,-0.5659918
0.7161562,-0.2253544,-0.1206487,0.1327797,-0.8428135,-0.7038278
1.095335,-0.225941,-0.1836285,0.8200708,-0.9322437,-0.7762739
1.210811,-0.2158224,-0.297216,0.7963653,-0.6365044,-0.7759194
1.158295,-0.2331759,-0.2982488,0.4328742,-0.2660015,-0.6436854
1.219991,-0.3234478,-0.2280546,0.6628171,-0.3905553,-0.5762207
1.245206,-0.4496414,-0.1555963,0.7934255,-0.3833184,-0.6087623
1.173696,-0.4619488,-0.1648781,1.00171,-0.06987796,-0.5456254
1.195295,-0.2839268,-0.2836526,1.297544,0.01733305,-0.3415935
1.116957,-0.07348377,-0.4298935,0.969001,0.01092357,-0.07259766
1.154861,0.007119608,-0.5768259,0.8199272,0.2142431,-0.04680117
1.479892,0.02045362,-0.6427807,0.9673755,0.7580222,-0.1421648
1.76389,0.1631962,-0.7305022,0.8090521,1.667922,-0.1465542
1.819881,0.2758225,-0.7947501,0.4949583,2.510122,-0.3010086
1.416418,0.117511,-0.3948104,0.07337052,3.118145,-0.5282925
0.8387806,-0.00281701,0.1762462,-0.1083547,2.528031,-0.5394021
0.5409636,0.1287047,0.2677705,-0.04265821,-0.1359115,-0.1589918
0.5358243,0.2083701,0.2362965,0.2656983,-3.164556,0.3376475
0.7516631,0.1286303,0.2901905,0.8202508,-4.396786,0.3219731
0.9663529,0.0183163,-0.1283717,0.5755764,-2.219553,0.0521583
1.133603,-0.09206979,-0.5578716,0.1958683,0.94253,0.04377171
1.027155,-0.05981671,-0.3076974,0.6341507,0.5379091,0.0813144
0.6885375,0.09596203,-0.01844458,0.6422595,-0.9867261,0.1426328
0.6655652,0.1429738,-0.03227076,0.3020736,-1.227208,0.2413064
0.819123,0.1266313,-0.05882388,0.1969144,-1.031415,0.1775947
0.9967032,0.1231725,-0.141042,0.001453156,0.2663266,0.1227373
1.058944,0.1260613,-0.156737,0.03607862,0.6759829,0.1256071
0.9221078,0.1386231,-0.0718241,0.1086157,0.1525363,0.1562767
0.9376193,0.09462204,-0.08183841,0.1776324,0.3313321,0.2683484
0.8901534,0.04718835,-0.09978166,0.3992148,0.2519016,0.3153086
0.7918503,0.002844628,-0.1148048,0.4071032,0.5536155,0.3828608
0.8206271,-0.01362135,-0.1091499,0.4800484,0.7106484,0.5414689
0.8115384,0.08982707,0.02459582,0.5161537,0.2847727,0.6645909
0.9203012,0.1507636,0.07076161,0.4397566,0.1696831,0.7453191
0.9818765,0.09886391,-0.1503867,0.4860731,0.2225219,0.7397815
0.9528372,0.03042251,-0.3835778,0.2316881,1.0341,0.6484444
0.9269105,-0.04609792,-0.3018039,0.04100713,1.605933,0.487643
0.639734,-0.1608255,-0.1899388,0.3742058,1.20091,0.2789642
0.2889442,-0.2902171,-0.2927604,0.6471442,0.6295589,0.1031599
0.1955716,-0.3423488,-0.2209728,0.4435099,-0.1933709,-0.09456938
0.5597533,-0.3510832,-0.07961667,0.1334443,-1.118281,-0.2392429
1.315898,-0.3202808,-0.1073754,0.07159372,-1.538057,-0.1948396
1.914684,-0.2929462,-0.2753034,-0.02624405,-0.4786878,-0.1810155
1.970554,-0.4002364,-0.5077824,-0.05321953,0.9756514,-0.268212
1.679445,-0.4633204,-0.2143604,0.1932222,1.040348,-0.2203709
1.497414,-0.3642059,0.1890118,0.5562413,0.06416387,-0.1091015
1.288285,-0.2784704,0.009482934,0.9873883,-0.8654944,-0.03018856
1.1046,-0.3062113,-0.01159548,1.074019,-0.3479096,0.02890546
1.119899,-0.3053708,0.1498081,0.9812625,0.1931313,-0.07935246
0.8376621,-0.1842291,0.09284664,1.045893,-0.4284196,-0.2637524
0.5804843,-0.07053207,0.07449754,0.7711945,-0.4154299,-0.3605415
0.5463883,0.07872062,-0.01499608,0.3783532,-0.340833,-0.2867563
0.3675502,0.1629055,-0.08419674,0.2054784,-0.4691852,-0.08822735
0.3360687,0.03134119,-0.02246559,-0.08693237,-0.2122229,-0.09465734
0.3221079,-0.05756748,-0.009281048,-0.3585444,-0.5501471,-0.2577757
0.363116,-0.09287926,0.04606429,-0.3929944,-0.958527,-0.4655195
0.634726,-0.1696364,0.04167658,-0.3809322,-1.133942,-0.7650357
0.8998781,-0.2244572,-0.09381588,-0.3529988,-1.343147,-0.9771745
1.274847,-0.2876488,-0.1982023,-0.06900431,-0.9671802,-1.095748
1.332243,-0.2715749,-0.2392948,0.3908606,-0.5922242,-0.9341517
1.08021,-0.2453432,-0.2433637,0.5395745,-0.7744262,-0.5788013
1.148012,-0.3127342,-0.2893082,0.4230239,-0.9203736,-0.552407
1.297467,-0.3198446,-0.3398727,0.5353831,-0.7796271,-0.6085608
1.461963,-0.2560259,-0.4544836,0.8574133,-0.2690806,-0.4852734
1.507893,-0.1719475,-0.6623238,1.008668,0.7004276,-0.2175274
1.234818,-0.04264705,-0.6562199,0.8552831,1.392752,0.07560069
1.144302,0.1044542,-0.5917401,0.6211617,1.299838,-0.03431078
1.331823,0.1970601,-0.591388,0.6504096,0.935057,-0.1839875
1.481763,0.1965927,-0.3873565,0.8520703,0.6288718,-0.05706889
1.404148,0.07086146,-0.302281,0.7355569,0.7939575,-0.1741445
1.241707,-0.111685,-0.3443235,0.4049736,1.182155,-0.3998956
1.095167,-0.01055087,-0.08841063,0.3677101,0.772201,-0.3844272
0.7620265,0.1997248,0.1784779,0.6189618,-0.2655146,-0.1633041
0.7235229,0.1221338,0.1581226,0.8426909,-1.212293,0.09023104
1.000546,0.09288123,-0.04531764,0.6757893,-0.8954052,-0.04401483
0.978184,0.08934684,-0.2007188,0.4416555,0.3053386,-0.2145404
0.9355784,-0.005972686,-0.1571372,0.7097836,0.2890993,0.01989948
0.8645041,0.123141,-0.04094726,0.860449,-0.431294,0.2005171
0.7251852,0.2162539,0.03238614,0.7084538,-0.9946124,0.3700518
0.9095362,0.1723091,-0.05738985,0.6907826,-0.9415032,0.5251103
1.080116,0.1431755,-0.2257134,0.4539455,0.09815618,0.3305519
1.053019,0.07541052,-0.2343723,0.1548943,0.6244731,0.2168477
0.9486055,0.1120562,-0.1453779,0.1323718,0.6641471,0.2873042
0.810795,0.1500403,-0.03230763,0.1747844,0.2671459,0.3613755
0.8332899,0.119671,0.005899411,0.1994327,-0.3107729,0.5348446
0.9049775,0.09814672,-0.07987269,0.1207585,0.3832502,0.5957376
0.9290302,0.03996085,-0.1109508,0.04800021,0.8724409,0.6062831
0.9362687,0.0603537,-0.05994951,0.02285125,0.6966593,0.7587942
0.9434562,0.08882292,-0.02289119,-0.004527086,0.5347849,0.8719229
1.018097,0.04381484,-0.07381119,-0.03479478,0.2279274,0.8458245
1.034592,0.01373919,-0.2091193,-0.2699797,0.8225923,0.7154464
0.918196,-0.027461,-0.3032389,-0.4957219,1.298089,0.5524626
0.7266709,-0.04074446,-0.2279611,-0.4858765,0.5967604,0.435603
0.5661509,-0.06254551,-0.06848684,-0.3779852,-0.1670723,0.3597841
0.4841676,-0.1537705,-0.06327219,-0.111747,-0.4398796,0.2623429
0.3907247,-0.2092061,-0.1345257,0.3325527,-0.349042,0.2245243
0.3707903,-0.2438922,-0.1841022,0.545627,-0.3942517,0.2402426
0.5474527,-0.3092336,-0.2662278,0.1944869,-0.496144,0.1299674
1.016499,-0.3726429,-0.2772696,-0.3018393,-0.4898028,0.002666327
1.658435,-0.4503834,-0.2976025,-0.6326324,-0.17488,-0.1729082
1.856721,-0.4823295,-0.3298212,-0.6082924,0.7022885,-0.4005763
1.621911,-0.4469932,-0.1892768,0.02653822,0.9654429,-0.3616561
1.566841,-0.4053566,0.03939018,0.4250455,-0.1271687,-0.2426325
1.529427,-0.3090045,0.1653271,0.4156041,-1.081813,-0.1617482
1.36498,-0.259776,-0.01156767,0.6072186,-0.3152357,-0.02861965
1.254904,-0.2788523,-0.1919793,0.5101526,0.4315267,-0.07376255
0.9796158,-0.1841165,0.05240306,0.3895964,-0.3669258,-0.1018567
0.7033456,-0.07295737,0.2216961,0.4684879,-0.6745528,0.03491681
0.6063251,0.01786034,0.05862215,0.1433287,-0.4494781,0.09577111
0.5141557,0.08572786,-0.01178465,-0.1434762,-0.6692123,0.09344652
0.4897133,-0.003094438,-0.01543104,-0.3426153,-0.6220698,-0.01644537
0.4476057,-0.1224131,-0.04976176,-0.4911103,-0.7598904,-0.2561477
0.5348583,-0.2367291,0.006360704,-0.3097292,-0.8625814,-0.5661069
0.8054163,-0.3115747,0.03544308,-0.2250956,-0.5053032,-0.8851471
0.8495855,-0.2388476,-0.09559526,-0.04688195,-0.4836465,-0.9163979
0.8586981,-0.2407901,-0.2743519,0.1147725,-0.8181362,-0.8033657
1.086841,-0.352857,-0.3336973,0.06173055,-1.002293,-0.8734745
1.296699,-0.4088194,-0.2842325,0.3560185,-0.1809696,-0.8820702
1.178744,-0.3724555,-0.1929416,0.7839227,0.7046768,-0.8120072
0.9129026,-0.2351635,-0.07753298,1.066055,-0.1778249,-0.8169042
0.9786007,-0.1450121,-0.053742,1.035235,-1.220728,-0.7483358
1.143088,-0.1556649,-0.1600041,0.9212632,-1.037363,-0.6813082
1.311717,-0.1328341,-0.3158318,1.105482,-0.4356484,-0.6019109
1.482187,-0.05323221,-0.4862542,0.9184353,0.5110808,-0.3068671
1.401629,0.0498186,-0.5663358,0.5908741,1.262085,0.002341306
1.529764,0.1695016,-0.6310323,0.5693133,1.306219,0.1166443
1.71771,0.1956715,-0.7325473,0.5364273,1.44949,0.1633792
1.44592,0.04272367,-0.5885385,0.5665057,1.973528,0.0426757
1.087798,-0.03984416,-0.2420239,0.2963406,2.416507,-0.4299454
0.77558,0.0609172,0.1751949,-0.001221229,1.994676,-0.6780093
0.5695852,0.154506,0.4610231,0.2540469,0.1541308,-0.252015
0.6801318,0.1964056,0.2819379,0.5306575,-2.308106,0.1914162
0.9478346,0.1089375,-0.001906135,0.6469943,-3.187665,0.1393153
1.167518,-0.05344073,-0.2809974,0.5942756,-1.155981,-0.1493565
1.146493,-0.08259839,-0.4631184,0.5013429,0.8060153,-0.281558
0.8943877,0.002128214,-0.1222205,0.6587251,0.2123964,-0.09458811
0.7330442,0.09158064,0.06789267,0.6984924,-0.6605531,0.1489196
0.8100796,0.07653586,-0.07319104,0.5194161,-0.9222562,0.1641471
0.9541779,0.03980923,-0.07139608,0.3468805,-0.892361,0.1640566
1.056833,0.06067104,-0.1516481,0.2896358,-0.1717155,0.2528494
1.088687,0.04091314,-0.1616766,0.31722,0.132766,0.2015104
1.013848,0.0420231,-0.07332834,0.2426279,0.1961311,0.1798956
0.9467489,0.0496951,-0.04045529,0.2045632,0.3441985,0.2371214
0.8811248,0.02662875,0.0286141,0.2597248,0.1560911,0.2300572
0.7782789,0.04285157,-0.02493567,0.240119,0.2542606,0.3231308
0.7605185,0.0641269,-0.07386251,0.1206144,0.3044773,0.3507063
0.8014557,0.1294961,-0.05651834,-0.1475917,0.3885793,0.3478371
0.850792,0.1934408,-0.03158663,-0.4252277,0.6110942,0.5646969
0.9210341,0.136499,0.03636119,-0.5088719,0.2078284,0.7809138
0.9541953,0.07917242,-0.03715708,-0.5204812,-0.05392474,0.945997
0.9571524,0.09198739,-0.1106926,-0.638061,0.251545,1.063524
1.025859,0.08263939,-0.06971578,-0.890818,0.5985343,1.040799
1.067135,0.05750005,-0.06315809,-1.124509,0.7205881,0.8914903
0.808657,0.06893399,-0.002776881,-1.114277,0.4697415,0.7462898
0.4783205,0.07580425,0.09016102,-0.9725433,-0.07783869,0.7587886
0.5545832,0.04257895,0.004632251,-0.891192,-0.9252727,0.7040133
0.8527127,-0.1023815,-0.3078551,-0.873624,-1.462447,0.5440946
1.132671,-0.416616,-0.6281607,-1.144956,-1.244066,0.4312461
1.375609,-0.6124592,-0.6693457,-1.466413,-0.495658,0.2511859
1.423064,-0.5028724,-0.5823797,-1.247088,0.5810626,0.150034
1.519698,-0.4095596,-0.7379263,-1.04409,1.018007,0.1459862
1.658578,-0.4294822,-0.8128872,-1.360763,0.6464808,-0.1392204
1.545669,-0.3943183,-0.3900898,-1.774844,0.4403105,-0.5372052
1.558185,-0.3630386,0.03415971,-2.102325,0.3741187,-0.4765963
1.556001,-0.2298815,0.006126166,-2.083665,0.5381772,-0.01805606
1.231052,0.09986698,-0.1602606,-1.992615,1.019601,0.5441329
0.9735692,0.3042495,-0.1347708,-2.533748,0.7840616,1.012919
0.7974639,0.2017902,-0.0754414,-3.176672,-0.1966405,0.9784131
0.7648998,0.02109348,-0.09616715,-3.470305,-1.001545,0.8686595
0.8211384,-0.007537297,-0.172055,-3.524493,-1.010348,1.12885
0.7243885,-0.01673597,-0.4507372,-3.508241,-0.1878692,1.15328
0.7606416,-0.1487521,-0.6348552,-3.74024,0.4394606,1.007559
0.8116044,-0.3016055,-0.4610554,-3.658334,0.6423818,0.7982749
0.6336431,-0.1223552,0.001382463,0.4077902,-0.0534517,0.1423836
0.4136646,-0.1464437,0.03002034,0.5490629,-0.2611816,0.1573874
0.2739482,-0.1264247,-0.01176286,0.6399648,-0.1225965,0.01378463
0.3264789,-0.07143012,0.02105489,0.6056203,-0.5635412,-0.08361564
0.3205541,-0.09332843,0.03378732,0.4251543,-0.8938328,-0.2254962
0.3453882,-0.1112086,-0.04367843,0.2906723,-0.798403,-0.3085748
0.4620406,-0.1111861,-0.02859525,0.1441645,-0.803624,-0.3592394
0.6687645,-0.1025254,-0.03345543,-0.001813926,-0.4074539,-0.6153576
0.9938877,-0.02897546,-0.01119991,0.0421889,-0.4598768,-0.7754293
1.071226,-0.01962708,-0.03847529,0.02943415,-0.6832784,-0.618259
1.101249,-0.08883995,-0.1002074,-0.05947957,-0.5195367,-0.4468437
1.237382,-0.2101624,0.0007015772,-0.03262996,-0.4303075,-0.4865079
1.217465,-0.3082216,0.0668974,0.2376027,-0.1261388,-0.4351087
1.143734,-0.2412143,0.049438,0.5631246,-0.5313519,-0.1811462
1.095881,-0.1738437,-0.0558343,0.3806513,-1.585397,-0.07595279
1.251739,-0.1889235,-0.2667801,0.2304886,-1.830323,-0.07373437
1.563986,-0.1793945,-0.4516573,0.6922891,-0.5361691,-0.04486692
1.628342,-0.1478969,-0.6483004,0.9554007,1.742206,-0.001645242
1.463993,-0.03907322,-0.6682112,0.7221371,2.385028,0.03235509
1.267809,0.1537404,-0.3904356,0.4936535,1.23241,0.01622272
1.179854,0.2512248,-0.1448271,0.3760247,0.009114863,0.1325774
1.200068,0.1800848,-0.1330071,0.2139193,-0.8767029,0.1960914
1.158498,0.07063626,-0.1872574,0.02932851,-0.1681381,-0.03567826
1.07661,0.0253567,-0.08275423,-0.02622975,0.8630995,-0.207386
1.008772,0.09322484,0.05625442,-0.01015724,-0.04310239,-0.02083933
0.9560008,0.1866349,0.06062607,-0.03647329,-0.9241637,0.1916399
1.000789,0.1075686,-0.03230177,-0.1317233,-0.918863,0.05259268
1.059602,0.02460793,-0.1422777,-0.2003875,-0.6847434,0.002908183
0.9836624,0.1013371,-0.1207763,-0.1593251,-0.01516168,0.1568743
0.8926244,0.1397166,-0.06525221,-0.1983766,-0.2856423,0.1773747
0.888337,0.1521942,-0.10156,-0.3283968,-0.9945978,0.3122196
0.933354,0.1307983,-0.1157827,-0.4270512,-0.8260843,0.4134052
1.000536,0.01899938,-0.1446161,-0.450611,-0.4618074,0.3026653
0.9697184,0.02410309,-0.1402594,-0.3572587,0.4702097,0.2454793
0.8807162,0.07700166,-0.05364268,-0.2495674,0.8587021,0.2250343
0.839341,0.06873889,-0.03948203,-0.09426072,0.1593091,0.2829814
0.7711686,0.07635137,-0.07624428,-0.006015585,0.2250619,0.3600931
0.738629,0.05660897,-0.1060055,-0.1011968,0.4693119,0.3750377
0.8123352,0.07125308,-0.07996093,-0.0591398,0.5125525,0.4861614
0.9334572,0.1012252,-0.02131263,0.1093352,0.4047182,0.6752207
0.984649,0.07047251,-0.05137602,0.1941439,0.110967,0.8085499
0.9444655,0.02425205,-0.07997693,0.06964155,0.8713688,0.788018
0.9673248,-0.04474933,-0.09284313,-0.2483208,1.66868,0.65834
0.9596451,-0.03213616,-0.0856488,-0.332833,1.532967,0.5288029
0.8234645,0.03962842,0.02874887,-0.170426,0.9962557,0.5012252
0.6490949,0.02308324,0.09547437,-0.05067101,0.2294425,0.4686551
0.4860687,-0.06606465,0.01818112,7.902695e-06,-0.2920283,0.2059049
0.475399,-0.2343429,-0.1256925,-0.1030415,-0.8875019,-0.01688073
0.6667365,-0.3726917,-0.2107652,-0.4376335,-1.539463,-0.06817685
1.144721,-0.405517,-0.2170039,-0.8459167,-1.343064,-0.1664816
1.752634,-0.4083613,-0.2545544,-0.9094337,-0.08513923,-0.3251619
1.883561,-0.3783503,-0.2511931,-0.6956566,1.299096,-0.4815194
1.682373,-0.36816,-0.1345866,-0.4946845,1.239566,-0.4082741
1.606796,-0.303211,0.07981433,-0.1216772,0.1125192,-0.1837515
1.448411,-0.1703013,0.2316666,0.1647901,-0.7029858,-0.01962208
1.269068,-0.1711255,0.07298852,0.1783847,-0.9499213,0.184964
1.242606,-0.2156482,-0.08748532,0.2095007,-0.4910618,0.2259921
1.105218,-0.2169032,0.03003974,0.375086,0.04337488,0.1674246
0.8583708,-0.2139528,0.08757422,0.6219196,-0.0947409,0.2192666
0.6640014,-0.16152,0.05160877,0.6011417,-0.3661817,0.1933078
0.5698375,-0.1202129,0.08590175,0.504023,-0.6792602,0.1713494
0.6019162,-0.1107781,0.04569698,0.4579432,-1.010746,0.1055473
0.639256,-0.1173586,-0.01146865,0.1493652,-0.8703523,-0.08051749
0.6608345,-0.1195095,-0.02237379,0.003027533,-0.5900099,-0.2132698
0.6591112,-0.09797507,-0.05523359,-0.0005603412,-0.2515737,-0.3614924
0.6033139,-0.105808,-0.02260247,-0.08181281,-0.1254203,-0.4336309
0.6524494,-0.09766159,-0.004084845,-0.06732029,-0.752913,-0.3891698
0.8862435,-0.0839382,-0.05390681,-0.1398587,-1.266462,-0.4393395
1.167929,-0.09950063,-0.09961569,-0.2077212,-1.050487,-0.507212
1.190458,-0.1022148,-0.1478665,-0.249873,-0.3186096,-0.483671
1.061035,-0.1198278,-0.09559825,-0.2648265,0.4471272,-0.4642816
1.103438,-0.1373007,-0.001301685,-0.1300639,0.3897215,-0.4675447
1.046434,-0.1755108,0.008722881,-0.03501528,-0.3514652,-0.3977349
0.9708682,-0.2309552,-0.006261723,0.094674,-0.8520571,-0.3295198
1.147029,-0.2009176,-0.06655166,0.1795303,-0.7786525,-0.347612
1.228453,-0.1334306,-0.1620766,0.1209958,-0.6067689,-0.3594159
1.179738,-0.1053282,-0.211114,0.1184481,-0.5633423,-0.3514785
1.127244,-0.1324114,-0.1933776,0.1096539,-0.3015646,-0.2916361
1.057927,-0.1901816,-0.1854674,0.1422713,-0.1121996,-0.1623065
1.064282,-0.1844845,-0.2281236,0.2066047,-0.1556469,-0.0822582
1.092593,-0.1285068,-0.2459006,0.1646964,0.02294994,-0.05941955
1.14468,-0.074706,-0.3093822,0.2168791,0.2388458,0.0516267
1.224554,-0.04011755,-0.4016134,0.5176996,0.4960215,0.32173
1.35775,-0.06494721,-0.4152904,0.7044072,1.299779,0.4141991
1.526529,-0.09356992,-0.4590702,0.2144608,2.51223,-0.04846339
1.422334,-0.08902958,-0.4146956,-0.3450352,3.409163,-0.5211062
1.017318,-0.04536031,-0.08088015,-0.01991884,2.795259,-0.2872525
0.5875934,0.09242725,0.3143156,0.397514,0.5913731,0.0957279
0.4445629,0.1755901,0.3885444,0.3196529,-1.809288,0.1005793
0.6808335,0.08047164,0.104822,0.2535301,-3.253198,0.06076098
0.9713765,-0.03186255,-0.1782228,0.132349,-2.462748,-0.08806068
1.222652,-0.04567609,-0.3303118,0.2154027,-0.3118524,-0.1814125
1.291043,0.03291047,-0.3731373,0.488443,0.7751633,0.03377229
1.002418,0.1370594,-0.1939747,0.3310054,0.5598325,0.1670177
0.8350562,0.1602364,-0.01463361,0.1460258,-0.4739793,0.2434942
0.8855879,0.1310963,-0.007149336,-0.04532083,-0.8355279,0.2495164
0.9483931,0.1380441,-0.05496894,-0.2727257,-0.294144,0.2264562
1.11027,0.1428357,-0.1060763,-0.1075215,-0.226675,0.3909783
1.14094,0.1133367,-0.1061697,-0.09243067,0.05278721,0.380799
1.080457,0.0910552,-0.1072362,-0.1434925,0.08851939,0.3179994
1.081105,0.05196087,-0.09138804,0.01735616,0.1577908,0.363466
0.9830891,0.0068269,-0.02667947,0.02577373,0.8130817,0.3830101
0.8736089,0.008695713,-0.0331665,0.1642358,0.4671393,0.5335857
0.784685,-0.01632592,-0.06059571,0.3034196,0.07511374,0.5623534
0.7601362,-0.1022991,-0.08812094,0.2163047,0.006076293,0.4071447
0.7999419,-0.1251311,-0.1182794,0.242383,0.05822611,0.2744882
0.770963,-0.05383099,-0.1063023,0.3194491,0.5633145,0.2320632
0.7593334,-0.00756707,-0.1166639,0.3490453,0.263807,0.38368
0.7604346,-0.000207761,-0.1315731,0.2931509,0.1367144,0.4710138
0.8290334,0.03788862,-0.1337481,0.02430898,0.6144649,0.4096279
0.9617744,0.08678656,-0.108855,-0.3725155,0.977161,0.3655818
0.9427226,0.08404226,-0.05889561,-0.5660327,1.541771,0.3408847
0.8022301,0.0095897,-0.07629154,-0.4617346,1.349171,0.326753
0.5805919,-0.08958603,-0.1355555,-0.5136443,0.7181906,0.1844944
0.3465764,-0.1422626,-0.2061065,-0.6885975,0.1537775,-0.09376976
0.3069174,-0.121946,-0.2468983,-0.6464344,-0.7426742,-0.2194972
0.5640629,-0.1453511,-0.1923116,-0.7057476,-1.066581,-0.003500958
1.160766,-0.3128044,-0.1641536,-0.9334456,-1.027644,0.2129838
1.768348,-0.4887036,-0.2227722,-1.055272,-0.7466133,0.09451413
1.851384,-0.585284,-0.2241195,-0.8146005,0.1773356,-0.1209053
1.681519,-0.6061786,-0.0830516,0.1067724,0.3864271,-0.2893824
1.687002,-0.4432417,0.04519482,0.7647209,-0.0219304,-0.2564755
1.495008,-0.1677681,-0.0300979,0.3462568,-0.08430099,0.08213953
1.230392,-0.08162872,-0.1006717,0.002954284,-0.4187585,0.3964692
1.225084,-0.1586063,0.0386507,0.08797255,-0.7585193,0.5960544
1.014517,-0.132861,0.1148494,0.02278497,-0.6896821,0.6400634
0.6892731,-0.07229382,0.03859449,-0.04442728,-0.5565939,0.5939421
0.5080282,-0.02310901,-0.00625445,-0.219011,-0.4077907,0.6563544
0.3062699,0.06892062,-0.05046362,-0.4814519,-0.5073713,0.5291381
0.2368011,0.03750171,-0.09381408,-0.7194196,-0.661754,0.3047154
0.2427812,-0.09375925,-0.09335805,-0.9720226,-0.7761869,0.2159317
0.3638491,-0.2115356,-0.07784485,-1.123561,-1.24633,0.0219195
0.7048392,-0.2521927,-0.05346615,-1.261086,-1.45292,-0.1550198
0.8687214,-0.1659638,-0.07650374,-1.053575,-0.7193994,-0.2547238
0.8384673,-0.1244347,-0.1310723,-0.6752282,0.2264104,-0.3176524
0.8952642,-0.1399303,-0.1554204,-0.6392998,0.2673086,-0.3373721
1.034363,-0.2007333,-0.1387476,-0.5201269,-0.2174188,-0.4923076
1.094028,-0.3346949,-0.0914499,-0.3275116,-0.3108818,-0.5564418
1.069992,-0.3273481,-0.07795188,-0.19874,-0.1993272,-0.5454165
1.077501,-0.2676873,-0.08273792,-0.02010198,-0.188985,-0.6397277
1.041069,-0.3053017,-0.07507519,0.07475148,-0.5104932,-0.5812537
1.073943,-0.351967,-0.07123651,0.1044989,-1.068379,-0.5333393
1.199714,-0.4280327,-0.04296211,0.06172192,-1.207268,-0.6168442
1.212335,-0.3973073,-0.07298651,0.2534909,-0.968085,-0.6671959
1.209142,-0.190113,-0.2886881,0.5963797,-0.7800672,-0.6776589
