accx,accy,accz,gyrox,gyroy,gyroz
0.6574092,-0.03642892,0.014483,0.2258962,0.3256617,-0.1294643
0.5600826,0.05331871,0.02656689,0.1172799,-0.2064491,0.1364256
0.7272942,0.1286595,0.01279952,-0.1276031,-0.3032247,0.2379437
0.927789,0.03226381,0.008038799,-0.4494358,-0.1130519,0.120842
1.035892,-0.03811844,0.008636167,-0.5377206,0.1208071,-0.1145393
1.057504,-0.1571675,0.02107651,-0.4429813,0.04957916,-0.0753187
1.051931,-0.3431754,0.03983701,-0.3772946,-0.3899376,0.002779789
1.203724,-0.447074,0.03707673,-0.2188583,-1.102777,0.0661009
1.569596,-0.6008153,0.02606015,-0.01475202,-1.293783,0.05699832
1.940489,-0.6243972,0.006929569,0.1420522,-0.6112098,-0.3889174
1.993242,-0.4332863,-0.02618109,0.1370092,-0.09494331,-0.8168848
1.926432,-0.2702036,-0.03154652,0.1576813,0.006119659,-0.6953481
1.897022,-0.1407396,-0.02324879,0.3573751,0.2990002,-0.2650599
1.652012,-0.03834351,-0.02733446,0.3061814,0.8054096,0.1188663
1.3705,-0.0304486,0.0212033,0.1127209,0.940906,0.4377973
1.08793,-0.08473545,0.1016245,0.03681802,0.5979002,0.5575928
0.801805,-0.1123836,0.1285306,-0.01848091,0.3551887,0.4801099
0.8120041,-0.130349,0.1142204,0.04209211,0.2130644,0.467559
0.759716,-0.1600914,0.09106097,0.04984949,0.1407597,0.3491625
0.5739368,-0.1172956,0.0764955,-0.03994998,0.1906501,0.25259
0.5908082,-0.08832312,0.07489924,-0.05420139,0.04632213,0.2881139
0.5400702,-0.1172464,0.0796015,-0.07590003,-0.125626,0.17487
0.497903,-0.1405855,0.0851848,0.003358058,-0.2720385,0.1024081
0.5639202,-0.1922574,0.0880946,0.2158426,-0.4428342,-0.011347
0.5404648,-0.1926031,0.09856345,0.434911,-0.4639624,-0.2124345
0.5958657,-0.1371821,0.1004943,0.5332753,-0.481605,-0.2961545
0.6328093,-0.09759192,0.09648939,0.3445499,-0.4905231,-0.3597382
0.604996,-0.05013879,0.08355897,0.1180723,-0.531026,-0.2459725
0.6720297,-0.0474391,0.03662055,0.004745166,-0.6259759,-0.03024514
0.7461581,-0.07861151,-0.007550689,-0.0758806,-0.5477854,0.1489143
0.8791262,-0.09776041,-0.0348421,-0.04841627,-0.3375459,0.2791933
0.9805518,-0.1075444,-0.0360161,-0.05761975,0.01908619,0.148394
0.9421628,-0.09402166,0.008736753,-0.07307415,0.2974941,-0.04989428
0.8738139,-0.08066439,0.0541014,0.02165845,0.166941,-0.2367802
0.78654,-0.07110712,0.05512175,0.0120654,-0.0271138,-0.3129231
0.8352971,-0.1366082,-0.01625071,-0.162813,-0.1043813,0.04382154
1.174094,-0.351143,-0.1237712,-0.2612958,-0.1390829,0.5242647
1.67795,-0.6083403,-0.1807084,0.1237336,0.07422816,0.658607
1.895183,-0.7191551,-0.1665008,0.6764194,0.4849149,0.1547989
1.601499,-0.5602353,-0.09253151,0.664667,0.6307938,-0.6181576
1.42861,-0.2304765,0.0234934,0.4677921,0.02247928,-0.8140456
1.61701,0.04487688,0.08331021,0.2818229,-0.6733499,-0.6236801
1.692975,0.1074467,-0.009628628,-0.2594361,-0.3157591,-0.3740515
1.662064,0.05211154,-0.1150853,-0.5687608,0.1922654,0.1387399
1.523703,0.0216803,-0.09264874,-0.4786041,0.1724448,0.5287598
1.176818,-0.1639398,-0.06138134,-0.4409769,0.371847,0.4993242
0.9401892,-0.3541325,-0.0489532,-0.1948625,0.2653046,0.3429956
0.802466,-0.3092612,-0.020385,0.1729956,-0.128021,0.1814657
0.6453215,-0.2915693,-0.03643844,0.3922656,-0.2020359,0.08653222
0.6428556,-0.2335706,-0.06299139,0.5726762,-0.3498878,0.1420201
0.6634922,-0.08714802,-0.08566827,0.5331125,-0.1778255,0.1518763
0.6163199,-0.02670517,-0.1029766,0.3384792,0.178137,0.04586639
0.5995484,0.0351791,-0.08302033,0.08119644,0.2627122,-0.08604149
0.5712544,0.01756433,-0.07010823,-0.2596006,0.4188639,-0.2543582
0.5996889,-0.02685357,-0.05110603,-0.2855962,0.3546022,-0.2844759
0.6861051,-0.03605503,-0.03142136,-0.07742323,0.3301274,-0.1591804
0.7085773,-0.1029515,-0.04388507,-0.005594296,0.496593,-0.09143434
0.6734684,-0.0909167,-0.02642748,0.006559763,0.3913481,0.003159697
0.6484201,-0.06251574,-6.457908e-05,0.06866892,0.2294304,0.09589614
0.7420305,-0.0523789,-0.002187472,0.1386976,0.009362913,0.02917367
0.8756944,-0.01112837,0.007275248,-0.003906992,-0.03550625,-0.1331736
0.8935241,-0.02154215,0.01456806,-0.2869788,0.05333899,-0.2590134
0.9064863,-0.04478671,0.004177857,-0.3764699,-0.1756895,-0.150463
1.01167,-0.163263,-0.009842405,-0.3604103,-0.3133381,0.1309327
1.201952,-0.4029204,-0.01619613,-0.328265,-0.5011767,0.2757154
1.476701,-0.6146414,-0.0157419,-0.1855667,-0.8311823,0.1284248
1.776969,-0.6642488,-0.0224738,0.009773105,-0.7281007,-0.413083
1.984633,-0.4872505,-0.02277837,0.07326323,-0.4401738,-1.029804
1.990963,-0.2605899,-0.006453108,-0.0530765,-0.1739103,-1.011651
1.899863,-0.1087344,0.01033276,-0.08685058,0.2103613,-0.445473
1.771482,-0.06748139,0.0133671,0.01719583,0.5807136,0.02848998
1.459907,-0.1330521,0.03401567,0.04861262,0.8274042,0.2974342
1.122854,-0.1664258,0.09118471,0.04080671,0.7736493,0.3842674
0.9373752,-0.1809759,0.1154505,0.02811319,0.4764947,0.3613528
0.7762848,-0.1727988,0.1019493,0.03195507,0.234868,0.3809942
0.6739239,-0.1192037,0.09840908,-0.002367645,0.096453,0.3244701
0.6311175,-0.1247598,0.08413495,-0.1076538,0.09954736,0.3449123
0.5550245,-0.1401313,0.07148987,-0.1434116,0.1393625,0.4460156
0.5279026,-0.1470379,0.07844689,-0.128657,0.05458417,0.3851324
0.5122982,-0.1761378,0.0884206,-0.02785426,-0.009361431,0.2803112
0.4868343,-0.1565514,0.1024049,0.1793043,-0.1645542,0.008623439
0.5103089,-0.1257664,0.1007487,0.3164571,-0.4275388,-0.2882801
0.5306063,-0.08590461,0.07567639,0.3468345,-0.5242842,-0.287361
0.5707108,-0.003063409,0.0496025,0.324591,-0.5474588,-0.2221956
0.6017319,0.01701747,0.03503318,0.2677517,-0.5465119,-0.1039297
0.6343572,-0.02266682,0.02363379,0.1215682,-0.5077865,0.1007065
0.7937137,-0.04114725,-0.002340034,-0.06087757,-0.3929678,0.2855446
0.926316,-0.07843962,-0.01301009,-0.1638327,-0.0668754,0.366946
0.8928853,-0.1373618,0.002286021,-0.2275728,0.1995172,0.238492
0.8685181,-0.1927179,0.007699236,-0.1600398,0.1915135,0.06454561
0.8827759,-0.2252391,0.02961685,0.08582496,0.08185295,-0.1354484
0.8023142,-0.1757608,0.05605144,0.273073,0.01687389,-0.3168708
0.7337339,-0.1388641,0.02593645,0.2050762,-0.05268197,-0.2359719
0.7979464,-0.1955777,-0.02520977,0.02881248,-0.2315002,0.1863956
1.101275,-0.3123325,-0.08045675,-0.01281603,-0.2435177,0.7866612
1.684242,-0.5216396,-0.1732137,-0.04185825,0.3917756,0.8297311
1.966629,-0.6793547,-0.2152842,0.01391076,1.027231,0.04625155
1.774948,-0.645196,-0.07090521,0.3691572,0.4491128,-0.719265
1.737768,-0.4238977,0.1013893,0.602191,-0.3074438,-1.008594
1.736301,-0.01359017,0.04663379,0.240646,-0.05756061,-1.016555
1.529699,0.2548381,-0.02638576,-0.4983366,-0.04672278,-0.5676698
1.446354,0.192561,0.004838086,-0.9224429,-0.2567539,0.4166116
1.341447,-0.006607355,-0.07564264,-0.8453066,0.09053178,0.9912924
1.099475,-0.2992494,-0.1093911,-0.5661705,0.2503245,0.7613693
0.9189049,-0.4481781,-0.04436371,-0.1220836,0.2711974,0.5068598
0.7320118,-0.3489105,-0.06193089,0.2715199,0.2183357,0.2177955
0.5822144,-0.2711546,-0.04836857,0.4387403,-0.03102897,-0.14746
0.5120378,-0.1301186,-0.0488197,0.4236391,0.005784576,-0.1642838
0.4643228,0.04802107,-0.09620705,0.2201693,-0.002593991,-0.171249
0.5172778,0.07195476,-0.08700319,0.02738857,0.02579406,-0.2046739
0.5745227,0.08283381,-0.08661063,-0.1423055,0.3125702,-0.102127
0.5862892,0.07240325,-0.05651323,-0.2913185,0.3701562,-0.07735398
0.646423,0.003843312,-0.0266956,-0.3462057,0.2922404,-0.01190696
0.8137798,-0.06254426,-0.0474921,-0.3397172,0.1404968,0.08955317
1.150812,-0.1566701,-0.05066576,-0.1207027,0.1487223,0.1501992
1.311338,-0.1395837,-0.05116187,-0.008233262,0.7871323,0.09241029
1.034521,0.02294627,0.01094017,-0.5011731,1.438839,-0.2016287
0.8163952,0.1381698,0.0994778,-1.094567,1.14084,-0.3745299
0.8813858,0.1121945,0.1309811,-1.14235,0.1698051,-0.1999609
0.897557,0.03212648,0.1595399,-1.110753,-0.3367993,0.1046904
1.002084,-0.04311663,0.09156615,-1.16403,-0.03344714,0.3113521
1.243244,-0.2358786,-0.06138909,-0.8812454,0.5503237,0.3365519
1.141961,-0.3918886,-0.08131588,-0.855736,0.6559448,0.05539172
0.9710418,-0.4107871,-0.01693862,-0.9570169,0.1921801,-0.486787
1.104048,-0.516184,0.01689049,-0.4979791,-0.2780413,-0.7425844
1.25296,-0.5170717,0.091486,-0.06744862,-0.6263123,-0.7105712
1.550386,-0.3321163,0.1195179,0.08558802,-0.6017664,-0.7015322
1.845639,-0.1425091,0.06301694,-0.144751,-0.328004,-0.4629514
1.779011,0.02956352,0.04961681,-0.6339336,-0.02704167,-0.153459
1.695352,0.004554463,0.02041321,-0.8896941,0.5570896,-0.1494339
1.570729,-0.05607731,0.001720816,-1.219703,0.88042,-0.3142313
1.291159,0.01350127,0.04482956,-1.382078,0.8803965,-0.3585409
0.9890107,0.02009424,0.06786676,-1.421681,0.8205328,-0.1954997
0.7372669,0.06412572,0.1043337,-1.749568,0.5572971,0.06471318
0.8045555,0.07275213,0.09140193,-1.90649,0.4168807,0.3078345
0.8719557,-0.02314702,0.005864588,-2.068473,0.4272363,0.3233182
0.7268581,-0.05968666,-0.04044998,-2.19621,0.5292711,0.2041705
0.6771092,-0.119871,-0.05795874,-2.076084,0.5868026,0.2048651
0.5359066,-0.127531,-0.04173133,-2.07039,0.5608425,0.1936573
0.4067247,-0.049338,-0.01875046,-1.966493,0.5666464,0.151833
0.4454309,0.004274772,-0.003680924,-1.844421,0.3135982,0.0834197
0.44128,0.05018411,0.02467096,-1.918315,0.1205472,-0.03290928
0.5218082,-0.01770947,0.008857701,-2.005962,0.1543489,-0.07613153
0.6144667,-0.1225058,-0.0002048241,-2.098473,0.236571,-0.09357356
0.6282218,-0.1669057,0.01025241,-2.032002,0.390153,-0.08585663
0.7068337,-0.2786036,0.02195814,-1.698327,0.3746319,-0.08356081
0.7590904,-0.3685094,0.07259514,-1.260819,0.3346731,-0.1928186
0.7076643,-0.2916218,0.09370678,-1.101066,0.09252754,-0.2655758
0.660692,-0.1899011,0.1036378,-1.267316,-0.4451305,-0.08394315
0.9397938,-0.2827972,0.05885634,-1.354132,-0.4864945,0.3011175
1.578903,-0.4303509,-0.1159633,-1.486636,0.07837299,0.4321693
1.988426,-0.5434111,-0.2143703,-1.57519,0.4663278,0.004217575
1.85754,-0.7606519,-0.1631213,-1.059942,0.05948762,-0.4151471
1.720233,-0.8064112,-0.08466907,-0.3471043,-0.3751543,-0.3052793
1.848524,-0.5896584,-0.01721758,-0.2130242,-0.1233674,-0.2893785
1.637896,-0.3156601,0.02330071,-0.5266812,-0.1543737,-0.5097174
1.229263,-0.00423322,0.04011959,-0.7791975,-0.5823467,-0.1625022
1.151183,0.08675315,0.01968847,-0.8995898,-0.704891,0.3842561
1.12634,-0.02158222,-0.07745461,-0.9717051,-0.6102362,0.5889818
1.101423,-0.05364929,-0.2143266,-0.918849,-0.2503537,0.6731069
0.9979137,-0.1294713,-0.2471276,-0.843059,0.1822585,0.4877464
0.8114941,-0.2064184,-0.1520669,-0.7848058,0.288114,0.2291924
0.7562084,-0.1681311,-0.08809366,-0.6349609,0.1821809,0.0942302
0.617517,-0.1380882,-0.08241295,-0.5391877,0.08082698,-0.042309
0.5664422,-0.1279874,-0.08314383,-0.4823011,0.1127512,-0.02467404
0.6106159,-0.1225985,-0.09126723,-0.3613467,0.1344367,-0.07241804
0.5835391,-0.1401627,-0.09857999,-0.218152,0.1807131,-0.2114799
0.6716648,-0.1257464,-0.1209161,0.00829764,0.3560963,-0.2768573
0.6779055,-0.08665847,-0.1290665,0.1151977,0.4863799,-0.365727
0.6555536,-0.03372953,-0.09576633,0.03129635,0.6436108,-0.3358058
0.6933522,0.04978895,-0.04910401,-0.03282641,0.6310247,-0.2324773
0.690126,0.0723229,-0.01029179,-0.1906674,0.366513,-0.1342607
0.7659487,0.03179677,-0.01409194,-0.3257324,0.1792021,-0.1064681
0.8078985,-0.01167893,-0.02596875,-0.2588949,0.06304591,-0.203541
0.8726391,-0.08229359,-0.00609654,-0.1834385,0.03113626,-0.2197491
0.9945931,-0.09112824,-0.005562835,-0.0781995,0.009850906,-0.2972444
1.028743,-0.002871437,-0.02772165,0.003859787,-0.01479794,-0.4260645
1.050383,0.03152642,-0.04891923,-0.1462567,-0.0176265,-0.3746544
1.089051,-0.1055492,-0.05961647,-0.4324133,-0.224625,-0.2073627
1.229348,-0.3874725,-0.04832505,-0.7084379,-0.5577287,0.02185066
1.474528,-0.6532308,-0.04148117,-0.7192251,-0.7755236,0.04112019
1.755011,-0.7645909,-0.0320256,-0.2567863,-0.4925775,-0.2883944
1.95146,-0.6742457,-0.008652851,0.1838344,0.03363535,-0.7475891
1.863146,-0.4341966,0.01363917,0.129002,0.1292742,-0.9964133
1.69201,-0.1683499,0.04335884,0.01271602,0.2045648,-0.6197781
1.524493,-0.04344607,0.04837316,0.09095369,0.3921932,0.03050102
1.281745,-0.1355208,0.04216808,0.03512372,0.4058504,0.3709629
1.157336,-0.2054757,0.06746029,0.06750834,0.4123383,0.4541498
1.057847,-0.1951478,0.07021108,0.2749079,0.3711611,0.335446
0.8934858,-0.2161219,0.06658438,0.2482499,0.358429,0.1948929
0.7771497,-0.134054,0.08330292,0.1988313,0.3336888,0.1842554
0.6604799,-0.07187615,0.07293028,0.2062714,0.2190534,0.2206302
0.6154648,-0.07439915,0.07449174,0.09505152,0.1618721,0.3720673
0.6353739,-0.01842833,0.0883786,0.03261852,0.04495826,0.4178054
0.6191196,-0.07918111,0.08170171,-0.01893564,-0.08122449,0.28911
0.6294283,-0.1686232,0.08650239,0.05936733,-0.2587912,0.2122269
0.630094,-0.1898982,0.08562319,0.3004978,-0.5054194,0.09242791
0.6273642,-0.1929171,0.0858855,0.4560362,-0.5200653,-0.003171635
0.6458302,-0.1241995,0.1014762,0.531577,-0.3759344,-0.08864422
0.6188278,-0.09238603,0.1055826,0.3961825,-0.2116743,-0.2395329
0.5665993,-0.04842113,0.1083509,0.1696526,-0.2100765,-0.2831161
0.4834038,0.01122493,0.1065146,0.09432737,-0.6400121,-0.280173
0.4655867,-0.01426982,0.08640425,0.09555762,-1.311556,-0.2064067
0.640343,-0.03573621,0.0001567797,0.2827641,-1.574347,-0.07309636
0.9028551,-0.07943664,-0.1380868,0.4634615,-0.9709752,-0.0009050578
1.089403,-0.1238334,-0.170813,0.3823269,-0.150425,0.06472562
1.101739,-0.1627797,-0.1089692,0.3495223,0.1457757,0.01738966
0.9837159,-0.209482,-0.0672499,0.4924665,0.07856737,-0.09883496
0.8157997,-0.1917674,-0.02247834,0.5500884,-0.2007274,-0.09775391
0.6524366,-0.2163912,-0.02735352,0.4272311,-0.6023138,0.1017143
0.6887611,-0.2831646,-0.1249148,0.3634131,-0.7034832,0.4614056
1.119698,-0.3875341,-0.2142933,0.5191949,-0.07298364,0.6182242
1.767537,-0.5903191,-0.2574553,0.7740819,0.7159769,0.4180408
2.058555,-0.6696829,-0.2186693,1.119146,0.6640565,-0.1708491
1.908518,-0.4051775,-0.08599366,1.315818,0.3737433,-1.096134
1.772486,0.07821865,0.06055127,0.5143726,0.3540879,-1.407664
1.595955,0.3867947,0.1497846,-0.8225871,-0.02910139,-0.6258599
1.325928,0.3996115,0.109943,-0.9779807,-0.4230797,0.4198583
1.186732,0.1981816,-0.002962464,-0.4162765,-0.3957274,1.155289
1.059625,-0.2201425,-0.1225534,-0.1403404,-0.1389095,1.153996
0.9379477,-0.5464158,-0.1905013,0.5066713,0.1779289,0.4603395
0.7976414,-0.590343,-0.1142379,1.164312,0.06545173,-0.02619983
0.5685386,-0.5005832,-0.07127614,1.453147,-0.1229768,-0.2715235
0.4635199,-0.330354,-0.08631994,1.791772,0.01726612,-0.3423142
0.4518319,-0.1030938,-0.05842478,1.671207,0.001989201,-0.1246134
0.5031682,0.1229472,-0.1013274,1.176017,0.1353875,-0.06851174
0.5965864,0.2030437,-0.11362,0.6995597,0.4341692,-0.04950964
0.5952592,0.185757,-0.07625189,0.2593696,0.4656567,-0.2094942
0.6185187,0.1820014,-0.05747395,0.254715,0.5588155,-0.5222666
0.6324024,0.1185198,0.007228576,0.3489492,0.5122239,-0.3491919
0.6432372,0.114917,0.03225634,0.3320545,0.1827807,0.06079125
0.7924497,0.1307346,0.0451876,0.420615,-0.01000461,0.6562427
0.9890468,0.05580563,0.04085194,0.1774737,-0.041136,0.9989747
1.133248,-0.0202777,-0.008047865,-0.2507003,0.09182418,0.3533595
1.115049,-0.1295789,0.022952,-0.4353357,0.1854404,-0.3810822
1.024981,-0.2366683,0.05201222,-0.4550539,0.05879352,-0.4982997
1.032606,-0.4008285,0.05681754,-0.3469364,-0.2076134,-0.2492135
1.19309,-0.6220873,0.07048448,-0.06193603,-0.7060805,0.02594521
1.581835,-0.6616621,0.03022844,0.4019425,-0.9972116,-0.06521649
1.917842,-0.53668,-0.004488312,0.5360342,-0.6943393,-0.5132313
1.994853,-0.331851,-0.02724687,0.2888398,-0.2816789,-0.8725592
1.952409,-0.1222318,-0.0189414,0.3014255,0.1570436,-0.5501765
1.753073,-0.02547185,0.02867733,0.3608494,0.7609566,0.04632068
1.386114,-0.03001511,0.06209453,0.3140871,0.9058424,0.1437404
1.062994,-0.09431168,0.1450312,0.4089424,0.4607353,0.2999668
0.9835264,-0.1525154,0.1891954,0.4970024,0.06016347,0.5165573
1.016724,-0.1700845,0.1266852,0.5859291,-0.08638917,0.2608425
0.9499733,-0.1477177,0.1013594,0.5425261,0.0594809,0.06709747
0.8250143,-0.08476017,0.08448356,0.260775,0.2871459,0.02224373
0.6241062,0.01680284,0.04226512,-0.01381743,0.2571759,0.06590502
0.4556481,0.08729844,0.04756321,-0.160083,0.1746058,0.3349464
0.4553225,0.02820425,0.06803451,-0.06429998,0.04626405,0.4270619
0.4485691,-0.03307088,0.07295386,0.08464058,-0.1417151,0.3966497
0.4413067,-0.04784024,0.0609491,0.1381427,-0.2154161,0.2564
0.5186452,-0.07937849,0.04625822,0.1800383,-0.2992192,-0.04913992
0.5849096,-0.06464216,0.05424593,-0.01997036,-0.3271647,-0.1550395
0.6639208,-0.09217428,0.06004074,-0.3548115,-0.3252803,-0.1080782
0.7845861,-0.1712385,0.05312193,-0.6102553,-0.3248775,0.08053376
0.9044428,-0.2210072,0.04718539,-0.6773207,-0.159122,0.38415
1.020972,-0.3082654,0.048179,-0.3031787,0.1272518,0.4396629
1.028106,-0.3300489,0.06595015,0.1549438,0.5981446,0.07677472
0.8269315,-0.1694872,0.1074858,0.3599972,0.8451422,-0.377022
0.5324675,0.07172934,0.1446611,0.3645945,0.5971695,-0.3846164
0.3334021,0.2286212,0.1162793,0.01794289,0.4900881,-0.1396288
0.3454754,0.1888143,0.03026315,-0.6861187,0.3056367,0.2478744
0.6827224,-0.1709964,-0.05558545,-1.171473,-0.3783243,0.9907946
1.381633,-0.8927413,-0.1138562,-0.6352146,-0.6759028,1.320668
1.896569,-1.303383,-0.08121818,0.5812124,0.1251605,0.6495302
1.795353,-0.758868,0.0439094,1.578685,0.8498328,-0.679495
1.767232,0.04675845,0.09878526,1.808576,0.04944749,-1.743512
1.988615,0.3862139,0.0353687,0.6284862,-0.6701224,-1.36953
1.807226,0.429943,0.006083611,-1.080462,0.09123342,-0.3171708
1.354676,0.2979368,0.02234631,-1.865419,0.4040528,0.263336
0.8922182,0.1452334,-0.004006668,-1.824992,-0.09125239,0.9692958
0.7534879,0.0300423,-0.01739487,-1.204095,-0.3338125,1.096991
0.9412663,-0.2754739,-0.04354036,-0.3005696,-0.5760843,0.4150403
0.7459571,-0.5288604,-0.1262525,0.3897177,-0.3154859,0.1313562
0.6783627,-0.4310746,-0.1298794,0.5856087,0.3505885,-0.3791294
0.8090403,-0.1112653,-0.07959548,0.2510948,0.50208,-0.6171205
0.5288247,0.1749112,-0.07344499,-0.1300482,0.4968149,-0.1273329
0.5672374,0.2641269,-0.06713869,-0.5008881,0.5289597,-0.05527512
0.7113697,0.1902286,-0.06654615,-0.7421671,0.5634983,0.1509086
0.697793,0.07508418,-0.05410771,-0.7099571,0.6738562,0.2108182
0.9329543,0.05594519,-0.0278486,-0.9387591,0.6071432,-0.082473
0.9029462,0.05161298,-0.03616168,-1.163802,0.5339969,0.03162519
0.9110642,0.02476213,-0.02638034,-1.146616,0.5304968,0.08384185
1.064127,0.02394811,-0.006286219,-1.235991,0.5310024,0.324061
0.9736738,-0.04754339,-0.02957176,-1.274638,0.6295966,0.4603892
1.021643,-0.06582624,-0.040606,-1.253205,0.6284314,0.1258148
1.019491,-0.08233738,-0.000253668,-1.173136,0.5647985,-0.07482461
0.9690894,-0.1356774,0.03864101,-1.006978,0.5136432,-0.2954261
1.048583,-0.121097,0.04201439,-1.004238,0.3362799,-0.2002031
1.049496,-0.2477308,0.04009487,-1.093912,0.1599109,0.1035052
1.135264,-0.4844874,0.00387556,-1.061287,0.09162222,0.1162788
1.221462,-0.7434363,-0.04864814,-0.7265753,0.07623571,-0.1377436
1.24847,-0.8744171,0.01682262,-0.2207543,-0.1149194,-0.8129591
1.346472,-0.6964496,0.1184558,-0.06988614,-0.4116934,-1.126295
1.481387,-0.4655198,0.1057243,-0.2202007,-0.3029358,-0.9433584
1.616833,-0.2402736,0.06586162,-0.3572519,0.07818342,-0.9394625
1.554955,0.001012786,0.05016371,-0.6707527,0.3145994,-0.7690381
1.370535,0.2118369,0.04542299,-1.048068,0.3825289,-0.2757312
1.257157,0.3440302,0.05899921,-1.282333,0.4383253,0.307885
1.22559,0.194185,0.04343026,-1.596157,0.6979602,0.5411941
1.228293,-0.005406197,0.02988715,-1.71699,0.8221743,0.2551655
1.054745,-0.08039216,0.03542841,-1.491653,0.6083351,0.0215997
0.8515047,-0.1898272,0.02745395,-1.325335,0.4822118,-0.05852838
0.7545222,-0.1993216,0.03329231,-1.138577,0.4097655,-0.07655262
0.6210224,-0.139134,0.03463566,-0.9420209,0.2715329,0.03267725
0.5810659,-0.1311938,0.0428655,-0.9020548,0.0646632,0.06980383
0.5893513,-0.1012756,0.06302774,-0.81825,-0.2116582,-0.01958416
0.5750431,-0.1123424,0.04576603,-0.7039194,-0.2502547,-0.2036516
0.6010811,-0.1244256,0.0368477,-0.6112825,-0.2331029,-0.4688467
0.5803474,-0.1024055,0.05159661,-0.5094688,-0.3954258,-0.6707877
0.5902683,-0.1222485,0.05740729,-0.4470802,-0.4660866,-0.7358531
0.6215326,-0.1219138,0.06876565,-0.4298421,-0.4822127,-0.6831184
0.6292821,-0.1246013,0.08681505,-0.3905535,-0.6264669,-0.5139767
0.6818084,-0.1310149,0.09178638,-0.1557945,-0.7437553,-0.2775983
0.7397406,-0.08170891,0.06628941,0.1212889,-0.5404504,-0.1211253
0.8027782,0.005002654,0.0465293,0.1406991,-0.1916992,-0.1287045
0.785194,0.1335471,0.05149568,-0.1692573,-0.1117596,-0.107939
0.7553639,0.1373005,0.02067168,-0.7217861,-0.183318,0.1869694
0.9431695,-0.1496991,-0.07519111,-0.9631567,-0.1997874,0.7054391
1.352684,-0.6110373,-0.1904254,-0.6471709,-0.0294504,1.002791
1.721443,-0.959274,-0.2136042,-0.2720205,0.5935306,0.491477
1.619171,-0.9476354,-0.08385446,0.06408207,1.030652,-0.5688921
1.455808,-0.6270183,0.05367996,0.5191441,0.03916451,-1.095279
1.718244,-0.1958935,0.03166833,0.6592332,-1.124946,-0.6525978
1.735049,0.08416474,-0.06549303,0.1486114,-0.4716379,-0.009106394
1.430705,0.07325296,-0.09479143,-0.3626387,0.0332189,0.1240724
1.227185,-0.02201864,-0.07233462,-0.247646,-0.7226734,0.2215358
1.093732,-0.1873091,-0.04990299,0.1273086,-0.7434329,0.3620196
1.125306,-0.3848077,-0.07374805,0.4948689,-0.5404343,0.1425304
1.058589,-0.3013541,-0.1008945,0.8631078,-0.5819067,0.1318404
0.8469707,-0.09961205,-0.07303866,0.8450485,-0.1571532,0.2801686
0.7391898,-0.01804629,-0.07215342,0.5694962,-0.1109243,0.2755292
0.6134576,0.03747405,-0.08044592,0.4122434,-0.1356881,0.3183231
0.5600172,0.02586175,-0.0589542,0.2420048,0.01703144,0.2399915
0.5213378,-0.03088473,-0.06031527,0.2281859,-0.07496777,0.2629248
0.5301563,-0.08965823,-0.06626924,0.3693253,0.1179266,0.258902
0.6101375,-0.1458051,-0.07685097,0.5225412,0.2753606,-0.01897015
0.5143668,-0.07823034,-0.07302895,0.8921594,0.2591179,-0.3204573
0.5186385,0.01207534,-0.04408151,1.062024,0.2378284,-0.6620933
0.6104584,0.07046165,-0.02405872,0.9423428,-0.06439903,-0.6205582
0.7235964,0.1478376,-0.01573585,0.9504757,-0.3900322,-0.261636
0.9873867,0.1483911,-0.08109083,0.7983935,-0.5029963,0.02159385
1.075543,0.1322197,-0.1699527,0.3982851,-0.1770213,0.3415029
1.052339,0.03311466,-0.1609531,-0.01726266,0.199667,0.4262147
1.05544,-0.250175,-0.09399373,-0.2887401,0.07168671,0.4121421
1.08545,-0.5104166,-0.02497617,-0.2277873,-0.3318702,0.276237
1.310978,-0.6277786,0.01628013,0.0250131,-1.056928,-0.2787242
1.684709,-0.5909625,0.003114295,0.3106303,-1.541938,-0.7849419
2.001278,-0.4728195,-0.07804129,0.598843,-1.102742,-0.950783
1.959031,-0.3319901,-0.1647171,1.009409,-0.2229265,-0.746198
1.708718,-0.1481632,-0.1043419,1.489276,0.7703137,-0.4823884
1.442842,-0.01021876,0.06528031,1.46439,1.226737,-0.2438806
1.088543,0.05942451,0.1867383,1.164627,0.5786209,0.3076936
0.9807398,0.007420324,0.2111975,1.218706,-0.01698846,0.5156287
1.014604,-0.1383807,0.1504901,1.317472,0.005777605,0.2541267
0.8901418,-0.2169948,0.1000513,1.378908,0.0336919,0.1388566
0.7668843,-0.2411921,0.07955236,1.399881,0.2448066,-0.05809866
0.5932129,-0.101214,0.0654929,1.127597,0.4921643,-0.120858
0.3869995,0.1321574,0.1287941,0.8204618,0.4030581,0.2044692
0.3087065,0.1389565,0.179319,0.5306543,0.05464026,0.4181266
0.3918188,0.004102776,0.1651432,0.4516563,-0.6111755,0.4396694
0.5526274,-0.1317966,0.1631815,0.7055801,-0.9645636,0.2413617
0.7011887,-0.2186896,0.1387893,0.8274386,-0.8560357,-0.1714753
0.8709967,-0.1925007,0.1090149,0.9006279,-0.7867629,-0.4172918
0.8908449,-0.1213812,0.07172175,0.9436902,-0.6250966,-0.403481
0.8152297,-0.01601444,0.01274214,0.8586612,-0.4943476,-0.1647089
0.8464337,0.05315642,-0.0150144,0.7177839,-0.2965627,0.1879953
0.8013533,0.04685579,-0.02729076,0.393089,-0.005324419,0.4127954
0.7433345,0.03494603,-0.02328074,0.2482359,-0.02383835,0.434853
0.7601458,-0.05599031,-0.01241256,0.3696126,-0.1506086,0.3355139
0.7651705,-0.1895624,-0.001371631,0.6545023,-0.3620392,0.3054944
0.8107253,-0.2408098,-0.00516857,1.172102,-0.5325244,0.2458651
0.8310569,-0.2628866,-0.05085484,1.257471,-0.3312512,0.05953348
0.9334696,-0.3327411,-0.08458655,0.8691209,-0.1910797,0.001950364
1.305187,-0.4200783,-0.1069336,0.7569854,-0.3216989,0.09800387
1.781077,-0.4898332,-0.103921,0.9830361,-0.2986417,0.1905184
1.973286,-0.4826821,-0.06638224,1.176122,0.07191697,0.15963
1.816397,-0.1990726,0.00353873,1.113092,0.3776624,-0.006586832
1.777528,0.1748745,0.1150531,0.9105025,0.2159156,-0.2283203
1.801871,0.1737434,0.1108012,0.4178017,-0.01909191,-0.3358223
1.529309,0.02467456,0.03967818,-0.3706106,-0.08029006,-0.08522356
1.152197,-0.02790754,0.01103581,-0.4477361,-0.3703855,0.3163054
0.8978373,-0.2039897,-0.08785219,0.192931,-0.6215807,0.6192051
0.9274391,-0.337885,-0.1258255,0.6575199,-0.4403151,0.7374749
0.9873853,-0.4102537,-0.1107973,1.146806,-0.1671861,0.4804823
0.8293838,-0.5210615,-0.1553699,1.56885,0.1760072,0.1180336
0.7345844,-0.3383372,-0.06478839,1.58399,0.347513,-0.08724343
0.524044,-0.107482,0.01937337,1.466819,0.04761149,-0.1741341
0.3376206,-0.01650627,-0.03821604,1.1196,-0.1401373,-0.08748714
0.4263631,0.2337314,-0.04789805,0.621764,-0.2295498,0.09793168
0.4037729,0.3068463,-0.07171181,0.2752616,-0.3362618,0.3250696
0.5352684,0.1469371,-0.1231806,0.2331376,-0.06894567,0.3755597
0.7526632,0.06736112,-0.1282446,0.388586,0.2605826,0.06628571
0.7205604,0.0001244,-0.0991059,0.3925102,0.4035674,-0.2358987
0.7592441,0.02674029,0.003969303,0.5082737,0.3739757,-0.2888755
0.7468758,0.1058991,0.09719,0.5307639,0.1580961,-0.07392418
0.7581592,0.1594697,0.1185778,0.1275655,0.01621579,0.2644171
0.8841168,0.2003795,0.09128464,-0.2623991,0.0008113657,0.37756
0.9126324,0.0516515,0.05663677,-0.6147177,-0.08683361,0.3453917
1.036852,-0.2369239,0.05144905,-0.6456041,-0.3794932,0.3316823
1.22948,-0.5608169,0.006718017,-0.296039,-0.6078667,0.2186299
1.512647,-0.8246289,-0.01565905,0.1527864,-0.6296083,-0.1192922
1.829687,-0.8164657,0.02484792,0.7688015,-0.6852906,-0.6543585
1.952447,-0.5299086,0.02086316,0.8682485,-0.6317291,-0.8967795
2.002602,-0.171056,-0.01627552,0.66505,-0.3260782,-0.4626976
1.947681,-0.01808455,-0.06713765,0.7588224,0.3229835,0.07574168
1.754945,-0.04269297,-0.07277467,0.5910502,0.9875889,0.1084959
1.346788,-0.04345527,0.04630932,0.4781934,0.8814783,0.1653947
0.8867973,-0.06664659,0.1821498,0.6010693,0.4306133,0.4852288
0.7682587,-0.06153144,0.2016798,0.5429317,0.1528433,0.4380132
0.7064415,0.001595187,0.1319882,0.4277859,-0.1564504,0.297798
0.5969974,0.01842689,0.076984,0.128498,-0.1697401,0.3635991
0.5437181,0.04302367,0.0316847,-0.1709091,-0.05005783,0.3348323
0.4232642,0.02353177,0.008673975,-0.2064814,-0.1208773,0.3737726
0.3958481,-0.05793865,0.05830593,-0.1231966,-0.0392121,0.3786279
0.4007888,-0.1076763,0.09402282,0.09575881,-0.03293253,0.2516544
0.3260607,-0.1718835,0.1217027,0.3818228,-0.323791,0.1450962
0.3030238,-0.1986073,0.167069,0.771601,-0.8071673,-0.05786356
0.4088774,-0.1713785,0.1404142,1.076515,-1.369381,-0.2261288
0.7421502,-0.1588616,0.05480479,0.9870403,-1.349871,-0.3421784
1.093116,-0.1278086,-0.03102331,0.6810173,-0.5616408,-0.4002604
1.116864,-0.04888019,-0.03247184,0.310599,0.3341375,-0.1921214
0.9478624,0.05563677,0.04607362,0.07371132,0.6711816,0.07211815
0.8781157,0.04539824,0.07254204,0.00515409,0.4622398,0.2207797
0.8662507,-0.08590319,0.05453381,-0.03821917,0.2976125,0.3892421
0.9813764,-0.2989788,0.002516633,0.09289502,0.1624322,0.6306827
1.426827,-0.6099766,-0.08140741,0.4330631,0.1771444,0.5623882
1.772931,-0.6729175,-0.1111221,0.7869018,0.3825963,-0.1983529
1.648692,-0.3567353,-0.1075722,0.7518891,0.1206111,-0.8912965
1.545966,0.002994705,-0.09600325,0.4624346,-0.1235856,-0.6217137
1.741186,0.1579047,-0.07509813,0.1805069,0.01040472,-0.09768447
1.731637,0.0453691,-0.07334687,-0.5512712,0.14093,-0.06748502
1.323873,-0.08783061,-0.04342282,-0.8764805,0.2736357,0.009813546
0.9355027,-0.1702038,-0.001472055,-0.1598645,-0.1604033,0.1607452
0.8657238,-0.3362243,-0.03898663,0.4052369,-0.6923594,0.1305247
0.9882875,-0.340782,-0.1037853,0.7807038,-0.3470299,0.1943424
0.887374,-0.2115364,-0.1124228,0.984464,0.005726803,0.2101733
0.6728884,-0.1547871,-0.1061076,0.6922316,0.05183489,0.2982898
0.587081,-0.06447689,-0.1039134,0.6053654,0.2609561,0.4160274
0.3950458,-0.02298117,-0.08989716,0.5646958,0.3277486,0.2895618
0.303157,-0.04873166,-0.07839264,0.4389409,0.2807586,0.2622201
0.345397,-0.07856775,-0.05370935,0.4544352,0.2725918,0.1378162
0.373907,-0.1591888,-0.02760104,0.4081706,0.1523966,-0.12291
0.532202,-0.1676014,-0.01580763,0.5975179,0.1024643,-0.2725046
0.554543,-0.147422,0.006875236,0.924215,0.004227477,-0.3399541
0.5633456,-0.146533,0.02815257,1.203378,-0.4023006,0.00922804
0.7742177,-0.04936761,0.01294756,1.410671,-0.6746294,0.4714876
1.017631,0.07106242,-0.06001245,1.230651,-0.4895198,0.5303558
1.219892,0.1391319,-0.1172201,0.7989789,-0.06351957,0.2108995
1.155472,0.1329069,-0.05900059,0.1247276,0.2275161,-0.2395654
1.093534,0.07983241,0.02377238,-0.4998804,0.05454654,-0.3538044
1.262576,-0.05046985,0.02511263,-0.591987,-0.5801337,-0.1447648
1.489325,-0.3195974,0.0176511,-0.4625955,-0.9955179,0.2062285
1.857806,-0.4956801,0.01153614,-0.1621457,-0.3417651,0.3970071
1.938495,-0.5071059,-0.003645727,0.3023991,0.440817,-0.02349601
1.626097,-0.4677529,0.1036489,0.6280994,0.07442467,-0.5150479
1.525681,-0.2995682,0.2158069,0.8783937,-0.4367039,-0.3790742
1.556166,-0.09182814,0.1125422,1.036112,-0.4280306,-0.03675974
1.49957,0.007052914,-0.02078999,0.9298864,-0.1640225,0.1203367
1.362014,0.03597564,-0.02060177,0.5365624,0.4956764,0.3139005
1.092682,0.03660929,0.0170086,0.06035048,0.6730158,0.3981766
0.8722675,-0.002094291,0.06083669,-0.1696087,0.3782632,0.3874321
0.7387572,-0.09614611,0.1039317,-0.1269618,0.5185927,0.4256356
0.5919662,-0.1483673,0.1350156,-0.01429648,0.3805501,0.2813776
0.4715634,-0.1338656,0.1561954,0.1677286,0.01060272,0.2119122
0.3999387,-0.1228781,0.1321301,0.3939183,-0.1423176,0.194835
0.3962285,-0.06823716,0.1079277,0.4791913,-0.4042855,0.05216977
0.4459542,-0.01364029,0.1146575,0.508884,-0.4660164,-0.01165705
0.5198167,-0.01622134,0.09679478,0.4996007,-0.5461526,-0.1642473
0.5929117,-0.04197731,0.07586379,0.4101059,-0.7319469,-0.2360912
0.6463097,-0.0775791,0.06149709,0.3501998,-0.6951149,-0.1542409
0.7197117,-0.08751416,0.03617816,0.1829147,-0.6216476,-0.05910243
0.8685356,-0.1375351,0.02603299,-0.01289649,-0.3188842,0.2041043
1.050607,-0.2279009,0.007134887,-0.05371665,0.1547985,0.2790423
0.9963972,-0.2186696,0.003110285,0.09194915,0.5091437,0.05377461
0.6778734,-0.1368696,0.05568531,0.3815188,0.4877554,-0.1861372
0.4633614,-0.08533824,0.09336888,0.4689211,0.02241954,-0.2531601
0.5413709,-0.1033513,0.05875354,0.477439,-0.4949507,0.1382859
0.9817607,-0.2225914,-0.06523994,0.6430876,-0.765132,0.7739805
1.677853,-0.4657109,-0.2595761,0.669123,0.002815462,0.9016148
2.0644,-0.6422819,-0.3472419,0.4902511,0.8892907,0.07603279
1.881039,-0.4393903,-0.1919054,0.2962031,0.1377738,-0.7050393
1.757621,-0.06328083,-0.001600136,0.1975844,-0.4350083,-0.4079624
1.929533,0.05408139,0.02484982,-0.01878252,0.1108304,-0.0772426
1.830127,-0.01070164,-0.006415695,-0.3256207,0.09551104,-0.108681
1.598343,-0.06231497,-0.01972826,-0.2050384,-0.1030314,0.297333
1.401428,-0.1168559,-0.02738982,0.1086292,-0.009279278,0.3734397
1.091214,-0.1871582,-0.03977969,0.1847146,-0.1404475,0.02707223
1.010124,-0.188192,-0.06228138,0.2042082,-0.150343,0.1318755
0.8904306,-0.1093379,-0.05599575,0.1265628,-0.1133411,0.1904055
0.6695491,-0.1038397,-0.0587459,0.02353864,-0.1771991,0.30965
0.6887169,-0.1254152,-0.07081381,0.1186618,-0.03182807,0.6307471
0.5996539,-0.1318409,-0.05561847,0.189798,0.09417556,0.5735358
0.5511504,-0.2005831,-0.05755562,0.2221646,0.08302207,0.4342448
0.6060828,-0.2071275,-0.05804163,0.2830048,0.09335024,0.1466713
0.5894473,-0.1781638,-0.06247974,0.2925526,0.1345508,-0.2237299
0.6899016,-0.1618539,-0.0823775,0.3600145,0.2416913,-0.3457573
0.6835253,-0.1199154,-0.075207,0.4123628,0.3505764,-0.4117149
0.6542681,-0.1268351,-0.05270521,0.5503525,0.3771966,-0.1015076
0.7233792,-0.1049442,-0.01494581,0.8744192,0.3176542,0.352316
0.7475561,-0.01960044,0.005480161,0.9451849,0.2593923,0.432926
0.826036,0.08466695,-0.01394816,0.5933471,0.2028977,0.2837607
0.8154014,0.1349857,-0.02003979,0.03159038,-0.01436998,0.001965775
0.7616257,0.07477094,-0.01854055,-0.4443349,-0.2589221,-0.2657843
0.7876791,0.04093026,-0.02987886,-0.5425704,-0.3419276,-0.4284534
0.8828312,-0.03552451,-0.04524685,-0.1998957,-0.3101776,-0.3601026
1.138703,-0.2225394,-0.05371848,0.2985084,-0.2544411,-0.2916994
1.287702,-0.3308478,-0.03236582,0.4187691,-0.3178082,-0.4073186
1.274749,-0.3264808,0.01299001,0.1784741,-0.5978402,-0.3419374
0.9737515,-0.3870897,-0.03901766,0.2421627,-0.3450884,0.9457733
1.574493,-0.4366885,-0.1629287,0.09222767,-0.1462228,0.6563504
2.083785,-0.4509449,-0.2382379,-0.1241695,0.359421,0.01353395
2.008092,-0.4200638,-0.09592792,-0.4156708,0.3613496,-0.4144434
1.862622,-0.3064154,0.08139144,-0.9129327,0.1969973,-0.5546378
1.872172,-0.1061007,0.03638811,-1.237997,0.2921233,-0.3583171
1.529217,0.005206433,-0.004700381,-1.347144,0.009596133,0.07171265
1.25888,-0.109317,0.03616382,-1.14742,-0.3108386,0.5482296
1.166945,-0.2555438,-0.05366757,-0.424294,-0.4417312,0.7204124
0.9752509,-0.3993303,-0.1191376,0.002532472,-0.476744,0.4077341
0.9517111,-0.4474218,-0.1176223,-0.005891474,-0.131461,0.2198477
0.885721,-0.2922924,-0.1620765,-0.00866981,0.1563287,0.127712
0.6624455,-0.181423,-0.1183315,-0.1704465,0.3549835,-0.02419333
0.5357098,-0.05695841,-0.05084268,-0.1310243,0.3895974,0.2400902
0.3909245,0.06209005,-0.05411047,-0.1093586,0.2137632,0.351235
0.3220428,0.01012994,-0.06410593,-0.3782743,0.2960331,0.2117491
0.3393851,-0.009068045,-0.09440581,-0.4248327,0.3292402,0.1745092
0.3133904,-0.07472333,-0.1020661,-0.453708,0.3841179,-0.05749981
0.4318573,-0.2153507,-0.08183289,-0.3222968,0.491449,-0.1310716
0.6301507,-0.2567027,-0.06463407,0.07836784,0.5056656,-0.2197177
0.7995765,-0.2599735,-0.03246274,0.2932286,0.7572169,-0.4806133
0.8640053,-0.1390531,-0.007544113,0.3087099,0.7753434,-0.4386189
0.760176,0.0446597,0.01325663,-0.08805428,0.4373894,-0.2582885
0.7420328,0.1261457,0.04839747,-0.6978993,-0.06743352,0.005674268
0.8476639,0.1364974,0.08895859,-1.014937,-0.5753549,0.1342849
1.063119,-0.05307683,0.06220954,-0.9907557,-0.4669455,0.05130946
1.453884,-0.4610949,-0.03009329,-0.8442313,-0.2795856,0.06890338
1.735799,-0.7382496,-0.07072394,-0.7909162,-0.3265836,-0.01517757
1.733113,-0.6491799,-0.04573405,-0.5438963,-0.05486671,-0.2441465
1.735441,-0.5084487,0.002371169,-0.3411254,0.06826552,-0.5752631
1.845519,-0.47706,0.02286576,-0.1970448,-0.1822443,-0.7826297
1.772572,-0.3021771,0.02984917,0.3539323,-0.2756364,-0.4660697
1.699103,-0.1494126,0.0410197,0.5125431,-0.04557096,-0.01503722
1.746035,-0.0800208,0.004642373,0.0966642,0.4327226,0.190805
1.539475,0.004545132,0.008335899,-0.1829692,0.7827249,0.2931665
1.213691,-0.08442587,0.05456076,-0.2854059,0.6844713,0.3101433
0.9264591,-0.1449006,0.07494702,-0.2725585,0.517613,0.2408289
0.6736112,-0.09994792,0.09838843,-0.2859646,0.5049737,0.2223693
0.54528,-0.1107515,0.1024289,-0.2839729,0.3282587,0.3011445
0.4266427,-0.06760028,0.1248621,-0.2454642,0.0934201,0.3889331
0.4161407,-0.08875947,0.1261725,-0.3318685,-0.007910776,0.3662045
0.4836087,-0.1593975,0.08787413,-0.3511724,-0.08520852,0.2177452
0.5176498,-0.1582372,0.0928079,-0.260666,0.004179233,0.06785862
0.5956167,-0.1859243,0.07482837,-0.1873623,0.1369386,0.004875706
0.5786954,-0.1813242,0.07078151,-0.2298041,0.09557646,0.03983418
0.5286113,-0.1811882,0.08559244,-0.2902467,-0.05200002,0.1621744
0.5421385,-0.2133189,0.06152963,-0.1774265,-0.3532546,0.3654572
0.6342183,-0.2248642,0.06458944,-0.06347287,-0.4481867,0.4514582
0.8243999,-0.2587243,0.05026297,0.07302653,-0.189861,0.1682778
0.8573636,-0.2115308,0.05144239,0.2695489,-0.07671177,-0.2001986
0.7930012,-0.1137742,0.08795152,0.3404353,-0.1610812,-0.3529728
0.8142437,-0.08862176,0.06813903,0.3663247,-0.2334947,-0.3296121
0.868822,-0.1631334,0.006559126,0.3143194,-0.2434793,0.04615398
1.148235,-0.3986564,-0.1246713,0.1981921,-0.199921,0.7254013
1.679993,-0.6829357,-0.2340527,0.2151503,0.07880203,0.9748649
1.930304,-0.8263963,-0.1709902,0.2238912,0.6385655,0.3019631
1.677981,-0.783942,0.0378465,0.2708523,0.7649976,-0.5805818
1.533091,-0.5824283,0.2312809,0.6641585,0.02560323,-0.834024
1.666901,-0.1890206,0.159423,0.8994353,-0.7040103,-0.8315758
1.608385,0.2691051,0.01789762,0.1587649,-0.4686443,-0.8950573
1.469516,0.4010731,0.07076411,-0.8425233,-0.1742776,-0.4028198
1.335153,0.1865874,0.0237712,-0.8464466,-0.5066764,0.6212815
1.052011,-0.1020343,-0.09329861,-0.4833359,-0.4533469,1.108031
0.8762246,-0.3581068,-0.08642155,-0.4085495,-0.3611084,0.9144029
0.8030794,-0.4402747,-0.1151458,0.01748835,-0.4056243,0.6714036
0.671334,-0.3437208,-0.09927745,0.3341303,0.03488871,0.3088386
0.5484935,-0.2657271,-0.04092827,0.1780175,0.04778694,0.07628763
0.4808561,-0.2046564,-0.05742008,0.2087415,-0.1030402,0.2062555
0.5583166,-0.1308539,-0.06893413,0.1495434,0.076774,0.1008909
0.6415351,-0.1427969,-0.115214,-0.001762041,0.07289037,-0.1635148
0.6070339,-0.1281966,-0.1289137,0.02935461,0.2847253,-0.3325528
0.5974329,-0.02782133,-0.07782117,-0.072883,0.4183947,-0.4956006
0.5914693,0.02751634,-0.05472347,-0.1302833,0.3387677,-0.4285995
0.6372396,0.08829102,-0.014459,-0.1956266,0.3778386,-0.2602388
0.7999065,0.09447367,-0.01641482,-0.4266642,0.1712923,-0.0783412
0.9512061,-0.01036556,-0.05253375,-0.5986789,0.03190523,0.1730118
1.01892,-0.09362228,-0.05799825,-0.7617669,0.114349,0.1763427
0.97072,-0.1786031,-0.05684887,-0.8859759,0.2140531,0.0127442
0.9445191,-0.2742992,-0.02262509,-0.8915784,0.3143756,-0.1125652
1.04009,-0.4166399,0.0035725,-0.6718966,0.200981,-0.2143597
1.163146,-0.561849,0.02332344,-0.3025643,-0.2085395,-0.2565297
1.406525,-0.5660376,0.01866641,-0.1551481,-0.8878507,-0.324092
1.731418,-0.542675,-0.05913448,-0.1413036,-1.097426,-0.3495208
1.899496,-0.4771617,-0.106063,-0.2108713,-0.3168992,-0.3793663
1.931924,-0.3648845,-0.07942429,-0.4604181,0.4208099,-0.4877177
1.865894,-0.3491259,-0.004038308,-0.5221128,0.4095429,-0.4166483
1.71363,-0.3002117,0.05600588,-0.2829975,0.4264215,-0.2646873
1.596728,-0.2249832,0.04872857,-0.07840694,0.7805143,-0.1370292
1.343985,-0.2188005,0.06145079,-0.07213304,0.7030546,0.01732887
0.9302579,-0.1556059,0.1089196,-0.1689905,0.4231266,0.08447515
0.8452141,-0.108545,0.1185188,-0.250331,0.3100692,0.1945571
0.9116064,-0.1333532,0.0926212,-0.3800232,0.03950249,0.3061331
0.6755376,-0.09128471,0.07774293,-0.5041212,0.05434859,0.3457843
0.5798535,-0.08386378,0.06489545,-0.5015338,0.1707423,0.4182598
0.6591217,-0.1596485,0.04955021,-0.4939643,0.01428362,0.3534372
0.5302405,-0.2127166,0.05290543,-0.4023663,0.0168631,0.1907969
0.5032892,-0.2739112,0.04122264,-0.1730172,-0.07779145,-0.0007263253
0.5902052,-0.2622942,0.04027616,-0.03204902,-0.2049545,-0.2342074
0.5883606,-0.2042877,0.03964412,-0.01083921,-0.1330921,-0.2812842
0.6650406,-0.1737929,-0.007401632,-0.04885205,-0.0153131,-0.2127861
0.7471196,-0.06098025,-0.03291869,-0.08552574,0.2742997,-0.09603438
0.7758996,-0.04414872,-0.01877388,-0.1654014,0.3467924,0.196171
0.8164674,-0.1492209,0.02632263,-0.3260195,0.3286317,0.4591729
0.8094933,-0.1833509,0.08151423,-0.3326521,0.5674073,0.4490726
0.7232788,-0.2209079,0.1282985,-0.2055896,0.5122856,0.213834
0.594381,-0.1839725,0.1955076,-0.1349846,0.2402281,-0.07799283
0.558502,-0.08097713,0.2152474,-0.1197449,-0.07350409,-0.31135
0.6032089,-0.02583203,0.1744191,-0.1978606,-0.4572541,-0.3431361
0.654821,0.03322017,0.1283561,-0.3473931,-0.5428472,-0.1367064
0.923072,-0.1612349,0.03018865,-0.3591507,-0.5597199,0.2299172
1.544668,-0.6726333,-0.1370424,-0.01340674,-0.3715885,0.5603695
1.963119,-0.9640166,-0.2176116,0.3243928,0.8710808,0.2803246
1.589074,-0.6968489,-0.05851045,0.04667072,1.866608,-0.5362554
1.249792,-0.2156097,0.1642477,-0.299521,0.2933033,-0.9782701
1.624601,0.06019398,0.1911634,-0.2938058,-1.474985,-0.7361623
1.780071,0.1949647,0.04254126,-0.8575915,-0.2580234,-0.379236
1.532719,0.1577001,-0.07216825,-1.697118,0.7089114,-0.3066021
1.366693,-0.02037265,0.0026744,-1.594671,-0.1191513,0.04260588
1.048381,-0.1359023,0.06887179,-1.085015,-0.1213448,0.4739977
0.8730232,-0.2764498,-0.02808417,-0.7318173,-0.3030186,0.2982465
0.9691785,-0.2323603,-0.08763997,-0.2666124,-0.5884057,0.284475
0.8803092,-0.0762339,-0.1188629,-0.2159938,0.1904154,0.3763655
0.7736865,-0.09390726,-0.1726844,-0.6174693,0.4311961,0.1824239
0.6702355,-0.01478943,-0.1474971,-0.8741998,0.5976372,0.2472228
0.5067464,-0.01785374,-0.1426763,-1.079268,0.782014,0.1760476
0.4849643,-0.09888572,-0.1550724,-1.096881,0.5082323,-0.01015996
0.4901598,-0.03938933,-0.1110325,-0.9547998,0.6965495,-0.09462127
0.5579331,-0.1007662,-0.08000229,-0.9216299,0.6621241,-0.2901918
0.6772874,-0.08200692,-0.05851344,-0.6996208,0.6249254,-0.2597936
0.7686134,0.02143703,-0.06008323,-0.5868518,0.80768,-0.2144476
0.9746832,0.07462103,-0.05238791,-0.8536992,0.6770504,-0.0924901
1.072556,0.1805375,-0.01886246,-1.292459,0.8504737,0.2478992
0.9844139,0.1295611,-0.05567445,-2.092608,0.9340773,0.304512
0.9409495,0.07489226,-0.08472033,-2.824022,0.8731376,0.1656593
0.9104241,0.02472767,-0.05244304,-2.818967,0.7653073,-0.01723317
0.9852982,-0.2074951,-0.0450708,-2.3346,0.3977367,-0.1414245
1.177769,-0.4156251,-0.05918838,-1.943438,0.3944625,-0.1767048
1.236449,-0.6404852,-0.06547048,-1.677337,0.2900129,-0.2153805
1.249964,-0.8142849,-0.05971113,-1.227801,-0.01115356,-0.2470804
1.339054,-0.788276,-0.04172527,-0.8314192,0.01526236,-0.59924
1.430316,-0.6420089,0.01268398,-0.7812712,-0.005337487,-1.041745
1.594287,-0.4198104,0.08812945,-0.8756674,-0.06048297,-1.055966
1.702892,-0.2495844,0.09750659,-0.9489057,0.1054985,-0.7783913
1.61893,-0.09611492,0.06688688,-1.063753,0.4497701,-0.5175739
1.525407,0.01089616,0.06403749,-1.35195,0.6412223,-0.406
1.37989,0.0002715725,0.05932558,-1.781429,0.6471737,-0.2539503
1.184362,0.05443931,0.04846952,-2.185274,0.7135947,-0.0002648317
1.141182,0.04061633,0.03611841,-2.401829,0.7108703,0.2017452
1.080775,-0.06273735,0.005747972,-2.439482,0.6951128,0.279769
0.8887626,-0.08734995,-0.009452261,-2.418533,0.6581948,0.2597531
0.7508852,-0.200059,-0.02346028,-2.354557,0.5636075,0.2012346
0.7302738,-0.2632995,-0.05129765,-2.292238,0.5112962,0.01414156
0.7428118,-0.2162338,-0.04218899,-2.181325,0.3710958,-0.1319334
0.652251,-0.3121477,-0.02681924,-1.919562,0.1912932,-0.136962
0.553982,-0.3646399,-0.0194083,-1.512674,0.05925646,-0.1818207
0.5558779,-0.3232657,0.009549276,-1.021778,0.01655418,-0.2699437
0.4869813,-0.3025091,0.03344998,-0.644106,0.01660481,-0.4517777
0.4330304,-0.1754203,0.06192807,-0.4692437,-0.09169207,-0.5900075
0.4665949,-0.01701307,0.08643224,-0.4737435,-0.2194087,-0.5911607
0.4834556,0.09479021,0.09731671,-0.6241402,-0.4104188,-0.5854596
0.5930769,0.1364346,0.1017575,-0.8562946,-0.7626313,-0.4883872
0.7471196,0.06027355,0.06111401,-1.13252,-1.060916,-0.3021452
0.8936325,-0.03307296,0.006764716,-1.195009,-1.022684,-0.06793658
1.034041,-0.1436098,-0.02092418,-0.9436488,-0.6887632,0.1300262
1.055244,-0.2666248,-0.01588894,-0.6032426,-0.3873238,0.145718
1.05524,-0.3177796,0.005301965,-0.27577,-0.2497506,0.007666669
1.061867,-0.342767,-0.009841319,-0.07920817,-0.3161099,-0.0931726
1.113113,-0.4488863,-0.06756513,0.05803951,-0.5694741,0.1480455
1.393288,-0.6110752,-0.1913001,0.2681743,-0.6593324,0.4432874
1.696429,-0.6177255,-0.279103,0.262175,-0.1866536,0.265635
1.696475,-0.4838952,-0.1961976,0.006164294,0.3832797,-0.2450531
1.610609,-0.3768441,-0.10526,-0.09616943,0.1958566,-0.6272703
1.704724,-0.2588624,-0.101398,0.06972088,-0.01021161,-0.3943732
1.684108,-0.1993577,-0.105712,0.1594658,0.2970567,-0.004910154
1.513359,-0.2062165,-0.1179403,-0.14868,0.1782133,-0.1622686
1.401368,-0.184778,-0.1113961,-0.4669313,-0.1476481,-0.1495558
1.185986,-0.2513005,-0.09243508,-0.2686021,-0.3711549,0.09968738
0.9777744,-0.3344017,-0.08956965,0.1756065,-0.5707494,0.02684836
0.9284695,-0.317038,-0.08131779,0.6086855,-0.3434803,0.07488865
0.8665603,-0.2523538,-0.08710521,0.9099622,-0.2895185,0.1086097
0.7381753,-0.1345189,-0.08922487,0.8478077,-0.4030402,0.07036418
0.6714489,-0.07656,-0.08141488,0.7811307,-0.2560884,0.2284866
0.6827385,-0.06262416,-0.08919162,0.7367286,-0.247078,0.2248944
0.5934618,0.004253447,-0.08190023,0.4786871,-0.07783062,0.2941472
0.5794328,-0.01440756,-0.07186212,0.3827493,0.1478227,0.4058998
0.6472766,-0.07291412,-0.06906157,0.3966002,0.2095107,0.3045245
0.5688748,-0.09628709,-0.06231838,0.4020958,0.3404812,0.2368843
0.5800754,-0.1720647,-0.06602759,0.5614322,0.3169959,-0.01279613
0.6013376,-0.1987826,-0.05839868,0.7887987,0.4071956,-0.2947879
0.560024,-0.1460758,-0.03784506,0.994463,0.5148341,-0.3514268
0.5856718,-0.1139968,-0.01266342,0.9776615,0.2062475,-0.2634569
0.5551368,-0.01287499,-0.003228014,0.8781143,-0.222487,0.03603704
0.6426827,0.1063647,-0.03315409,0.7427232,-0.4645501,0.2553594
0.8806939,0.08453854,-0.05667255,0.2497937,-0.3100754,0.2268998
1.089168,0.02925039,-0.06218463,-0.203586,-0.07111364,0.048725
1.165574,-0.04764787,-0.04417609,-0.3127415,0.009065037,-0.1002403
1.102922,-0.2079843,-0.005887021,-0.2429292,0.006158031,-0.05930196
1.179167,-0.3854522,-0.004153412,0.02019653,-0.5076686,0.01281349
1.401493,-0.597237,-0.01608594,0.4870664,-0.9953088,0.02241822
1.729057,-0.7262867,-0.02770938,0.898453,-0.6338141,-0.2288002
2.021197,-0.642988,-0.04817054,0.8176925,-0.2798578,-0.642806
1.950338,-0.4405022,-0.03739874,0.741561,-0.3906597,-0.6569163
1.880098,-0.1817873,-0.02581712,1.033316,-0.09440471,-0.2410387
1.886711,0.01186097,-0.03893654,0.8899931,0.5250365,0.188604
1.571973,0.09903687,-0.03824034,0.4090295,0.7870402,0.3525767
1.221497,0.175556,-0.01392592,-0.05289648,0.7834761,0.4658084
0.9731619,0.05171893,0.02746409,-0.4277148,0.5424687,0.6321252
0.7003804,-0.2186685,0.05929815,-0.2903847,0.2730467,0.5027466
0.6165723,-0.265105,0.0535123,-0.0734058,0.206372,0.2742319
0.5782322,-0.261393,0.04630469,0.1434026,-0.006527665,0.218842
0.3782607,-0.3219365,0.05558982,0.5002477,-0.2020739,0.206241
0.3314642,-0.2537318,0.03986375,0.517631,-0.2503759,0.2310056
0.4371109,-0.1928418,0.02357695,0.5941323,-0.3358198,0.1685931
0.4503055,-0.1563136,0.04158887,0.7063177,-0.3402105,0.01305781
0.5126138,-0.09584842,0.05661309,0.5928568,-0.3288855,-0.1233457
0.5848753,-0.09685191,0.06043818,0.5135447,-0.2979576,-0.2664559
0.577696,-0.1021524,0.0628533,0.2624297,-0.3038536,-0.272817
0.6231425,-0.1235818,0.06488692,0.1875587,-0.4408291,-0.1760424
0.7007598,-0.1588988,0.06514038,0.3566829,-0.5422384,0.06035073
0.8865221,-0.215043,0.03989778,0.4896987,-0.5202471,0.4640997
1.071108,-0.3205704,0.01325285,0.8226584,-0.2172143,0.5066383
1.015305,-0.335434,0.02344855,0.9675241,0.1297196,0.1650834
0.8800111,-0.2512767,0.0444716,0.9334547,0.05619752,-0.07767791
0.7700824,-0.2038262,0.03641511,0.9741637,-0.321711,-0.002427419
0.8528943,-0.2595056,-0.03112032,0.8287006,-0.568476,0.4493858
1.310687,-0.3885659,-0.1294549,0.66786,-0.1971884,0.8434551
1.697699,-0.5172496,-0.1566079,0.506395,0.76701,0.5934901
1.584472,-0.5333743,-0.1135237,0.4530474,1.232132,-0.2327685
1.453106,-0.3251706,-0.05604193,0.6466668,0.1420359,-0.9093726
1.749749,-0.09893411,0.003246162,0.5757058,-1.002981,-0.8439428
1.863394,-0.0658581,-0.05090196,0.1507587,-0.2395904,-0.5117007
1.555149,-0.03165786,-0.1448262,-0.3655174,0.4190429,-0.3446865
1.293004,0.0390197,-0.07847877,-0.5572731,-0.2114808,0.204657
1.125623,-0.07063866,-0.04070385,-0.2436064,-0.1211103,0.7366871
1.056346,-0.275324,-0.09017913,0.004385376,0.1140296,0.5429523
0.9280174,-0.3869297,-0.06300079,0.2824553,-0.05025257,0.3057042
0.701355,-0.3946417,-0.06429275,0.5648742,0.3494287,0.08287129
0.6069992,-0.2771195,-0.08100169,0.427093,0.3611053,-0.1776756
0.4270878,-0.1129754,-0.05767556,0.3899398,0.1796075,-0.0472879
0.3076221,-0.02197654,-0.0706271,0.3405513,0.3280319,-0.07149718
0.3692987,0.0118558,-0.06871493,0.1095805,0.1274998,-0.1405084
0.3518066,0.009596388,-0.06839724,0.1714819,0.03333208,-0.06271509
0.4698754,0.03178455,-0.07881155,0.1913607,0.06563641,-0.1337847
0.7098418,0.05979578,-0.05393514,0.08313791,0.1924101,0.08842788
0.8590007,0.0354146,-0.04422011,-0.135605,0.5413711,0.3606127
0.8883601,0.01329989,-0.04560505,-0.5663694,0.5133722,0.3553929
0.8342054,-0.01019115,-0.03654362,-0.7029492,0.3492065,0.2362955
0.8760052,-0.01340962,-0.01497773,-0.7169106,0.2833917,-0.06423609
0.9246065,0.001823455,0.01636198,-0.8916259,0.2766095,-0.3170533
0.9453921,-0.03171724,0.03090877,-0.8676354,0.3451014,-0.3424277
1.014001,-0.1524559,0.01984997,-0.8077289,0.1702696,-0.03517016
1.095801,-0.4314423,-0.005116432,-0.8498589,-0.2741186,0.4078374
1.38369,-0.723271,0.001945693,-0.5669565,-0.8052749,0.4932219
1.814271,-0.7969824,0.00432053,-0.1015422,-0.8000274,-0.02688306
2.027244,-0.6837866,-0.01696355,0.01708152,-0.3576231,-0.9928885
1.995732,-0.4545816,0.01081689,-0.1075738,-0.2103351,-1.38448
1.927135,-0.1566744,0.02900812,-0.2485272,0.2233991,-0.8252536
1.762385,0.0832729,0.01064408,-0.5355891,0.9020942,-0.2338659
1.376096,0.1935257,0.01163094,-1.002355,0.9977017,0.05724787
1.061849,0.1643892,0.00824591,-1.387805,0.6911689,0.4247422
0.9201645,0.03349914,-0.0124021,-1.596296,0.4223442,0.7466482
0.8652469,-0.06997424,-0.05236052,-1.820005,0.5150409,0.6822194
0.8889344,-0.175058,-0.08897935,-1.930303,0.68126,0.5121823
0.754155,-0.2955394,-0.09825817,-1.773405,0.6761959,0.3156269
0.6565383,-0.2671067,-0.08633535,-1.552219,0.7358976,0.0374997
0.6300652,-0.2081557,-0.03279106,-1.35846,0.6077736,-0.03367573
0.4152283,-0.1733919,0.01941148,-1.189319,0.4173452,-0.04360732
0.4522587,-0.06281341,0.01496215,-1.140363,0.2992123,-0.004312245
0.5760402,-0.04745643,-0.01648589,-1.24858,0.1430593,0.08073082
0.4914709,-0.1264836,-0.04585916,-1.37725,0.2217292,0.1104997
0.5852036,-0.2113572,-0.06551662,-1.366838,0.3574655,0.3671194
0.6002098,-0.2994748,-0.04575853,-1.079078,0.4352247,0.6196121
0.5291837,-0.3189738,-0.003761098,-0.5401324,0.3790054,0.6573814
0.6297797,-0.4059152,0.01111218,-0.08061878,0.1370508,0.6157484
0.7070882,-0.5649151,0.0489404,0.2369235,0.1539365,0.3330664
0.8293168,-0.5497187,0.09420221,0.5253134,0.2955792,-0.3148893
0.8144949,-0.3957891,0.121228,0.6107585,0.3434904,-1.041381
0.6312843,-0.1920301,0.2117032,0.4658142,0.2400267,-1.208939
0.5672342,0.09006417,0.2401069,0.2049846,-0.1255032,-0.7225217
0.6049394,0.1819284,0.1580345,-0.07720364,-0.4092243,0.2348421
1.101644,-0.09766896,0.08353044,-0.2559239,-0.3556796,1.138444
1.797132,-0.5067164,-0.1021721,-0.5462496,0.3925192,0.8168121
1.820247,-0.9054323,-0.2593628,-0.7477216,1.148104,0.03380152
1.606756,-1.093432,-0.07257716,-0.1737244,0.4825913,-0.1125563
1.657592,-0.88552,0.1290929,0.3278961,-0.3452199,-0.546391
1.528172,-0.5764629,0.03700946,-0.1959668,-0.2162694,-0.7787253
1.223114,-0.263241,0.02756476,-0.6137772,-0.7365442,-0.2468591
1.066473,0.06231206,0.119662,-0.4963641,-1.522632,0.1651995
1.1332,0.06221181,-0.04402163,-0.7039398,-0.9831641,0.7483264
1.274998,-0.1185053,-0.186797,-0.9001188,-0.2238116,0.9952661
1.08578,-0.1783173,-0.1306082,-0.6454154,0.09434375,0.5702697
0.7772941,-0.2661319,-0.1036115,-0.5079736,0.4449394,0.3977567
0.6787894,-0.2563391,-0.06718706,-0.5812277,0.1145954,0.02929549
0.567113,-0.1192776,-0.04332587,-0.4508964,-0.4979492,-0.119707
0.6246338,-0.1057355,-0.08378933,-0.3091082,-0.4293578,0.221268
0.7402686,-0.1157338,-0.1286481,-0.4283183,-0.1794547,0.09455223
0.6711092,-0.1526882,-0.1775817,-0.5106245,0.1621492,0.01357168
0.6635175,-0.2089325,-0.1699546,-0.3646752,0.4393738,-0.02483187
0.5725261,-0.1967924,-0.1331795,-0.1143267,0.3320504,-0.2168166
0.5295193,-0.2065414,-0.09311256,0.2713735,0.3769272,-0.2620663
0.5841004,-0.1184834,-0.01024246,0.7200716,0.4225707,-0.5875585
0.4922064,-0.01827627,0.04282419,0.8251457,0.2690492,-0.7328079
0.5581241,-0.03069462,0.02030328,0.5671838,0.09627554,-0.3856325
0.7738885,-0.003303032,-0.02663666,0.395969,-0.1807922,0.06793345
1.01479,-0.0280149,-0.04247714,0.4059591,-0.05708458,0.4357707
1.114949,-0.127755,-0.03964222,0.2766427,0.4871648,0.2383076
0.96137,-0.1762801,-0.01343342,-0.06862751,0.7273568,-0.3030522
0.9662068,-0.1718344,0.03026084,-0.2766899,0.2859223,-0.6212232
1.027443,-0.2250097,0.01644996,-0.241226,-0.5184398,-0.5281077
1.175839,-0.4349449,-0.06707973,-0.313889,-0.7739992,-0.1368793
1.572852,-0.6829417,-0.1774128,-0.4903962,-0.6092906,0.04673047
1.693918,-0.8443598,-0.2057249,-0.2887459,-0.3340093,-0.01714374
1.657214,-0.8617103,-0.1243792,0.2237825,0.1251244,-0.4748934
1.771822,-0.7541329,0.01653778,0.6009164,-0.06713001,-1.132864
1.840265,-0.5645282,0.1907018,0.9304966,-0.4229919,-1.003663
1.83984,-0.3357056,0.1687744,1.067563,-0.1528696,-0.4606828
1.703688,-0.2281748,-0.01626996,0.7629613,0.04667654,-0.1401047
1.488476,-0.1510528,-0.05926349,0.4337194,0.4187336,0.0789052
1.371997,-0.0923344,-0.04497046,0.2747557,0.8105902,0.02010585
1.187614,-0.1500986,-0.02144925,0.1490002,0.6907865,-0.003627351
0.7459346,-0.04152265,0.04841223,0.004952823,0.6752843,0.1078742
0.3890899,0.06516237,0.07313942,-0.04164269,0.479042,0.1730034
0.448404,-0.04376609,0.1061684,0.08011198,-0.02519888,0.4216335
0.4429891,-0.0783012,0.1211886,0.2091157,-0.3296683,0.4638669
0.3443853,-0.1449316,0.09981402,0.4102638,-0.5235169,0.2529401
0.5428569,-0.1971256,0.0762269,0.5922279,-0.4212924,0.1039922
0.5773847,-0.1132516,0.04790787,0.664741,-0.2649983,-0.1508859
0.495933,-0.1242299,0.08070119,0.7891839,-0.329706,-0.2806694
0.5815665,-0.08510638,0.09189803,0.7656949,-0.3044494,-0.2548325
0.5408209,-0.02512958,0.07992872,0.5527455,-0.3958311,-0.2502465
0.5842945,-0.06490271,0.09349493,0.3329133,-0.6369021,-0.1635061
0.7138546,-0.06468578,0.06673029,0.2559256,-0.8244557,-0.07065205
0.8144788,-0.1690992,0.04447674,0.4072111,-0.8861214,0.1320757
1.03536,-0.31577,2.135306e-05,0.607417,-0.5411618,0.3001134
1.075013,-0.3136818,-0.02532474,0.8558888,0.05705243,0.1232865
0.9177946,-0.2301389,0.03102847,0.9809721,0.3627779,-0.1485571
0.7484845,-0.1110732,0.06939985,0.8090747,0.1813915,-0.351665
0.6702166,-0.07654477,0.07765041,0.6661393,-0.1901343,-0.316988
0.9004832,-0.282727,0.007659819,0.6558491,-0.5095565,0.06467149
1.380938,-0.6191412,-0.1402123,0.9911344,-0.4732938,0.2713434
1.768069,-0.6951473,-0.2091786,1.472405,0.471986,0.02176119
1.607329,-0.4731158,-0.1109669,1.325685,1.192314,-0.2511195
1.392061,-0.262653,0.03386174,1.156479,0.06614376,-0.194826
1.723076,-0.111945,0.04042314,1.314923,-1.076633,-0.0811162
1.811677,-0.05498513,0.009342978,0.9287317,-0.4366998,-0.08380743
1.491553,-0.07245314,0.01686974,0.401763,-0.1055502,0.04952651
1.272047,-0.08224358,-0.01771493,0.2542359,-0.7025769,0.2098257
1.077389,-0.1746793,-0.04743757,0.2227689,-0.5819422,0.3202769
0.9669911,-0.270616,-0.07154175,0.4405198,-0.4345226,0.3641809
0.848302,-0.2674801,-0.07413492,0.7405702,-0.5259548,0.2558756
0.7029966,-0.2097707,-0.04798289,0.8905208,-0.2037125,0.3123342
0.6372045,-0.1235908,-0.05347681,0.8978311,-0.1421602,0.3566886
0.4894883,-0.05731158,-0.04069992,0.7803856,-0.04334819,0.3022241
0.4391986,-0.03924033,-0.03928985,0.6947077,0.1634059,0.4518501
0.4235018,-0.06932473,-0.06803124,0.5567037,0.1211869,0.5065104
0.3030762,-0.1053303,-0.07270772,0.5158346,0.2720496,0.487709
0.2693811,-0.1279737,-0.09277187,0.6662443,0.2320179,0.3730109
0.279523,-0.145664,-0.08342496,0.7202486,0.1277903,0.08456394
0.4530172,-0.1291246,-0.02525237,0.7637225,0.1053693,0.07819536
0.7053,-0.1223126,0.004729525,0.9192556,-0.3181532,0.1730213
0.7922283,-0.1124393,-0.01822766,1.08043,-0.7268787,0.194973
0.9993344,-0.05162138,-0.1095214,0.9254087,-0.8158858,0.2478739
1.319607,-0.006041563,-0.1821782,0.4552389,-0.339124,0.1639041
1.320603,-0.02168786,-0.148957,0.1216879,0.4132995,0.01519823
1.109522,-0.1134039,-0.06766072,-0.03042404,0.6234564,-0.1384645
1.051063,-0.2531881,0.02731681,0.068536,0.4277499,-0.2030075
0.9924139,-0.3612575,0.1099875,0.2466897,-0.1231828,-0.1534048
1.033664,-0.4146942,0.1485966,0.2747685,-1.068409,-0.1378419
1.377377,-0.4828493,0.1792969,0.438986,-1.58841,-0.1838702
1.712269,-0.5305826,0.1346769,0.3494878,-0.9113454,-0.5282723
2.013938,-0.465586,-0.02112805,0.1123963,0.098519,-0.9610684
2.049108,-0.4081933,-0.0760016,0.3519465,0.5133938,-0.870437
1.792061,-0.291447,-0.0290245,0.4904541,1.044162,-0.5287437
1.59637,-0.06351993,-0.0195157,0.4162725,1.257477,-0.175474
1.118511,-0.01878294,0.07122047,0.4300814,0.4995741,0.4911048
0.7346554,-0.08746664,0.1931572,0.3827645,-0.2664287,0.8580708
0.8254201,-0.1619702,0.196666,0.5266661,-0.5336699,0.5104968
0.8639669,-0.3102493,0.1289288,0.7147631,-0.251535,0.1969114
0.8944404,-0.3254174,0.04689364,0.6476462,0.03417528,0.02616796
0.802657,-0.2071327,0.01713838,0.5357938,-0.002231814,-0.08924033
0.5501479,-0.1074165,0.02820174,0.4102366,0.05959491,0.08264731
0.4684945,-0.06420932,0.03814299,0.3430903,-0.1145166,0.1443236
0.4327631,-0.1028891,0.0539883,0.4677521,-0.3492571,0.004417836
0.4833068,-0.1362623,0.05807439,0.6191088,-0.3817372,-0.1638874
0.5484865,-0.1454738,0.05803803,0.630213,-0.4845978,-0.3933312
0.5151765,-0.1521403,0.05009908,0.6135361,-0.4731627,-0.3790813
0.5430412,-0.1256649,0.05007497,0.7127123,-0.5904125,-0.1817351
0.5622893,-0.1159754,0.05444214,0.8360716,-0.8551181,0.01377631
0.6424314,-0.1769812,0.04218677,0.8837191,-0.9116269,0.3335349
0.8354834,-0.2738074,0.0301444,0.9005815,-0.695975,0.401989
0.9664373,-0.2982169,0.01234847,0.9763681,-0.2265734,0.05608755
0.9582773,-0.1937685,0.033247,1.014054,0.0482202,-0.2927664
0.8394567,-0.05957259,0.06289407,0.854887,0.004551543,-0.4298007
0.8038611,-0.06015046,0.02916415,0.5515137,-0.1778452,-0.1626282
1.065999,-0.244053,-0.02225117,0.3268066,-0.272012,0.3524952
1.580072,-0.4605612,-0.100982,0.4624682,0.1058119,0.562527
1.881301,-0.5229861,-0.1549616,0.6624249,0.4393659,0.295503
1.772009,-0.4562143,-0.06567128,0.5616826,0.1960128,-0.224922
1.717784,-0.3151394,0.04845982,0.5428628,-0.06434837,-0.6046933
1.741049,-0.05282131,0.05641726,0.5209255,-0.04711819,-0.7194921
1.573525,0.1442585,0.06481852,0.2025407,-0.2515836,-0.5634279
1.445355,0.1481888,0.09178585,0.01529793,-0.4985315,-0.01004147
1.371027,0.05299583,0.008518649,0.1136753,-0.3416693,0.6215756
1.17471,-0.131335,-0.09982822,0.2840753,-0.3012072,0.8157366
1.012149,-0.2191646,-0.101958,0.4220438,-0.4064331,0.5292117
0.8965817,-0.1974103,-0.08963906,0.4863954,-0.3567081,0.3240637
0.7459486,-0.2171976,-0.1157067,0.4463814,-0.4136682,0.2943591
0.6697881,-0.1420897,-0.1129347,0.373405,-0.4121336,0.1502658
0.6334866,-0.1022443,-0.1007935,0.4407022,-0.2446257,0.2380588
0.5623253,-0.1409651,-0.1157263,0.4986771,-0.04415074,0.3057657
0.547869,-0.1110567,-0.1189226,0.5067927,0.1394568,0.1386547
0.5653583,-0.1364491,-0.1231121,0.5482038,0.2123682,0.06868627
0.552988,-0.1317415,-0.1309615,0.5295218,0.3748573,-0.1592659
0.5905678,-0.0853877,-0.0962551,0.599981,0.5374545,-0.2576179
0.6584013,-0.05396286,-0.03917068,0.6237837,0.4262278,-0.1061406
0.6968087,0.02981886,-0.0001182089,0.4890447,0.1672075,-0.05055097
0.7421769,0.06088473,-0.02151918,0.2845027,-0.1547913,0.1426771
0.8368066,0.1202017,-0.06437802,-0.1814004,-0.3227974,0.2512006
0.9827518,0.1539222,-0.052003,-0.5784358,-0.1291916,0.1454957
1.058851,0.01686536,-0.03546265,-0.636816,0.05389497,0.0838732
1.070417,-0.1622449,-0.02032079,-0.5075425,0.05659687,0.04927144
1.130728,-0.4369991,0.005606638,-0.1876224,0.05560376,0.06111988
1.183323,-0.7090053,0.01079027,0.1626771,-0.3021766,-0.01351074
1.239988,-0.7607661,0.01969593,0.5178702,-0.887577,-0.3465367
1.401995,-0.6642314,0.006193084,0.6438737,-0.92726,-0.8369832
1.72936,-0.4513673,-0.02246049,0.3119865,-0.6870332,-0.9870423
2.028467,-0.2163048,-0.0478914,0.1092766,-0.3708164,-0.585412
1.978677,-0.1542507,-0.08450852,0.2484609,0.4850773,-0.1414708
1.757779,-0.1737943,-0.07128716,0.3650296,1.277745,0.1040019
1.556161,-0.1001297,-0.03657224,0.4080053,1.317875,0.1690787
1.191588,-0.07560883,0.01870242,0.4627873,0.87426,0.2232537
0.7721625,-0.09641426,0.1411128,0.4803081,0.1813313,0.4711968
0.6161532,-0.01579051,0.1952081,0.4022955,-0.3782199,0.5828047
0.7053899,-0.04587531,0.1305998,0.3050861,-0.4206069,0.5303129
0.7335517,-0.1210405,0.06521698,0.2435542,-0.2864505,0.5289409
0.6478327,-0.09698592,0.0478375,0.279289,-0.2960748,0.4442989
0.6157791,-0.1495348,0.04856648,0.4117532,-0.2886032,0.3513097
0.5299087,-0.1644597,0.05439598,0.5229615,-0.2239828,0.2049359
0.4489499,-0.1409726,0.06157805,0.582034,-0.2238368,-0.03896271
0.5315233,-0.1590874,0.05454629,0.5423138,-0.155889,-0.1093453
0.5502605,-0.1116279,0.07485533,0.4651148,-0.01553334,-0.2387273
0.5260662,-0.07178644,0.1208065,0.3525996,-0.1084235,-0.4768412
0.5734742,-0.05527852,0.1449507,0.2211082,-0.4294163,-0.3604073
0.6120918,-0.1161698,0.1445523,0.3342823,-0.6675062,0.01780927
0.7458994,-0.2451655,0.0906749,0.5599648,-0.4509329,0.5343668
0.8770722,-0.2675859,0.01373536,0.7061137,0.1692585,0.873299
0.8284363,-0.2134224,-0.005229596,0.7487163,0.5178714,0.4047739
0.6753738,-0.1161069,0.05858907,0.5987247,0.315012,-0.1961643
0.5675247,-0.07192342,0.1221155,0.4911375,-0.2778808,-0.1986717
0.7580691,-0.2100394,0.05828976,0.4532069,-1.064828,0.06137771
1.326317,-0.4767509,-0.1179251,0.4229956,-1.147243,0.4737398
1.905448,-0.7570568,-0.3484424,0.6029877,0.341056,0.4976756
1.946358,-0.8009273,-0.4023916,0.8199771,1.68413,-0.3635857
1.550549,-0.45696,-0.04958738,0.8371457,0.6351367,-1.073302
1.421712,-0.03586395,0.2451176,0.6621145,-0.6746004,-0.6784599
1.617769,0.06406291,0.08332767,0.3594802,-0.2840807,0.05381955
1.713691,0.02387631,-0.09320087,-0.04099071,-0.1662835,0.3208785
1.590809,0.04170653,-0.07289202,-0.3432092,-0.2803306,0.6311146
1.378498,-0.1323043,-0.1168543,-0.2722322,0.1457835,0.7355541
1.183399,-0.3323371,-0.138382,-0.1309907,0.1024884,0.3712444
0.8956513,-0.3508914,-0.0702676,0.03288221,0.1048555,0.3172512
0.6001467,-0.3472199,-0.05079801,0.4214529,0.08952575,0.2559186
0.4486867,-0.2920937,-0.02661395,0.712635,-0.2841549,0.1871138
0.3393312,-0.2173541,-0.03117925,0.9247682,-0.2311992,0.3197626
0.3096241,-0.1387899,-0.07691731,0.972267,-0.1843922,0.1942876
0.3383265,-0.04600157,-0.09494155,0.7709078,-0.1938321,0.195286
0.4222677,-0.01981446,-0.1233318,0.672333,0.03928289,0.1328763
0.6089499,0.002224763,-0.08545515,0.4769453,0.2908271,-0.01629386
0.711077,-0.02680523,-0.02729075,0.1739671,0.5829949,0.1362842
0.7323349,-0.07915597,-0.009816847,-0.06636989,0.5444234,0.1599387
0.7147292,-0.06847832,0.03720428,-0.2276287,0.3868774,0.2265961
0.6438542,-0.06787016,0.05601148,-0.1600698,0.2857,0.2093649
0.6235657,-0.05449163,0.06375216,-0.2452007,-0.05745364,-0.1086965
0.6422278,-0.06181837,0.06386959,-0.3230264,-0.3022009,-0.3677788
0.7494485,-0.1188009,0.06406087,-0.03576285,-0.4012397,-0.5696581
0.9281331,-0.1919127,0.09293135,0.09580761,-0.5161909,-0.5159781
1.045544,-0.2712974,0.07250196,0.07290564,-1.027326,-0.2521004
1.298843,-0.3816035,0.04510451,0.09639314,-1.627759,0.1766798
1.814022,-0.653961,-0.03094237,0.1169391,-0.9937287,0.3918367
2.082028,-0.8390742,-0.1266666,0.2330341,-0.08245436,-0.4821254
1.877062,-0.6467109,-0.07273168,0.4355699,-0.2558072,-1.372993
1.766646,-0.3730297,-0.01290382,0.7420276,-0.2859794,-1.102205
1.7712,-0.1985377,-0.02792042,0.8549592,0.3238726,-0.6339749
1.592819,-0.03231349,-0.008656665,0.4657871,0.8097753,-0.2777243
1.385592,0.1344615,0.04807877,-0.1259268,0.9185843,0.4303565
1.072454,0.1850396,0.1257287,-0.3671389,0.5209513,0.6666472
0.8493997,-0.0477651,0.1556359,-0.1979485,0.08897558,0.3618619
0.8654989,-0.3024021,0.1144846,-0.01637037,-0.05479539,0.3603372
0.7631698,-0.3484808,0.08939555,0.2556365,-0.1153384,0.1589348
0.6995371,-0.351907,0.06950137,0.4708652,0.025235,-0.1276574
0.6605202,-0.2714612,0.04731124,0.3815441,0.04784429,-0.009666439
0.5190307,-0.1626222,0.07138021,0.4045493,-0.1056349,-0.01742632
0.5237374,-0.1416568,0.08294438,0.4689795,-0.15917,0.01954417
0.5279525,-0.131002,0.07732713,0.4740685,-0.2271436,0.01775568
0.5148607,-0.1558739,0.09553106,0.5259775,-0.1797042,-0.2102002
0.533221,-0.1535661,0.1150089,0.4480389,-0.2801822,-0.2581656
0.4987523,-0.1456258,0.1467273,0.4459325,-0.7199124,-0.2449737
0.5544101,-0.1709256,0.1274385,0.6013441,-1.171555,-0.03473634
0.708561,-0.158217,0.04999126,0.7781355,-1.283458,0.231588
0.9667864,-0.1631716,-0.002361551,0.86882,-0.7580691,0.1717321
1.102008,-0.123465,-0.03629835,0.7332756,-0.2241064,0.03761957
0.9674464,-0.03612188,-0.01247238,0.5564455,-0.168496,-0.1238989
0.908167,0.05051715,0.02622406,0.3712959,-0.3496153,-0.191705
0.8854468,0.1279884,0.01497877,0.1850819,-0.5632926,-0.06090332
0.8657797,0.0590084,0.007121846,0.03641122,-0.5599383,0.2526165
1.068653,-0.1898765,-0.08182326,-0.08398529,-0.4578291,0.8062876
1.399076,-0.5938344,-0.2370644,0.3398041,0.02918405,1.027978
1.69765,-0.9011295,-0.2767784,0.9991619,0.9089548,0.3920003
1.74287,-0.8661137,-0.1937777,1.00684,1.014143,-0.5455031
1.530851,-0.6549586,-0.05821895,0.8924442,0.1239253,-0.8552381
1.421671,-0.3619195,0.03721057,1.035645,-0.6519489,-0.6600603
1.450882,-0.1395403,-0.02148241,0.9693125,-0.4952025,-0.6170329
0.9106994,-0.338976,-0.05560152,-0.3146266,0.136433,-0.09118044
1.180168,-0.6131555,-0.2137325,-0.120516,-0.1731939,0.4595909
1.63985,-0.7904866,-0.3631391,0.2140342,-0.2848391,0.9709543
1.928456,-0.713645,-0.3670617,0.6048723,0.1853402,0.4968912
1.738612,-0.4912841,-0.0946827,0.4816594,0.63631,-0.6786064
1.588039,-0.2046195,0.1795776,0.06751451,0.04914534,-1.297034
1.720939,0.01519299,0.0842274,-0.2206474,-0.6068493,-1.191016
1.68491,0.02684533,-0.06552227,-0.6914578,-0.3096195,-0.5442054
1.639611,-0.05911152,-0.04958513,-0.770698,0.07439886,0.4630887
1.572554,-0.1815056,-0.1149014,-0.4576863,0.3226666,0.9376344
1.182458,-0.3390312,-0.1085208,-0.5003199,0.5653096,0.4790527
0.8675098,-0.3803438,-0.01847768,-0.3157867,0.159313,-0.1247766
0.8132002,-0.2950046,-0.07699016,-0.1507304,-0.3041914,-0.1528771
0.7515722,-0.1944026,-0.06510863,-0.3737965,-0.319641,-0.06834966
0.6526398,-0.1389992,-0.04600886,-0.2870541,-0.2459507,0.0570242
0.5980287,-0.08167267,-0.1156592,-0.2775261,0.07726834,0.5122975
0.5913483,-0.06068223,-0.09181041,-0.3317665,0.3578201,0.5587559
0.5469222,-0.150424,-0.09548186,-0.152671,0.4396923,0.2850899
0.4645053,-0.1650333,-0.08116437,-0.1169895,0.4647681,0.03202972
0.4566789,-0.1540894,-0.04606713,-0.0441647,0.4110226,-0.3220367
0.5115215,-0.1711444,-0.07390245,-0.01917344,0.5811219,-0.3446643
0.5528581,-0.06006111,-0.0283976,-0.04391425,0.6788459,-0.2087437
0.6081282,0.006857835,-0.009865733,-0.07968695,0.5498613,0.0003811103
0.6781414,0.02120574,-0.03233352,-0.3969254,0.3526893,0.3792334
0.7332055,0.05424892,-0.03692079,-0.7190826,0.01215319,0.4561871
0.823904,-0.002316651,-0.06053537,-1.051737,-0.06004328,0.2506029
0.9030447,-0.1026677,-0.04951277,-1.208036,0.08719667,0.02039255
0.9941087,-0.2636545,-0.03519638,-0.9260192,0.1936759,-0.138192
1.147369,-0.4633456,0.005742834,-0.685107,0.1913277,-0.2648287
1.257368,-0.5865305,0.04900121,-0.4233785,-0.3785288,-0.3209181
1.459988,-0.5684519,0.04230323,-0.112373,-0.9449211,-0.292139
1.816257,-0.494111,0.01877201,-0.2102089,-0.4810125,-0.4247981
2.009503,-0.4680981,-0.03115514,-0.3323195,0.09639135,-0.5258115
1.924402,-0.4075319,-0.02583355,0.03517949,-0.01836584,-0.3949549
1.800563,-0.3618306,-0.01357043,0.3079767,0.3883952,-0.2742755
1.624802,-0.2481915,-0.03359787,0.0927409,0.989485,-0.2724357
1.229704,-0.02257696,0.03289507,-0.1700857,0.6697642,-0.07276485
0.9360133,0.009805114,0.1086421,-0.4122633,0.4080471,0.3835671
0.8379394,-0.08616619,0.1354791,-0.4960369,0.2273906,0.525637
0.7274598,-0.1382717,0.1249766,-0.3201517,-0.1159649,0.426015
0.687783,-0.1781231,0.07673403,-0.3345253,0.02257335,0.4059912
0.6165008,-0.1688489,0.04299021,-0.4330194,0.07306217,0.2691626
0.5112868,-0.1411171,0.0208573,-0.4444851,0.05287693,0.1330309
0.4610812,-0.122478,0.03719548,-0.4638907,0.2151888,0.04455778
0.3700669,-0.1133338,0.07028999,-0.4083902,0.1484912,-0.03850353
0.3293508,-0.1187867,0.09804566,-0.3667807,0.03131504,0.01832984
0.3334445,-0.1275664,0.140244,-0.2808483,-0.3964024,0.04954499
0.4263299,-0.1631785,0.08938298,-0.1858427,-1.112664,0.03376892
0.7313018,-0.2386385,-0.01054571,-0.1898869,-1.330479,0.06298635
1.077642,-0.2848741,-0.0443425,-0.1172327,-0.7099141,-0.02394407
1.226939,-0.212299,-0.04218216,-0.1188908,0.3253621,-0.1956582
1.102614,-0.09812009,0.004254201,-0.2496089,0.7206068,-0.2813849
0.9342048,0.009853311,0.05980033,-0.3351626,0.4762073,-0.2800461
0.8484865,0.0910773,0.07300099,-0.4638076,0.1870989,-0.1493608
0.8945184,-0.07450932,0.01291928,-0.5473746,-0.2919464,0.2912351
1.271762,-0.4326174,-0.1219874,-0.4390154,-0.4738051,0.9215604
1.635762,-0.6809792,-0.1953817,-0.24634,0.1974214,1.017412
1.617972,-0.7418079,-0.1534058,-0.1204111,0.7624956,0.2236426
1.533067,-0.5662404,-0.04494867,-0.01840197,0.2638008,-0.4898044
1.611818,-0.3364538,0.03413937,0.1987871,-0.2942624,-0.3584998
1.635276,-0.3112549,-0.0378805,0.2918455,-0.1247777,-0.1580796
1.478744,-0.1826107,-0.1208847,-0.1106335,-0.09329982,-0.2549465
1.309658,0.01067204,-0.07058941,-0.6345456,-0.1756359,0.04786108
1.156726,-0.1373916,-0.05237236,-0.5314599,-0.1396492,0.4936099
1.044924,-0.2678737,-0.1054333,-0.2091235,-0.272069,0.5347872
1.011931,-0.1960828,-0.10195,-0.2247269,-0.137044,0.4096272
0.8856972,-0.1882482,-0.09889094,-0.1570147,0.1032228,0.2142686
0.7324151,-0.1372261,-0.1131567,-0.2233516,0.1712677,0.1550942
0.6530241,-0.07331166,-0.09675452,-0.4125047,0.2667327,0.2467406
0.5942502,-0.08117236,-0.1027632,-0.2774293,0.2049014,0.2129675
0.5772346,-0.07733188,-0.1040601,-0.3014205,0.1844454,0.2360415
0.5666482,-0.1197849,-0.1014274,-0.3416779,0.3377334,0.180666
0.5691343,-0.1379241,-0.1090968,-0.1863917,0.4946908,0.03793711
0.6063678,-0.1049017,-0.07245586,-0.1583192,0.6560649,0.06974218
0.6374642,-0.09081448,-0.03825399,-0.1192603,0.649941,0.0612833
0.6286522,-0.05476633,-0.03046159,-0.1836737,0.5515689,0.06317089
0.6228204,-0.06678759,-0.02140105,-0.2679776,0.3976512,0.1236211
0.6740683,-0.1127281,0.006343939,-0.2460108,0.09936895,0.1492612
0.7200914,-0.118702,0.03055951,-0.2737868,-0.003846604,0.1968203
0.8125899,-0.1229984,0.007851478,-0.2475769,0.1495416,0.1280733
0.979806,-0.10771,0.002648262,-0.3138144,0.3074232,-0.05680798
1.052631,-0.1076288,0.009891311,-0.4658228,0.3685902,-0.2539822
1.007255,-0.1459927,-0.01840396,-0.703445,0.06000447,-0.3097462
1.039841,-0.2293079,-0.04343339,-1.027875,-0.669429,-0.1165276
1.272917,-0.410669,-0.06836189,-0.9499676,-0.9880559,-0.009041008
1.64513,-0.6005482,-0.1022536,-0.6309702,-0.2671255,-0.2630193
1.956817,-0.6844688,-0.1394182,-0.5126989,0.5023692,-0.6847432
1.935163,-0.6177066,-0.1231584,-0.4973448,0.356655,-0.8481289
1.765626,-0.4836682,-0.008484797,-0.3378094,0.2104464,-0.5920154
1.71342,-0.3912602,0.08441289,0.09506723,0.5852407,-0.2816128
1.485257,-0.2747716,0.06571761,0.3324178,0.6747777,-0.1778728
1.1329,-0.1608233,0.05243027,0.1552151,0.510274,0.01076246
0.9203689,-0.09019138,0.1228896,0.04509253,0.3020899,0.3610859
0.8213981,-0.05107864,0.1323568,-0.07202416,-0.005936312,0.4672617
0.8485496,-0.09470716,0.0736016,-0.3198569,0.02303674,0.330976
0.8127599,-0.1102323,0.06499352,-0.4502308,0.1627093,0.2591669
0.704257,-0.09124199,0.0454572,-0.6496389,0.1333882,0.2616305
0.6377894,-0.1234893,0.03193808,-0.837106,0.1462518,0.2644034
0.5287612,-0.1323661,0.04783761,-0.671681,0.03553056,0.2810419
0.540742,-0.1592662,0.04497054,-0.4365137,-0.1371291,0.2716442
0.6351621,-0.2251583,0.06012963,-0.3989462,-0.1869465,0.0763206
0.6513497,-0.2581933,0.0624333,-0.427644,-0.1742853,-0.260137
0.6707716,-0.2263242,0.06455679,-0.4401266,-0.2080999,-0.4557491
0.6517464,-0.1458755,0.07457607,-0.4678641,-0.3709719,-0.4370931
0.6467482,-0.1159799,0.0394269,-0.4854717,-0.4701821,-0.2375649
0.7345277,-0.1242764,-0.0002222315,-0.403571,-0.3639062,0.1261676
0.8611814,-0.1592322,-0.0438407,-0.1846933,0.04140031,0.3289375
0.9537961,-0.2176378,-0.0790991,0.0009256734,0.6538965,0.09232655
0.8897273,-0.1979203,-0.05581531,-0.04928666,0.8330595,-0.2075693
0.75796,-0.1412611,0.05274142,-0.1159164,0.3686071,-0.2609893
0.6700734,-0.07907258,0.1668404,-0.05492978,-0.166831,-0.2543311
0.6214655,-0.04042373,0.1063736,-0.06914383,-0.4622723,-0.1671511
0.7488063,-0.1529884,-0.05173687,-0.02200174,-0.5713427,0.1307781
1.140099,-0.4328832,-0.1684439,0.2121525,-0.2066011,0.6062646
1.652021,-0.7754905,-0.2392252,0.328731,0.9974156,0.6906031
1.814576,-0.8456674,-0.1679582,0.1046896,2.005491,-0.3909228
1.573439,-0.4623772,0.04782155,-0.1552098,0.9744961,-1.456293
1.558114,-0.04437041,0.2158747,-0.1311314,-0.5463595,-0.9899507
1.625832,0.07421794,0.1186975,-0.3978049,-0.08123292,-0.4336025
1.406703,0.05695036,-0.0520249,-1.005135,0.1963715,-0.488541
1.208867,0.0746074,0.03668568,-1.005093,-0.4687841,0.3049557
1.101757,-0.005647326,0.05937254,-0.6845977,-0.2355209,0.9050094
1.118438,-0.2573148,-0.05743196,-0.5074883,-0.1587059,0.4069042
1.132764,-0.3918759,-0.02309339,-0.1112563,-0.1452356,0.2063186
0.9077534,-0.2647469,-0.05497138,0.1280201,0.1744076,-0.02595095
0.6581895,-0.06673059,-0.08408587,0.08681823,-0.1744811,-0.3143144
0.4658589,0.07622111,-0.04767499,0.01963424,-0.1802698,0.1020266
0.4804451,0.1371978,-0.133208,-0.2850891,0.07702501,0.3621482
0.6081492,0.1298964,-0.1654741,-0.5798819,0.2181904,0.398523
0.6412828,0.06892969,-0.2175309,-0.7412603,0.6050664,0.2912256
0.9110429,-0.02334584,-0.2683857,-0.8574469,0.8457172,-0.1986035
1.094642,-0.02248012,-0.1889597,-0.8257581,1.393821,-0.4165391
0.9444919,0.07979748,-0.1341267,-0.9819805,1.729265,-0.3905412
0.7896159,0.1757759,-0.02682439,-1.386231,1.420037,-0.2922788
0.5374488,0.2403071,0.04077078,-1.795124,0.9628937,-0.06980055
0.4650096,0.1879302,0.007803146,-2.04514,0.1196074,0.2004511
0.7187869,0.02746032,-0.000195326,-1.984414,-0.2102604,0.5865893
0.9468504,-0.09197227,-0.06058493,-1.963833,0.1349041,0.715409
1.170258,-0.1915608,-0.06826917,-2.063686,0.3567495,0.4843258
1.259158,-0.3251043,-0.04332294,-2.051613,0.8672815,0.07516368
1.131385,-0.5157094,-0.057344,-1.96925,1.015595,-0.3691682
1.087678,-0.6748841,0.01018138,-1.590614,0.07431181,-0.5028957
1.219577,-0.6869671,0.03723299,-0.982038,-0.6956995,-0.4353224
1.453749,-0.656817,-0.006807008,-0.6270707,-0.4614694,-0.4466086
1.681914,-0.4980163,-0.01213399,-0.6767742,-0.06601001,-0.5548253
1.754893,-0.2088407,0.01789487,-0.9841941,-0.02235512,-0.5548274
1.715383,-0.08419339,0.04597911,-1.301747,0.1118466,-0.3275611
1.698994,-0.1007717,-0.004825625,-1.47592,0.3255055,-0.1437818
1.558133,-0.1005386,-0.05471918,-1.47151,0.5368769,-0.1777697
1.240187,-0.04361989,-0.03247549,-1.552177,0.7513466,-0.2371772
1.041109,0.01527796,-0.03841404,-1.927616,0.7219293,-0.03293652
0.9283899,0.01828984,-0.05915829,-2.381712,0.8453845,0.2430836
0.741636,-0.01735296,-0.05142001,-2.716726,1.015496,0.4440428
0.6661977,-0.1308881,-0.05545764,-2.736529,0.7173852,0.613642
0.7242263,-0.2725531,-0.07831703,-2.568055,0.4932214,0.4343068
0.7355166,-0.3711019,-0.1002463,-2.442772,0.4728439,0.1008102
0.7146832,-0.3967682,-0.1011826,-2.239134,0.3519592,-0.152971
0.7097945,-0.3597264,-0.07339951,-1.990916,0.1505282,-0.2953187
0.680163,-0.3312879,-0.04097595,-1.590732,-0.03504714,-0.1532955
0.6784446,-0.28541,-0.02997927,-1.091142,0.04166642,-0.1515215
0.6889238,-0.2549765,-0.0250919,-0.8798843,0.08505408,-0.3146141
0.6012344,-0.1841219,0.02052918,-0.9005327,-0.03496527,-0.4170553
0.5003136,-0.01237271,0.09308522,-0.9542595,-0.1546134,-0.5629334
0.4858873,0.04132492,0.1058669,-0.9600043,-0.4849913,-0.4533534
0.5440845,0.01129175,0.08687774,-0.999145,-0.6927818,-0.1738964
0.6321037,0.02798976,0.1033514,-1.086287,-0.6150548,0.05823214
0.7658973,-0.1033811,0.07350391,-1.066448,-0.5384298,0.175945
0.9784359,-0.3182411,0.01117487,-0.9481456,-0.3476767,-0.03922402
1.025353,-0.319409,0.009770625,-0.6294407,-0.14476,-0.2189936
0.8781308,-0.2498809,0.02068153,-0.2603435,-0.1294646,-0.2326708
0.8096454,-0.3033729,0.01159477,-0.157842,-0.3163898,-0.2175751
0.7864163,-0.3834398,-0.03309447,-0.05988561,-0.7582155,0.1316238
1.006204,-0.5875907,-0.1841368,0.3683839,-0.8764423,0.4401342
1.623666,-0.8371404,-0.4215305,0.7520502,0.104454,0.07099275
2.000219,-0.8041862,-0.5206721,0.5142341,1.095339,-0.6187385
1.841573,-0.5963245,-0.2974861,0.2567138,0.5485409,-0.9355342
1.710429,-0.3356137,-0.05116096,0.4153115,-0.1230121,-0.840614
1.740003,-0.08132768,-0.06559111,0.1717685,0.1450387,-0.6623471
1.468123,-0.05370196,-0.06294086,-0.1283807,-0.2127106,-0.2635843
1.163483,-0.09273213,0.01784689,0.1966326,-0.7092794,0.4847711
1.227552,-0.1229101,-0.05657912,0.4656446,-0.3763663,0.8460062
1.171821,-0.2839671,-0.1218329,0.5043643,-0.3008868,0.4621511
0.9335509,-0.2980434,-0.08683107,0.6269627,-0.3073158,0.1851296
0.8167076,-0.1766936,-0.09134731,0.6595179,-0.1625324,0.1413031
0.677012,-0.1436843,-0.08011348,0.574237,-0.2902218,0.0004476706
0.5598944,-0.05209765,-0.06411394,0.5230854,-0.2801513,0.1825784
0.5217311,-0.004755695,-0.08351922,0.482103,-0.1889797,0.4177069
0.4946261,-0.04572168,-0.08647659,0.4255315,-0.02376711,0.4897015
0.4990674,-0.04536576,-0.09765789,0.4259325,0.2877385,0.5968095
0.485509,-0.1193904,-0.09190332,0.4378168,0.3769606,0.4237896
0.471076,-0.1874157,-0.06885341,0.4912881,0.3202016,0.2022654
0.5201531,-0.2130998,-0.06397275,0.7481667,0.2842823,0.04250655
0.6587322,-0.2474146,-0.04328707,1.146629,0.3130881,-0.1500136
0.7680137,-0.1825032,-0.02609486,1.384633,0.412368,-0.2032652
0.6856755,-0.07612992,-0.0186726,1.252998,0.4269607,-0.255421
0.5784836,0.04274074,-0.01425928,0.9983677,-0.02417319,0.07193454
0.68246,0.122465,-0.02560634,0.7061984,-0.8026235,0.6662639
1.015908,0.0712383,-0.03282712,0.1641853,-0.8486632,0.7054013
1.469609,-0.07234912,-0.0610387,-0.4218643,-0.04940129,0.2374144
1.640051,-0.3671703,-0.07685825,-0.8456911,0.4827514,-0.3266896
1.426245,-0.6719969,0.01016346,-0.8070882,0.1171584,-0.5453259
1.394635,-0.7661642,0.1339003,-0.07262731,-0.6092271,-0.5145762
1.557409,-0.7285291,0.1493398,0.6081432,-0.8809902,-0.6647201
1.749373,-0.5286657,0.03739291,0.6219341,-0.7833136,-0.6764371
2.071889,-0.2403245,-0.06408222,0.4836342,-0.5570147,-0.5124437
2.000861,-0.1809251,-0.08351305,0.6160393,-0.05509872,-0.3868695
1.607878,-0.1747794,-0.09521211,0.5926238,0.747277,-0.16405
1.336083,-0.03294118,-0.04395411,0.3821912,1.181639,-0.009406873
1.021711,-0.04231575,0.0754224,0.3269919,0.6543801,0.1661898
0.8879479,-0.1023225,0.09269603,0.2227094,0.1736404,0.4555599
0.7199936,-0.09136689,0.09892908,0.1764632,0.07279159,0.4180258
0.4680804,-0.1749871,0.1372854,0.2043246,-0.2569494,0.2880991
0.6369491,-0.1746204,0.06628345,0.1298016,-0.3001562,0.2948588
0.6110326,-0.1415241,0.03136919,0.1447129,-0.2006446,0.1550354
0.4491486,-0.1945515,0.03841231,0.09738369,-0.1743353,0.1175846
0.5530942,-0.169234,0.002724217,0.1133514,0.08565671,0.1020108
0.3969423,-0.1852191,0.04605969,0.2120553,0.1206254,-0.02832269
0.3128696,-0.2242928,0.08043648,0.2097183,-0.1300094,-0.007329241
0.3619583,-0.2192137,0.09373667,0.4647616,-0.5832639,-0.06037808
0.3262753,-0.2594679,0.1207145,0.7856579,-1.089176,-0.197334
0.5381765,-0.2346535,0.05673695,0.9224396,-1.190941,-0.3338604
0.7926758,-0.1976432,-0.01101226,0.9098617,-0.9735391,-0.4401349
1.073395,-0.1931177,-0.04896353,0.8088808,-0.543588,-0.2593374
1.17731,-0.1507846,-0.05398655,0.8464076,-0.03707097,-0.07449137
0.9888929,-0.1008586,-0.001872856,0.7836489,0.2092738,-0.04814585
1.000511,-0.05028095,0.01478881,0.626473,0.09163878,0.08900451
1.007886,-0.1709974,-0.0156402,0.6150879,-0.0248719,0.4222262
1.15972,-0.4199898,-0.07224901,0.8450271,0.05115545,0.650842
1.578089,-0.5060605,-0.1268467,1.170311,0.02703455,0.2576104
1.634645,-0.4564285,-0.1488565,0.9786583,-0.01625003,-0.3854176
1.563694,-0.2796418,-0.04373795,0.6803925,-0.3066792,-0.5087367
1.693588,-0.007719631,0.1047073,0.5562349,-0.6679702,-0.1690329
1.785071,0.09629996,-0.02181423,-0.08525296,-0.1843411,0.1411285
1.685344,0.04857914,-0.1530606,-0.7121625,0.2864887,0.1643668
1.406243,0.007518442,-0.03592188,-0.7743839,-0.09249613,0.2895355
1.161331,-0.1431361,-0.02496479,-0.4909592,-0.3899002,0.5466269
1.032131,-0.3928123,-0.08019978,0.127469,-0.3867056,0.4231539
0.9648563,-0.4507768,-0.06791175,0.6246422,-0.4278312,0.2819506
0.8827823,-0.3389246,-0.1170514,0.7495238,-0.2889839,0.3144364
0.8127918,-0.2430062,-0.1317577,0.7173135,-0.05234318,0.2479343
0.7777185,-0.1141094,-0.1055241,0.5550698,0.05639643,0.3596304
0.628672,-0.05147266,-0.1073143,0.3726104,0.1337105,0.4785745
0.5226992,-0.1289706,-0.09926765,0.2761681,0.146067,0.4029054
0.4909777,-0.1740629,-0.1024034,0.3362734,0.1288133,0.2798686
0.4328321,-0.206479,-0.09881437,0.4877687,0.1571417,-0.008754109
0.4834031,-0.2372337,-0.07690562,0.7089026,0.1814076,-0.2256105
0.5121,-0.14639,-0.05678281,0.9724005,0.1887021,-0.3507307
0.5711164,-0.0330552,-0.04702483,0.9705476,-0.04936591,-0.475821
0.8074243,0.01388945,-0.06156288,0.903597,-0.3075343,-0.2765246
1.052089,0.04363963,-0.07118943,0.870039,-0.02266938,0.01797217
1.167306,0.06637564,-0.0723775,0.4814485,0.6045451,0.1392319
1.01655,0.06568078,-0.03947225,-0.03229388,0.9814473,0.1447393
0.8014339,-0.01591016,0.04750249,-0.1788506,0.7054555,0.0656643
0.7873854,-0.1577355,0.0923035,0.07048274,0.08608958,0.0528695
0.9288939,-0.3034096,0.07134125,0.1802165,-0.3420532,-0.002002266
1.179217,-0.4499517,0.0520155,-0.02507772,-0.7349981,-0.2442356
1.411662,-0.4839068,0.04724154,-0.1123129,-0.9141502,-0.6056519
1.726482,-0.4137019,0.04378458,-0.1845756,-0.5597686,-0.8962327
2.02864,-0.3383692,0.03160312,-0.3505145,-0.1448561,-0.8461978
1.963931,-0.1966987,0.01195406,-0.445696,0.1621902,-0.5499201
1.827522,-0.09364978,0.003262634,-0.5237804,0.5767142,-0.2484572
1.63425,-0.05785555,0.01223925,-0.6782905,0.8143925,-0.1256853
1.204311,0.06809373,0.03330216,-0.9730152,0.5683666,-0.0972017
1.036502,0.09736263,0.05654812,-1.175695,0.2018253,0.2259387
1.118858,-0.0259452,0.03217818,-1.326429,0.1845025,0.5509605
1.092568,-0.1044995,-0.04196198,-1.629277,0.4369148,0.5275036
1.029682,-0.1515101,-0.0848795,-1.77976,0.7913391,0.4158248
0.8994567,-0.1272113,-0.08619744,-1.813504,0.9610474,0.2375631
0.7054703,-0.06824469,-0.07011099,-1.918538,0.8389406,0.08010639
0.5908178,-0.03380687,-0.05371805,-2.017612,0.7501524,0.1032437
0.5662186,0.02974899,-0.05888338,-2.103262,0.5817548,0.2272444
0.5814052,0.006404663,-0.0741881,-2.153578,0.4798588,0.3947027
0.5826597,-0.06212365,-0.1054531,-2.270038,0.6892613,0.4028366
0.5566718,-0.1294739,-0.1116851,-2.321614,0.8046947,0.2836736
0.5065353,-0.2429119,-0.06597653,-2.091974,0.8165837,0.1786116
0.43999,-0.2718874,-0.02378284,-1.7513,0.718397,-0.01139899
0.4263807,-0.2671729,-0.001413733,-1.446028,0.3603059,-0.1106937
0.5466125,-0.2667276,-0.0004825824,-1.293602,-0.01213674,-0.01961467
0.734758,-0.2420251,0.006591501,-1.194797,-0.08132516,0.02027496
0.8458349,-0.2861921,0.02575514,-1.074862,0.3837329,-0.09511382
0.859177,-0.3187559,0.05177741,-1.125697,0.8890956,-0.3347956
0.7770459,-0.3016973,0.118744,-1.096935,0.8265095,-0.6372725
0.6634926,-0.284273,0.1310871,-0.9020574,0.2760318,-0.7281596
0.7577153,-0.305544,0.04402343,-0.6780102,-0.4649641,-0.3229177
1.195216,-0.4882936,-0.08728108,-0.3306984,-0.6813654,0.3041824
1.610703,-0.6807551,-0.1996264,-0.1810293,-0.02612119,0.5002384
1.523837,-0.6342783,-0.1078809,-0.2063345,0.6213093,-0.0139471
1.400795,-0.5222099,0.08953614,0.06115495,0.4416461,-0.4987184
1.696277,-0.4304144,0.1346204,0.7293444,-0.3803207,-0.2404346
1.778512,-0.2097226,0.1036781,1.284593,-0.8951182,-0.1368528
1.64505,-0.05895027,0.05031316,0.4464296,-0.2396842,-0.6607696
1.656114,0.1069311,0.006213459,-1.13126,0.4885079,-0.7558255
1.446182,0.3752832,0.05119964,-1.446786,-0.2206561,-0.06898672
1.197057,0.2383723,0.06915438,-1.239919,-0.8378718,0.7506813
1.138281,0.01166019,-0.002417761,-1.237991,-0.4440194,0.8886053
1.069379,-0.05656478,-0.1178412,-0.7262674,-0.4260873,0.6126281
0.9404267,-0.3163998,-0.1848738,-0.270803,-0.4348865,0.6672053
0.7118527,-0.3113106,-0.1425854,-0.1751396,-0.2863614,0.4660472
0.6789137,-0.1863688,-0.1221815,-0.1704293,-0.4239367,0.1867404
0.7571997,-0.2647972,-0.1538991,-0.1904089,-0.1574022,0.2759873
0.6515448,-0.1801443,-0.1516239,-0.03141314,0.06796571,0.04078998
0.5952098,-0.1797614,-0.144621,0.0432026,-0.04134456,-0.2708913
0.5212676,-0.1984913,-0.1513095,0.1767472,-0.02906072,-0.4919005
0.4757256,-0.08658149,-0.1438612,0.4793118,-0.04638109,-0.6467324
0.5830397,-0.0650003,-0.1253887,0.6103407,0.09475427,-0.4183959
0.6914885,0.01899515,-0.09136995,0.6110048,0.3148573,-0.3470511
0.8387652,0.07028289,-0.04231794,0.3713322,0.3375487,-0.4065782
0.8894602,0.1254959,-0.02880389,0.05145944,0.1641368,-0.3192426
0.875342,0.231897,-0.0540929,-0.1878161,-0.01990048,-0.2310605
0.971169,0.1833078,-0.07500144,-0.4587602,0.174486,-0.005674984
1.027138,0.1019688,-0.07587018,-0.5847258,0.4231674,0.0681315
1.021247,-0.05923276,-0.04445104,-0.5581182,0.4688467,-0.1187578
1.002156,-0.2561247,-0.01903908,-0.3915073,0.3769789,-0.2291104
1.005738,-0.4017132,-0.03995852,-0.2431405,-0.1200777,-0.1545716
1.100538,-0.6362074,-0.06999079,-0.1231691,-0.8190862,-0.02524221
1.339112,-0.7747319,-0.07826925,0.1856015,-0.9936137,-0.09763334
1.702031,-0.7652215,-0.07646008,0.3770027,-0.3398121,-0.4377299
1.925521,-0.6975772,-0.04402333,0.383927,0.2062663,-0.8136792
1.914842,-0.5443765,0.03402551,0.4735975,0.01513412,-0.7186142
1.824056,-0.4179101,0.07759825,0.6650551,-0.04847055,-0.4221401
1.64789,-0.3159437,0.05678613,0.7386856,0.1311982,-0.466228
1.376603,-0.159496,0.02859859,0.6335103,0.06626699,-0.3435997
1.190491,-0.01474658,0.007768385,0.5771358,0.1339418,-0.03590978
1.138222,0.02587268,0.003950605,0.431324,0.3319224,0.2751545
1.004887,0.02392262,0.01606625,0.190814,0.3532342,0.6504479
0.8292102,0.01571855,0.0331966,0.1039569,0.3785808,0.6662383
0.7454564,-0.07793956,0.07273984,0.1309525,0.2763652,0.6408766
0.6209997,-0.1462026,0.105191,0.1751167,-0.01628858,0.6862253
0.5112756,-0.1747985,0.09619586,0.1829828,-0.1430465,0.5062197
0.4306549,-0.2204116,0.0879631,0.3261841,-0.3122107,0.464623
0.2723719,-0.1991934,0.08272272,0.6290584,-0.848612,0.4824433
0.2438533,-0.2177024,0.03484036,1.056369,-1.403009,0.568017
0.444031,-0.250861,-0.01457517,1.602824,-1.438221,0.7142305
0.7773323,-0.1928753,-0.03440975,1.621424,-0.8623849,0.4483671
1.072659,-0.1053685,-0.06327358,0.8115082,-0.004683518,-0.1059716
1.077542,0.05558623,-0.06714593,-0.1422657,0.7035073,-0.5031171
0.849446,0.1397699,0.02294006,-0.5213682,0.7321953,-0.2980472
0.6228399,0.01995818,0.1319164,-0.3958875,0.1948256,0.1337718
0.5970405,-0.1376747,0.1279134,-0.08111152,-0.3379686,0.1436038
0.7869521,-0.3111024,0.06875609,0.5747611,-0.6800723,0.1566574
0.9389917,-0.460396,0.0168895,1.049806,-0.501541,0.180982
1.007138,-0.514347,-0.0999937,1.060687,-0.2412863,0.1223148
1.179072,-0.5640976,-0.2183712,1.26292,-0.3663419,0.2994723
1.545433,-0.5865448,-0.2642384,1.296765,-0.03326875,0.3246132
1.879839,-0.5479195,-0.2521762,1.068747,0.3403608,0.04481097
1.902319,-0.5086921,-0.1340407,1.109889,0.08394953,-0.2995526
1.789702,-0.36966,0.004304087,1.120659,8.13384e-05,-0.4649733
1.607105,-0.111503,0.02915422,1.056419,-0.02660635,-0.4476251
1.27411,0.08094725,0.002039025,0.7849773,-0.4371675,-0.5293696
1.167422,0.1268289,-0.02067641,0.3288455,-0.7663277,-0.1713397
1.286792,0.00698925,-0.08742535,0.2911046,-0.6334313,0.5163462
1.205603,-0.1697385,-0.1556931,0.2887566,-0.220954,0.6502419
1.023398,-0.2427104,-0.1171375,0.1945329,0.06265482,0.6117823
0.8152297,-0.2878039,-0.05196881,0.4743251,0.1202219,0.6319727
0.5475616,-0.3374828,-0.04113036,0.7418009,-0.1104962,0.4288613
0.5155431,-0.3229648,-0.03467026,0.872192,-0.3352899,0.1913203
0.5455863,-0.2578595,-0.06342992,1.071447,-0.2640363,0.005727306
0.4567748,-0.1821025,-0.08830701,1.174433,-0.2568301,-0.08911882
0.5535018,-0.1317547,-0.07976802,1.17366,-0.2221718,-0.145258
0.6316467,-0.09098949,-0.09912692,1.088192,-0.06885674,-0.2022609
0.5681038,-0.05954073,-0.08941007,0.999418,0.02593552,-0.141926
0.6025416,-0.02510873,-0.05164599,1.073194,0.1606085,-0.1151022
0.614855,0.06674367,-0.03008937,1.090158,0.1217739,-0.1585102
0.6476068,0.136879,-0.03439259,0.8115835,-0.1764475,-0.1567159
0.7821434,0.101882,-0.07292745,0.3997018,-0.4465567,-0.1511242
0.9019661,0.02921615,-0.08755342,0.1218459,-0.3839437,-0.03619199
1.012073,-0.08282776,-0.09271089,0.002101442,-0.0279901,0.2238698
1.053111,-0.2590833,-0.09618414,-0.02985889,0.2675665,0.3602578
1.080133,-0.3638121,-0.06502315,0.09962752,0.2835643,0.2127656
1.192631,-0.45083,0.005073056,0.2902443,-0.4321716,-0.06324897
1.346716,-0.6068103,0.09134983,0.3088259,-1.168794,-0.2556552
1.602987,-0.5889836,0.05188156,0.179171,-0.5920448,-0.3621696
1.924754,-0.476145,-0.03705703,0.03467962,0.1755247,-0.4686918
2.004958,-0.4807049,-0.01239571,0.06783908,0.1270293,-0.4680398
1.788327,-0.4310288,-0.001333688,0.4850735,0.1219084,-0.1817533
1.621502,-0.3945923,-2.272756e-05,1.032712,0.1877431,0.1423205
1.455811,-0.3701335,0.02739218,1.108826,0.1586046,0.2124108
1.200522,-0.1859339,0.008483401,0.7209118,0.231316,0.2942928
1.125277,-0.1333908,0.017655,0.4118948,0.2021872,0.4178965
1.02437,-0.2206297,0.03094369,0.2619506,0.2293355,0.3750392
0.8215128,-0.2213963,0.02243945,0.2237493,0.2834451,0.3548076
0.7053962,-0.2518024,0.04314762,0.376212,0.2209924,0.3419636
0.5434997,-0.2529726,0.05344247,0.556919,0.2046737,0.2232289
0.4351365,-0.2113603,0.08159404,0.7629517,-0.001942781,0.1351755
0.4037096,-0.2053193,0.1039092,0.9117216,-0.2823425,0.06502928
0.3898035,-0.1504287,0.08946028,0.8912034,-0.3837783,-0.02506882
0.447521,-0.08918856,0.09974201,0.9274347,-0.5209467,-0.1312372
0.4658283,-0.03917668,0.09193211,0.9273953,-0.6457736,-0.2649122
0.5072819,-0.02073406,0.063601,0.7939072,-0.6799068,-0.312385
0.553625,-0.06084497,0.048992,0.6556642,-0.6826616,-0.1915252
0.5988363,-0.09969852,0.03010591,0.4640048,-0.7686282,0.0391208
0.7787781,-0.1970149,0.02023643,0.3997506,-0.8445405,0.2019484
0.9593294,-0.3121008,-0.01140515,0.6216108,-0.4861627,0.1381505
1.032228,-0.3174943,-0.04505476,0.8587789,0.1428057,-0.0907844
0.9206968,-0.2091861,-0.01788408,0.8716714,0.3683162,-0.295877
0.7072524,-0.06784897,0.004470845,0.7593655,-0.04487742,-0.2306934
0.7372074,-0.07594135,-0.0457615,0.7194575,-0.5274351,0.2802805
1.2167,-0.2911479,-0.1650677,0.7287449,-0.3555534,0.9445082
1.830759,-0.5709728,-0.2901743,0.7330737,0.5874721,1.00489
1.856801,-0.7793755,-0.2684822,0.8758347,1.290196,0.1071774
1.634407,-0.8228404,-0.1106055,1.332954,0.2663314,-0.8677484
1.795951,-0.5925289,-0.02463804,1.666861,-0.9630572,-0.9999344
1.778005,-0.1642862,-0.04339468,1.024089,-0.2567146,-0.7928781
1.608077,0.1012545,-0.05749136,-0.006811411,0.1533297,-0.5535634
1.520173,0.1201144,-0.03695974,-0.2204899,-0.478858,0.2000186
1.202725,0.00188846,-0.03242032,-0.08459591,-0.253769,0.7681988
1.058336,-0.2637958,-0.07071294,0.02207991,-0.1774103,0.5801129
1.01276,-0.412659,-0.08946313,0.4852708,-0.3484045,0.3802987
0.7887611,-0.3599175,-0.08894758,0.8413352,-0.007163069,0.1744386
0.7232481,-0.2765884,-0.08196563,0.8629328,-0.06514108,-0.1289746
0.6260935,-0.1116465,-0.06111573,0.7854843,-0.009366037,-0.07925263
0.5142123,0.01452884,-0.06707876,0.605235,0.1917633,0.03863175
0.4988571,0.01968792,-0.07157039,0.4757897,0.09319787,0.1175016
0.3950865,-0.001134571,-0.09324506,0.3641867,0.1718858,0.2493827
0.4063027,-0.05651349,-0.1357446,0.3306836,0.1296494,0.1828328
0.4963915,-0.1116767,-0.133728,0.4423522,0.232192,0.09502451
0.6048344,-0.1570823,-0.117702,0.4740467,0.4814057,0.09199464
0.7912109,-0.1582729,-0.0883875,0.5208375,0.4359454,0.1205783
0.8845394,-0.1109627,-0.05134285,0.5176355,0.4843226,0.2211594
0.8944595,-0.05289504,-0.02696259,0.2265908,0.5083705,0.1963018
0.8264264,0.01241002,0.01477644,-0.2206573,0.4602467,0.08768821
0.7437345,-0.04427686,0.05419997,-0.4196065,0.3345973,0.05409701
0.7500387,-0.2047057,0.0725436,-0.1507238,0.09434412,0.06663564
0.7962573,-0.3615044,0.07229669,0.1656573,0.04867909,0.08607724
0.9281471,-0.4897978,0.05759444,0.2928017,-0.2014958,-0.03624997
1.128982,-0.5442539,0.03972651,0.2681903,-0.937352,-0.1687884
1.407989,-0.579768,0.03138119,0.1073258,-1.349794,-0.1906086
1.763309,-0.600893,0.001312288,0.0993539,-0.26252,-0.491359
1.926536,-0.5934039,-0.04456348,0.1386772,1.06006,-0.8696
1.745988,-0.5089903,0.01049324,0.2210062,0.3730169,-0.671936
1.476179,-0.3339776,0.08550294,0.5992305,-0.3629811,-0.2393371
1.393161,-0.2916348,0.06172645,0.9153532,0.1072381,-0.08202377
1.369296,-0.2725832,0.0619044,0.9230002,-0.08543832,-0.0008772037
1.259251,-0.1681962,0.0804316,0.7522687,-0.1809246,0.03284745
1.12301,-0.1991881,0.05719001,0.6292538,0.09604638,0.05704836
0.9959449,-0.2121242,0.05849987,0.6272115,-0.08636794,0.1833416
0.8751404,-0.1449028,0.06054234,0.602162,0.2003776,0.2336316
0.6956112,-0.1288112,0.05316902,0.5571365,0.3463348,0.3122029
0.5421921,-0.07654708,0.06555034,0.3730771,0.1235087,0.3430662
0.4749901,-0.06986368,0.06942036,0.2110882,0.1025068,0.2150023
0.4281596,-0.1156978,0.07937607,0.3002747,-0.2831715,0.1870407
0.45901,-0.1268973,0.09652881,0.3909675,-0.4368094,0.1135715
0.499224,-0.1568993,0.09719314,0.547015,-0.357521,-0.05872581
0.5332057,-0.1520452,0.1012148,0.7086111,-0.5150786,-0.2567772
0.6006028,-0.1171683,0.09791814,0.5556218,-0.6094049,-0.4835049
0.6858739,-0.0732622,0.06997207,0.3295664,-0.8310099,-0.5263883
0.8525647,-0.01761465,0.03923403,0.229518,-0.7954112,-0.4292047
0.9501202,-0.04463059,0.0213359,0.1126371,-0.4714343,-0.266088
0.9853939,-0.0968419,0.01569642,0.05108152,-0.1503916,-0.1235485
1.039601,-0.107777,0.03243566,0.02959863,0.236566,-0.002577896
0.9573679,-0.09770479,0.07868962,-0.1151041,0.2449712,0.1888746
0.8704071,-0.0822723,0.08759959,-0.2427122,0.1058613,0.2142659
0.8886269,-0.1911615,-0.01323932,-0.4959671,0.0337612,0.2132184
1.088986,-0.450839,-0.1574269,-0.7054142,-0.05403493,0.3635458
1.576125,-0.7161019,-0.2241446,-0.1367627,0.3974718,0.3637834
1.810762,-0.8159566,-0.1873552,0.498612,1.074012,-0.07806799
1.407532,-0.7008442,-0.04105283,0.4899736,0.9369634,-0.7986074
1.097948,-0.5573151,0.1210017,0.8214137,-0.2185137,-0.9329625
1.483846,-0.3023807,0.0531307,1.336795,-1.228542,-0.401709
1.860871,0.1040805,-0.1345059,0.837679,-0.8355677,-0.02355255
1.717968,0.1248067,-0.1613314,-0.001174775,0.07997452,0.1256075
1.467456,-0.1222454,-0.1062646,-0.1973549,0.282135,0.2541037
1.136298,-0.1632479,-0.01703876,-0.1581074,0.1667177,0.3454171
0.8608914,-0.2925391,0.04389533,0.09082304,-0.1140433,0.3433505
0.8703395,-0.369194,-0.0002383742,0.5558368,-0.4782611,0.2551902
0.7628625,-0.1862858,-0.02047114,0.7330711,-0.5659031,0.238719
0.6282028,-0.1589021,-0.06691144,0.6878357,-0.5619995,0.253411
0.666208,-0.1296843,-0.1159814,0.5041356,-0.2924294,0.2836252
0.6331794,-0.01445988,-0.1193847,0.2927832,0.05414343,0.3214958
0.5632379,-0.03120557,-0.152624,0.2019236,0.1545667,0.2386551
0.5022128,-0.05365038,-0.1098028,0.1598485,0.1816064,0.1124378
0.4787091,-0.1238615,-0.09320305,0.2491782,0.07299284,0.01325505
0.5435262,-0.1987277,-0.1347159,0.3862996,0.2222822,0.003997712
0.6443128,-0.2030974,-0.1132366,0.5412937,0.5568703,0.02789888
0.7129768,-0.1713446,-0.112541,0.5190118,0.7136291,-0.08906212
0.6436231,-0.05975951,-0.05801957,0.1996781,0.4774988,-0.2245061
0.5894333,-0.008456598,0.0066701,-0.04069989,-0.3605518,-0.2475291
0.7015843,-0.02007446,-0.01652027,-0.1714482,-0.6885371,-0.1433899
0.8859963,-0.04098812,-0.03319342,-0.1466102,-0.3898102,-0.05516
1.027439,-0.1081422,-0.06988672,-0.03339004,-0.1658934,-0.1718945
0.996417,-0.2000451,-0.09182644,0.1393376,0.1916708,-0.3254049
0.9150533,-0.2791075,-0.07202337,0.4662399,0.2333283,-0.3946232
0.9752199,-0.2656202,-0.04612775,0.3080588,-0.256648,-0.394757
1.197551,-0.3195244,0.006254804,-0.1361828,-1.003118,-0.2829158
1.64617,-0.4878877,0.02999861,-0.3551878,-1.267791,-0.2404194
2.014961,-0.6031486,-0.02595722,-0.5530717,-0.361596,-0.5078582
1.947222,-0.6280921,-0.09266862,-0.2181812,0.5913886,-0.9352081
1.776697,-0.4961035,-0.05013784,0.4834144,0.6739306,-1.052636
1.655297,-0.3180971,0.009404879,0.7246846,0.5361901,-0.7357278
1.389525,-0.1113167,0.02935534,0.5670641,0.5829112,-0.1617808
1.148243,0.153774,0.1247328,0.2830367,0.2267948,0.571068
1.060829,0.1641221,0.1558915,0.2420044,-0.2705127,0.9384132
1.098058,-0.07515225,0.0727785,0.382887,-0.09405937,0.6772063
1.102142,-0.2885228,0.02052601,0.4365241,0.1875554,0.3881379
0.9234838,-0.3386605,0.003522465,0.4857163,0.3608539,0.1599979
0.7011668,-0.2029943,0.03448073,0.4349525,0.5316981,-0.01958178
0.4842696,-0.07206681,0.07961036,0.4325308,0.268957,0.2120688
0.4116663,-0.07248684,0.1034087,0.4471021,-0.1019592,0.3414452
0.5054321,-0.1655478,0.1249391,0.4658501,-0.4055569,0.1448092
0.5436294,-0.2835534,0.1111519,0.7619552,-0.7198452,-7.291499e-05
0.670772,-0.3062021,0.07993978,0.9903614,-0.8014428,-0.2816713
0.8147489,-0.2344152,0.03412645,1.057631,-0.7289507,-0.4191683
0.8270906,-0.1679578,-0.008374839,1.062015,-0.5943198,-0.21583
0.8778692,-0.1177861,0.001999593,0.9569275,-0.4039372,-0.06947114
0.8839598,-0.1203113,0.03010376,0.9225434,-0.3174629,0.08497336
0.8551813,-0.1828487,0.06444031,0.9358146,-0.4336511,0.1020743
0.8764775,-0.2091661,0.07686155,1.050431,-0.6176921,-0.06542144
0.9071579,-0.1937164,0.04642943,1.163728,-0.676293,-0.08639869
0.9952785,-0.1470813,0.03132411,1.165156,-0.5256715,-0.1013885
1.034668,-0.06429611,0.02751255,1.183915,-0.2630212,-0.1902916
0.9850978,0.006837953,0.03181093,1.168437,-0.1926124,-0.3191853
0.955369,0.05680833,0.04301487,1.178137,-0.2444826,-0.4179313
0.3349826,-0.1895945,0.2754906,-0.1093361,-1.457744,-0.489566
0.4304605,-0.1873173,0.1583465,0.1474904,-1.662391,-0.5909698
0.6152064,-0.1767021,0.001512773,0.2156219,-1.217614,-0.4773487
0.8361194,-0.08854699,-0.1617384,0.1141708,-0.4948292,-0.2368785
0.9785695,-0.08516408,-0.1385971,0.07454937,0.1696922,-0.02438629
0.9164017,-0.1447778,-0.05056291,-0.04943777,0.1260727,0.09693517
0.9131915,-0.2613574,-0.006089946,0.06139625,-0.4842136,0.4157958
1.144051,-0.4781316,-0.01991956,0.5135941,-0.7901565,1.180265
1.588538,-0.6063553,-0.09341413,0.7544078,-0.3508165,1.41913
2.034238,-0.5941118,-0.1400891,0.2872996,0.7078513,-0.06063636
2.040518,-0.3864049,-0.153102,-0.2965763,1.160788,-1.487883
1.882755,-0.0481127,-0.152562,-0.124544,0.04921276,-0.7808188
1.844426,0.0953602,-0.1581324,-0.2490894,-0.99813,-0.02225598
1.55296,0.05613078,-0.1858744,-1.295153,-0.09789839,-0.3997616
1.262015,0.01454982,-0.1581301,-1.902485,0.7597243,0.01804911
1.172184,-0.118884,-0.07844619,-1.34785,0.09837254,0.6006944
0.9577922,-0.331425,-0.02801791,-0.4699893,0.02119983,0.504875
0.8593403,-0.3891788,-0.03379089,-0.2581534,0.2562629,0.5877942
0.7930776,-0.3020042,-0.07391784,-0.1037173,0.04661655,0.3027432
0.5396319,-0.2042943,-0.07967173,0.1649514,0.4649589,0.01147331
0.4332373,-0.06394268,-0.07465061,-0.1794492,0.587417,0.0652414
0.3390641,0.03692549,-0.07071604,-0.3007403,0.3635722,-0.06551187
0.2586451,-0.001029686,-0.03434784,-0.3480894,0.3436965,0.1477911
0.331785,-0.06461388,-0.03186767,-0.5775921,-0.04653048,0.2842439
0.3492912,-0.1085167,-0.02789605,-0.05777622,-0.0248532,0.2241016
0.4994926,-0.1716643,-0.02740625,0.3803085,0.3504935,0.1589225
0.6949337,-0.2126412,-0.08262296,0.3810784,0.4254773,-0.2378476
0.6463239,-0.1768226,-0.08928346,0.2702552,0.213824,-0.2101885
0.6584819,-0.02214199,-0.06550006,-0.01998718,-0.5049857,0.08772063
0.8344907,0.1179738,-0.05921915,-0.1907476,-0.8776382,0.2538554
0.9124635,0.0435079,-0.0561118,-0.7077015,-0.3393817,0.2547888
1.012045,-0.1388837,-0.06618649,-1.030355,0.5881499,-0.2191066
1.237081,-0.2735002,-0.01551598,-0.5964906,1.189271,-0.5277597
1.249074,-0.3113154,0.1322051,-0.3296545,0.7710157,-0.4529878
1.266999,-0.2681149,0.2770171,-0.2306989,-0.360122,-0.07123846
1.65311,-0.3203226,0.2109589,-0.1473595,-1.359075,0.3867205
1.960837,-0.4469505,-0.02893071,-0.3579149,-1.288983,0.3633514
1.996531,-0.5276716,-0.1264598,-0.4863858,-0.3137413,0.1993228
1.955352,-0.588112,-0.01658803,0.1534692,0.3030445,-0.006542011
1.824427,-0.4894652,0.110161,0.8668344,0.5990594,-0.3328723
1.498646,-0.1734208,0.06990285,0.4462274,0.7304509,-0.4724278
1.097571,0.1246713,0.03148993,-0.1710056,0.5433192,-0.1443329
1.009393,0.1400512,0.1296402,-0.4147275,0.3939698,0.4221663
0.9936084,-0.0879107,0.09834426,-0.7284145,0.1796533,0.4671765
0.7669022,-0.1912912,0.06437271,-0.6245261,0.2134522,0.2745461
0.6566642,-0.1551819,0.1072701,-0.4679228,0.5062186,0.2150531
0.5015624,-0.1403049,0.06357825,-0.5122362,0.5440136,0.05063719
0.274798,-0.08353182,0.1021698,-0.2705065,0.6507094,-0.01984739
0.2791814,-0.05336857,0.1374452,-0.1931473,0.5350679,-0.0237978
0.2551551,-0.03236011,0.1410066,-0.2179314,0.05992029,-0.03250732
0.2438424,-0.01793738,0.1890857,-0.09442735,-0.3822646,-0.0698867
0.3792092,-0.06134494,0.1474457,-0.1238319,-0.9275377,-0.1996389
0.4135043,-0.05434683,0.1306322,-0.06996109,-1.064003,-0.2647838
0.5110501,-0.06776422,0.0711804,-0.02319404,-0.9095053,-0.2961709
0.7080221,-0.09762592,-0.05698519,-0.1329561,-0.9924405,-0.1357796
0.7886145,-0.101325,-0.05149266,-0.1275206,-0.8256229,0.1826853
0.9806265,-0.1589352,-0.04368685,-0.03615017,-0.3718207,0.2189771
1.253736,-0.1970625,-0.09978244,0.03883576,0.3176255,0.003910779
1.20897,-0.2053012,-0.1283469,-0.1538106,0.6937026,-0.03321173
1.145642,-0.2768941,-0.09146025,-0.1962637,-0.03169072,0.4718908
1.486993,-0.5101429,0.0103877,0.7191634,-0.5407448,0.9959943
1.738978,-0.7133381,0.09180456,1.397382,0.2461775,0.6362247
1.689048,-0.5841147,0.1134225,0.2494525,1.299725,-0.2606147
1.743174,-0.33994,0.1950857,-0.8818971,1.40868,-0.8115873
1.760852,-0.1827526,0.3515614,0.1193794,0.0176808,-0.6709746
1.618438,-0.0667383,0.2396308,0.7925072,-1.41534,-0.213871
1.539513,0.04667899,-0.108458,-0.3855303,-0.8057161,-0.07974506
1.531739,0.137028,-0.3142116,-1.139993,0.3849265,0.05076632
1.482196,-0.01123823,-0.3493618,-1.209916,0.7759698,0.2778365
1.285214,-0.2408599,-0.19858,-1.169076,1.292731,0.1966771
1.014291,-0.3146096,-0.02130406,-0.7374933,0.9985506,0.1928662
0.7831937,-0.3749838,0.03885463,-0.3500325,0.1967474,0.142823
0.5978137,-0.3351166,0.09071607,0.09148302,0.07675622,-0.0006678502
0.5099168,-0.2426407,0.02780768,0.2324817,-0.3390598,0.0787929
0.5049792,-0.182524,-0.04154896,0.02350326,-0.2959391,-0.0233803
0.5172215,-0.0459431,-0.06631108,0.05416387,-0.02166952,-0.07054366
0.5350904,-0.05277397,-0.1472208,-0.1064597,-0.2899782,0.0443897
0.5792469,-0.1097304,-0.1336391,-0.1399385,0.1710764,0.07127121
0.6129946,-0.06893058,-0.1199949,-0.005835164,0.5215339,0.1950105
0.6208103,-0.1359675,-0.1088823,-0.1431581,0.6226915,0.2170291
0.6673149,-0.1728842,-0.04626934,-0.05536705,0.7737482,0.2246275
0.7315733,-0.1487641,-0.0117743,0.1043966,0.2267842,0.1912245
0.7965389,-0.1587626,0.05502416,0.1820837,-0.07339159,-0.09769423
0.824704,-0.1155345,0.009804358,0.09704109,-0.1576687,-0.3460284
0.7926049,-0.06694157,-0.0594762,-0.2124455,-0.0746531,-0.4050961
0.8285993,-0.04482069,-0.00223287,-0.2654134,0.2937718,-0.1561609
0.9575129,-0.09295348,-0.01267583,-0.4724125,0.2345679,0.1820298
1.174609,-0.2310069,0.003063195,-0.7936875,0.03684934,0.3237782
1.499232,-0.4326567,0.1310687,-0.6175483,-0.4608197,0.3558307
1.822385,-0.6678475,0.2061876,-0.4740068,-0.6617451,0.156576
2.015528,-0.7293825,0.1049905,-0.5347543,-0.08170153,-0.3683049
1.97521,-0.5962465,-0.02427157,-0.3307166,0.4358755,-1.007408
1.786273,-0.431251,0.07198532,0.1690282,0.9341497,-1.073167
1.473127,-0.2408638,0.1557197,0.6132932,1.000128,-0.5053774
1.007803,-0.04027039,0.1364417,0.5379524,0.6198573,0.008217226
0.7982129,0.08302243,0.2172728,0.161305,0.2486629,0.5167735
0.8700429,0.0696742,0.1952118,-0.119373,-0.1977923,0.6869306
0.8441458,-0.03536975,0.07999181,-0.5834422,-0.1452765,0.2768224
0.8040483,-0.1350169,0.05714936,-0.831415,0.07522139,0.02324966
0.7248713,-0.1616068,0.03780664,-0.5838343,0.08829899,-0.09457205
0.5609831,-0.1301055,0.04857775,-0.6112529,0.2991145,-0.1634933
0.5036705,-0.1372124,0.07275297,-0.599777,0.440747,-0.1151063
0.4733017,-0.1505744,0.09891522,-0.326848,0.4556974,-0.1843724
0.419946,-0.1301483,0.1742913,-0.2392835,0.3328165,-0.1018457
0.3949995,-0.1258234,0.1681662,-0.03117877,-0.01185926,0.03755795
0.4000693,-0.1119684,0.1372153,0.09190071,-0.3737056,0.04628459
0.5027636,-0.1332874,0.1385769,0.1677438,-0.6228606,0.1200229
0.7209783,-0.2143576,0.07875041,0.3715521,-0.5819437,0.1475068
0.9314435,-0.2462782,0.03799034,0.2942496,-0.4381965,0.1010644
0.9557802,-0.2019136,0.02654106,0.2966437,-0.3079625,-0.01528384
0.9321339,-0.1349851,0.01596917,0.3513632,-0.02897379,-0.1559531
0.9608518,-0.08703365,0.04271182,0.3041716,0.196604,-0.2602598
0.8277901,-0.01463118,0.08132505,0.4122528,0.3007564,-0.3611329
0.6862274,0.05110313,0.1204726,0.3481244,0.1848121,-0.1948431
0.7318817,-0.04296679,0.1036317,0.06425166,-0.3920502,0.5311303
0.9675247,-0.3115801,0.03106213,-0.1492778,-0.9451758,1.71521
1.506404,-0.704234,-0.03732412,0.09176224,-0.5666323,1.970765
1.970495,-0.9457639,-0.1023993,0.4658665,0.8939436,0.1405261
1.911506,-0.7397159,-0.05400021,0.4103388,1.934733,-1.765639
1.702085,-0.301364,0.2070378,0.8714199,0.9399764,-1.650614
1.601787,0.2080953,0.4053711,1.264794,-0.591327,-0.8222653
1.374649,0.5693719,0.1339052,-0.4217839,-0.4460413,-0.5142857
1.243485,0.4570782,-0.1988317,-2.478877,0.1261675,0.02743585
1.255357,0.2106818,-0.01094094,-2.30279,0.0800719,0.5227062
1.041388,-0.05646756,0.1049953,-1.473343,0.1257495,0.4276792
0.8890712,-0.3471912,-0.06128898,-1.396229,-0.02978084,0.3501427
0.8693324,-0.2909332,0.004280441,-0.87727,0.003551865,0.1573048
0.7554689,-0.2004439,-0.006404663,-0.4977659,0.3280262,-0.007599725
0.7652191,-0.19349,-0.1001215,-0.6964874,0.3620996,0.1743956
0.7650365,-0.09676302,-0.03926873,-0.4323026,0.6149717,0.1344679
0.6960935,-0.1250515,-0.1061946,-0.383579,0.6624488,-0.0005856833
0.7010057,-0.05026194,-0.122043,-0.5028561,0.6048529,-0.2106335
0.6757406,0.09546893,-0.07714164,-0.3462389,0.8223805,-0.5461548
0.6846602,0.1385064,-0.1324784,-0.5838374,0.7572063,-0.6586244
0.6634152,0.2527214,-0.1106682,-0.9429156,1.001866,-0.6876363
0.5938951,0.2748583,-0.107573,-1.469879,1.347209,-0.4965323
0.6108625,0.2428445,-0.07329026,-1.854251,1.334975,-0.1533675
0.7016558,0.1821526,0.09232748,-1.66264,1.087425,0.07727417
0.8451923,0.04034585,0.2230009,-1.724493,0.3310536,0.2252288
0.9020544,0.0189129,0.1873922,-1.950638,0.0005818846,0.1599635
0.9892866,-0.07507162,0.01698757,-2.225573,0.5019392,-0.031128
1.188831,-0.315502,-0.0604758,-2.58634,1.059907,-0.3168857
1.181287,-0.4453543,-0.0516507,-2.600677,1.189785,-0.4848534
1.130399,-0.5719557,0.08342512,-2.446278,0.8948489,-0.3973962
1.251532,-0.8728123,0.3937847,-1.634389,0.3340131,-0.4310258
1.299233,-0.9891981,0.5133418,-0.04263699,-0.731285,-0.4860452
1.368735,-0.6624827,0.3823737,0.6236723,-1.310514,-0.4865984
1.575401,-0.3634198,0.2031826,-0.4011267,-0.7762826,-0.526193
1.695544,-0.2082802,0.04324929,-1.622682,-0.0732147,-0.5292776
1.724601,-0.0006147855,-0.07625492,-2.116517,0.6973906,-0.5601922
1.589149,0.03866908,-0.07291147,-2.325549,0.8388112,-0.357973
1.246153,-0.0256059,0.1026274,-2.115671,0.0004126726,0.08551469
1.084298,-0.04769777,0.1726979,-1.900772,-0.3465798,0.2861445
1.115605,-0.1394864,0.06917703,-2.226333,-0.1029916,0.2068858
1.090916,-0.2234719,-0.05462146,-2.395258,0.2148996,0.122176
1.031365,-0.2151115,-0.1223835,-2.460964,0.7278171,0.1456202
0.8808213,-0.1850672,-0.06683713,-2.552568,0.9243821,0.2026749
0.7181025,-0.1845735,-0.05493666,-2.503446,0.7591109,0.2720227
0.6636576,-0.2296084,-0.04682825,-2.562986,0.6716462,0.2464444
0.6421627,-0.3242677,0.02940777,-2.255862,0.5728096,-0.07100646
0.6456635,-0.3682624,0.07573918,-1.584709,0.3875053,-0.5058533
0.5913582,-0.313653,0.1670902,-1.056509,0.09987598,-0.7451405
0.4736036,-0.235039,0.1846817,-0.6825742,-0.3210912,-0.6442918
0.4486528,-0.1238378,0.1172623,-0.5495139,-0.5438885,-0.3750917
0.5098933,-0.03850357,0.08585288,-0.5148881,-0.3428468,-0.1652013
0.5530389,-0.04097761,0.05686994,-0.6447298,-0.1334006,-0.07757083
0.5625337,-0.04879396,0.07899716,-1.019379,-0.1114621,-0.1920112
0.6851015,-0.05257825,0.0952046,-1.295663,-0.2030962,-0.2519734
0.8782682,-0.09739748,0.09331638,-1.367334,-0.5418614,-0.2755142
0.9105285,-0.1967793,0.1005673,-1.13956,-0.7161462,-0.4791758
0.9289395,-0.3055106,0.06917657,-0.6501846,-0.5279313,-0.5292532
1.013843,-0.3456007,0.06121172,-0.05671009,-0.3294269,-0.4824925
0.9531693,-0.3450905,0.03256963,0.311098,-0.2614898,-0.3319312
0.9148303,-0.3949612,-0.06348007,0.247556,-0.6415806,0.3205552
1.127709,-0.5353368,-0.1579982,0.3549571,-1.012859,1.202929
1.541093,-0.7395673,-0.2173171,0.5442681,-0.2889717,1.399144
1.93673,-0.913853,-0.305265,0.4422066,1.234405,0.256915
1.895542,-0.8784189,-0.3034537,0.4561814,1.965277,-1.176956
1.591509,-0.5459678,0.2253463,0.4871192,0.6442359,-1.409047
1.488527,-0.176661,0.7644196,0.6970446,-1.564335,-0.7183855
1.444621,-0.06165707,0.3156827,0.9579414,-2.006617,-0.09113607
1.486138,-0.07251603,-0.3743021,0.1983034,-0.3711628,0.2124652
1.537061,-0.07256005,-0.3862632,-0.8016599,1.285217,0.3673717
1.280889,-0.2143032,-0.2085741,-0.797906,1.376478,0.184283
0.9527979,-0.3693733,0.003281706,-0.4579309,0.4245287,-0.1452195
0.7114423,-0.3350802,0.2551799,-0.09027417,-0.3356646,-0.1011798
0.628121,-0.3019418,0.2488597,0.6329388,-1.003701,-0.03310395
0.6323527,-0.2751001,0.1460076,1.07162,-1.224149,-0.02026535
0.4979893,-0.1415476,-0.02872174,0.9389361,-0.6660184,0.08731758
0.5107708,-0.06391013,-0.1766231,0.8566591,-0.276528,0.093782
0.5981898,-0.07085982,-0.09915906,0.7367722,0.05287469,0.1963953
0.5676278,-0.03879924,-0.07964286,0.5566922,0.2499792,0.2861962
0.6242161,-0.003791237,-0.1096173,0.5823681,0.05062136,0.1724265
0.6107918,-0.03420916,-0.0760059,0.390207,0.1973546,0.005694141
0.537433,-0.04948847,-0.08342507,0.1672263,0.5290848,-0.2503381
0.5169387,-0.0547977,-0.04978544,0.224733,0.7645746,-0.3739795
0.4901715,-0.1040448,0.06088347,0.4667955,0.5592043,-0.1607953
0.6337905,-0.09633416,0.1712923,0.9040836,-0.1908078,0.02837631
0.8502083,-0.0421547,0.1581118,0.8716361,-0.5786846,-0.06680273
0.8967226,0.03615098,0.02465324,0.2311516,-0.5837126,-0.1974572
0.8479172,0.09193404,-0.05872062,-0.4103556,-0.4195289,-0.204317
0.8650342,-0.03412051,-0.01436471,-0.6682975,-0.3224317,-0.06644864
1.043616,-0.2712612,0.07372185,-0.3767559,-0.6119062,0.3207607
1.367479,-0.512676,0.1027832,-0.02649713,-0.8394259,0.6033453
1.749242,-0.6708841,0.1320851,0.1907043,-0.9126174,0.4586302
1.991866,-0.6653104,0.1165523,0.1470846,-0.7566286,-0.08370567
2.00314,-0.6118163,0.05219516,-0.08151859,-0.4121708,-0.800202
1.963142,-0.5374175,0.09178122,0.460687,-0.2037076,-0.9022481
1.852626,-0.3993076,0.09114414,1.164857,0.05325501,-0.3851617
1.492346,-0.1785307,0.01088871,1.116315,0.3899439,0.01807976
1.108668,0.03889325,-0.01059742,0.7199568,0.6469916,0.4157824
0.9828974,0.05497809,0.008037179,0.122752,0.411678,0.7215781
0.8633768,0.007256619,0.08218093,-0.1301534,-0.1254215,0.6829403
0.6713066,-0.018009,0.1174982,-0.0148894,-0.206794,0.6147945
0.6555973,-0.1555681,0.07363231,-0.0609947,-0.123377,0.505378
0.6099071,-0.2368452,0.06391428,0.05737476,0.04163037,0.345278
0.5125843,-0.237492,0.08266493,0.2372893,0.3014551,0.1804836
0.5305196,-0.2617128,0.1205085,0.4190679,0.2614855,-0.1071798
0.455539,-0.1960832,0.146687,0.6863444,0.1295968,-0.3215824
0.4134412,-0.1203527,0.1572647,0.7134922,-0.04644509,-0.4528786
0.4616568,-0.08645728,0.1729259,0.636775,-0.1879808,-0.5025909
0.4613195,-0.05027545,0.172978,0.6073566,-0.3541076,-0.2861589
0.5879514,-0.08712068,0.1931575,0.7206947,-0.9256182,0.1443254
0.7912178,-0.1488136,0.180262,1.014751,-1.565304,0.6457045
1.029493,-0.2380877,0.07436147,1.251175,-1.679964,0.8138998
1.230493,-0.3339374,-0.1087986,1.2277,-0.8999159,0.6235958
1.187948,-0.3207551,-0.215675,0.9294176,0.2892189,0.4286005
1.068117,-0.2590256,-0.04431487,0.7666329,0.8073273,0.07478914
0.899932,-0.1458453,0.1610019,0.818557,0.532611,-0.1970907
0.7049483,-0.001093302,0.1613958,0.6999845,0.1035236,-0.1642345
0.6926218,0.02401811,0.1278262,0.3284043,-0.2503603,-0.1563074
0.8228342,-0.1122464,0.1192961,0.08996139,-0.692182,0.1905248
1.169997,-0.402674,0.08616725,0.4543439,-0.7676308,0.8751483
1.658265,-0.681956,-0.01528213,1.032623,-0.01619084,0.9039761
1.779689,-0.6987772,-0.2830266,1.153398,1.252072,-0.0562242
1.53006,-0.5054737,-0.4487134,0.7003267,1.863138,-0.8831598
1.476422,-0.3246344,0.004470056,0.2195724,0.5904117,-0.3985135
1.6986,-0.2479764,0.4707478,0.3987053,-0.817118,0.1064557
1.775726,-0.261762,-0.08177818,0.4114547,-0.2528407,-0.4806631
1.535088,-0.2317164,-0.6015878,-0.3936199,1.094034,-0.6518405
1.157001,-0.1287689,-0.09802486,-0.8062275,1.792174,-0.3406075
0.8397431,-0.1728266,0.2676477,-0.1645802,0.8536029,-0.1190673
0.5674798,-0.2557053,0.2280475,0.7165762,-1.055186,0.5072527
0.5231866,-0.2211054,0.2307046,0.9590684,-1.591579,0.5997163
0.7318091,-0.2398475,-0.03684204,0.928554,-1.510383,0.1835026
0.7230196,-0.2074772,-0.2320758,0.9606232,-1.361732,0.1938019
0.6717243,-0.08115126,-0.2013595,0.6386046,-0.1925192,0.1089215
0.7016819,0.00382373,-0.2161823,0.4552782,0.5955169,-0.02677814
0.5386833,0.07795493,-0.1246509,0.3176959,0.7891266,-0.08104651
0.5040616,0.06720179,-0.001615373,0.03471193,0.7767324,-0.1275607
0.5726901,0.01234786,0.09696236,0.3450126,0.1915249,0.08662006
0.6391304,-0.03304401,0.1060795,0.6252451,-0.03075098,0.1919375
0.8369758,-0.07889104,0.0001099217,0.5960664,-0.01001405,0.1670179
0.8777515,-0.009010689,-0.03633908,0.4260721,0.2575569,0.049671
0.7929996,0.08791673,-0.03879184,-0.2184994,0.6578997,-0.1609788
0.7582367,0.1249934,0.05868173,-0.5666182,0.3123384,-0.07211503
0.8155357,0.06157231,0.1435549,-0.5213241,0.1824976,0.0362129
0.9635297,-0.1366852,0.05113476,-0.6030115,0.339287,0.0163738
1.058167,-0.309441,0.01068381,-0.7096878,0.3891637,-0.05603672
1.145694,-0.4424803,0.08701334,-0.8079524,0.499351,-0.2240068
1.285135,-0.5615474,0.230471,-0.6628538,-0.1762623,-0.1770784
1.593261,-0.5988155,0.2928733,-0.09562953,-1.251106,-0.1330126
1.899792,-0.507661,0.1134518,0.4995558,-1.564551,-0.2334716
1.892217,-0.3308254,-0.08540868,0.1567988,-0.9756267,-0.1511767
1.855314,-0.2839535,-0.07042343,-0.4375522,-0.3794296,-0.007541203
1.854535,-0.3133379,-0.03242054,-0.07484215,-0.104393,0.04396207
1.711464,-0.2330046,-0.1133994,-0.1391873,0.5590058,-0.1647191
1.39514,-0.02303439,-0.0637074,-0.726341,0.970836,-0.4605884
1.008298,0.2366455,0.000346128,-1.015524,0.8152484,-0.2758956
0.9839291,0.2337051,-0.06387238,-1.653727,0.7372915,0.01641031
1.029886,0.09049332,-0.03422317,-2.066566,0.5852865,0.09472171
0.7471746,0.09332795,-0.03526235,-2.261322,0.5393826,0.2923695
0.7275804,-0.01572371,-0.06071462,-2.52108,0.6085646,0.3338917
0.8357959,-0.1941077,-0.01201011,-2.227566,0.5312471,0.1629876
0.6568073,-0.3302367,-0.01700759,-2.001298,0.5733277,-0.01173046
0.6330911,-0.4420887,-0.007172482,-1.725055,0.5752267,-0.3367512
0.5953291,-0.298108,0.02436229,-1.003649,0.3459951,-0.4859913
0.3697892,-0.09815549,0.09074053,-0.4111132,-0.08123396,-0.3331148
0.3570903,0.0185748,0.1436413,-0.1802005,-0.6862233,-0.10468
0.4703234,0.1137311,0.03491312,-0.7125743,-0.8974142,0.2246704
0.6529434,0.07133831,-0.1057551,-1.5618,-0.4185506,0.3834579
0.8634151,0.02328865,-0.2058324,-1.891287,0.3196483,0.3089718
0.9363395,-0.1864985,-0.236817,-1.79382,1.125369,0.2747614
0.9432824,-0.4696807,-0.1146925,-1.382228,1.896207,0.111507
0.8616475,-0.4605447,0.08436049,-0.9464878,2.16594,-0.313408
0.6687018,-0.4031484,0.2568544,-0.6222177,1.56247,-0.6603255
0.3590622,-0.2825291,0.3414013,-0.181444,0.1124954,-0.4306803
0.2979843,-0.2217184,0.3552763,0.4414647,-1.435014,0.7083026
0.9729116,-0.47403,0.257738,0.6976093,-1.453717,1.596142
1.813321,-0.7051425,-0.09992481,-0.1040208,0.2261107,0.3005148
1.983541,-0.7153956,-0.3727093,-0.6570748,1.18585,-1.473835
1.757701,-0.4025419,0.05594033,0.392781,0.3496493,-1.104092
1.758419,0.0379794,0.498455,1.030638,-0.545493,-0.5441803
1.748433,0.3086969,-0.001628321,-0.746274,-0.339243,-0.6356523
1.589097,0.3826243,-0.4012512,-2.720466,0.351815,0.1511909
1.526715,0.1580083,-0.09310595,-2.495924,0.7674691,0.6081408
1.286575,-0.1616891,-0.04558944,-1.761141,0.5935335,0.5044713
1.024554,-0.423217,-0.09056466,-1.499246,0.1360612,0.5467135
0.9281815,-0.5706419,0.08234857,-0.619138,0.152228,0.06484284
0.7301399,-0.4755011,0.06037157,0.02365447,0.04290939,-0.2612518
0.6495865,-0.2719084,0.05897578,0.03366947,-0.5679803,-0.1967332
0.6192807,-0.03204459,0.0675937,0.07329344,-0.7687911,-0.02082121
0.5821308,0.05331335,-0.06514371,-0.1970403,-0.7635247,0.3691965
0.7198463,-0.01585149,-0.1122381,-0.3608253,-0.4509145,0.3943897
0.802556,-0.04164917,-0.1348842,-0.2107095,0.1692765,0.2777164
0.88742,-0.1748685,-0.1261344,-0.09226401,0.383633,0.08452653
0.9220956,-0.2400226,-0.07118758,0.261329,0.6159204,-0.3067751
0.8212136,-0.1312598,-0.06795725,0.5299881,0.7214676,-0.5494304
0.7768694,-0.08812131,-0.04128202,0.5538891,0.6403153,-0.6669553
0.6383154,-0.008646967,-0.021537,0.5692928,0.6765667,-0.4529126
0.5073973,0.05057886,0.02334006,0.5984989,0.4777705,-0.1825167
0.5128061,0.006137983,0.112287,0.7611942,0.2406435,-0.1429365
0.5407019,0.03149758,0.133606,0.9353158,-0.1014068,-0.2505569
0.6978397,0.07314499,0.126167,1.091892,-0.5678556,-0.4542703
0.9382394,0.1566427,0.04378732,1.033919,-0.835896,-0.2956145
1.18717,0.3069439,-0.1138745,0.6287481,-0.6977595,-0.08107128
1.339844,0.3201854,-0.1950921,0.0355091,0.01358559,-0.06632117
1.285344,0.160525,-0.1916285,-0.9995512,0.7802522,0.02147774
1.172873,-0.1447259,-0.08318123,-2.024047,0.9450059,0.1202556
1.053171,-0.5470965,0.1436663,-2.156541,-0.1000622,0.3022936
1.091031,-0.8867488,0.3489921,-1.111169,-1.409298,0.1109659
1.502375,-0.9922142,0.3682534,0.6008223,-1.291351,-0.4909996
1.948364,-0.7688851,0.1599027,1.318693,-0.4956249,-0.8651829
1.948023,-0.3835397,-0.02681783,0.7026171,0.1493013,-0.9242226
1.680615,-0.07492586,0.04823998,0.3577182,0.4450508,-0.296576
1.489709,0.02719548,0.1303026,0.4070408,0.0362062,0.58845
1.236818,-0.02228568,0.06200144,-0.1788924,-0.1820298,0.7105078
1.08931,-0.06848601,0.1125345,-0.6127108,-0.0214701,0.5602049
1.074788,-0.203302,0.2090565,0.04124017,-0.1694503,0.5568482
0.8430681,-0.31872,0.2167806,0.6959809,-0.3549813,0.4125379
0.7627816,-0.205236,0.1887363,0.7099286,-0.3168495,0.3424164
0.7751358,-0.09466829,0.05159572,0.530913,-0.158784,0.4982147
0.6128421,-0.04239525,0.003927379,0.2600565,0.05942781,0.6543225
