accx,accy,accz,gyrox,gyroy,gyroz
0.6287025,-0.1313898,-0.05737743,-0.929867,0.2517097,-0.2939816
0.541255,-0.1321459,-0.04724344,-1.019398,0.4411483,-0.461454
0.5599107,-0.2790946,-0.08270012,-0.974343,0.2594111,-0.5130472
0.588819,-0.3573303,-0.088033,-0.7602493,-0.1403277,-0.4468615
0.560752,-0.3881995,-0.081445,-0.4077017,-0.3254064,-0.3669359
0.6963663,-0.529789,-0.1028518,0.1008178,-0.3477169,-0.2057527
0.7521053,-0.5786453,-0.2796773,0.5142333,-0.1930953,0.1244193
1.010072,-0.6219411,-0.5696425,0.5818019,-0.1802025,0.334583
1.486746,-0.5818599,-0.7316954,0.4929694,0.01763521,0.3740704
1.795786,-0.5068316,-0.7776697,0.3288774,0.2909816,0.3272403
1.938553,-0.5266346,-0.7336526,0.04108239,0.1639152,0.06854258
1.770183,-0.5164612,-0.4300695,-0.1393791,0.2980548,-0.3615529
1.407802,-0.5330609,0.005104002,-0.08598792,0.4264493,-0.563942
1.156356,-0.4349079,0.1280045,-0.08823638,-0.1496491,-0.3345902
1.090184,-0.2334296,-0.1345985,-0.2915002,-0.7632489,-0.03207903
1.135328,-0.165506,-0.3691449,-0.3847095,-0.707301,0.2135822
1.041193,-0.1892769,-0.3873558,-0.2880433,-0.2815941,0.4160803
0.8136693,-0.2551795,-0.309154,-0.176437,-0.1483023,0.4029343
0.6437006,-0.281729,-0.1963271,-0.05849224,-0.2386729,0.4352139
0.539011,-0.2730972,-0.1458481,0.07576941,-0.3700863,0.5584253
0.5074637,-0.2594346,-0.1499092,0.1951939,-0.5354618,0.5070503
0.5920745,-0.2053649,-0.1562313,0.1989986,-0.468184,0.4557634
0.6952148,-0.1690318,-0.2024715,0.1880802,-0.1303671,0.362859
0.7227047,-0.1305362,-0.1809972,0.2224017,0.3504304,0.1737265
0.6921642,-0.1079742,-0.1454134,0.07566066,0.5379855,0.1170297
0.6493131,-0.09010214,-0.1714298,-0.07741712,0.4207649,0.07550791
0.6351774,-0.07315934,-0.1289626,-0.06774727,0.4954854,0.01303372
0.6045186,-0.1289723,-0.1061504,-0.08313268,0.482737,0.01005146
0.5888718,-0.1640172,-0.1465392,-0.1328344,0.3799255,0.008047572
0.642119,-0.2016866,-0.2052164,-0.1857817,0.4552771,0.02677839
0.7171161,-0.3279292,-0.3187919,-0.3346439,0.5245466,0.02132147
0.9221484,-0.519276,-0.3814318,-0.5329462,0.6233213,-0.02821885
1.305224,-0.7240067,-0.3628179,-0.5954833,0.5280029,-0.1596323
1.691594,-0.8536952,-0.3436822,-0.5784674,0.09477473,-0.3548239
1.891237,-0.9240654,-0.3403861,-0.4232214,-0.2288752,-0.3920943
1.820342,-0.8448802,-0.3306247,-0.073172,-0.1471424,-0.2890789
1.570953,-0.6186408,-0.3141297,0.04337064,0.1269592,-0.1776398
1.283689,-0.5085507,-0.2668773,0.1038225,0.3230849,-0.04704785
1.089936,-0.5075288,-0.1251522,0.3491276,0.5276796,0.04324499
0.9523531,-0.4597887,-0.003316335,0.2833057,0.4059226,0.1138338
0.7834733,-0.317369,0.005638476,0.07642654,-0.03952812,0.2524917
0.704339,-0.1719606,-0.03164959,-0.03477374,-0.157526,0.3625123
0.6431642,-0.1324234,-0.0718435,-0.3175418,-0.2143241,0.3991846
0.572284,-0.1201108,-0.08719758,-0.5394552,-0.1807893,0.3564854
0.6203785,-0.12797,-0.1151089,-0.6856316,0.1042099,0.1495203
0.6091163,-0.1498456,-0.1324147,-0.9515886,0.1997063,-0.09854848
0.5528494,-0.1822557,-0.1086567,-1.036347,0.3746772,-0.206862
0.5399008,-0.2913455,-0.0975528,-0.9334061,0.424655,-0.1572425
0.4900119,-0.3441506,-0.0763039,-0.7674241,0.1183248,-0.1029879
0.5336129,-0.3419366,-0.07579013,-0.4380562,-0.1089408,-0.1448039
0.6288402,-0.3855784,-0.09421008,-0.1917484,-0.2701651,-0.197168
0.6841415,-0.3844226,-0.08117328,-0.1619837,-0.1211485,-0.2873666
0.6943958,-0.3441341,-0.07780464,-0.0732164,0.2133886,-0.2978485
0.6420481,-0.2814907,-0.04920277,0.02632962,0.3475704,-0.1979101
0.6716828,-0.2005024,-0.03564968,-0.0629142,0.2499732,-0.1125075
0.7412317,-0.2367951,-0.1726846,-0.1503462,-0.1859677,0.160264
1.008681,-0.3712446,-0.3867106,-0.1330024,-0.3227907,0.3866044
1.585996,-0.4891984,-0.5598491,-0.03732733,0.08378598,0.3647553
1.90121,-0.6057469,-0.732832,0.1393695,0.5033471,0.4175927
1.866032,-0.6670037,-0.7879932,0.1755223,0.877282,0.3541295
1.791241,-0.6706347,-0.4810051,0.1936914,1.144966,-0.04278601
1.521945,-0.6334052,-0.01210632,0.2348266,0.8806949,-0.5132933
1.138832,-0.4218206,0.174574,-0.06135731,-0.0756035,-0.6183012
1.054151,-0.1868184,-0.005733014,-0.3739879,-0.8617357,-0.2423565
1.17284,-0.08558712,-0.2697691,-0.4534417,-1.029401,0.1586182
1.090747,-0.09018725,-0.3851977,-0.4750864,-0.8737302,0.4339702
0.9222272,-0.2320772,-0.3887661,-0.3474547,-0.5111182,0.5197455
0.8202953,-0.3210453,-0.2727281,-0.1510322,-0.3600452,0.4306626
0.6874103,-0.3105676,-0.1444019,0.03461122,-0.1939386,0.5125495
0.6542807,-0.2562308,-0.1750078,0.07115469,-0.1565723,0.4954132
0.6473362,-0.1340929,-0.1934825,-0.1562636,-0.4484361,0.3228082
0.618982,-0.08080983,-0.1797807,-0.324905,-0.2808888,0.3026203
0.697744,-0.008054774,-0.180398,-0.3659545,-0.1893514,0.2646834
0.7112356,0.03871432,-0.1388836,-0.362248,-0.1699885,0.3163855
0.6987617,-0.05486512,-0.1561996,-0.3498126,0.1024239,0.4497921
0.7377121,-0.1160577,-0.1891171,-0.3757653,-0.005552743,0.5608093
0.7443571,-0.1752064,-0.212268,-0.3019379,0.1494965,0.7811151
0.7646559,-0.2109929,-0.2133905,-0.2487374,0.5482929,0.8170076
0.7283153,-0.2247113,-0.107957,-0.3062525,0.8082884,0.621604
0.699326,-0.2704101,-0.00735845,-0.3540325,1.044489,0.3690312
0.7547448,-0.2160492,0.00304929,-0.4058936,0.8300507,0.1305616
0.8066331,-0.1731826,-0.07927219,-0.450268,0.6704454,0.08084433
0.8631348,-0.2064177,-0.1672751,-0.5062089,0.7687363,0.08950751
0.8669703,-0.2449285,-0.2012307,-0.5668963,1.031495,0.111644
0.8682981,-0.3402588,-0.2374431,-0.7495831,1.441147,0.1549995
0.9975479,-0.5199469,-0.2151192,-1.156405,1.099619,0.06036599
1.225645,-0.810187,-0.1512465,-1.353247,0.4385992,-0.1560441
1.453458,-0.9608919,-0.165011,-1.089711,0.07561157,-0.4028844
1.689554,-0.8120233,-0.3674714,-0.7815156,-0.3174165,-0.4415414
1.975653,-0.6639905,-0.6412702,-0.6211675,-0.1990597,-0.2801292
1.932751,-0.5660331,-0.6011356,-0.3495898,0.3202312,-0.1462953
1.542383,-0.4991232,-0.346152,-0.1420104,0.5317159,0.01440143
1.263287,-0.504756,-0.1382456,-0.1839137,0.5171398,0.09160142
1.044501,-0.4038704,0.0230918,-0.2245804,0.3300457,0.1074139
0.9976132,-0.3019707,-0.04215611,-0.4271248,0.1972196,0.3633091
0.9837373,-0.1882016,-0.1617695,-0.7437347,0.1366682,0.7464138
0.6982413,-0.01957394,-0.1288653,-0.9518864,-0.03702173,1.056531
0.6568856,-0.06969255,-0.1870884,-1.241551,0.001470586,1.147062
0.6379294,-0.09630356,-0.2066606,-1.420771,0.1256432,0.921726
0.4883696,-0.1161761,-0.1752983,-1.476068,0.3153483,0.6645381
0.6456818,-0.3601768,-0.2266846,-1.489131,0.7018613,0.4583053
0.6465745,-0.4127253,-0.1459642,-1.357375,0.8315964,0.2203711
0.6030838,-0.323264,-0.07317737,-1.307495,0.7419996,0.07063425
0.6836633,-0.284489,-0.07570252,-1.223844,0.5742292,-0.05147266
0.5922677,-0.2182345,-0.042062,-1.160211,0.3259379,-0.09751279
0.661962,-0.2393243,-0.06013951,-1.213241,0.2012764,-0.008238809
0.73062,-0.2713281,-0.04342438,-1.084486,0.2159707,0.01934931
0.7290936,-0.3040846,-0.03731486,-0.96585,0.3323191,0.01703312
0.789822,-0.3341834,-0.0882839,-0.9183377,0.3981421,0.03145954
0.7300446,-0.3169764,-0.1042486,-0.8816491,0.475088,0.007103564
0.7653972,-0.3484989,-0.08157183,-0.8194141,0.6555969,-0.0712354
0.7717965,-0.3552821,0.02445986,-0.5640749,0.7363302,-0.2660494
0.698243,-0.3719676,0.03599967,-0.4779042,0.5687938,-0.3439907
0.804919,-0.4803402,-0.2519787,-0.4719761,0.08726305,-0.01862753
1.165337,-0.672035,-0.6450456,-0.05864194,-0.1064277,0.3617579
1.684364,-0.8637153,-0.8010809,0.3878612,0.5723995,0.3258446
1.736252,-0.8472633,-0.775316,0.3422697,1.252598,0.1181947
1.545304,-0.7578817,-0.7042212,0.08932527,0.931896,-0.08296332
1.631119,-0.677819,-0.3875659,-0.03203383,0.3910763,-0.4800647
1.500695,-0.4284913,-0.1099862,-0.361148,0.2151446,-0.6186021
1.386179,-0.2367374,-0.1446084,-0.708784,-0.3131264,-0.2776092
1.463471,-0.2608236,-0.2127878,-0.7813237,-0.6113775,0.0289313
1.285546,-0.2959702,-0.2835822,-0.8908831,-0.4222025,0.1761416
1.119239,-0.3342465,-0.2699379,-0.8324174,-0.4879718,0.1073497
0.9255069,-0.3795057,-0.1662413,-0.7447888,-0.3060777,-0.07108973
0.6450859,-0.3361975,-0.1277154,-0.765842,-0.09663262,-0.08458599
0.6216125,-0.2665849,-0.09180337,-0.5977747,-0.2111524,-0.09777692
0.6251371,-0.1912409,-0.1405144,-0.6135153,-0.3323674,-0.03697193
0.6142752,-0.1077426,-0.2020056,-0.6288562,-0.6451387,0.1430224
0.6971941,-0.1023714,-0.2282746,-0.4660279,-0.6882079,0.2754254
0.7476226,-0.1591739,-0.2918974,-0.4541717,-0.4573101,0.3910707
0.8239681,-0.2033922,-0.2705795,-0.3159442,-0.2495953,0.35804
0.8375105,-0.2070714,-0.2430055,-0.1620374,0.1680497,0.2780652
0.7686548,-0.1784414,-0.1805142,-0.1215743,0.4350682,0.2438526
0.7154181,-0.1434474,-0.06340333,-0.05037335,0.4640798,0.1423964
0.6765331,-0.1028973,-0.04442202,-0.08183989,0.4363046,0.1009954
0.71515,-0.05949056,-0.0365628,-0.08853827,0.4581584,0.03829847
0.750948,-0.04065032,-0.05588429,-0.08533327,0.5545089,-0.008068043
0.7532565,-0.05953676,-0.09935214,-0.1190944,0.4962724,0.04905209
0.7744763,-0.09969982,-0.09753014,-0.0707075,0.4269419,0.02242836
0.7620975,-0.1406261,-0.104382,-0.04325596,0.3267297,-0.02202746
0.7517573,-0.1952164,-0.1242367,-0.07002305,0.2177705,-0.08793789
0.7516379,-0.2967193,-0.2499598,-0.1787506,0.3488214,-0.152182
0.8080128,-0.4176001,-0.4149813,-0.4361596,0.4542926,-0.1248319
1.098706,-0.5928922,-0.4911578,-0.7213073,0.4461201,-0.1783991
1.493255,-0.8771859,-0.5869282,-0.8267782,0.5095489,-0.2416565
1.597396,-0.9843486,-0.5866194,-0.7337825,0.4839351,-0.2264225
1.55217,-0.822884,-0.3700101,-0.4590351,0.08843662,-0.2771785
1.697611,-0.7084881,-0.1999389,-0.0902197,-0.3474735,-0.3151955
1.705538,-0.593398,-0.2180414,0.007708968,-0.1791705,-0.1227254
1.547891,-0.5172093,-0.2828246,0.08783491,0.2404098,0.1645003
1.50247,-0.5789378,-0.2827236,0.3304314,0.3248212,0.1941636
1.275045,-0.5123861,-0.1749643,0.2307835,0.1408042,0.09840235
1.02056,-0.45431,-0.04759303,0.1691512,-0.1903578,0.1163574
0.9420934,-0.3681652,-0.04376762,0.2424606,-0.316629,0.1311467
0.7153014,-0.1271274,-0.09953573,-0.05552526,-0.3001889,0.185419
0.5439984,-0.09071651,-0.1240547,-0.2881601,-0.5205343,0.3516667
0.5391779,-0.1149482,-0.1461135,-0.3845143,-0.5368059,0.4715497
0.5127094,-0.1707231,-0.1328433,-0.413222,-0.3006481,0.4523296
0.5333732,-0.3603632,-0.06945962,-0.2540495,-0.1794149,0.3273164
0.5424926,-0.3610282,-0.04128312,-0.2797691,-0.1424517,0.1447852
0.5623184,-0.3166727,-0.04280516,-0.2851962,-0.2082067,-0.05126579
0.6451754,-0.3058692,-0.05258781,-0.2350595,-0.1228683,-0.2004735
0.6996409,-0.2225953,-0.083623,-0.3048983,0.1474933,-0.3277903
0.732969,-0.1518835,-0.08066254,-0.3097374,0.4231491,-0.5037913
0.735353,-0.0729309,-0.0761135,-0.4710524,0.6450686,-0.7000408
0.6789427,-0.1115425,-0.06248595,-0.5820418,0.5162735,-0.8611983
0.5514156,-0.2509424,0.03074178,-0.4608265,0.02661708,-0.8729088
0.4535676,-0.3657629,0.09184465,-0.3209102,-0.8441405,-0.6257973
0.5295905,-0.4168348,0.00404006,0.05382268,-1.312515,-0.2748423
0.7218286,-0.3690568,-0.1903433,0.5652821,-0.396224,-0.1214749
0.9335818,-0.3887313,-0.35021,0.8350279,0.3994885,-0.1027563
1.171299,-0.4626328,-0.4967379,0.7615737,0.1154436,0.09176493
1.4913,-0.534252,-0.6785496,0.7468419,0.1200274,0.2394614
1.744239,-0.6166103,-0.695633,1.070871,0.3887634,0.0946919
1.822424,-0.563836,-0.6947065,1.193665,0.2539707,-0.01950499
1.893678,-0.4920711,-0.7909959,0.9553461,0.3859703,-0.1659116
1.705166,-0.4866684,-0.4338783,0.7491048,0.5481648,-0.5178825
1.256089,-0.4426993,0.1916332,0.7346074,0.1454751,-0.6581882
1.15758,-0.3441913,0.2279032,0.6605686,-0.3860887,-0.50689
1.254925,-0.135721,-0.1810732,0.3575627,-0.9802197,-0.2892966
1.199761,-0.03255695,-0.4546422,0.257828,-0.9794128,-0.003700428
1.045652,-0.1543852,-0.4190442,0.3264127,-0.3920977,0.120604
0.7739332,-0.2067835,-0.2349088,0.3398403,-0.5050388,0.07434502
0.597993,-0.214828,-0.1612521,0.5090593,-0.6355223,0.2458053
0.5561398,-0.249396,-0.1086737,0.6698467,-0.6803707,0.4336396
0.5341536,-0.2037116,-0.1354334,0.6992144,-1.065604,0.3817382
0.6083282,-0.164987,-0.264312,0.6293684,-0.8741767,0.3592126
0.7044056,-0.1235378,-0.247179,0.5738992,-0.5603322,0.3595378
0.750734,-0.07452345,-0.2324657,0.6159849,-0.1879914,0.2798201
0.7195348,-0.0911731,-0.1847117,0.5220555,0.2258988,0.2235228
0.6836236,-0.1092178,-0.04584727,0.4556324,0.2061263,0.2061686
0.6844145,-0.1243925,-0.03622364,0.5317545,0.3967256,0.2086623
0.6138596,-0.1259224,-0.07356954,0.5266235,0.1775482,0.1848216
0.5932594,-0.1115045,-0.1303054,0.3676979,-0.2350012,0.1695659
0.7109961,-0.144232,-0.1605483,0.1799314,0.03429329,0.1556524
0.8463398,-0.2058569,-0.181437,0.2096366,0.2024663,0.0447749
0.9095495,-0.3550075,-0.3146385,0.1334978,0.4694077,-0.08525635
0.9971333,-0.5977816,-0.3811661,-0.1925895,0.6863493,-0.1821908
1.253154,-0.7585636,-0.3646292,-0.2735924,0.2968797,-0.2762409
1.498426,-0.8095442,-0.326896,-0.1713927,-0.08550511,-0.343515
1.605985,-0.8411277,-0.2776917,-0.04378301,-0.2862309,-0.3381144
1.670228,-0.8216571,-0.2763286,0.2309982,-0.3054124,-0.3371737
1.664441,-0.7169585,-0.2732204,0.4518006,-0.2718079,-0.3981311
1.549816,-0.590327,-0.2678589,0.4847409,-0.2874752,-0.3165861
1.318303,-0.4758669,-0.203176,0.6011156,-0.1007339,-0.1604883
1.114131,-0.421831,-0.1251721,0.7421094,-0.01430801,-0.1175595
1.108282,-0.4291189,-0.1403179,0.5581144,-0.2171166,-0.05257661
1.058811,-0.3679241,-0.1298585,0.3542489,-0.4006844,0.03450499
0.8449635,-0.266235,-0.09285167,0.2861565,-0.3950575,0.1426508
0.7200718,-0.2086419,-0.101075,0.07409454,-0.3155471,0.2735159
0.6224643,-0.1560218,-0.1133444,-0.08447674,-0.2881006,0.291213
0.4953266,-0.1311129,-0.1006388,-0.2103496,-0.1611379,0.2553559
0.5468515,-0.1606163,-0.094699,-0.4072162,0.06206634,0.1677576
0.605944,-0.2000854,-0.0850581,-0.459595,0.2169526,-0.04694183
0.5673157,-0.2017576,-0.04782809,-0.5461947,0.3042233,-0.296144
0.6113992,-0.1937629,-0.05761491,-0.7021649,0.2562323,-0.4628481
0.6126855,-0.2159322,-0.07111688,-0.710235,-0.009804001,-0.4779033
0.5501652,-0.2526637,-0.06771102,-0.5899852,-0.3935828,-0.3357708
0.5408399,-0.3176709,-0.1099677,-0.3298923,-0.5456589,-0.1315688
0.5645761,-0.3591003,-0.1248553,-0.05026138,-0.3129125,-0.04725235
0.6462622,-0.3547413,-0.1240731,0.07633665,-0.04485266,-0.09866735
0.6809886,-0.3758315,-0.1253681,0.1156315,0.1460335,-0.1581078
0.6688035,-0.3932187,-0.1316131,0.1252671,0.2135314,-0.1784019
0.753635,-0.382695,-0.2524795,0.06030127,-0.02822987,-0.05047596
1.071153,-0.3988235,-0.429708,0.02796676,-0.1576681,0.1661726
1.669203,-0.5210632,-0.6081227,0.3267361,0.1558152,0.2049279
2.01952,-0.7307774,-0.882098,0.7553199,0.6797541,0.08352063
1.87263,-0.7957012,-0.9270752,0.8145292,1.237986,-0.1875999
1.586623,-0.5865459,-0.278075,0.6624335,1.369111,-0.6580956
1.227731,-0.3078706,0.4119874,0.4581485,0.4256642,-0.805423
1.1206,-0.1692575,0.2495564,0.1694899,-1.042812,-0.353541
1.424486,-0.1447925,-0.200193,0.1020605,-1.394255,0.04929673
1.507621,-0.1725656,-0.3531598,0.1141833,-0.4521908,0.06837092
1.244593,-0.2154672,-0.4240921,0.01439386,0.2270588,-0.02919225
0.938423,-0.2451932,-0.2532793,0.09807258,0.0987163,-0.05213288
0.7068398,-0.2964713,-0.02521953,0.2781251,-0.2206962,0.04484303
0.630881,-0.3138144,-0.0911252,0.4373974,-0.458113,0.1087455
0.6032967,-0.2395022,-0.127938,0.4951325,-0.583419,0.09584383
0.6466092,-0.1243944,-0.1855375,0.2999359,-0.5290235,0.1299863
0.7623817,-0.03036413,-0.2987228,0.1558563,-0.3837944,0.1953809
0.809557,-0.03168357,-0.2624846,0.05943342,-0.2044149,0.2441689
0.8647161,-0.08533005,-0.2492915,-0.07783953,0.05591818,0.2096913
0.8809882,-0.1099326,-0.2058262,-0.08481266,0.2422699,0.1346925
0.8254882,-0.1125759,-0.1340605,-0.1595876,0.3019611,0.1248479
0.7340268,-0.07075533,-0.1078578,-0.2803426,0.2622341,0.1475068
0.6140269,-0.032275,-0.0479418,-0.3415457,0.08024584,0.2590707
0.6861699,-0.06057648,-0.07509418,-0.3550912,-0.02836729,0.4846433
0.8712795,-0.1095276,-0.1057215,-0.2217832,0.03648663,0.5909996
0.9489606,-0.1369704,-0.09989268,-0.1719156,0.2758821,0.4405557
0.9490759,-0.1077485,-0.1197987,-0.3085161,0.6029038,0.251517
0.8715445,-0.04635365,-0.0531105,-0.4785355,0.7044499,0.1937017
0.8348177,-0.02200344,0.01064477,-0.5899505,0.6148063,0.1820016
0.8751826,-0.01279545,-0.002719157,-0.661961,0.5412089,0.2111123
0.8835856,-0.01274145,-0.06427613,-0.7856428,0.5616247,0.2691784
0.8913653,-0.08678182,-0.1758642,-0.8708542,0.7169571,0.2874491
0.8831095,-0.29379,-0.3144854,-1.044192,0.8713056,0.2748561
0.8893494,-0.6157671,-0.4100259,-1.300583,0.7340355,0.1537116
1.019511,-0.8635299,-0.3498765,-1.352772,0.4840389,-0.07086089
1.302369,-0.9258025,-0.2898757,-1.296122,0.4145072,-0.2351138
1.632105,-0.8792074,-0.3718766,-1.15646,0.02034279,-0.2379839
1.775374,-0.6809684,-0.4426711,-0.9859079,-0.3428164,-0.06424557
1.724903,-0.3917241,-0.4621858,-0.9370533,0.2067808,0.1437353
1.566806,-0.2869769,-0.4091356,-0.9497569,0.8415376,0.1973519
1.315808,-0.3484323,-0.2705954,-1.11809,0.8604256,0.1594114
1.180796,-0.3912266,-0.1831494,-1.255535,0.6283411,0.2603273
1.151529,-0.427893,-0.1206877,-1.045817,0.3644004,0.4514668
1.030746,-0.4378269,-0.07680931,-0.8483671,0.266432,0.4900286
0.9404219,-0.3834993,-0.124214,-0.9590664,0.3167071,0.4336401
0.8685018,-0.3207769,-0.1572497,-1.034471,0.2993582,0.4342054
0.6922416,-0.2402846,-0.1808584,-1.002848,0.2107296,0.4815535
0.6294399,-0.2354104,-0.2001233,-1.133418,0.1835686,0.513443
0.6884694,-0.3045591,-0.1601576,-1.18811,0.2938756,0.4699901
0.6693803,-0.3052646,-0.1440906,-1.058535,0.4019874,0.3799464
0.6734783,-0.3888047,-0.0949286,-0.9837672,0.3854193,0.2534746
0.6973974,-0.4631516,-0.04658992,-0.8487573,0.3878987,0.07207908
0.6603701,-0.3604412,-0.07357036,-0.7000749,0.5334218,-0.1096369
0.6496206,-0.3029007,-0.02881644,-0.6814087,0.6309918,-0.2528799
0.6239979,-0.2567968,0.01119003,-0.6758528,0.5615689,-0.3558308
0.6154719,-0.212789,-0.007618959,-0.67428,0.3856621,-0.4095833
0.6643874,-0.2137721,0.01427494,-0.6746486,0.1155327,-0.3800595
0.6888296,-0.1516408,0.005729342,-0.6755835,-0.04927564,-0.3059071
0.7573233,-0.1546457,-0.0301939,-0.6897379,-0.01894414,-0.2481084
0.807879,-0.1664876,-0.04172181,-0.7027677,-0.01202416,-0.2184134
0.7811607,-0.1702366,-0.02470542,-0.6937816,-0.0425426,-0.252091
0.7889137,-0.2766487,0.02448499,-0.5653216,0.02299082,-0.2775975
0.7793078,-0.3025037,0.04254284,-0.3955294,0.160733,-0.2915379
0.7441557,-0.2734922,0.01347821,-0.3675207,0.2791433,-0.3992156
0.7104069,-0.2784013,-0.03894796,-0.4755777,0.2130549,-0.4712209
0.6887018,-0.3025262,-0.1611678,-0.5074933,-0.1963742,-0.2833437
0.8601656,-0.4466075,-0.4594486,-0.1943241,-0.7051998,0.2727287
1.342853,-0.7153548,-0.8266398,0.5078247,-0.6318345,0.7779225
1.889248,-0.9797244,-0.9440759,1.124855,0.4297594,0.6113314
1.973358,-1.00164,-0.821606,1.053037,1.40016,0.1515331
1.650646,-0.7818468,-0.5218261,0.690245,0.9720863,-0.2331546
1.394363,-0.5055073,0.01221168,0.5903215,0.1258312,-0.7391754
1.201538,-0.2395756,0.2597249,0.371895,-0.4549784,-0.7786186
1.197875,-0.1258313,-0.03571316,0.10396,-1.431052,-0.3227945
1.315615,-0.115312,-0.2606691,0.1035339,-1.65892,-0.1195409
1.168165,-0.1590504,-0.3114009,0.1345435,-0.9069879,-0.01532701
1.060247,-0.3033446,-0.357597,0.17453,-0.6127855,-0.0265974
0.9416752,-0.3300518,-0.2227689,0.2372475,-0.4650304,-0.09605484
0.6197842,-0.3107661,-0.1158352,0.3238427,-0.4518515,0.03653818
0.5509518,-0.3399088,-0.1304948,0.4278131,-0.7432106,-0.004431993
0.6232822,-0.2627668,-0.1418096,0.4351349,-0.832135,0.008709255
0.6738142,-0.2196027,-0.2348124,0.4414773,-0.9983351,0.1060302
0.7920669,-0.1974607,-0.2961328,0.3916182,-0.833328,0.08084004
0.8348278,-0.1387351,-0.3066357,0.3207994,-0.4095138,0.2251851
0.8651151,-0.1643236,-0.2987797,0.35183,-0.2632806,0.2489282
0.8596598,-0.1742154,-0.2305351,0.3433955,-0.009485501,0.2105792
0.8033922,-0.1920068,-0.1728656,0.3647425,0.03680112,0.2268765
0.7307343,-0.2252166,-0.05266797,0.4842432,-0.02877608,0.09336141
0.6341341,-0.1838683,0.007844774,0.5817439,-0.02732573,0.1102661
0.6658642,-0.1597901,-0.08272167,0.5690428,-0.1930712,0.2083439
0.7528138,-0.1333282,-0.1416835,0.5312982,-0.07675231,0.323678
0.8216026,-0.1262267,-0.1937897,0.5830673,0.1053743,0.4129281
0.8283464,-0.184607,-0.2106106,0.5503993,0.1535079,0.2767662
0.7125385,-0.2317944,-0.1718139,0.4783518,0.08096958,0.1366807
0.6520868,-0.2770795,-0.1485928,0.4929343,-0.1649568,-0.02943837
0.676027,-0.3095452,-0.1245788,0.471092,-0.05335273,-0.1563401
0.7827038,-0.3665151,-0.2111619,0.4202947,0.2623228,-0.1169492
0.9906271,-0.4741608,-0.3647123,0.2676358,0.5532046,-0.1512253
1.150613,-0.5431672,-0.3934338,0.03860987,0.7144419,-0.2371778
1.266934,-0.6236698,-0.3309555,-0.08389332,0.4401146,-0.268044
1.493399,-0.7921086,-0.2317574,-0.09494238,0.09732184,-0.1880416
1.721768,-0.8827736,-0.140158,0.06483757,-0.3539142,-0.07312145
1.687493,-0.7302741,-0.2020131,0.2880617,-0.7293248,-0.1041842
1.52817,-0.5622251,-0.2942147,0.4126774,-0.4383193,-0.109696
1.365852,-0.560325,-0.1876437,0.6137047,-0.03671281,-0.04532113
1.181852,-0.5508201,-0.1050753,0.8406236,0.103377,-0.0782304
1.066528,-0.4632076,-0.1359356,0.806337,-0.1213538,-0.08758403
0.8465094,-0.3316726,-0.08433478,0.6671498,-0.6386552,-0.03106335
0.7243,-0.260766,-0.07767057,0.6552357,-0.6270697,0.02257242
0.7525787,-0.2507791,-0.1137293,0.604966,-0.4621732,0.1352807
0.5204698,-0.1483584,-0.07935887,0.4811194,-0.6134619,0.1944179
0.4790296,-0.1360037,-0.09231347,0.3277355,-0.5312515,0.1506856
0.6281831,-0.2447959,-0.1052871,0.1736307,-0.4627959,0.1006532
0.5601742,-0.2857672,-0.09014611,0.2197918,-0.4050066,-0.03425611
0.6779443,-0.3415543,-0.09341851,0.2829223,-0.124894,-0.2162808
0.7656412,-0.3390462,-0.0586763,0.2575334,0.02591645,-0.4038624
0.653011,-0.2605796,-0.03179309,0.3176114,0.08257885,-0.622758
0.6684372,-0.2321684,-0.0216706,0.30279,-0.09130182,-0.713235
0.6431192,-0.2053621,-0.009638188,0.2994328,-0.4145614,-0.6765912
0.6570918,-0.2463444,-0.04041957,0.4265773,-0.5459584,-0.5802224
0.7551652,-0.3158615,-0.06855113,0.5460076,-0.5877594,-0.4190375
0.7894033,-0.315496,-0.06116825,0.7089987,-0.3144512,-0.377438
0.8469838,-0.3158816,-0.0421553,0.7959767,0.04633234,-0.4830559
0.8301669,-0.2858759,-0.02922042,0.7025712,0.02457987,-0.552255
0.8029461,-0.2456167,-0.05881139,0.582946,-0.0640015,-0.5241683
0.8875636,-0.2616684,-0.1895399,0.5372766,-0.2586509,-0.2780367
1.091712,-0.404847,-0.4064647,0.6455949,-0.4693957,0.1391825
1.453413,-0.6323147,-0.5469158,0.9925197,0.05711692,0.2774696
1.648256,-0.648902,-0.5918456,1.31216,0.7230337,0.1171815
1.635417,-0.5383198,-0.6923436,1.095119,0.5262004,0.0897335
1.720773,-0.5547082,-0.7257173,0.7893324,0.4172985,0.101525
1.672677,-0.6082925,-0.438517,0.9612523,0.695797,-0.1797003
1.362599,-0.6266942,0.0505874,0.964292,0.4093447,-0.6235928
1.134282,-0.4838856,0.276028,0.6748655,-0.2411078,-0.7948281
1.122309,-0.1757511,0.04358264,0.3790034,-1.156233,-0.4901104
1.174598,-0.02472903,-0.2444916,-0.04464499,-1.66802,-0.1128186
1.086821,-0.09749315,-0.3188369,-0.08472504,-1.089812,0.03408145
0.900791,-0.2431982,-0.2937381,0.2302019,-0.804058,0.1463017
0.7605409,-0.4072993,-0.1973791,0.431394,-0.7706682,0.1994608
0.6258385,-0.4672467,-0.1428261,0.7345906,-0.4947211,0.1777629
0.5718664,-0.3536162,-0.1778922,0.8382038,-0.7727496,0.1943067
0.5780281,-0.2127404,-0.1897614,0.6316631,-0.8858609,0.1435961
0.5704166,-0.1173543,-0.2222606,0.551392,-0.6740756,0.1308663
0.6806295,-0.04874613,-0.2199514,0.4806182,-0.6609353,0.2404914
0.834824,-0.06627534,-0.1837726,0.4632898,-0.4644778,0.3417741
0.8982803,-0.1072443,-0.1930564,0.5833139,-0.2969359,0.3849501
0.7993244,-0.1250863,-0.1714237,0.62443,-0.1045873,0.342668
0.6301099,-0.1582529,-0.1316279,0.5679573,0.2263792,0.3358261
0.6164936,-0.152262,-0.05747076,0.4910157,0.295164,0.3616103
0.6560832,-0.1741411,-0.0281321,0.5144375,-0.02081178,0.3169275
0.7261884,-0.2163654,-0.1400808,0.5188594,-0.3803423,0.2317031
0.8590743,-0.1808206,-0.2241293,0.4194682,-0.1142731,0.0005450668
0.8963229,-0.1571836,-0.2411391,0.3841228,0.2682712,-0.2341884
0.8679571,-0.1944909,-0.241572,0.3003192,0.2983309,-0.2478762
0.8745921,-0.3834264,-0.2437457,0.145615,0.5065575,-0.2146523
0.9845916,-0.680307,-0.2505074,0.04467074,0.4800036,-0.2417834
1.138304,-0.7580019,-0.2296393,0.01948463,0.07097789,-0.2566207
1.342317,-0.7104093,-0.2401868,0.07160234,-0.1929254,-0.2014821
1.690268,-0.8363426,-0.2454242,0.1190115,-0.2889569,-0.1796537
1.850759,-0.9211597,-0.2363013,0.2198372,-0.3871132,-0.3441208
1.734408,-0.7949144,-0.2701591,0.3051778,-0.5911585,-0.4595357
1.634021,-0.6660926,-0.2919834,0.4057487,-0.3895178,-0.2176478
1.410585,-0.5676478,-0.2949463,0.7014305,0.1214654,0.1084072
1.069734,-0.4775851,-0.2300412,0.7443615,0.1842874,0.1150937
0.8883132,-0.4206878,-0.09093995,0.4872512,-0.034157,0.04301106
0.7626471,-0.3282857,-0.01661874,0.3814354,-0.3789072,0.1186169
0.6726014,-0.2784839,-0.04928504,0.304369,-0.5347987,0.1600193
0.6541759,-0.2484426,-0.1106162,0.1805202,-0.3268412,0.2132841
0.5698212,-0.2001221,-0.1232759,0.02262955,-0.2614857,0.2335259
0.5467682,-0.2432912,-0.1141128,-0.1159539,-0.1624041,0.08418553
0.5899476,-0.2816076,-0.1060548,-0.09790689,-0.03998544,-0.1080644
0.5974334,-0.3105802,-0.09929274,-0.136186,-0.02312056,-0.3343998
0.6455682,-0.3608468,-0.105701,-0.180834,0.1389754,-0.5112816
0.6319248,-0.3423147,-0.08746165,-0.06075512,0.1718557,-0.5277733
0.5439319,-0.31615,-0.0862064,0.07183607,0.007922853,-0.4746644
0.4935011,-0.2565509,-0.0897321,0.1549415,-0.2878023,-0.3524975
0.5232393,-0.1973884,-0.06585456,0.2405904,-0.5673855,-0.2627486
0.6511855,-0.259382,-0.07906404,0.4096606,-0.4859235,-0.3464775
0.7670093,-0.3181655,-0.09359251,0.5124264,-0.1876097,-0.4693232
0.8086382,-0.2912653,-0.09600542,0.4597273,0.2067934,-0.4803201
0.7550349,-0.2065148,-0.06160433,0.4405673,0.5310489,-0.4594772
0.6600475,-0.1420523,-0.02468338,0.34401,0.4779041,-0.4587591
0.6325815,-0.2536497,-0.1776447,0.1757848,-0.0679315,-0.2829558
0.7837493,-0.4818631,-0.4630519,0.2043392,-1.021602,0.1470661
1.404004,-0.6971772,-0.7189321,0.5322561,-1.290044,0.5302517
2.082583,-0.89418,-0.838399,1.105295,0.1143523,0.4822887
1.990859,-0.8847311,-0.6658573,1.399806,1.602251,0.1614314
1.682145,-0.6529546,-0.3284755,1.142157,1.287793,-0.1289744
1.72925,-0.5042607,-0.08974763,0.9248984,0.3385047,-0.5503839
1.501817,-0.3948926,0.01294059,0.9035486,-0.05809484,-0.8320642
1.244075,-0.2602306,0.001909909,0.6654266,-0.4035781,-0.7048368
1.278335,-0.1727937,-0.1029467,0.2904483,-0.5817958,-0.4600892
1.027147,-0.05392423,-0.2125979,0.1190154,-0.8756607,-0.08956961
0.8977555,-0.09083508,-0.2332217,0.2928506,-1.245377,0.1545745
0.9108495,-0.3061485,-0.2077894,0.5768482,-0.9568739,0.1013221
0.5856143,-0.4131801,-0.246014,0.7112618,-0.8093415,0.1525093
0.571992,-0.3950214,-0.2498296,0.9037674,-0.7530438,0.2504141
0.7048669,-0.310721,-0.1956615,1.024395,-0.5409161,0.2782084
0.6037086,-0.2271697,-0.2060416,0.8563794,-0.8372951,0.2687108
0.6733293,-0.1706128,-0.2091192,0.7249992,-0.8409468,0.1977084
0.7263261,-0.1537224,-0.2265646,0.6629068,-0.5492871,0.1947885
0.766067,-0.1789925,-0.2626991,0.6641394,-0.3504383,0.2109284
0.8612855,-0.1316695,-0.2036184,0.7599497,-0.03566604,0.2633401
0.7814492,-0.1204746,-0.1503809,0.7509061,-0.09995478,0.3899165
0.7149286,-0.1445074,-0.1282669,0.6829347,-0.07379901,0.4577323
0.6983333,-0.09916985,-0.101321,0.5527595,0.06470258,0.4875269
0.6892594,-0.113123,-0.1010596,0.3946179,-0.09299061,0.4616627
0.7319066,-0.1311238,-0.1200504,0.2716294,-0.08285996,0.3682209
0.7345781,-0.1803062,-0.1606231,0.1965741,-0.08757219,0.2257918
0.7830429,-0.2901307,-0.1579257,0.3813112,0.02796724,0.004667701
0.8427327,-0.2878032,-0.1559527,0.5263101,0.2896639,-0.1730969
0.7987529,-0.2852243,-0.2341947,0.2921289,0.3416424,-0.2391705
0.8182961,-0.3869636,-0.329421,-0.0005258755,0.4751156,-0.2416707
0.9999298,-0.557447,-0.3770814,-0.1012969,0.5775648,-0.248681
1.279477,-0.7413155,-0.328012,-0.01115638,0.5995714,-0.2855672
1.521707,-0.8650706,-0.2582539,0.1050867,0.5640212,-0.3073458
1.643721,-0.9214062,-0.2347104,0.1101969,0.1150669,-0.3900313
1.719718,-0.7836543,-0.2631115,0.05537467,-0.5321506,-0.4690342
1.703355,-0.5516622,-0.3565591,0.01555902,-0.7394422,-0.3143838
1.573675,-0.4946674,-0.3756762,0.1577194,-0.276241,-0.03377621
1.366395,-0.5279282,-0.2932302,0.4098172,0.2070249,0.08379257
1.041136,-0.53328,-0.1652082,0.4668821,0.1908167,0.03103594
0.8385594,-0.5124513,-0.02968243,0.355975,-0.0392782,0.02197943
0.8281592,-0.4330349,-0.04160032,0.2241762,-0.3156455,0.1090603
0.6840282,-0.294722,-0.03050871,-0.7043594,0.2964058,0.3026534
0.7270879,-0.2472931,-0.03719781,-0.5214016,0.02283244,0.2780241
0.7293586,-0.2403086,-0.09912144,-0.3075577,0.0538209,0.324042
0.6947746,-0.2022444,-0.1479553,-0.2090791,0.09901858,0.4160633
0.7568814,-0.1407488,-0.2086834,-0.2855135,0.2438037,0.4804218
0.7596209,-0.1214734,-0.256073,-0.316638,0.5625995,0.5693226
0.8085263,-0.1413673,-0.2364505,-0.273358,0.7202799,0.5848436
0.8696519,-0.2205354,-0.1768803,-0.3133846,0.5930819,0.527945
0.8373066,-0.2216187,-0.1876544,-0.4020421,0.4473941,0.4509725
0.8109478,-0.1904571,-0.2050999,-0.4580491,0.5111167,0.2950936
0.7813309,-0.2300849,-0.1841905,-0.5099897,0.5196652,0.2158652
0.7830484,-0.2841377,-0.2403439,-0.5969725,0.7531596,0.2095503
0.8724903,-0.4460819,-0.285883,-0.7616122,1.178664,0.1439801
1.038692,-0.5982436,-0.2740805,-0.9194244,1.119111,0.08892738
1.22619,-0.6030289,-0.2767537,-1.14468,0.788857,0.1044776
1.440926,-0.654722,-0.2617222,-1.345609,0.4563587,0.1325528
1.658984,-0.7499045,-0.2631586,-1.164599,0.02142805,0.1181522
1.669183,-0.7650888,-0.2863524,-0.9436677,-0.2400301,0.1666354
1.552421,-0.7357768,-0.2849377,-0.7489837,0.134284,0.2654098
1.435311,-0.7088472,-0.2337754,-0.2849695,0.7676733,0.2617343
1.187766,-0.6802158,-0.134161,-0.1628063,0.7246803,0.182933
1.025146,-0.5728051,-0.09601338,-0.4007877,0.3283095,0.1394392
1.033052,-0.3991551,-0.1305226,-0.4395639,0.05466503,0.2746336
0.9159329,-0.2979848,-0.1457367,-0.5158704,-0.2452784,0.5238427
0.7621764,-0.2554906,-0.1428095,-0.6288989,-0.2354471,0.6516724
0.681463,-0.1981943,-0.1471031,-0.6693867,-0.1372933,0.6890326
0.5993037,-0.216321,-0.145281,-0.8156565,-0.1752406,0.6811249
0.6042166,-0.3248059,-0.1354771,-0.856714,0.02466933,0.5805195
0.6340532,-0.4215227,-0.1326703,-0.8054359,0.2116876,0.4310359
0.6376124,-0.4660642,-0.1206328,-0.8150756,0.3237395,0.2619969
0.6876214,-0.4314084,-0.09472778,-0.7441065,0.4410571,0.0809997
0.7197379,-0.3523371,-0.0675018,-0.6814705,0.443989,-0.09717081
0.723364,-0.2389999,-0.05664088,-0.7063697,0.4947899,-0.1901272
0.6918121,-0.1228537,-0.06776436,-0.7785018,0.5056353,-0.1919916
0.6330559,-0.1490458,-0.04981017,-0.8642192,0.4913491,-0.2021362
0.6310437,-0.2303453,-0.009024387,-0.8310505,0.451314,-0.1609684
0.6654901,-0.286632,0.02086838,-0.7578361,0.2258777,-0.1112724
0.7253922,-0.3752509,0.03945458,-0.7075161,0.0513424,-0.174921
0.7915282,-0.3807657,0.02007077,-0.6061752,0.03210119,-0.219474
0.8344613,-0.344235,-0.0356488,-0.5541724,0.1565871,-0.1873206
0.8856282,-0.3272741,-0.09023296,-0.556074,0.3714422,-0.1705511
0.8893152,-0.2870763,-0.1053707,-0.5477893,0.4430861,-0.1354035
0.9093219,-0.3827962,-0.193247,-0.5642057,0.2753071,0.04637787
1.139853,-0.5640866,-0.4291895,-0.4882124,0.09448104,0.3636355
1.401706,-0.6237767,-0.5389856,-0.1969831,0.3103206,0.5140474
1.467419,-0.6124131,-0.49339,0.07099847,0.7020808,0.3456571
1.558982,-0.6185261,-0.5380311,0.0242728,0.8248105,0.1671604
1.661925,-0.6031929,-0.5506301,-0.05542543,0.6973097,0.1280832
1.556999,-0.5472919,-0.4368695,0.09885193,0.5099892,0.01797026
1.403353,-0.5362703,-0.2465869,0.1833146,0.5364411,-0.1810468
1.204723,-0.4653865,-0.03011953,0.1513357,0.4352565,-0.309793
1.057515,-0.2401636,-0.07421287,0.02161349,-0.03820054,-0.2633664
1.123694,-0.1027561,-0.2535216,-0.2933423,-0.3598186,-0.07276439
1.010189,-0.1056795,-0.2633141,-0.4444313,-0.4706332,0.111206
0.8077873,-0.1483079,-0.3114304,-0.4604201,-0.4320879,0.2855139
0.7920133,-0.2347183,-0.3004223,-0.4913665,-0.2684808,0.4414793
0.7374926,-0.2837398,-0.1780866,-0.3891757,-0.160485,0.5605127
0.7311113,-0.291182,-0.2161502,-0.3798914,-0.07250812,0.6301049
0.7381651,-0.2756002,-0.2200745,-0.4465349,-0.1197186,0.5411212
0.6818803,-0.222443,-0.2075928,-0.4893583,-0.1592636,0.4581076
0.683909,-0.1844448,-0.2662715,-0.5960498,-0.1296086,0.4315923
0.6648032,-0.1715569,-0.2242864,-0.5927706,-0.1749343,0.3842352
0.7664749,-0.2006045,-0.1942997,-0.4973368,-0.009493375,0.417391
0.8852996,-0.2307374,-0.1434289,-0.2780184,0.2626123,0.3954659
0.7828919,-0.2063956,-0.1167411,-0.06091519,0.4683236,0.3631539
0.6751151,-0.1461642,-0.1604325,-0.2389089,0.6445409,0.4059158
0.6538605,-0.04695198,-0.1046864,-0.4920124,0.6406387,0.4174513
0.7194717,-0.01672632,-0.1129383,-0.5162411,0.5356401,0.4701349
0.7953065,-0.1021192,-0.1747273,-0.5661718,0.3137415,0.4054731
0.7529375,-0.1821013,-0.1940346,-0.6364096,0.1244911,0.2106467
0.7265746,-0.2525285,-0.2278434,-0.5795842,0.3238497,0.1292801
0.7693219,-0.342837,-0.2252839,-0.5255773,0.7130035,0.1433996
0.847611,-0.4804396,-0.2436501,-0.5866453,1.085624,0.1630639
1.065043,-0.6833078,-0.2037485,-0.6713841,1.347975,0.04414662
1.38913,-0.7986885,-0.1323688,-0.7868845,1.143827,-0.1408142
1.629811,-0.7694889,-0.164337,-0.9251469,0.5488899,-0.1924066
1.74028,-0.7441386,-0.1674677,-0.9279786,0.05610405,-0.1030964
1.721962,-0.7286251,-0.1851842,-0.85595,-0.1315263,0.02987097
1.619514,-0.6580199,-0.2570378,-0.7570564,0.007270944,0.03317514
1.494996,-0.6047832,-0.2743766,-0.5406279,0.2194359,0.07685513
1.260645,-0.5683348,-0.2014855,-0.3981951,0.2947299,0.208569
1.060286,-0.4992159,-0.0768867,-0.4023681,0.2966412,0.1825504
0.9698472,-0.4232365,-0.06428133,-0.3996054,0.0951875,0.1857434
0.816677,-0.3297898,-0.1171394,-0.4896827,-0.08338667,0.2605971
0.7336626,-0.2636653,-0.1202242,-0.6632499,-0.1629603,0.3154313
0.6680745,-0.2510328,-0.1425539,-0.8174025,-0.2823145,0.4431668
0.5047663,-0.2124763,-0.1619884,-0.9733238,-0.183111,0.5107986
0.5013707,-0.2090054,-0.1562897,-1.03461,-0.1046608,0.4870668
0.5661499,-0.2782015,-0.1435961,-1.019961,0.01488386,0.399573
0.5288943,-0.3162301,-0.1272771,-0.9787796,0.2842575,0.2102599
0.5537512,-0.3374989,-0.1164551,-0.902574,0.3257978,0.03491367
0.5844623,-0.3484123,-0.1044351,-0.885622,0.3624079,-0.02971915
0.5140772,-0.3117948,-0.1107932,-0.932756,0.290477,0.04399092
0.4803754,-0.2656608,-0.1031821,-0.9798851,0.06070011,0.1002065
0.5267368,-0.2112852,-0.08636306,-0.9335191,-0.166441,0.02121387
0.6202417,-0.2137323,-0.1094106,-0.8390924,-0.5563604,-0.01821677
0.786167,-0.3159483,-0.1559351,-0.7462489,-0.5101254,0.005738882
0.9444301,-0.3840532,-0.2020832,-0.4898114,0.1511768,-0.04612326
0.9702277,-0.34853,-0.1605842,-0.2297599,0.8227021,-0.1879884
0.8376422,-0.2751453,-0.03397816,-0.2386443,1.072948,-0.3745239
0.6520107,-0.2709858,-7.61361e-05,-0.3813881,0.5908264,-0.3960128
0.6502034,-0.3709396,-0.1724049,-0.4496743,-0.3284325,0.03152668
1.048807,-0.5144344,-0.4507835,-0.3594953,-0.9183039,0.5990174
1.625192,-0.6623586,-0.611514,-0.03163844,-0.2449584,0.6240408
1.825678,-0.7827186,-0.6608158,0.3469585,0.8904887,0.2298266
1.748441,-0.7866254,-0.6673831,0.3173586,0.8210279,-0.009746306
1.764936,-0.6415392,-0.5514311,0.1272718,0.8159516,-0.1580671
1.615273,-0.4997318,-0.3042694,0.1925665,1.218642,-0.4155402
1.305258,-0.3967711,0.01031808,0.07979956,0.7816569,-0.5671623
1.15618,-0.2607642,0.07398682,-0.2091622,0.3441429,-0.4029062
1.092912,-0.1547565,-0.1051625,-0.3256954,-0.4153648,-0.03315558
1.110774,-0.1212819,-0.1624589,-0.3875723,-1.053714,0.2821377
1.142671,-0.2075244,-0.3406545,-0.333208,-0.2085002,0.3630252
0.996392,-0.2800328,-0.4587749,-0.2677698,0.3158323,0.2728624
0.8110303,-0.2507477,-0.2239674,-0.2521215,0.2388698,0.3371408
0.682551,-0.2715538,-0.1424312,-0.1511199,0.2018994,0.4333862
0.594102,-0.2482417,-0.1301995,-0.2258885,-0.2388481,0.3114629
0.5869273,-0.1736066,-0.1329884,-0.397043,-0.2732031,0.2930214
0.6422432,-0.09414655,-0.2728434,-0.5135393,-0.1657054,0.3525042
0.7408509,-0.01786026,-0.2124223,-0.6321627,0.009552961,0.408913
0.7924064,-0.07945762,-0.1495513,-0.6582944,0.5707666,0.5509855
0.7633567,-0.1122428,-0.1381005,-0.7940482,0.6267336,0.5170943
0.7494437,-0.1101323,-0.1060922,-0.9868768,0.4335235,0.5022173
0.7558602,-0.1629094,-0.1825625,-1.022524,0.3572637,0.6543417
0.7845274,-0.1596474,-0.1437528,-0.9848957,0.3526654,0.747853
0.813562,-0.188008,-0.1228098,-0.9257869,0.6004439,0.7899165
0.761455,-0.1834979,-0.1434799,-0.9810564,0.8620598,0.6863308
0.7049231,-0.137228,-0.08067265,-1.065429,0.9418873,0.5578418
0.7516752,-0.1443212,-0.1242299,-1.132386,0.7495489,0.5741185
0.8163695,-0.1006534,-0.1460498,-1.210373,0.6311822,0.5724379
0.8236165,-0.1040614,-0.1556105,-1.181376,0.7530411,0.5211161
0.8127389,-0.2203877,-0.2024081,-1.278398,0.9560474,0.4341757
0.7942239,-0.3723633,-0.1963602,-1.454896,1.223938,0.3541839
0.8602365,-0.511762,-0.2325335,-1.590021,1.107073,0.3142507
1.148419,-0.6678564,-0.2282226,-1.734424,0.7605186,0.1715708
1.496199,-0.9214923,-0.2192578,-1.58465,0.4752017,-0.09587326
1.569505,-0.9692755,-0.2513348,-1.331767,0.0782806,-0.2328298
1.544112,-0.7584198,-0.25975,-1.260926,0.08284269,-0.04698517
1.753478,-0.6212721,-0.3724917,-1.222821,0.4566684,0.1441081
1.79246,-0.4804308,-0.4437496,-1.186182,0.6691951,0.09076973
1.503434,-0.4613021,-0.3054773,-1.023793,0.7486413,0.1331512
1.259786,-0.5494036,-0.1186136,-0.8220002,0.6181502,0.3185098
1.063814,-0.409177,-0.0524109,-0.8100052,0.480599,0.4058703
1.003138,-0.3195576,-0.1359644,-0.9736417,0.4765679,0.509164
0.9117821,-0.2293192,-0.2053397,-1.27287,0.3638141,0.6440829
0.6540009,-0.06672378,-0.2073652,-1.505046,0.3120178,0.7680197
0.6326436,-0.1709563,-0.2274302,-1.622468,0.3247383,0.8940964
0.6033285,-0.2196296,-0.2454623,-1.749624,0.3617704,0.8541317
0.5243296,-0.2372705,-0.2468443,-1.81953,0.5115429,0.7333658
0.6241494,-0.3733322,-0.2272722,-1.817443,0.5207496,0.6144791
0.5978908,-0.3661043,-0.1861597,-1.727902,0.4413301,0.4309558
0.6146857,-0.4181729,-0.1516696,-1.573564,0.390088,0.3600457
0.6658969,-0.4421403,-0.1453035,-1.411728,0.3498789,0.3429606
0.6289876,-0.4009656,-0.1515558,-1.169032,0.4216426,0.2462655
0.7140647,-0.4658487,-0.1323163,-0.9343463,0.4336199,0.1635539
0.7145191,-0.4329244,-0.1207813,-0.8507182,0.272771,0.09959004
0.7014058,-0.4305878,-0.1265308,-0.810169,0.03935429,0.1180843
0.7627921,-0.4478605,-0.1176845,-0.6040516,-0.03235393,0.1621914
0.756796,-0.397256,-0.112152,-0.2801403,0.223961,0.1268908
0.7882483,-0.4212696,-0.0969197,-0.1015181,0.5399381,0.04808682
0.77088,-0.3993244,-0.04214242,-0.07162228,0.748834,-0.1846079
0.7475159,-0.3639537,0.0393523,-0.06353125,0.8971997,-0.446922
0.7745582,-0.3100641,0.08434708,-0.1012815,0.8641402,-0.4674774
0.7606889,-0.2431472,0.003116446,-0.1612097,0.427522,-0.2182088
0.8884888,-0.3319627,-0.2455792,-0.1229693,-0.2480794,0.2641618
1.258714,-0.4961304,-0.5669628,0.1020632,-0.3173764,0.5748232
1.616265,-0.7419247,-0.7411856,0.4051878,0.5642855,0.3532499
1.571952,-0.9703729,-0.7420249,0.5167542,1.25798,0.05163782
1.424321,-0.9573297,-0.6496233,0.4481833,0.8490131,-0.09356311
1.546102,-0.7515318,-0.4010385,0.4013797,0.3979292,-0.4723848
1.462212,-0.4664697,-0.1716378,0.2246949,0.5443051,-0.7535615
1.284077,-0.2730789,-0.09877105,-0.1487879,0.192796,-0.4844814
1.303675,-0.1769789,-0.06793731,-0.4262962,-0.4667131,-0.167292
1.209896,-0.1139118,-0.1700751,-0.5651452,-0.622595,-0.04982467
1.124987,-0.2081443,-0.2883407,-0.6633866,-0.5240369,-0.01234629
1.005075,-0.3179841,-0.238385,-0.7012887,-0.2636507,-0.06734295
0.7815438,-0.2992635,-0.1866498,-0.6320116,-0.1771128,-0.02174036
0.7092523,-0.2692998,-0.1601288,-0.5081087,-0.2107094,0.0465617
0.6634495,-0.216422,-0.1673914,-0.5043873,-0.1625376,0.04757231
0.6967067,-0.155561,-0.2260628,-0.5430729,-0.3496477,0.1026425
0.782326,-0.1350675,-0.2474302,-0.5422906,-0.1863944,0.09585204
0.769824,-0.126364,-0.2558802,-0.5646675,0.1757755,0.1026377
0.8237744,-0.1526242,-0.2185503,-0.5445586,0.2831123,0.1705152
0.847987,-0.167124,-0.1573942,-0.532323,0.4740393,0.1683889
0.8221042,-0.1579747,-0.1520354,-0.5359327,0.4047078,0.1714484
0.7641387,-0.1509813,-0.150463,-0.5320248,0.3492674,0.1515983
0.6061893,-0.1259146,-0.1367584,-0.610756,0.4188566,0.1161432
0.5825093,-0.1471923,-0.1166741,-0.6495329,0.25436,0.1921775
0.7030891,-0.1953463,-0.1044563,-0.5080563,0.2413373,0.3394109
0.7983386,-0.2042919,-0.1210617,-0.2844183,0.2268903,0.4350719
0.8120751,-0.1616849,-0.1243348,-0.2268809,0.345433,0.3360458
0.7783121,-0.08919858,-0.07960771,-0.3640995,0.6789795,0.1279655
0.7982946,-0.09308626,-0.02359646,-0.4390195,0.6736169,0.03290067
0.8007157,-0.1220621,-0.04662882,-0.4152897,0.4193072,0.04540821
0.7809734,-0.1336813,-0.1706031,-0.4015618,0.05089338,0.09397228
0.7909132,-0.2283591,-0.316654,-0.4125568,-0.04082793,0.124651
0.8200236,-0.3461401,-0.3653896,-0.4305821,0.4163192,0.1115386
1.013575,-0.5469051,-0.3236762,-0.5182576,0.8708228,0.01694961
1.335179,-0.8827863,-0.3381739,-0.7565862,1.007997,-0.182755
1.497285,-0.9915477,-0.3471121,-0.8962211,0.8853958,-0.3181254
1.539257,-0.8484627,-0.2634313,-0.7278394,0.4105641,-0.3258
1.676527,-0.8186001,-0.2136655,-0.5168336,-0.5132835,-0.1988865
1.696309,-0.771994,-0.2171114,-0.4483019,-0.9351109,0.1128659
1.522861,-0.5978961,-0.2280887,-0.3305156,-0.2034956,0.342696
1.396531,-0.5255439,-0.2310078,-0.1200265,0.4864389,0.3270979
1.20795,-0.5353291,-0.1922118,-0.008210111,0.5443084,0.2325922
1.054135,-0.5723649,-0.09293074,0.02616662,0.3092371,0.1820868
1.001739,-0.5560528,0.0283355,0.04501952,-0.1032499,0.205093
0.8551985,-0.4232738,-0.009772806,-0.08467647,-0.3940911,0.2288767
0.8333945,-0.2937069,-0.1503641,-0.3610847,-0.593868,0.2519001
0.7894544,-0.1967546,-0.2091448,-0.5071752,-0.6661818,0.3109007
0.6783421,-0.2262643,-0.2553543,-0.4479716,-0.4381307,0.3205911
0.7234713,-0.303285,-0.2324564,-0.431689,-0.1950759,0.2743913
0.6198745,-0.3329791,-0.170223,-0.4268423,-0.05233253,0.1909415
0.5710053,-0.4111587,-0.1562101,-0.3311777,-0.02576498,0.06424496
0.6336636,-0.3846469,-0.07544351,-0.2523294,-0.07135958,-0.0477009
0.5801263,-0.3320598,-0.04838375,-0.1876638,-0.03902006,-0.1345449
0.637933,-0.3002227,-0.07828366,-0.1718528,0.03448239,-0.2164025
0.5905327,-0.1796875,-0.08095374,-0.2366005,0.1136022,-0.2575714
0.4896704,-0.1710811,-0.1310343,-0.3720628,0.03063001,-0.2855304
0.5238307,-0.2139142,-0.08254801,-0.4838705,-0.3418649,-0.35486
0.5407764,-0.2943316,-0.02385489,-0.3200681,-0.841806,-0.3750395
0.6880316,-0.4581502,-0.1036343,0.05429541,-0.9761425,-0.3521508
0.8291014,-0.4803137,-0.1432262,0.4448462,-0.2767117,-0.432847
0.8591052,-0.4108546,-0.1273861,0.6802154,0.5750015,-0.6146167
0.8455201,-0.3304475,-0.08059418,0.5314003,0.7048083,-0.8178735
0.7747724,-0.2243645,-0.03875329,0.2647687,0.3532471,-0.825851
0.8244572,-0.1909482,-0.1355474,0.1601127,-0.3526119,-0.3876122
1.070166,-0.3156134,-0.3676756,0.2028431,-1.082474,0.2119153
1.563308,-0.5447243,-0.6260511,0.5662599,-0.6292921,0.3881944
1.883473,-0.6702655,-0.722101,0.8755565,0.5364641,0.1957575
1.701742,-0.6528466,-0.5982444,0.6529553,0.8327675,0.1242026
1.627813,-0.6423801,-0.3772329,0.4887039,0.5753378,0.05704258
1.658215,-0.671602,-0.1652474,0.7282571,0.2413119,-0.2420899
1.424061,-0.5688717,-0.1284615,0.8188149,-0.1903869,-0.5219477
1.260418,-0.3443554,-0.2170296,0.5990079,-0.2864047,-0.6488401
1.206803,-0.2233583,-0.2075861,0.4139767,-0.4542192,-0.482781
1.082411,-0.1942614,-0.2309829,0.3825192,-0.7022163,-0.1458906
0.9398083,-0.2326019,-0.2821748,0.4367907,-0.5475547,-0.06589565
0.7446798,-0.2784396,-0.2036862,0.5132273,-0.4447242,-0.03926239
0.5920547,-0.2330795,-0.1887177,0.5766628,-0.5217705,0.08045525
0.5441291,-0.2115557,-0.1805658,0.6686076,-0.6514549,0.1765518
0.4950816,-0.1880649,-0.1274437,0.7047393,-0.8675694,0.2731015
0.5301618,-0.1538149,-0.1948482,0.6463682,-0.922682,0.208014
0.637096,-0.1511745,-0.2323953,0.5964993,-0.6129626,0.1009929
0.6737332,-0.1125217,-0.227461,0.5380157,-0.1305832,0.03064294
0.6698943,-0.1118451,-0.1920937,0.5297045,0.1565713,-0.03325486
0.6490663,-0.1133258,-0.1141933,0.5637376,0.2337769,0.144143
0.6404426,-0.06496254,-0.1578767,0.5251442,0.2179664,0.3787429
0.6717145,-0.03067712,-0.2027919,0.4066507,0.2933834,0.4919663
0.6889305,0.001650833,-0.2004577,0.1537506,0.4782807,0.5228659
0.6879423,-0.06184545,-0.1825073,-0.1110441,0.5179387,0.4342402
0.7056179,-0.179284,-0.08888733,-0.2131351,0.3944357,0.3269323
0.7619089,-0.1912388,-0.06919943,-0.2237657,0.2336069,0.1585958
0.8117571,-0.2071095,-0.1590855,-0.2579671,0.3476183,0.01183169
0.8784781,-0.3484993,-0.2972883,-0.4211026,0.6532181,-0.01250995
1.089974,-0.5898268,-0.4146547,-0.571879,0.7475345,-0.1127999
1.342726,-0.7881143,-0.3868141,-0.4705252,0.646036,-0.2334793
1.488114,-0.8923397,-0.2592763,-0.2693609,0.3477757,-0.2750662
1.64766,-1.079603,-0.1033968,-0.03211246,0.07037869,-0.3722439
1.779931,-1.190456,-0.03032283,0.2980401,-0.06286773,-0.5636927
1.725137,-0.9315638,-0.1450244,0.3340349,-0.1289002,-0.5931536
1.683521,-0.5226357,-0.2675551,0.1466783,0.007890592,-0.2856061
1.659009,-0.2874696,-0.2626177,0.2015937,0.1399132,0.07115089
1.403553,-0.3309047,-0.1982807,0.1827266,0.2099202,0.2405444
1.160944,-0.4479927,-0.08487566,0.051083,0.06668442,0.2080691
1.054526,-0.4001703,-0.006646014,0.07955874,-0.3305747,0.09227291
0.8479481,-0.3831747,-0.04709425,-0.01361099,-0.4072566,0.03637436
0.6917564,-0.3705956,-0.08260354,-0.138111,-0.4114962,-0.01449112
0.6766907,-0.2401216,-0.109822,-0.216335,-0.4665959,0.02217251
0.5707984,-0.2145561,-0.1977603,-0.3162005,-0.2522753,0.1084445
0.4471659,-0.2269428,-0.2262804,-0.2584416,-0.102071,0.1073103
0.4786305,-0.2412165,-0.1743444,-0.2321452,-0.02491419,0.08138152
0.5059656,-0.2920516,-0.1472566,-0.2361037,0.006152819,-0.06005228
0.4699951,-0.2616422,-0.1455017,-0.2361807,-0.03160697,-0.183685
0.4784003,-0.2623597,-0.1370534,-0.3495991,-0.0298531,-0.1470319
0.4775709,-0.2719225,-0.1106345,-0.3236486,-0.2355191,-0.1113477
0.5509037,-0.2715383,-0.08915984,-0.1409806,-0.477039,-0.06313345
0.7167995,-0.3145805,-0.128069,0.08407941,-0.4465297,-0.03112149
0.7493063,-0.2914616,-0.1640616,0.2318381,-0.1207938,-0.05481933
0.6851041,-0.2639683,-0.08629823,0.2692538,0.3107054,-0.1849198
0.6370843,-0.2328906,0.03945792,0.3364215,0.3608158,-0.458422
0.6158092,-0.2033058,0.07421455,0.2087802,-0.0420067,-0.5726761
0.7038252,-0.2804248,-0.05680135,0.06065838,-0.6520345,-0.3742212
1.027963,-0.4273929,-0.3762858,0.3099698,-0.9515852,-0.009166976
1.588913,-0.6222643,-0.7068104,0.7917236,-0.3109543,0.2842065
1.941876,-0.7016653,-0.7609777,1.116566,0.7666247,0.2383398
1.817139,-0.5761309,-0.592395,0.8070098,1.223093,-0.04646752
1.663422,-0.4991648,-0.3577305,0.3895126,0.9863601,-0.2548099
1.565995,-0.5361582,0.0431781,0.6156868,0.5757346,-0.373596
1.299652,-0.4697786,0.301064,0.6523747,0.04212678,-0.4786018
1.261315,-0.262476,0.04234239,0.273145,-0.6017585,-0.4678026
1.371648,-0.09656826,-0.2275051,0.01890827,-0.7454067,-0.2513589
1.173297,-0.07885638,-0.2212296,-0.297596,-0.4631573,0.0901343
0.9690682,-0.2078083,-0.2031801,-0.3109289,-0.5239404,0.2374326
0.8276474,-0.3598825,-0.1230856,-0.03299616,-0.5703956,0.1512755
0.7218078,-0.3675925,-0.08222381,0.05064779,-0.4396309,0.1615796
0.8180589,-0.2717907,-0.1642391,0.2028563,-0.5568919,0.2239388
0.818657,-0.1904426,-0.1842637,0.1871085,-0.3571236,0.2534559
0.7894054,-0.132053,-0.1951801,0.02305095,0.02241811,0.3149954
0.8459591,-0.0494024,-0.2052809,0.02458156,0.164543,0.2926529
0.8088257,-0.006397559,-0.1943686,-0.07994859,0.4181555,0.215189
0.7953926,-0.0285664,-0.1683094,-0.1148744,0.5448492,0.1452285
0.7359365,0.04254974,-0.1001747,-0.2036464,0.5511673,0.1213967
0.6503085,0.1060642,-0.09511148,-0.4811549,0.4567525,0.2925157
0.6899964,0.06574612,-0.1139238,-0.6249221,0.2400409,0.5864053
0.7270597,0.07375382,-0.1118002,-0.716517,0.3445983,0.7624788
0.7969512,-0.003784402,-0.103998,-0.6468424,0.5554013,0.7124873
0.9176683,-0.1902593,-0.05842778,-0.5696785,0.739423,0.5017423
0.9379587,-0.2326864,-0.04145692,-0.6367383,0.77066,0.2509464
0.8856394,-0.141076,-0.05022212,-0.5847747,0.4302498,0.1110327
0.8389139,-0.06143207,-0.09242977,-0.6161155,0.09530839,0.2002107
0.7208886,-0.1022212,-0.2288151,-0.6480073,-0.1356513,0.3794048
0.6666462,-0.322911,-0.4387479,-0.6458571,-0.0231346,0.4169497
0.9366087,-0.6732658,-0.6036124,-0.911497,0.6429724,0.1416318
1.2577,-0.884508,-0.5993334,-1.172989,1.128874,-0.2139404
1.330458,-0.8172525,-0.4976689,-1.176132,0.6098085,-0.112868
1.422918,-0.7898387,-0.4046793,-1.021547,-0.4445827,0.02793185
1.731244,-0.8150224,-0.4084797,-0.8738352,-0.6620006,-0.1279784
1.872912,-0.7144868,-0.4547329,-0.7397377,-0.05037714,0.01479046
1.595179,-0.6522572,-0.3864825,-0.6809877,0.6114228,0.1662865
1.294625,-0.5902907,-0.2741288,-0.7138941,0.916988,0.08557519
1.152066,-0.4870768,-0.10987,-0.6081476,0.5835799,0.1648544
1.048518,-0.391186,-0.01904824,-0.6796719,0.2144792,0.2210049
0.9973056,-0.2328505,-0.1693032,-1.008428,0.04739213,0.3565657
0.8764637,-0.173984,-0.2733689,-1.299431,-0.03855455,0.5700074
0.7221268,-0.2301957,-0.280417,-1.582652,0.1886944,0.6078358
0.6394831,-0.2808848,-0.2678562,-1.513979,0.3071115,0.6284421
0.5485554,-0.3770211,-0.1826706,-1.287192,0.4225504,0.5409146
0.5005111,-0.4110324,-0.1439076,-1.23942,0.6659848,0.3876507
0.5028639,-0.3458097,-0.07685235,-1.077814,0.7062183,0.2254733
0.499314,-0.2904671,0.004229788,-1.068419,0.8017431,-0.02121052
0.4953197,-0.2464526,-0.007723696,-1.13139,0.7994593,-0.1929996
0.4738888,-0.2001097,0.004530158,-1.044464,0.6587063,-0.2851995
0.4432772,-0.1395785,-0.0007071426,-1.100025,0.4771996,-0.1933122
0.4356807,-0.0840901,-0.02674254,-1.153091,0.07066856,-0.0178883
0.5303337,-0.06367588,-0.03422939,-1.198479,-0.190672,0.03263097
0.6742792,-0.09381986,-0.09068858,-1.21518,-0.3399314,0.08150571
0.7272771,-0.2102525,-0.1646671,-1.124392,-0.4833587,0.04060154
0.7721563,-0.3573927,-0.237514,-1.085355,-0.2970434,-0.05961198
0.8431277,-0.4234427,-0.2198716,-0.8485215,0.07839174,-0.2186939
0.8488171,-0.4539181,-0.1124687,-0.52851,0.4294561,-0.4967774
0.8284585,-0.5190073,-0.1219096,-0.3487042,0.429779,-0.5090541
0.8805812,-0.5392345,-0.3278917,-0.08215604,-0.163494,-0.1471867
1.179783,-0.5796305,-0.6543618,0.1777508,-0.5623629,0.3319293
1.656984,-0.7044176,-0.8264531,0.4763469,0.09890301,0.5569402
1.832727,-0.774901,-0.7788995,0.8543473,1.011897,0.3908265
1.735103,-0.819132,-0.7577941,0.9569422,1.014094,0.1484981
1.742464,-0.8222616,-0.6117628,0.8694778,0.6863906,-0.3045321
1.648801,-0.6953389,-0.266735,0.7907661,0.4307949,-0.8619946
1.371135,-0.5102038,-0.07751507,0.4977348,-0.158891,-0.865615
1.218196,-0.278884,-0.1260686,0.1375942,-0.594936,-0.5646355
1.184176,-0.1864389,-0.2351932,0.07969578,-0.7521715,-0.3467249
1.148698,-0.2830721,-0.3161324,0.1522876,-0.8339709,-0.1397889
1.049934,-0.2947791,-0.3626354,0.2119922,-0.5398771,-0.1476581
0.8849049,-0.3045528,-0.2842208,0.3127978,-0.2722609,-0.2146143
0.7447185,-0.3100817,-0.1359726,0.4214965,-0.324637,-0.1231231
0.6390137,-0.1948503,-0.1211714,0.466675,-0.4520258,-0.1147146
0.5890167,-0.1473201,-0.1387136,0.3281525,-0.6583941,-0.1178625
0.581503,-0.1246615,-0.1662737,0.2203496,-0.7880506,-0.06247191
0.5841864,-0.08623984,-0.2444472,0.2649625,-0.7764622,0.0004718713
0.6123383,-0.09175518,-0.2505357,0.289504,-0.6747698,0.1772078
0.6206949,-0.07081121,-0.2549855,0.3518203,-0.4325502,0.288717
0.6226432,-0.08550964,-0.2430267,0.4424057,-0.170423,0.253088
0.6157351,-0.113323,-0.1843324,0.5439544,-0.01947152,0.2669683
0.6015286,-0.1403804,-0.1561721,0.6525572,0.03984468,0.3524532
0.6375214,-0.220134,-0.08226052,0.7106272,0.2898676,0.3776497
0.6529101,-0.244793,0.004908887,0.7431211,0.6489696,0.1693205
0.6118742,-0.1999169,0.009514763,0.6308587,0.5244711,-0.1496011
0.5882172,-0.14529,-0.0799581,0.3939621,-0.1490596,-0.2124214
0.6600902,-0.1421984,-0.2581099,0.2201408,-0.6664473,-0.02876281
0.8317075,-0.2320249,-0.4124448,0.2069855,-0.202319,0.1297155
1.055323,-0.4239369,-0.4229527,0.3318021,0.7097875,0.1362641
1.334123,-0.7060473,-0.4010643,0.356252,0.879988,-0.1149424
1.535006,-0.8382192,-0.4413394,0.1425589,0.6623838,-0.4625398
1.574975,-0.7690039,-0.3433659,-0.02514374,0.4521687,-0.4681472
1.603073,-0.7427907,-0.1972902,0.2203569,-0.033735,-0.302317
1.605544,-0.6908531,-0.233492,0.5253832,-0.4784283,-0.2655631
1.494314,-0.5381007,-0.2484802,0.491252,-0.5871024,-0.1318233
1.322903,-0.5018258,-0.1957412,0.6433011,-0.3330156,-0.008044029
1.137327,-0.5501479,-0.1625846,0.9774044,-0.1308939,-0.08870878
0.9903347,-0.4916951,-0.09380272,0.9399351,-0.3383823,-0.2035136
0.9027091,-0.411563,-0.06372502,0.8493957,-0.5720005,-0.2695281
0.8112414,-0.3419426,-0.07686141,0.9022802,-0.7891432,-0.1542868
0.6853633,-0.2251905,-0.09723587,0.8468241,-0.8997767,0.09667618
0.5894082,-0.1837543,-0.1320691,0.75954,-0.7551261,0.1929588
0.5954329,-0.2196225,-0.1361219,0.6289508,-0.7033282,0.1622162
0.6158615,-0.2490905,-0.1374717,0.4668877,-0.634314,0.08545641
0.6038299,-0.2811896,-0.1453564,0.4075646,-0.4560989,-0.05826478
0.6500815,-0.2792625,-0.133711,0.36704,-0.2962346,-0.1891411
0.6602407,-0.2583486,-0.1206238,0.35854,-0.08067293,-0.3106498
0.58336,-0.2522516,-0.08752638,0.3661623,0.00480333,-0.4241591
0.5262085,-0.2318574,-0.03254369,0.3018369,-0.09904423,-0.495103
0.5084582,-0.2378062,-0.02362497,0.2888503,-0.3528207,-0.5403238
0.5907936,-0.2921464,-0.06803018,0.4051627,-0.8029743,-0.4890738
0.7273138,-0.3215407,-0.101337,0.7139056,-0.9558966,-0.4284523
0.7881623,-0.3116988,-0.1142837,1.083606,-0.4645765,-0.5132362
0.8084103,-0.2976823,-0.1087767,1.124179,0.09353384,-0.5920669
0.8385695,-0.2737512,-0.09179477,0.9181035,0.161838,-0.5803428
0.8717026,-0.2615266,-0.1238983,0.758722,-0.1398901,-0.4755633
0.9813996,-0.3830808,-0.2572814,0.7133254,-0.3472466,-0.2194588
1.415917,-0.6901302,-0.4202492,0.9325122,-0.1522574,-0.06494788
1.867181,-0.866844,-0.4220255,1.189915,0.2655125,-0.2148293
1.720543,-0.6318135,-0.3619072,1.020675,0.5011617,-0.3970808
1.543427,-0.3148362,-0.4428849,0.6606337,0.2239691,-0.3679063
1.726992,-0.2790266,-0.4640394,0.4900637,-0.1734093,-0.2114528
1.615042,-0.3801905,-0.3448105,0.5516607,-0.003913017,-0.123383
1.34612,-0.4599918,-0.1954663,0.6930001,0.1014374,-0.3013927
1.191196,-0.4904683,-0.05105567,0.5817194,-0.2236578,-0.5265319
1.027384,-0.3714188,-0.07951029,0.4808269,-0.4272754,-0.3784648
1.065111,-0.2123714,-0.2004955,0.574748,-0.6735562,-0.180355
0.9929683,-0.1873939,-0.2407824,0.4881645,-0.6533585,-0.1362752
0.7495042,-0.1904894,-0.2482685,0.4721343,-0.4289829,0.0599014
0.6812091,-0.1630853,-0.1916229,0.585262,-0.7230828,0.2363861
0.5682495,-0.1858266,-0.1542432,0.5867209,-0.9191403,0.3298855
0.546603,-0.2244279,-0.1737204,0.6103659,-0.9991252,0.3686286
0.6102,-0.2153749,-0.1790233,0.5616902,-1.129671,0.2530848
0.5560362,-0.1737039,-0.2118615,0.5481762,-0.8017998,0.2240279
0.633239,-0.1244839,-0.2010007,0.590612,-0.4745264,0.2275921
0.6984201,-0.1137567,-0.1865922,0.5480336,-0.191668,0.236281
0.7067626,-0.1382604,-0.2248464,0.5555311,0.08427082,0.3953357
0.7362792,-0.1252805,-0.2183296,0.4960819,0.1169108,0.49105
0.6843665,-0.1087751,-0.1822085,0.4086143,0.1945626,0.4451545
0.669924,-0.1124166,-0.09899146,0.3089952,0.03863088,0.3251243
0.6584208,-0.1324271,-0.04334381,0.1817507,-0.3695754,0.2747649
0.7123473,-0.2200471,-0.1139122,0.3014468,-0.5739262,0.3032889
0.8354944,-0.3100366,-0.1713941,0.5160841,-0.2394735,0.2043583
0.8389669,-0.3573359,-0.1684562,0.6736827,0.5128105,0.0002615152
0.8346411,-0.4026059,-0.1862631,0.692708,0.8093693,-0.2028248
0.9132145,-0.4834679,-0.2505268,0.4626205,0.7091094,-0.2449427
1.147423,-0.6104842,-0.3044641,0.273334,0.5398218,-0.261068
1.468708,-0.6900508,-0.2836437,0.2059172,0.06601388,-0.3917986
1.64325,-0.7363898,-0.255801,0.1954833,-0.4081245,-0.3460517
1.772717,-0.7945805,-0.2745361,0.2220344,-0.6122723,-0.2988003
1.872361,-0.7756135,-0.2767929,0.2103372,-0.539969,-0.3411795
1.683651,-0.6847325,-0.2619507,0.2801604,-0.4297461,-0.1917087
1.373896,-0.5950475,-0.2715203,0.4463248,-0.288616,-0.04530761
1.314954,-0.5756528,-0.2550093,0.5879188,0.005780172,-0.03324663
1.2407,-0.5548418,-0.1951192,0.5445266,-0.0897746,-0.04683863
0.9464597,-0.4004402,-0.1184411,0.3783547,-0.3339087,-0.02794198
0.7935321,-0.2687144,-0.07131089,0.3372612,-0.3499169,0.03459264
0.733168,-0.2292153,-0.1080189,0.2235408,-0.4626494,0.09616761
0.5784219,-0.1839466,-0.1360622,0.06144843,-0.4121713,0.1625225
0.485424,-0.1947451,-0.1315861,0.0564277,-0.3018666,0.1374765
0.4507793,-0.2346393,-0.1264409,0.01926356,-0.3325385,0.03172114
0.4417196,-0.2607944,-0.0862638,0.02433698,-0.1956827,-0.06892813
0.478672,-0.2851111,-0.10439,0.04230776,-0.08835227,-0.1944852
0.4927934,-0.2552584,-0.1416528,-0.0695604,-0.0750347,-0.2606091
0.4882995,-0.2281861,-0.1201232,-0.1670077,-0.161388,-0.3245572
0.5059215,-0.2239261,-0.114519,-0.2313347,-0.5037751,-0.3830324
0.548712,-0.2332826,-0.09804395,-0.1345401,-0.807686,-0.3036496
0.6366546,-0.2996281,-0.1165998,0.167616,-0.801051,-0.2730969
0.7619464,-0.3579808,-0.1775938,0.5027229,-0.3532441,-0.3687909
0.8330437,-0.3863774,-0.1710704,0.6819587,0.1931625,-0.5320198
0.8228608,-0.3852879,-0.1318425,0.619396,0.2758598,-0.7294651
0.8260274,-0.3114289,-0.0688715,0.6118939,0.1693843,-0.7635978
0.8448003,-0.2119026,-0.0403959,0.5664308,0.07186664,-0.5534544
0.8702335,-0.2059712,-0.1631949,0.3985737,-0.3427448,-0.1206887
1.078971,-0.3886563,-0.372571,0.5477652,-0.5782138,0.2924325
1.457641,-0.6279164,-0.5192866,0.8281459,0.1856878,0.2551295
1.627776,-0.6898657,-0.5118606,0.9286596,1.011325,-0.02859048
1.524267,-0.6010552,-0.4530439,0.8301104,0.683762,-0.1643142
1.528357,-0.5417159,-0.3839796,0.6211955,0.1779337,-0.317675
1.62258,-0.5262769,-0.2463544,0.6422692,0.0683494,-0.4564551
1.548271,-0.465548,-0.2341684,0.6634747,-0.1438842,-0.4588951
1.452103,-0.3704989,-0.289441,0.5234587,0.01545264,-0.4654925
1.331732,-0.2681345,-0.202802,0.4917511,0.1749236,-0.2838766
1.100621,-0.2379821,-0.1695597,0.4540505,-0.1988581,-0.004734809
0.9670138,-0.2977898,-0.1829917,0.4483502,-0.4036573,-0.006053419
0.871578,-0.2921123,-0.1465337,0.4543118,-0.5142512,-0.06320933
0.7529606,-0.248707,-0.1714855,0.3707461,-0.5856799,0.02082388
0.68911,-0.2218683,-0.1608784,0.3754822,-0.5881273,0.1310336
0.6104687,-0.1937744,-0.1381943,0.4076746,-0.8607247,0.2332691
0.6153586,-0.2172817,-0.182559,0.4995352,-0.9315773,0.2834646
0.6992885,-0.2125235,-0.2253753,0.5886833,-0.7562679,0.2689416
0.7398227,-0.1756207,-0.299267,0.5090411,-0.4825635,0.2841895
0.7553536,-0.1596855,-0.3065323,0.4748198,-0.1165166,0.3292434
0.734321,-0.144256,-0.2320398,0.4904483,-0.105268,0.3161829
0.7360063,-0.1807076,-0.1940775,0.5508376,-0.1547819,0.3242449
0.7318325,-0.217057,-0.1613786,0.7134654,-0.03662362,0.3943329
0.6719173,-0.2016063,-0.1544625,0.7648994,0.03694134,0.4459715
0.6273293,-0.1337898,-0.1291878,0.6539992,0.1616708,0.4386084
0.5776083,-0.04722795,-0.06773251,0.4637826,0.2047575,0.340378
0.5885564,-0.08342212,-0.06929144,0.2597416,0.01612062,0.2250904
0.6761645,-0.1724262,-0.08422587,0.1361661,-0.2757115,0.141712
0.7539479,-0.2179106,-0.09487835,0.1763285,-0.3458293,0.09648135
0.8460068,-0.2886701,-0.1429876,0.2825807,0.02875445,0.0745855
0.9296164,-0.3991257,-0.2408739,0.2865703,0.6556347,-0.01375341
1.05487,-0.5849103,-0.3565986,0.1976573,0.9519561,-0.148343
1.294262,-0.7271038,-0.3713908,-0.02864031,0.5185594,-0.2883019
1.579692,-0.7368601,-0.3292626,-0.1799567,-0.005157962,-0.3246926
1.804044,-0.8117305,-0.3333905,-0.009229976,-0.1300987,-0.2922636
1.833119,-0.8435236,-0.3436936,0.1130511,-0.254629,-0.4047601
1.714754,-0.6632497,-0.3550574,0.03258036,-0.3274844,-0.4131079
1.54882,-0.5156024,-0.3620417,0.05274206,-0.2560575,-0.08909212
1.289472,-0.5076028,-0.3104622,0.2114435,-0.2874694,0.2682708
1.036926,-0.5287754,-0.2085454,0.3077403,-0.2067035,0.3160081
0.9204978,-0.518273,-0.1295943,0.2524197,-0.07919125,0.1488372
0.8740657,-0.4801264,-0.1242694,0.1929136,-0.1510414,0.1650301
0.7509983,-0.4090028,-0.1442155,0.2140606,-0.2119236,0.2943814
0.5382885,-0.2455512,-0.1465184,0.1421716,-0.3242453,0.3640994
0.469329,-0.1572189,-0.1579459,-0.04789086,-0.4127332,0.4022116
0.5554177,-0.2443137,-0.1719427,-0.1267148,-0.3008908,0.2722063
0.5490015,-0.3231779,-0.1748735,-0.07554258,-0.2028644,0.1187069
0.5362406,-0.3897375,-0.1742451,-0.01718029,-0.08386616,0.01500554
0.5895803,-0.4298862,-0.1550202,0.07976536,-0.01042001,-0.1435478
0.6020285,-0.4178479,-0.1308081,0.1968834,-0.02485858,-0.2862973
0.6689506,-0.4399264,-0.1210044,0.2305387,0.02216931,-0.4613164
0.7197509,-0.3947392,-0.117189,0.1891986,-0.1200586,-0.5058937
0.6832351,-0.3107187,-0.132313,0.178085,-0.3651316,-0.357379
0.7038285,-0.2806002,-0.1515132,0.189928,-0.3554189,-0.2208104
0.7386795,-0.2477458,-0.1442891,0.1953088,-0.1949862,-0.1434362
1.28946,-0.3401098,-0.03344974,-0.482803,0.4408276,-0.1243196
1.230088,-0.3184109,-0.0811511,-0.4625431,0.1448617,-0.0441984
1.151546,-0.3288862,-0.1999531,-0.4802418,-0.153005,0.1220222
0.9862747,-0.278534,-0.2339006,-0.550286,-0.2880582,0.1655237
0.8840929,-0.2515039,-0.2657586,-0.4398207,-0.2266948,0.1651756
0.8441277,-0.2662942,-0.2486409,-0.4737947,-0.1322527,0.239694
0.7122443,-0.2167424,-0.2058822,-0.4824344,-0.2446977,0.3667906
0.6418421,-0.2199952,-0.1963239,-0.3972377,-0.2894151,0.4376509
0.6257404,-0.2193503,-0.1828236,-0.4289435,-0.3751045,0.3916814
0.5977683,-0.1777337,-0.2213516,-0.4144657,-0.4476867,0.3869038
0.5845184,-0.150745,-0.2335672,-0.4308993,-0.3464601,0.4326229
0.5672724,-0.1146025,-0.210884,-0.4137519,-0.3862201,0.4579676
0.6978628,-0.1499894,-0.2159229,-0.2631843,-0.2159938,0.5067414
0.8600966,-0.1924122,-0.1694808,-0.109142,0.2461476,0.4453815
0.9134844,-0.2028504,-0.1447185,0.02229607,0.6325956,0.295446
0.8223445,-0.1847108,-0.1252279,-0.1110326,0.8992625,0.2571945
0.6525653,-0.07660304,-0.0313918,-0.3135771,0.8395971,0.323067
0.7197277,-0.03767365,0.01683032,-0.2938775,0.5386546,0.4381398
0.7865098,-0.08860627,-0.06070303,-0.3817902,0.1526788,0.4870184
0.7621506,-0.1241587,-0.2022665,-0.4743826,-0.0494524,0.4025015
0.846351,-0.1685029,-0.2493839,-0.4040923,0.171615,0.305718
0.8344958,-0.225002,-0.2308861,-0.4148208,0.3763391,0.2543766
0.8460047,-0.3045312,-0.2628094,-0.4984214,0.6378951,0.1713204
0.9264641,-0.4315689,-0.2824483,-0.6244861,1.06191,-0.07337992
1.076509,-0.6426285,-0.2594837,-0.7923758,1.159084,-0.3673485
1.418027,-0.7773417,-0.2094567,-0.8425143,0.9988288,-0.3990907
1.610539,-0.7483272,-0.1558736,-0.7390242,0.6438277,-0.2000079
1.663011,-0.7621208,-0.1273595,-0.6544927,-0.01881265,-0.0460563
1.750825,-0.7113547,-0.1874187,-0.6762606,-0.4155083,0.0274288
1.700812,-0.5344617,-0.3296907,-0.6316887,-0.04844181,0.1893252
1.513541,-0.4670668,-0.3610714,-0.4393996,0.504133,0.3339955
1.213372,-0.4881462,-0.2216676,-0.2786461,0.5933266,0.2211867
0.9062253,-0.4781404,-0.03079611,-0.2953994,0.3720843,0.1166206
0.7654813,-0.3882399,0.03159265,-0.4015576,0.01118943,0.2619381
0.6852546,-0.2593252,-0.05577259,-0.4935798,-0.2750767,0.4339673
0.6222629,-0.1759006,-0.1190647,-0.6866146,-0.4544746,0.5839737
0.6397817,-0.1671997,-0.1869023,-0.8821314,-0.6224922,0.641534
0.633207,-0.2500522,-0.2339235,-0.8790227,-0.3634588,0.4897988
0.6003658,-0.3281157,-0.1792051,-0.8440305,0.01130124,0.3441163
0.6072973,-0.3583565,-0.1437967,-0.8199412,0.1394013,0.1964161
0.6008666,-0.3650531,-0.1060723,-0.7424447,0.3622369,0.03529857
0.5981307,-0.3251763,-0.0618647,-0.6991283,0.5229273,-0.0175682
0.5800861,-0.2618322,-0.06876377,-0.70874,0.5973359,-0.1228646
0.524357,-0.2053199,-0.03679969,-0.7633329,0.5620907,-0.2353258
0.4963597,-0.2293059,-0.004661528,-0.7800314,0.2070405,-0.2482084
0.4986401,-0.2801169,-0.02927687,-0.7399474,-0.3781731,-0.164594
0.5822816,-0.2798519,-0.03545871,-0.5704575,-0.7763883,-0.04491394
0.7498677,-0.3349528,-0.03242843,-0.2495907,-0.216083,-0.1478378
0.8481845,-0.3953291,-0.04480739,-0.1795683,0.6274701,-0.2995853
0.8106148,-0.3932431,-0.05840989,-0.35147,0.6355648,-0.2794971
0.8441696,-0.39422,-0.1555992,-0.4712134,0.1230034,-0.1073808
1.213276,-0.4700145,-0.3967542,-0.5330601,-0.7403921,0.3529012
1.728181,-0.716871,-0.6556581,-0.2809593,-1.00848,0.6989448
1.889825,-0.9138991,-0.7377748,0.2366515,0.5336963,0.5139911
1.65297,-0.7397557,-0.598577,0.4214419,1.943052,0.1090091
1.536473,-0.4651829,-0.4207392,0.160585,1.09196,-0.2175496
1.642844,-0.4314904,-0.3592278,-0.01279705,-0.01900125,-0.2825249
1.587692,-0.4158184,-0.3168176,0.1706519,0.2256552,-0.1514787
1.43852,-0.329426,-0.2007337,0.2903126,0.2390716,-0.1814324
1.284539,-0.3305817,-0.1040424,0.2033239,0.05830911,-0.2183731
1.124408,-0.3288305,-0.09534559,0.2003222,0.0397339,-0.0779179
1.134239,-0.3175919,-0.1274973,0.1909294,-0.4873644,-0.02212135
1.067657,-0.2803766,-0.1908558,0.1134996,-0.4529902,-0.0001087054
0.8667292,-0.1800319,-0.2726581,0.05751471,-0.1636506,0.05858064
0.8054023,-0.1674978,-0.2623564,-0.001714215,-0.3050673,0.1245129
0.7564849,-0.1893291,-0.19584,0.0233115,-0.2789756,0.2966188
0.6328704,-0.1912372,-0.1773486,0.05496864,-0.5667253,0.3806399
0.5739287,-0.2015162,-0.1672062,0.014358,-0.679798,0.3480665
0.6288012,-0.1613098,-0.2035003,-0.01075123,-0.347113,0.3071057
0.6487336,-0.09354045,-0.2720938,-0.09651373,-0.2374189,0.2538793
0.617818,-0.04604051,-0.268997,-0.1984462,-0.1685244,0.3032276
0.6947958,-0.08942751,-0.2526924,-0.1934084,-0.1839711,0.3686205
0.7504022,-0.1579272,-0.2385178,-0.07884015,0.102056,0.4245507
0.7204076,-0.1511833,-0.1964841,0.02072255,0.607916,0.4945212
0.6543366,-0.1304087,-0.1419433,-0.1467612,0.7066598,0.4923003
0.5723554,-0.1062936,-0.05717753,-0.3582064,0.6022506,0.4606668
0.6206405,-0.1242858,-0.00996416,-0.3399881,0.3641686,0.3552336
0.7080299,-0.1576355,-0.05074686,-0.4252607,0.1447061,0.2157526
0.7493683,-0.1329675,-0.126444,-0.5589227,0.01047156,0.1405738
0.7951588,-0.1483962,-0.2038265,-0.4649074,0.110691,0.1310092
0.8112748,-0.2470563,-0.2745055,-0.4319041,0.5163616,0.144699
0.9274008,-0.4621306,-0.3418728,-0.5089244,0.759807,0.04127762
1.16652,-0.7132227,-0.3748806,-0.591336,0.7962914,-0.132954
1.394643,-0.7950752,-0.3265936,-0.6958632,0.5288663,-0.2626854
1.625091,-0.8345147,-0.2387026,-0.5510093,0.2162344,-0.3249139
1.819482,-0.9134506,-0.1931119,-0.3609378,0.05481058,-0.3758673
1.864031,-0.8389297,-0.2293166,-0.4444425,-0.3218326,-0.3973358
1.758534,-0.6813372,-0.3073116,-0.417106,-0.4007971,-0.02381434
1.577368,-0.5430134,-0.31959,-0.2016949,0.003839231,0.5409465
1.315608,-0.4099108,-0.2608269,-0.1012153,0.3122277,0.5768509
1.045031,-0.4187677,-0.1947987,-0.234058,0.1712891,0.3215011
0.930754,-0.4566926,-0.1191584,-0.4440657,-0.1324222,0.3174764
0.8165718,-0.3628464,-0.07058888,-0.4101551,-0.1553827,0.4073852
0.616876,-0.2947031,-0.07434583,-0.3570115,-0.3043254,0.4639984
0.5452696,-0.2542878,-0.09844454,-0.4552382,-0.3794066,0.4763294
0.4972683,-0.2212977,-0.114585,-0.435538,-0.2175294,0.3431478
0.4293667,-0.2443687,-0.1092668,-0.424475,-0.2474062,0.182706
0.4649061,-0.2526683,-0.1097475,-0.4470726,-0.05402911,0.05512518
0.4862061,-0.2837866,-0.09717282,-0.4030317,0.2259375,-0.09228041
0.5550291,-0.3079529,-0.07426239,-0.4180746,0.3750925,-0.2549146
0.6302086,-0.2825159,-0.07998777,-0.4348215,0.442436,-0.3704857
0.5765274,-0.2740337,-0.1030747,-0.4853351,0.08475878,-0.3228997
0.5847807,-0.2418301,-0.1291952,-0.5041865,-0.2673545,-0.2473597
0.6492902,-0.2309547,-0.1117616,-0.2897028,-0.3701596,-0.2367976
0.7150315,-0.2840217,-0.09223207,-0.01836626,-0.2649316,-0.2383728
0.7980861,-0.3116248,-0.1254854,0.082601,0.0564189,-0.2909129
0.7994666,-0.2864564,-0.1318861,0.03799731,0.2688629,-0.2736248
0.7741936,-0.2322993,-0.1000927,0.01186999,0.4021437,-0.2202535
0.7641909,-0.2381282,-0.1210387,0.001483612,0.2017366,-0.1248678
0.8499681,-0.3904114,-0.321707,-0.004641058,-0.3092229,0.2236512
1.194959,-0.6179088,-0.5925136,0.1496006,-0.4019477,0.529284
1.586772,-0.7145983,-0.6132283,0.4055079,0.3209179,0.4407874
1.618089,-0.6625073,-0.5082686,0.5545428,1.159588,0.08658523
1.52084,-0.6190609,-0.4995209,0.3912295,0.7643803,-0.1981393
1.75819,-0.5210116,-0.4205828,0.1776815,0.274913,-0.2165566
1.890638,-0.4072086,-0.320955,0.2405458,0.7382938,-0.188185
1.570576,-0.3712535,-0.2445693,0.09114309,0.582458,-0.2409947
1.253299,-0.2595962,-0.04095336,-0.272281,0.1493549,-0.1431902
1.182165,-0.2025528,0.02493154,-0.3662796,-0.09849926,0.09009389
1.23752,-0.2798434,-0.1347634,-0.3728745,-0.5374123,0.2264772
1.16533,-0.265455,-0.2465602,-0.4506125,-0.1755657,0.2357523
0.9936379,-0.2431102,-0.2860203,-0.5773809,0.1976961,0.2009757
0.9112422,-0.263588,-0.2423793,-0.6089101,0.02702948,0.2488923
0.7924965,-0.2357705,-0.1785097,-0.4954019,0.1201908,0.3546446
0.7143395,-0.2373531,-0.1664882,-0.5033295,0.0001329408,0.3580509
0.7081768,-0.2155615,-0.1460542,-0.5380085,-0.1211368,0.2959777
0.6878842,-0.1368612,-0.1869583,-0.5722434,-0.03386651,0.2269568
0.7332503,-0.08735649,-0.2342605,-0.6989388,0.01127832,0.2366358
0.7410657,-0.06054837,-0.2271589,-0.7708711,0.2704211,0.2875011
0.7363179,-0.07132235,-0.2147051,-0.8224253,0.3982401,0.2562339
0.7604625,-0.08912417,-0.1786573,-0.8270109,0.4867626,0.305954
0.7513529,-0.08032818,-0.180386,-0.8321049,0.6132364,0.39097
0.7691845,-0.08871329,-0.1931755,-0.9058646,0.4919555,0.4706616
0.7705774,-0.09095944,-0.1768166,-0.9176972,0.5077499,0.6107279
0.7832288,-0.09579232,-0.1746498,-0.9401821,0.6999689,0.6121542
0.8104721,-0.1125092,-0.1394949,-0.9513777,0.9409318,0.5364075
0.8065744,-0.1087089,-0.0684458,-0.9502847,1.098455,0.4323429
0.8325645,-0.1098493,6.231471e-05,-1.04524,0.9855839,0.265118
0.8315725,-0.09697203,-0.00825941,-1.134157,0.8337653,0.2079066
0.8143391,-0.08493576,-0.09666275,-1.179847,0.62811,0.2375745
0.8357777,-0.183084,-0.2007922,-1.180728,0.450938,0.2791677
0.9220515,-0.4229025,-0.3850154,-1.241027,0.5077145,0.2669992
1.139472,-0.699123,-0.5299731,-1.429605,0.6289043,0.1201717
1.351648,-0.851667,-0.5033311,-1.566509,0.9100703,-0.09235973
1.465128,-0.8941254,-0.4177544,-1.645191,1.110518,-0.2545593
1.582746,-0.9035771,-0.3490244,-1.661214,0.5555453,-0.2987659
1.657772,-0.7653962,-0.4220895,-1.571955,-0.146828,-0.1679644
1.62576,-0.5770234,-0.5300572,-1.483233,0.02191393,0.1542011
1.523464,-0.5663119,-0.4429953,-1.368937,0.6459451,0.382026
1.306142,-0.5510935,-0.3205491,-1.256454,1.131308,0.4073028
1.103791,-0.4932869,-0.1832001,-1.245683,1.258253,0.4403012
1.054143,-0.5340779,-0.0653625,-1.223846,0.774328,0.5067855
0.9789313,-0.4516153,-0.1612532,-1.193232,0.318775,0.6543504
0.8854973,-0.3008165,-0.2426824,-1.383853,0.3145354,0.7236036
0.8615873,-0.2704465,-0.2500457,-1.698376,0.3299779,0.6834826
0.8503209,-0.2311467,-0.315152,-1.796894,0.3607761,0.7710636
0.8532537,-0.2568121,-0.3008751,-1.764446,0.4235563,0.7758661
0.7859248,-0.350515,-0.2467862,-1.764832,0.5119732,0.7222478
0.685593,-0.4123228,-0.1922824,-1.655188,0.6331429,0.6840271
0.6421958,-0.4486834,-0.1215218,-1.468471,0.6156799,0.4835519
0.5908542,-0.3723522,-0.0895747,-1.320617,0.6250355,0.2838804
0.5382941,-0.2987257,-0.01974959,-1.203722,0.6487639,0.07903567
0.5305612,-0.2726698,-0.01195965,-1.153569,0.6628187,-0.09292118
0.5655221,-0.2201741,-0.0642039,-1.138459,0.7090423,-0.1017005
0.5543026,-0.2060261,-0.01814076,-1.120153,0.5952799,-0.107095
0.5428457,-0.1762181,-0.02744822,-1.108193,0.4506297,-0.1061455
0.5841606,-0.1466547,-0.07825911,-1.09804,0.3218947,-0.1086104
0.5970205,-0.1191613,-0.07043273,-1.106316,0.2308229,-0.1867037
0.6964461,-0.1350709,-0.06718805,-1.093183,0.2428819,-0.3293643
0.8255455,-0.2882415,-0.01667319,-1.008577,0.101475,-0.4743023
0.8694291,-0.3941832,0.009059745,-0.8011284,-0.1336434,-0.4717832
0.9154158,-0.4178887,-0.01060681,-0.4442976,-0.1853338,-0.3745084
0.9194077,-0.3859879,-0.01146446,-0.09459466,0.0150058,-0.2716058
0.9119606,-0.3256345,-0.06585833,0.02860917,0.2907389,-0.2148731
0.8914688,-0.3568822,-0.09623764,-0.05400226,0.4287948,-0.3022424
0.823572,-0.3630994,-0.110411,-0.07179206,0.3871714,-0.3316696
0.8015441,-0.4026604,-0.2482133,0.03339386,0.06106879,-0.1010756
0.8930172,-0.503122,-0.4789599,0.1816737,-0.2084837,0.1237337
1.256471,-0.5469324,-0.6954193,0.4217688,0.1343939,0.1248408
1.72142,-0.7146469,-0.7802767,0.6024233,0.6852121,0.2373476
1.79016,-0.8936768,-0.7235923,0.7150133,0.8847348,0.3466558
1.509948,-0.8386046,-0.5233077,0.7711435,0.9554618,-0.3409431
1.257076,-0.6934367,-0.1397908,0.5262845,0.7847162,-1.194339
1.058399,-0.4690484,0.2172363,0.3139683,-0.1538347,-0.949373
0.9942111,-0.1362554,0.2452907,0.3123597,-1.483022,-0.2923448
1.172757,-0.0384184,-0.02367965,0.2002122,-1.981109,0.003725707
1.237275,-0.1841192,-0.2973623,0.1083635,-1.134472,0.1484276
1.106951,-0.2256128,-0.3788164,0.07353406,-0.3145398,-0.01214524
0.9522747,-0.2864469,-0.2229891,0.1190293,-0.4024622,-0.09910472
0.7389734,-0.3387206,-0.05116644,0.2797287,-0.4672243,0.03223224
0.6419329,-0.2231382,-0.08110657,0.2396728,-0.5935957,-0.09811247
0.6510204,-0.1701918,-0.165701,0.08770621,-0.9721696,-0.07050549
0.6619222,-0.09199161,-0.2583051,-0.05849382,-0.9123348,0.1145997
0.7634529,-0.01592365,-0.3228195,-0.1841995,-0.7115247,0.2274716
0.8901836,-0.1254452,-0.2735885,-0.1382242,-0.4746018,0.4294635
0.9770894,-0.2008765,-0.2698972,-0.1021544,-0.08075715,0.4143457
0.9356322,-0.2318581,-0.2546087,-0.08206373,0.1445193,0.3451652
0.8225365,-0.2500541,-0.1410143,-0.01126545,0.3138458,0.2874909
0.7479851,-0.2300421,-0.06572091,0.02863307,0.3005918,0.1650252
0.6680212,-0.2468695,-0.0519933,0.1796476,-0.03526581,0.263959
0.6832347,-0.211681,-0.08655867,0.346406,-0.2222655,0.3084695
0.6903491,-0.154224,-0.1155429,0.3934172,0.008084766,0.2966806
0.6366738,-0.140129,-0.1241502,0.3858432,0.3023681,0.2988843
0.684323,-0.1629204,-0.1696898,0.2948723,0.2094903,0.171662
0.6900801,-0.2102876,-0.2314639,0.1927114,-0.1845554,0.1374863
0.6927535,-0.2040945,-0.2761489,0.1768248,-0.4539577,0.1007157
0.8144891,-0.2153716,-0.2586271,0.3166249,-0.2060734,-0.004142008
0.8930035,-0.249236,-0.2429416,0.4542678,0.4069255,-0.1461727
0.8905027,-0.2558237,-0.2709375,0.2889315,0.829595,-0.3194209
0.9286604,-0.3664116,-0.2547716,0.07058611,0.9455163,-0.3801389
1.106136,-0.5408378,-0.2492074,-0.05383049,0.5703318,-0.4346162
1.243398,-0.5827629,-0.2605063,-0.269728,-0.06990547,-0.3329483
1.326029,-0.5589783,-0.2445815,-0.2799395,-0.1615959,-0.01918591
1.622763,-0.6932958,-0.2525671,-0.02628831,-0.06815489,0.07351729
1.806457,-0.8562312,-0.2347584,0.1951073,-0.1791293,-0.1599436
1.667284,-0.8469865,-0.1705609,0.5110237,-0.1654304,-0.3818005
1.56102,-0.8288259,-0.101844,0.8542762,-0.2262747,-0.2850732
1.432539,-0.735835,-0.08413285,0.9701455,-0.3414584,-0.1328205
1.216549,-0.4560065,-0.1436826,0.9240754,-0.406743,-0.1196731
1.112017,-0.3225923,-0.1609196,0.7847441,-0.546726,-0.006554398
0.9860806,-0.3380577,-0.1333169,0.6776411,-0.6522578,0.0936487
0.7942904,-0.283842,-0.1194484,0.6551769,-0.7464868,0.2171509
0.6768884,-0.2647012,-0.09459124,0.5907042,-0.8103199,0.3949542
0.5562421,-0.2390334,-0.09760756,0.4540474,-0.8310855,0.3514418
0.4934488,-0.2075999,-0.1049449,0.3119032,-0.8037128,0.2642091
0.5348269,-0.2853534,-0.09617372,0.3011118,-0.6782189,0.161131
0.5435498,-0.3363151,-0.1014645,0.333423,-0.5785478,-0.03587238
0.587908,-0.3492596,-0.09568726,0.3384776,-0.4675325,-0.1830636
0.67009,-0.3566417,-0.09316018,0.420705,-0.2557655,-0.4226426
0.7264445,-0.3341837,-0.08663522,0.4410419,0.03252541,-0.6794559
0.7561192,-0.3447231,-0.06432052,0.4042566,0.1372313,-0.7734801
0.6847199,-0.3217027,-0.0618652,0.4104052,-0.181283,-0.6983684
0.6176836,-0.2550929,-0.0778566,0.4835813,-0.6287965,-0.4067012
0.6442798,-0.1619048,-0.09818739,0.7276224,-0.8216173,-0.1215846
0.7056628,-0.09111096,-0.1035491,0.9493398,-0.4779511,-0.1207163
0.7857222,-0.1936269,-0.08845057,0.9055249,0.1213348,-0.3412025
0.8201451,-0.3113462,-0.04726695,0.7022368,0.2922167,-0.5290133
0.8144632,-0.3190523,-0.01350108,0.558413,0.1493846,-0.5775568
0.8881114,-0.3648491,-0.1317816,0.5374188,-0.1194877,-0.3231516
1.151354,-0.4656991,-0.414512,0.6883538,-0.3696793,0.1919687
1.50806,-0.5911273,-0.6213447,1.071106,-0.07861969,0.3246823
1.634063,-0.694623,-0.6015991,1.36297,0.2867096,0.09464253
1.597032,-0.66242,-0.5263425,1.271092,0.1811585,0.009583179
1.663276,-0.5280449,-0.490419,1.085958,0.2406534,-0.04617911
1.595959,-0.396438,-0.2796141,0.9790088,0.6029601,-0.2867937
1.36191,-0.2955521,0.003821489,0.6513103,0.662198,-0.6040406
1.275813,-0.2131261,0.01979218,0.2334342,0.07676182,-0.5799515
1.260996,-0.08457601,-0.08460677,-0.06459827,-0.9443488,-0.2209421
1.239574,-0.03092715,-0.1422292,-0.344689,-1.279594,0.04493123
1.143794,-0.2107683,-0.2506532,-0.376201,-0.5794289,0.1114755
0.9034202,-0.3621807,-0.2760207,-0.3331751,-0.03236082,-0.005241968
0.7993575,-0.3423097,-0.199494,-0.241886,-0.009925061,-0.01312043
0.7574574,-0.3261932,-0.1719335,0.1431117,-0.219568,0.1411647
0.6077626,-0.3230261,-0.1196733,0.2227955,-0.6314236,0.2099671
0.605025,-0.2691355,-0.140734,0.09992431,-0.8821511,0.2896692
0.6906262,-0.1655884,-0.2759006,0.1386984,-0.7897863,0.297317
0.716362,-0.1127726,-0.3005788,0.1246796,-0.4626948,0.2778366
0.8162998,-0.1257458,-0.2946896,0.2037311,-0.003254131,0.2700406
0.8753043,-0.1123477,-0.2621633,0.2414838,0.4343763,0.1224881
0.7652351,-0.1139529,-0.1389852,0.1888081,0.561204,0.08492474
0.681885,-0.09937096,-0.1187674,0.1510354,0.3327455,0.1634073
0.6754262,-0.04748266,-0.1315605,0.05161984,0.2844485,0.3094198
0.7139241,-0.02580684,-0.1143654,-0.03423767,0.4611812,0.5414162
0.7844643,-0.0247332,-0.1178608,-0.1786001,0.5772659,0.5548344
0.7463104,-0.05038437,-0.07194735,-0.3468046,0.5978141,0.3901562
0.7256187,-0.08407093,-0.05994653,-0.5365672,0.4169544,0.2536134
0.8031594,-0.1134688,-0.1055812,-0.62188,0.2212991,0.2105446
0.8196327,-0.1272794,-0.1668749,-0.5567883,0.2107392,0.2427351
0.8177894,-0.1627572,-0.2358475,-0.6338376,0.4789167,0.2153863
0.8417466,-0.3476951,-0.274692,-0.6776046,0.8494903,0.1096192
0.9631993,-0.6082738,-0.320627,-0.7752896,0.8708627,-0.091245
1.208835,-0.7890797,-0.3127671,-0.925638,0.744396,-0.2747611
1.430616,-0.851684,-0.2008908,-0.7831511,0.5535495,-0.3255909
1.630137,-0.8342038,-0.1106566,-0.631736,0.07995586,-0.4361267
1.755881,-0.7521205,-0.1639248,-0.5022079,-0.165308,-0.50457
1.722514,-0.5420849,-0.2564043,-0.4346717,0.1711712,-0.2842186
1.617331,-0.3803758,-0.2067543,-0.470034,0.5522356,-0.03637272
1.427673,-0.4107558,-0.1089492,-0.3317997,0.5454582,0.07087124
1.183582,-0.4281374,-0.01985387,-0.3509087,0.3298216,0.1593925
1.075809,-0.3659198,0.01703625,-0.4783666,0.06699877,0.2057159
0.9990208,-0.2698667,-0.09145914,-0.5758649,-0.1446691,0.252315
0.8007712,-0.1542631,-0.1640417,-0.9483938,-0.2193841,0.3439814
0.6939822,-0.1460372,-0.1941522,-1.179304,-0.2275262,0.4962333
0.6567291,-0.2390459,-0.2255296,-1.142,-0.1595064,0.6747667
0.5853262,-0.312709,-0.1713778,-1.119475,-0.09982914,0.6823768
0.6253315,-0.3660585,-0.1579821,-0.9877844,0.02569554,0.6056401
0.6378258,-0.3759816,-0.1610281,-0.8549916,0.2629154,0.5514016
0.5849363,-0.329527,-0.1496903,-0.7847282,0.2893818,0.4518879
0.5872022,-0.3208804,-0.1678021,-0.7142346,0.216652,0.327154
0.5569805,-0.3518639,-0.1291499,-0.6835773,0.1461786,0.1628347
0.6019437,-0.3961647,-0.1088322,-0.6435933,-0.0653058,0.1024344
0.7546387,-0.4276856,-0.1247124,-0.5610664,-0.1850408,0.1642759
0.8702027,-0.3617737,-0.1365163,-0.2988776,-0.06683176,0.150647
0.9037282,-0.2584882,-0.1474908,-0.05213678,0.2309091,0.1070248
0.8403805,-0.2022221,-0.08001783,-0.1754665,0.5331444,0.04160731
0.8161694,-0.1847875,0.01532397,-0.3571508,0.6293633,-0.1011112
0.8330479,-0.1831124,0.07026476,-0.4227054,0.5913273,-0.2388357
0.8012557,-0.159605,0.0789224,-0.5882303,0.5637858,-0.2941668
0.7794691,-0.1217592,0.08492003,-0.7060678,0.53573,-0.2765717
0.7336581,-0.0797817,0.1242455,-0.6681006,0.5194963,-0.2388209
0.7586077,-0.1295769,0.04909712,-0.5841179,0.4925854,-0.0468986
1.002588,-0.4119777,-0.2653601,-0.3274851,0.1964132,0.3789553
1.40442,-0.8173365,-0.6655863,0.1625247,0.03552416,0.5952897
1.67214,-1.000592,-0.7500957,0.5235759,0.7673206,0.2603195
1.579958,-0.8496523,-0.5818861,0.4869007,1.435527,-0.1360038
1.593909,-0.7082393,-0.5679341,0.3851877,0.8038534,-0.2308772
1.798417,-0.6533016,-0.4933516,0.3627937,0.1774498,-0.4105027
1.6106,-0.5102947,-0.2645334,0.03831462,0.6447992,-0.6128963
1.311913,-0.3643786,-0.08910809,-0.4219962,0.5949113,-0.3820846
1.221592,-0.2205996,0.0331278,-0.7251639,-0.4494759,0.04489178
1.166116,-0.212191,-0.102351,-0.8976126,-1.026217,0.2238383
1.202134,-0.327084,-0.3038643,-0.8760581,-0.6480201,0.1064164
1.134359,-0.3212618,-0.3088649,-0.9251572,0.03005947,-0.06355506
0.9635489,-0.3813105,-0.269143,-0.9096558,0.01587586,-0.06463206
0.8416601,-0.406313,-0.1202911,-0.6641582,-0.3219778,-0.03079416
0.6629591,-0.3006757,-0.1006832,-0.6502407,-0.4028999,-0.03727431
0.6519538,-0.2682936,-0.2308533,-0.6705528,-0.5811262,-0.02453792
0.7313706,-0.159277,-0.2388923,-0.6221707,-0.3625954,-0.05035367
0.725971,-0.1215333,-0.2864215,-0.6063226,-0.07513665,-0.04401188
0.7886242,-0.1941056,-0.2261193,-0.3870008,-0.030651,-0.03494938
0.7848139,-0.1709663,-0.1187656,-0.19048,0.2693667,-0.07079545
0.7347156,-0.1749492,-0.1457847,-0.04962843,0.2871265,-0.04535297
0.671245,-0.1253406,-0.1155488,0.01419321,0.2385923,-0.01492411
0.5566187,-0.04627989,-0.1376698,-0.1051914,0.2112386,0.06078705
0.5785781,-0.04451664,-0.1608611,-0.1543973,0.009401904,0.2153951
0.6624653,-0.06940082,-0.1489241,-0.1638255,0.171579,0.3152977
0.718873,-0.1628593,-0.1609952,-0.1135607,0.35247,0.2979956
0.7320045,-0.2382765,-0.0570468,-0.01569029,0.4620835,0.1102946
0.6970701,-0.2592171,0.0251843,0.03428226,0.4446262,-0.09907909
0.7374989,-0.2266202,0.02499689,0.1038045,0.04078883,-0.1276811
0.8109435,-0.1849699,-0.09292584,0.06260042,-0.2621524,-0.04605527
0.8907787,-0.2265927,-0.3522418,-0.008042573,-0.3111259,0.004147088
0.9711088,-0.3412698,-0.5228119,-0.02151134,-0.1238721,-0.02609553
1.137599,-0.6882707,-0.526981,-0.03888025,0.1336576,-0.1844206
1.496339,-1.080476,-0.4013013,0.01616287,0.3528946,-0.4326471
1.689448,-1.077343,-0.2838364,0.05307488,0.4499059,-0.4790145
1.652002,-0.8564454,-0.2267544,0.07422275,0.08901815,-0.4132072
1.66472,-0.6577169,-0.1858908,0.0974878,-0.3111865,-0.43938
1.566671,-0.4331142,-0.2161981,0.03539017,-0.4480247,-0.1822545
1.351816,-0.3467343,-0.2103292,0.05205471,-0.3259381,0.2506195
1.165537,-0.4342837,-0.1432075,0.194034,-0.08395514,0.4246135
0.9338099,-0.4273312,-0.05843622,0.2973186,-0.1698958,0.4136583
0.7557004,-0.3664718,0.01598751,0.3044625,-0.2372091,0.3190236
0.659629,-0.3132172,-0.02932331,0.2188331,-0.3422548,0.2776935
0.5766922,-0.1725589,-0.1042249,0.07344857,-0.7214345,0.3194115
0.5616834,-0.1454337,-0.1699729,-0.1105365,-0.7759407,0.3387564
0.5583513,-0.2537278,-0.2091695,-0.2126071,-0.6164982,0.3612351
0.5434421,-0.3278621,-0.1293259,-0.1299075,-0.4067176,0.266348
0.57245,-0.3741157,-0.07186186,-0.071172,-0.06673858,0.03354165
0.6343515,-0.3487888,-0.07800005,-0.07899603,0.08635786,-0.1980542
0.7174792,-0.2772166,-0.0648712,-0.0423669,0.1324221,-0.3776534
0.7620217,-0.1833037,-0.0689934,-0.05434483,0.2437685,-0.4949055
0.7332447,-0.08367133,-0.07610818,-0.05525283,0.3200354,-0.5752536
0.6977516,-0.1110447,-0.07051144,-0.03439485,0.2588495,-0.5751639
0.6324489,-0.2303441,-0.07295264,-0.05488634,0.06050406,-0.5344174
0.5235057,-0.3406129,-0.07626345,-0.02355261,-0.3013463,-0.4615311
0.5473755,-0.3815453,-0.078667,0.07139196,-0.6391907,-0.2963305
0.7019799,-0.3878445,-0.07732814,0.3406698,-0.504194,-0.2106956
0.7962109,-0.4717442,-0.07362916,0.7133898,-0.122678,-0.2041702
0.8119664,-0.4963914,-0.0943061,0.8575284,0.04047125,-0.1843836
0.8901243,-0.4752862,-0.2267544,0.8369933,-0.1655064,-0.2007151
1.297187,-0.5876705,-0.4893985,0.9110015,-0.3883296,-0.158779
1.766464,-0.6447607,-0.6420868,1.170777,0.1487682,-0.1476031
1.711615,-0.5882575,-0.5595849,1.371527,0.7469031,-0.325151
1.612883,-0.5148104,-0.4906267,1.132114,0.5207678,-0.4902951
1.770814,-0.335811,-0.4432181,0.7226961,0.2082305,-0.4650317
1.634769,-0.2034753,-0.2486736,0.6150457,-0.04121417,-0.4072829
1.473244,-0.2554038,-0.1187868,0.629648,-0.3795285,-0.4373737
1.433541,-0.2714111,-0.1255139,0.5490457,-0.43626,-0.335751
1.249414,-0.2056725,-0.1583627,0.4999975,-0.4591825,-0.09291139
1.17188,-0.2371275,-0.2398926,0.5475098,-0.4977932,0.04633152
0.9916862,-0.3014897,-0.2266286,0.6543431,-0.4700057,0.06789201
0.7319183,-0.3017134,-0.163582,0.7464548,-0.6727368,0.03822716
0.6849556,-0.27965,-0.1750801,0.8071969,-0.9238793,0.08098425
0.5790808,-0.2094546,-0.1506627,0.8373884,-1.030567,0.1672824
0.5940332,-0.1859723,-0.1703822,0.8243731,-1.072404,0.1705375
0.736836,-0.1969342,-0.2436601,0.7802261,-0.9851321,0.1718098
0.8238295,-0.1242,-0.3180847,0.63745,-0.6913574,0.1588308
0.9626053,-0.1017157,-0.3826828,0.5509437,-0.2268266,0.1993009
0.9130506,-0.1097177,-0.3032189,0.5988417,0.05050438,0.2738622
0.794686,-0.1092763,-0.1867556,0.5870155,0.02468451,0.2380215
0.6860329,-0.1456703,-0.08672222,0.6055194,0.009898037,0.2828589
0.5122882,-0.1309082,-0.0001289124,0.6177556,-0.04030986,0.4069198
0.5554902,-0.1124181,-0.03891445,0.5000648,-0.1561506,0.4790011
0.6617917,-0.1058789,-0.06245984,0.4078478,-0.2145731,0.4815769
0.7461534,-0.1261942,-0.1043568,0.3858021,-0.2738804,0.3066791
0.8203454,-0.1946378,-0.2180389,0.4005476,-0.2034651,0.05835697
0.7679398,-0.2085926,-0.2294969,0.4371741,-0.05433789,-0.08906157
0.782408,-0.2257737,-0.2469104,0.4965399,-0.04253803,-0.1027284
0.8175853,-0.3001904,-0.3091002,0.4817497,0.1522403,-0.09300751
0.9061171,-0.5221688,-0.3153793,0.4000176,0.7197896,-0.2121652
1.169215,-0.8338421,-0.313307,0.3839218,1.098965,-0.4251334
1.388352,-0.841499,-0.2749027,0.2204148,0.8833205,-0.560155
1.586982,-0.7225221,-0.1757261,0.05170266,0.4372671,-0.457856
1.720452,-0.7885192,-0.06727136,0.1908047,-0.01100278,-0.2885877
1.609196,-0.734527,-0.03249777,0.3084417,-0.5470199,-0.2061558
1.482296,-0.5988131,-0.07946939,0.3563755,-0.7912109,-0.03750273
1.436841,-0.5780538,-0.1249047,0.5598761,-0.7090473,0.1805045
1.279228,-0.50443,-0.2033638,0.6692421,-0.6540797,0.2684111
1.104127,-0.4485198,-0.2297475,0.5379935,-0.5312131,0.1481373
0.9898896,-0.4304578,-0.1265883,0.442118,-0.5154895,0.003096426
0.7983855,-0.3777021,-0.06547345,0.4424718,-0.6889215,0.04845284
0.6657187,-0.3915717,-0.05096779,0.4200252,-0.7725294,0.09197352
0.6402257,-0.3632164,-0.06511803,0.4448204,-0.7571054,0.1049263
0.5847869,-0.2996578,-0.1148137,0.4574529,-0.5609299,0.1210309
0.5616132,-0.2908267,-0.1015038,0.4422761,-0.3465612,0.02007511
0.5232465,-0.2543992,-0.09773106,0.4351077,-0.2994573,-0.08671767
0.4863147,-0.2522021,-0.0930385,0.3566777,-0.219489,-0.2170358
0.5198391,-0.2779435,-0.0513564,0.335971,-0.09425465,-0.3604113
0.5170968,-0.2833333,-0.05293815,0.343955,-0.02909897,-0.4190996
0.5289435,-0.2816466,-0.06044807,0.3305196,-0.1460528,-0.4462244
0.5541334,-0.2261312,-0.1038228,0.4443273,-0.3986152,-0.4183638
0.5617117,-0.1929579,-0.1505724,0.6016094,-0.542487,-0.4248146
0.6337536,-0.2450758,-0.09739023,0.7354304,-0.3507736,-0.4906211
0.6897145,-0.2976875,-0.01597664,0.8477483,0.0381677,-0.6101164
0.6920783,-0.2785262,0.01454467,0.901483,0.08945133,-0.8083439
0.7306944,-0.2649029,-0.08055269,0.8066709,-0.1184339,-0.7775371
0.9249094,-0.3436292,-0.3379595,0.607833,-0.4433631,-0.4163429
1.366227,-0.4767803,-0.6062501,0.6985979,-0.707842,0.08527981
1.795996,-0.6190574,-0.6698062,1.031658,-0.133428,0.3566355
1.872349,-0.6244032,-0.6386837,1.147967,0.5336548,0.10562
1.859083,-0.5334624,-0.7253261,0.922351,0.2890309,-0.1860613
1.96165,-0.5416831,-0.6861338,0.5889671,0.2746522,-0.4321108
1.73286,-0.5008888,-0.3534595,0.4912221,0.6315077,-0.8514471
1.336726,-0.4072419,0.01946386,0.5462384,0.1695733,-0.7842657
1.28714,-0.3562842,0.0997461,0.5174963,-0.5704217,-0.3601128
1.297789,-0.2289396,-0.1444115,0.4718057,-0.7791521,-0.178533
1.210675,-0.1496666,-0.2800239,0.4828341,-0.5416959,0.02156297
1.089707,-0.1845945,-0.2420919,0.5145242,-0.180023,0.06057139
0.8701881,-0.197187,-0.221822,0.4883533,-0.3080801,0.001448956
0.7528266,-0.1974867,-0.1311587,0.4857985,-0.5049506,0.1955019
0.7328822,-0.2033792,-0.1191749,0.4901211,-0.5091153,0.2110878
0.6806242,-0.187014,-0.1852535,0.3681729,-0.8164928,0.183316
0.6491632,-0.1383305,-0.2111375,0.2515833,-0.823731,0.267905
0.6402109,-0.09553857,-0.2662166,0.2222619,-0.5885744,0.229388
0.6637807,-0.09134419,-0.2202761,0.2937181,-0.4147577,0.224873
0.6733325,-0.1075185,-0.1239153,0.3997608,0.05033173,0.08541898
0.6322175,-0.1354757,-0.05562338,0.4267608,0.2928182,-0.06543283
0.5690442,-0.1467305,-0.007576592,0.4072666,0.2844798,0.05118027
0.5190408,-0.1085583,-0.0683163,0.3033369,0.2292034,0.1548246
0.5570225,-0.05583524,-0.110948,0.1909445,0.0749125,0.171682
0.6310228,-0.07281462,-0.1596732,0.1434519,0.09720605,0.1278792
0.6879593,-0.1184087,-0.2574948,0.0947257,0.1781688,0.0749921
0.7662177,-0.1576359,-0.3205897,-0.0003025178,0.3817891,0.07170231
0.8889199,-0.3107885,-0.4377124,-0.14867,0.5892893,0.01738794
1.18154,-0.607355,-0.4830337,-0.1355137,0.6423574,-0.2037905
1.586774,-0.9813008,-0.4142488,0.02143698,0.7740413,-0.51235
1.752049,-1.178439,-0.3629462,0.2285186,0.6210859,-0.5421964
1.709006,-1.051283,-0.1811807,0.6095207,0.1905075,-0.4979234
1.729599,-0.866207,-0.002545228,0.837098,-0.06356479,-0.5969234
1.643619,-0.6207929,-0.08382639,0.7751241,-0.09924358,-0.3432575
1.377095,-0.3582134,-0.1425713,0.7971401,-0.02299244,0.06147464
1.178448,-0.3654294,-0.06640787,0.8497875,-0.08744601,0.1399653
1.037861,-0.4024744,-0.07452584,0.6813411,-0.3750436,0.1865578
0.8794485,-0.3310774,-0.06830785,0.4548735,-0.7954718,0.2840773
0.6960566,-0.2795878,-0.03602082,0.379677,-1.086312,0.2758334
0.5671183,-0.1988416,-0.09511297,0.2684914,-1.031851,0.2800459
0.6081129,-0.2070257,-0.12012,0.09677518,-0.9074571,0.2806671
0.617475,-0.2686499,-0.1272925,0.09440236,-0.7165906,0.2391326
0.5801837,-0.2743578,-0.125088,0.1289256,-0.374327,0.2000849
0.6260079,-0.3128927,-0.06511155,0.127316,-0.161545,0.08477721
0.6112394,-0.3249475,-0.05539584,0.176013,-0.06927524,-0.06990205
0.6047098,-0.3135311,-0.04961231,0.17234,-0.04502914,-0.2010791
0.6432253,-0.2886042,-0.05771502,0.1222442,-0.05788275,-0.3433459
0.6218642,-0.2216071,-0.1065092,0.06231355,-0.007682189,-0.4326259
0.5910511,-0.2157779,-0.09110603,-0.003873429,-0.1281412,-0.4293551
0.554724,-0.2590676,-0.08669001,0.03382683,-0.4572214,-0.3815323
0.6161433,-0.3131169,-0.09671565,0.2721855,-0.6376141,-0.3455245
0.7519063,-0.3337256,-0.08118126,0.6063308,-0.3208297,-0.3500156
0.7603466,-0.266837,-0.07078601,0.6758929,0.3152271,-0.3624061
0.7071758,-0.1925332,-0.004973974,0.4714138,0.5368664,-0.3890258
0.7074003,-0.191854,-0.0023925,0.2462204,0.1977659,-0.3675631
0.9350311,-0.3396777,-0.2382841,0.01702325,-0.5301794,-0.07346526
1.489883,-0.5935303,-0.5276991,0.1197192,-1.035148,0.338389
1.861462,-0.7489809,-0.5624558,0.646794,-0.03755644,0.3509628
1.647462,-0.7231865,-0.4803511,0.9790802,1.188948,0.08878776
1.464152,-0.6110394,-0.4381647,0.9358815,0.656377,-0.00364524
1.718824,-0.5030439,-0.2482722,0.8407355,0.1259204,-0.09147356
1.775269,-0.433924,-0.1435495,0.8558437,0.4183198,-0.3932802
1.569276,-0.3920692,-0.2079011,0.6795036,0.1578453,-0.6880659
1.469553,-0.2637926,-0.1046517,0.3291857,0.03855412,-0.5845592
1.294151,-0.1347888,-0.06406803,0.3793016,-0.1046753,-0.170819
1.142394,-0.1844007,-0.1408063,0.5073955,-0.7505299,0.05607672
1.048175,-0.2538424,-0.1204699,0.4795203,-0.6522604,0.1118015
0.8995299,-0.2698734,-0.1596971,0.6020458,-0.4858861,0.1127164
0.8278151,-0.2466032,-0.1869629,0.5114154,-0.6870155,0.1604861
0.7323035,-0.1531835,-0.1546689,0.3379279,-0.6654266,0.3654786
0.6989126,-0.1559481,-0.1729075,0.3286358,-0.9075861,0.3698389
0.7517155,-0.1898924,-0.2043531,0.2031255,-0.9613843,0.2772116
0.7570179,-0.1598906,-0.2742549,0.0992945,-0.6449612,0.2811941
0.8192255,-0.1681442,-0.3068336,0.06202597,-0.401386,0.2527143
0.8383803,-0.1526316,-0.2611933,0.07460993,-0.1246796,0.3132346
0.807699,-0.1525673,-0.2130802,0.1605603,0.07200949,0.336857
0.7435482,-0.1740706,-0.1503556,0.1524748,0.2167639,0.4032853
0.6121087,-0.1288711,-0.1231044,0.03447435,0.114661,0.6187133
0.6312792,-0.1139825,-0.1559298,-0.1329757,-0.07939933,0.7993834
0.7581507,-0.1334744,-0.1916647,-0.1478001,0.0006355464,0.9557196
0.8338737,-0.1564399,-0.2167357,-0.08495713,0.04396599,0.900968
0.8340576,-0.1926254,-0.2180192,-0.1639822,0.2310723,0.6893634
0.7950091,-0.2162855,-0.1580029,-0.1718089,0.4818051,0.4191023
0.787576,-0.2399493,-0.08526714,-0.1465331,0.4283315,0.07920581
0.7184182,-0.2522169,-0.1014604,-0.1786354,0.4004138,-0.03110989
0.6432732,-0.2927238,-0.1628564,-0.1581556,0.4871914,-0.06687225
0.7211167,-0.3884956,-0.2274816,-0.1956692,0.6377646,-0.1315537
0.9462745,-0.5443774,-0.3202683,-0.2724557,0.7934943,-0.1610079
1.254077,-0.7206135,-0.3708022,-0.3617816,0.7187955,-0.3045103
1.467316,-0.7839463,-0.3267273,-0.4024931,0.5773085,-0.3715203
1.638233,-0.855966,-0.1838318,-0.2197067,0.508078,-0.4759546
1.804679,-0.9105422,-0.06639699,-0.05958816,0.1841497,-0.6328126
1.66124,-0.6652336,-0.1863556,-0.09607906,-0.2520776,-0.373101
1.426632,-0.4367594,-0.333092,-0.03411259,-0.1565763,-0.01070667
1.315438,-0.5120132,-0.222746,0.1897015,0.2784907,0.03591908
1.551297,-0.780382,-0.1394775,-0.6344186,0.667684,-0.4462932
1.839362,-0.7830421,-0.1526428,-0.7576279,-0.3313319,-0.3684585
1.921649,-0.79054,-0.2096414,-0.5667897,-0.4871629,-0.1695872
1.796472,-0.7105412,-0.2107153,-0.2727571,-0.1842608,-0.001656346
1.541048,-0.6163519,-0.2423108,-0.2011547,0.06890252,0.08532371
1.27927,-0.617425,-0.1498416,0.0001291057,0.4183527,0.04332746
1.044505,-0.5470999,0.0524331,0.1688337,0.314085,-0.007040498
0.9769689,-0.3757759,0.04958289,-0.06006593,-0.0780959,0.003776415
0.9258792,-0.2865149,-0.005340241,-0.2032123,-0.2069993,0.02447886
0.7540939,-0.2146047,-0.002450439,-0.2710794,-0.3256866,0.1555861
0.6621098,-0.1517425,-0.06442347,-0.4439614,-0.3037392,0.2699547
0.6150253,-0.2048175,-0.07020342,-0.4791637,-0.1712246,0.2596968
0.5583907,-0.2327206,-0.06574488,-0.6013741,-0.1650068,0.2157397
0.5226485,-0.2154763,-0.1101794,-0.7033498,0.05972778,0.06547453
0.5148229,-0.2299229,-0.09274159,-0.6351989,0.2986602,-0.1464867
0.5364702,-0.2069838,-0.06720959,-0.7190478,0.3963202,-0.3714142
0.5190537,-0.2261184,-0.04545978,-0.7881261,0.5494489,-0.5516274
0.5246006,-0.2833585,0.001659342,-0.744388,0.2913206,-0.5558706
0.5593374,-0.2912122,-0.001070912,-0.679527,-0.2360236,-0.4716825
0.6483212,-0.3244048,-0.04404973,-0.4347379,-0.4172207,-0.3403599
0.8357835,-0.3514311,-0.06435992,-0.08151141,-0.1619373,-0.2380056
0.902213,-0.3653438,-0.06125374,0.06651005,0.3615385,-0.2403059
0.8505323,-0.3884966,-0.08758157,-0.02149522,0.493074,-0.1557157
0.9230982,-0.3982838,-0.2456328,-0.03907213,0.03694139,0.1188602
1.242228,-0.4694251,-0.4913509,-0.008249753,-0.2796181,0.4050344
1.65824,-0.5702615,-0.6044191,0.06746315,0.07546855,0.4348049
1.764233,-0.6350772,-0.5781098,0.2488993,0.5669964,0.2772506
1.688282,-0.6006699,-0.5193669,0.19848,0.513474,0.148423
1.832435,-0.4983213,-0.3981163,0.1235235,0.4799523,-0.05772944
1.847224,-0.486198,-0.2814731,0.1847513,0.4939983,-0.3133832
1.487683,-0.4052258,-0.1398806,0.01424236,0.1533171,-0.3945405
1.207902,-0.223369,0.04879075,-0.2254281,-0.1680377,-0.3451659
1.197642,-0.1765271,-0.05980364,-0.333731,-0.5614468,-0.1450799
1.202583,-0.1866025,-0.3185056,-0.2962602,-0.6639138,0.2320661
1.013064,-0.2060722,-0.2886966,-0.1816258,-0.3479474,0.3325318
0.7898411,-0.2566071,-0.2297139,-0.1471367,-0.2847221,0.2050171
0.7035371,-0.2425815,-0.2288032,-0.06212216,-0.2485155,0.320966
0.6049567,-0.2175212,-0.1436896,-0.03309176,-0.3437252,0.3805959
0.5763323,-0.217353,-0.1571515,-0.09172444,-0.5898993,0.332399
0.6143654,-0.2009245,-0.1960719,-0.07337992,-0.5539887,0.3575074
0.6145367,-0.185198,-0.2139695,-0.1140048,-0.431603,0.2673846
0.7041965,-0.1733678,-0.2316349,-0.0587523,-0.09964141,0.2515477
0.7333479,-0.1620369,-0.1419441,0.07522035,0.3259834,0.239373
0.700273,-0.153455,-0.0724538,0.04694193,0.5681863,0.1541434
0.6814099,-0.1330171,-0.03189727,0.03673377,0.6870007,0.2238229
0.596547,-0.08596052,-0.001979001,-0.007398613,0.5202997,0.2597407
0.6172691,-0.04355988,-0.0448347,-0.1742597,0.2641028,0.352816
0.710038,-0.05918029,-0.1047314,-0.3015824,0.02670292,0.5474201
0.7871873,-0.113673,-0.2087017,-0.3243324,-0.1136054,0.5787776
0.8310297,-0.1880186,-0.2566179,-0.2582892,0.1321784,0.4882408
0.7617935,-0.3084446,-0.1872717,-0.2659069,0.5568066,0.2666224
0.761916,-0.4453765,-0.156044,-0.3673751,0.9640553,-0.006738124
0.9205034,-0.5925918,-0.2070665,-0.48144,1.094994,-0.2100032
1.189832,-0.7094728,-0.2512787,-0.6410615,0.7689367,-0.3523887
1.504582,-0.7228229,-0.2192191,-0.7126637,0.3208299,-0.3418991
1.716454,-0.7636521,-0.2011284,-0.4860628,-0.09651924,-0.1594948
1.78872,-0.7981072,-0.2181299,-0.1268833,-0.2925107,0.06762546
1.743444,-0.6743259,-0.2300866,-0.04887282,-0.1536684,0.125258
1.673209,-0.591161,-0.257059,-0.02876155,0.00868237,0.06852451
1.498691,-0.5872741,-0.1863424,0.1719557,0.179312,0.07235863
1.183613,-0.5224429,-0.07558261,0.1681814,0.2228555,0.04885866
1.072101,-0.4554041,-0.0539588,0.0474357,-0.03696936,0.05842142
0.9996485,-0.3589318,-0.02394523,-0.06027702,-0.2443998,0.1682374
0.7493819,-0.2341082,-0.002275115,-0.2152482,-0.4297984,0.2744218
0.6786369,-0.1742003,-0.05625573,-0.2914583,-0.6546678,0.3327301
0.6471529,-0.1651418,-0.1240463,-0.4711004,-0.6745035,0.298327
0.5533785,-0.2180687,-0.1628743,-0.5734042,-0.5234186,0.2000639
0.6247792,-0.3193782,-0.1567256,-0.4768295,-0.1910997,0.03184851
0.6412098,-0.3713065,-0.1204989,-0.4653359,0.0867739,-0.1866121
0.6320963,-0.3676822,-0.09428841,-0.3735111,0.1584024,-0.2943441
0.6399794,-0.3475759,-0.07838634,-0.3057609,0.2092865,-0.2985229
0.5108885,-0.2868989,-0.07631482,-0.3919379,0.09861705,-0.2221652
0.4719685,-0.2132525,-0.06871178,-0.3989756,-0.1197738,-0.1055392
0.5117953,-0.1915457,-0.03888071,-0.3618964,-0.3041873,-0.1067191
0.563349,-0.2218487,-0.0552804,-0.2936069,-0.382282,-0.143332
0.7284205,-0.2810851,-0.09007945,-0.1915315,-0.1493817,-0.1677363
0.8482461,-0.3263726,-0.08268451,-0.09692608,0.2369446,-0.286228
0.8092354,-0.2996534,-0.06783134,-0.08463399,0.4804229,-0.4059182
0.6885683,-0.2096563,-0.02823705,-0.243739,0.3411313,-0.3893192
0.6514607,-0.1828071,-0.04823317,-0.4025174,-0.1187268,-0.08179831
0.8109938,-0.3316524,-0.2881858,-0.3403519,-0.4256889,0.4714996
1.339469,-0.5907376,-0.6299758,0.08371462,-0.1886801,0.7401638
1.966545,-0.7616066,-0.7363521,0.519057,0.6425608,0.5384581
1.964981,-0.7684431,-0.6046185,0.4356812,1.261399,0.3059234
1.790154,-0.740417,-0.5457879,0.2550826,0.9281157,0.06976969
1.861557,-0.6571237,-0.3781288,0.3299073,0.4591029,-0.3205655
1.486989,-0.4466036,0.02419164,0.1759857,0.4648203,-0.5194623
1.058948,-0.2772916,0.141653,-0.2229064,0.02334193,-0.4298344
1.118769,-0.2151704,-0.03690239,-0.5457092,-0.745548,-0.09610518
1.184154,-0.1432439,-0.2021929,-0.6721628,-0.721247,0.3774499
1.188255,-0.06689708,-0.4069229,-0.5445242,-0.3238074,0.4209468
1.063234,-0.1514742,-0.425532,-0.4789118,-0.03139089,0.2501872
0.7671276,-0.3279551,-0.2364904,-0.3643952,0.1972244,0.3544238
0.6238014,-0.3276856,-0.1714289,-0.01060619,0.07975753,0.3490788
0.5533426,-0.2780854,-0.1151054,0.0448826,-0.06917995,0.2761585
0.5379928,-0.2752059,-0.09021948,-0.06147818,-0.1357981,0.2751184
0.6153857,-0.1658014,-0.1797244,-0.03915486,-0.06858741,0.1148265
0.6665689,-0.07599169,-0.1611429,-0.1141189,0.2070381,0.05791925
0.7090633,-0.03302785,-0.1721993,-0.2145122,0.1901226,0.1785282
0.704114,0.01066983,-0.2305887,-0.3249086,0.1931949,0.2943894
0.7225274,-0.03768093,-0.2122945,-0.3550685,0.4740559,0.4204583
0.7360545,-0.07585979,-0.2265652,-0.3705741,0.7568517,0.4395905
0.6373699,-0.1009293,-0.1493152,-0.5634564,0.936599,0.3752361
0.5802018,-0.1669653,-0.06230403,-0.6222096,0.6730992,0.3520239
0.642128,-0.1806777,-0.09192852,-0.5631936,0.3009744,0.3420106
0.7746303,-0.1576259,-0.09122298,-0.5831436,0.2143644,0.3013654
0.8362178,-0.1275979,-0.1459808,-0.6259457,0.3377166,0.2039321
0.7871107,-0.1464562,-0.255784,-0.760688,0.7439711,0.1455611
0.7825883,-0.3052745,-0.288725,-0.9332446,0.9524738,0.15241
0.8947429,-0.5715846,-0.2709177,-1.06056,0.7027785,0.03844899
1.150318,-0.7801191,-0.2709404,-1.130021,0.3057733,-0.2635805
1.439108,-0.8230057,-0.2643084,-1.0837,-0.04693891,-0.4893135
1.637756,-0.840686,-0.2283913,-0.9234155,-0.1511079,-0.4156936
1.839617,-0.8165322,-0.2710243,-0.6898461,-0.05528452,-0.3410633
2.006923,-0.6161869,-0.3302469,-0.5504665,0.1506057,-0.3783247
1.869341,-0.3981558,-0.3096042,-0.6312025,0.3685994,-0.091825
1.491721,-0.2740766,-0.2122065,-0.7161552,0.3896162,0.3861128
1.232936,-0.2322726,-0.07505085,-0.6988541,0.3369655,0.571958
1.061448,-0.2650764,-0.06279135,-0.8450847,0.3869116,0.5835705
0.8563442,-0.2897428,-0.085759,-1.10759,0.4024784,0.6544211
0.7045212,-0.2410787,-0.07766465,-1.278426,0.2109149,0.7497515
0.6336877,-0.1697466,-0.1751439,-1.463578,-0.005459663,0.7670149
0.6250415,-0.1900184,-0.2310442,-1.569362,-0.03443477,0.66944
0.6127831,-0.2733259,-0.2118985,-1.497532,0.106414,0.5153656
0.6088176,-0.368599,-0.1983276,-1.359382,0.3456631,0.3712974
0.5845157,-0.4173044,-0.1174072,-1.138148,0.531947,0.2791831
0.5281545,-0.339227,-0.06684373,-0.9457109,0.5667395,0.1828599
0.5242938,-0.282952,-0.07386139,-0.872315,0.4332145,0.0813216
0.5012117,-0.2820518,-0.06087187,-0.8226649,0.2918625,0.05264521
0.5121291,-0.2679676,-0.05936724,-0.8029088,0.2097006,0.07231448
0.5752646,-0.2807687,-0.04082129,-0.7696189,0.06702364,0.1071471
0.6440471,-0.2689098,-0.03007119,-0.6897934,0.02631219,0.1213501
0.7748736,-0.2713997,-0.05308588,-0.6605223,0.1271373,0.1080616
0.8425469,-0.2978089,-0.05576177,-0.6156957,0.2932298,0.01723222
0.8567608,-0.2993823,-0.04156395,-0.456945,0.5179818,-0.1637157
0.8495134,-0.3234838,0.01461738,-0.2532988,0.6711972,-0.267638
0.7763065,-0.3173977,0.07316004,-0.1513853,0.7238251,-0.3177243
0.7175243,-0.2610176,0.03377251,-0.2293818,0.5690222,-0.3044314
0.7118872,-0.2217128,-0.1120728,-0.2693546,0.1540476,-0.004862592
0.972798,-0.3282459,-0.3588185,-0.1736731,-0.1149009,0.375654
1.461838,-0.608461,-0.5991075,-0.03346813,0.276291,0.3742722
1.732983,-0.7966205,-0.6650593,0.1762597,0.9073372,0.1048416
1.740955,-0.7598867,-0.616096,0.1584048,0.9083382,-0.04356179
1.714664,-0.60713,-0.5185445,-0.09580579,0.7030391,-0.127775
1.612304,-0.4540802,-0.2322037,-0.223496,0.6648078,-0.2547509
1.351173,-0.3735953,0.09516728,-0.467394,0.1875744,-0.3559721
1.24168,-0.351293,0.1072235,-0.7760682,-0.626937,-0.3065467
1.401502,-0.2990672,-0.104807,-0.8303865,-0.9589213,-0.0875687
1.469187,-0.2035471,-0.2663189,-0.9548096,-0.3445595,-0.04170854
1.364052,-0.223641,-0.3106493,-1.095588,0.2708121,-0.09903492
1.102905,-0.3149998,-0.2515283,-0.9262065,0.09050803,-0.02365344
0.7408545,-0.3253549,-0.1620807,-0.7079348,0.03004107,0.0008763247
0.6294709,-0.305115,-0.1081217,-0.5977136,-0.01142469,0.03869373
0.6737359,-0.218947,-0.1259681,-0.5525924,-0.4522676,0.0762904
0.6139861,-0.1076341,-0.2013049,-0.6264058,-0.4540255,0.1006803
0.6584321,-0.05311495,-0.2279896,-0.6761948,-0.3111308,0.2371256
0.7607849,-0.0297305,-0.2277325,-0.6557739,-0.311196,0.3036022
0.7578166,-0.06389176,-0.2222727,-0.6521047,0.0984314,0.2927171
0.7789431,-0.06339384,-0.1598304,-0.6132011,0.5215654,0.2479923
0.7067967,-0.04295224,-0.127779,-0.5979126,0.6138796,0.2087762
0.5472833,-0.06352531,-0.1098427,-0.6237151,0.5360128,0.263862
0.5216668,-0.07093086,-0.06729446,-0.6133817,0.4136817,0.3071185
0.5927768,-0.147713,-0.04744434,-0.5409137,0.4197589,0.3508703
0.7521496,-0.2463462,-0.005171046,-0.2922027,0.5190704,0.3644346
0.8564664,-0.2641761,0.01825652,0.03307352,0.7576573,0.3050774
0.7524787,-0.2051872,0.02820879,0.1007217,0.943061,0.1644458
0.626951,-0.09917628,0.05950007,-0.1272053,0.7152103,-0.07678083
0.6131351,-0.07539429,0.05112276,-0.2990373,0.2121885,-0.1486408
0.7173779,-0.1551343,-0.03442257,-0.2397393,-0.4276015,-0.006293276
0.9374183,-0.3464019,-0.3354837,-0.2285969,-0.6724395,0.06037352
1.234138,-0.6271863,-0.6787849,-0.3700305,-0.03081879,-0.05507632
1.424111,-0.8054867,-0.6310434,-0.4800285,0.6639032,-0.3066696
1.496349,-0.8971578,-0.325628,-0.486767,0.6979858,-0.5522518
1.694569,-0.978333,-0.1599104,-0.3917256,0.229625,-0.5858451
1.84799,-0.8482868,-0.2070571,-0.239866,-0.4991779,-0.456546
1.809673,-0.4648744,-0.3613585,-0.06871819,-0.8079713,-0.2668504
1.75537,-0.2390316,-0.4395941,0.04497665,-0.1916401,0.1571335
1.619606,-0.390758,-0.3454204,0.09878383,0.4841051,0.4265734
1.435017,-0.5594782,-0.2237971,0.2452326,0.3401861,0.1534732
1.250622,-0.5945088,-0.09555961,0.3793284,-0.07809351,-0.05609367
0.9737331,-0.6653693,0.05237266,0.4368099,-0.3325878,-0.04757081
0.8441184,-0.458263,-0.04562777,0.4660326,-0.5300116,0.04413683
0.8187507,-0.06155192,-0.2614868,0.2702469,-0.4458415,0.3298431
0.7095121,-0.1534652,-0.2224231,0.03226108,-0.3739824,0.4111521
0.7380304,-0.2951477,-0.1625322,0.02691235,-0.3782222,0.3543723
0.6799784,-0.1875722,-0.1595,0.0685087,-0.1261874,0.360721
0.5038477,-0.3305766,-0.01586202,0.1044571,-0.1275381,0.2028214
0.5725743,-0.3401485,-0.0006323288,0.1595459,-0.3330283,0.0808915
0.6165749,-0.2484319,-0.07548602,0.197194,-0.3937534,-0.04117968
0.6272806,-0.3750982,-0.04404339,0.2320925,-0.4228212,-0.2490444
0.7155575,-0.3156223,-0.08965782,0.25664,-0.1698604,-0.3592068
0.7032388,-0.2880353,-0.1145869,0.302825,0.1412211,-0.49754
0.6785802,-0.3157316,-0.05938282,0.3197424,0.1611833,-0.5533542
0.5776929,-0.1750772,-0.01701423,0.2780133,-0.03671447,-0.4783414
0.5204216,-0.1278486,0.01949537,0.1830425,-0.3745631,-0.4461403
0.5918008,-0.06833916,-0.01560832,0.05411899,-0.5235212,-0.3943377
0.6215626,-0.03843442,-0.03141375,0.01194958,-0.4529661,-0.413456
0.7472152,-0.119963,-0.01549103,0.02226145,-0.3703873,-0.4783284
0.8414956,-0.1805559,-0.02256531,0.1024063,-0.2715262,-0.4619342
0.8605398,-0.3004202,-0.003032193,0.3410102,-0.1618418,-0.471642
0.917574,-0.3403717,-0.02607088,0.5439318,-0.1422905,-0.5009988
0.8519309,-0.3022491,-0.1071218,0.5430292,-0.1997229,-0.4762933
0.8527374,-0.3513802,-0.2773846,0.4340962,-0.1119077,-0.2948746
1.07725,-0.4453191,-0.4872608,0.4067284,0.04130531,0.002338587
1.353168,-0.5532566,-0.5525173,0.5573947,0.1946379,0.186988
1.563633,-0.5747105,-0.5628948,0.7390224,0.3333432,0.3375553
1.793943,-0.5497223,-0.6315856,0.7216034,0.4295834,0.3695787
1.957878,-0.5523629,-0.5624486,0.6093754,0.7449727,-0.02598378
1.584922,-0.4802503,-0.1053676,0.5725233,0.7770067,-0.5194119
1.125745,-0.3764669,0.4024728,0.4172889,0.01358403,-0.6325517
1.26544,-0.2806961,0.2985393,0.1718558,-0.9676233,-0.3746332
1.424554,-0.1402751,-0.08846705,0.06690549,-1.263738,-0.08616487
1.355991,-0.05953618,-0.2455895,-0.05592196,-0.6042069,-0.04187661
1.269505,-0.1340268,-0.3942071,-0.1983104,-0.05697582,-0.03902776
0.9675115,-0.223269,-0.2851684,-0.05057275,-0.08965603,0.02761233
0.6972767,-0.2657106,-0.006411162,0.2671038,-0.2214055,0.0947538
0.5872064,-0.3088301,-0.09454972,0.3692819,-0.5836874,0.2015604
0.4735492,-0.2592815,-0.1404817,0.3028177,-0.966452,0.1720718
0.5389257,-0.1870162,-0.1707924,0.2866591,-1.071547,0.1511665
0.6787569,-0.1818586,-0.3510806,0.2842007,-0.8149851,0.2973343
0.7960587,-0.1763755,-0.313441,0.2979475,-0.2713719,0.3505551
0.9055768,-0.208796,-0.2856471,0.3734072,0.08001102,0.3201737
0.8262158,-0.2228942,-0.223547,0.4545537,0.2781024,0.2690534
0.7375061,-0.179271,-0.085275,0.4873302,0.26751,0.2522976
0.6834397,-0.1409892,-0.09056849,0.4431445,0.1036575,0.3382368
0.6051406,-0.1039258,-0.02613158,0.377063,0.1126556,0.3848979
0.6701129,-0.1172984,0.01484994,0.2997448,0.009621428,0.3520326
0.7145812,-0.1355144,-0.02871433,0.1934808,-0.1419253,0.2890902
0.7937157,-0.1278129,-0.1011809,0.09136638,-0.2049784,0.2566498
0.9696999,-0.1427287,-0.2014279,0.01829048,-0.05085194,0.186359
0.9480346,-0.1343013,-0.1904812,0.03008196,0.3674748,0.06982086
0.8564764,-0.1393696,-0.1800442,0.0005367615,0.3799817,0.06416754
0.8323603,-0.1936253,-0.1777671,-0.1154238,0.192412,0.05303569
0.8776541,-0.3471065,-0.1921482,-0.1331622,0.1818037,-0.01750145
1.043038,-0.5922074,-0.2582832,-0.1834972,0.07311095,-0.1381279
1.14872,-0.6838829,-0.2826614,-0.2953517,0.06854814,-0.2861412
1.210257,-0.6440791,-0.3118978,-0.2193234,0.1061975,-0.2289256
1.406305,-0.6860131,-0.2482677,-0.01969222,0.04405895,-0.1403168
1.652113,-0.713552,-0.1574654,0.212283,-0.1199685,-0.1867535
1.657764,-0.6286779,-0.1696415,0.4322587,-0.4172329,-0.178672
1.489089,-0.5493203,-0.1365306,0.5771231,-0.3417346,-0.2066158
1.462809,-0.5461237,-0.08281623,0.7822694,0.1434903,-0.3070237
1.365274,-0.5133268,-0.05728531,0.8765563,0.4224332,-0.3291522
1.168557,-0.3478347,-0.01143186,0.6954747,0.07264301,-0.2329127
1.079267,-0.1683991,0.03366896,0.5716411,-0.5083619,-0.003446424
0.930497,-0.1319059,0.0007179249,0.5026289,-0.5223604,0.2166038
0.7862774,-0.1463797,-0.06722769,0.3016188,-0.3873615,0.2921907
0.6574627,-0.1203781,-0.04270264,0.06673574,-0.4244387,0.2849798
0.547838,-0.1552744,-0.02667176,-0.1317972,-0.1978092,0.2327312
0.5671621,-0.2280632,-0.0376334,-0.1870534,-0.01703419,0.1566719
0.5536647,-0.2385613,-0.009440948,-0.195371,0.06724861,0.08470972
0.6047299,-0.2070505,-0.009792564,-0.278088,0.2627298,-0.003739749
0.6945366,-0.1361148,0.009584256,-0.3056685,0.3828469,-0.1608604
0.6841953,-0.09950098,0.03299405,-0.3968488,0.4070235,-0.359761
0.675644,-0.1622211,0.002795553,-0.5642897,0.1295905,-0.4266064
0.6312007,-0.2386674,-0.01476716,-0.5767181,-0.320083,-0.3136774
0.6618165,-0.3001434,-0.01742665,-0.3782866,-0.4885669,-0.1662499
0.7380537,-0.346372,-0.03773957,-0.02495253,-0.4052946,-0.08348643
0.7504448,-0.3908148,-0.08976397,0.2016085,-0.1320225,-0.06392603
0.7496666,-0.4078188,-0.1271362,0.1577045,0.2684863,-0.1041773
0.6310994,-0.3127608,-0.1187605,0.09281424,0.4688639,-0.1943742
0.5306253,-0.2323232,-0.1405865,0.06908825,0.1723084,-0.1801496
0.6966688,-0.3064853,-0.2475235,-0.03069412,-0.3877746,0.1133192
1.351255,-0.4902328,-0.5040242,-0.07238274,-0.5520128,0.5220718
2.073188,-0.6440524,-0.7899116,0.1670802,0.1861088,0.6220594
1.982305,-0.6121696,-0.8105891,0.4296387,1.188115,0.430488
1.764995,-0.5393541,-0.6682784,0.3542982,1.213131,0.144586
1.858017,-0.5822288,-0.3375131,0.3048375,0.9658049,-0.3975802
1.368083,-0.52785,0.3346925,0.4332438,0.7471334,-0.7424321
1.043831,-0.3332922,0.508885,0.2622782,-0.4634097,-0.5024653
1.408135,-0.1238646,-0.01116867,-0.06853737,-1.139997,-0.2638722
1.410305,0.02151784,-0.3017768,-0.258477,-0.6670516,-0.008683191
1.222063,-0.08057367,-0.4110012,-0.3336964,-0.4046664,0.3142813
1.088683,-0.2632857,-0.3346982,-0.1343259,-0.01323325,0.263789
0.8029828,-0.3373515,-0.04041301,0.1477196,0.1330177,0.2493242
0.6925038,-0.3902201,-0.07415529,0.2663143,-0.2414849,0.35884
0.616597,-0.2646963,-0.09269174,0.2467126,-0.3371137,0.2044453
0.5880705,-0.08694688,-0.06870544,0.05937117,-0.5084582,0.1234135
0.6751811,-0.04400343,-0.1959624,-0.1225032,-0.5238447,0.215162
0.6846828,0.04004325,-0.1683548,-0.3295199,-0.1074011,0.2852457
0.7436047,0.07615461,-0.2247476,-0.5695061,0.2368203,0.3404778
0.7183727,0.03284198,-0.2295559,-0.6514111,0.4743216,0.3246512
0.6454914,-0.02623053,-0.1122821,-0.6762423,0.4596776,0.3369865
0.6516465,-0.118405,-0.09831614,-0.6046445,0.3350919,0.4142917
0.6454664,-0.1513103,0.001783005,-0.4735652,0.202883,0.4458986
0.7817402,-0.1519857,-0.01445199,-0.4172297,0.03079084,0.4380874
0.952224,-0.1245841,-0.1004957,-0.4005213,0.3398614,0.3805737
0.9911185,-0.07673937,-0.07607335,-0.4498564,0.8548603,0.2753389
0.9470479,-0.03518256,-0.07708149,-0.5152377,0.9767258,0.1693935
0.8539935,-0.004674033,-0.006831397,-0.6976289,0.8253581,0.1033983
0.7739457,-0.06012812,0.01716408,-0.8726236,0.6277575,0.08561511
0.7233292,-0.1386502,-0.0319675,-0.825415,0.4669504,0.09584617
0.7700368,-0.2981506,-0.1501969,-0.9194489,0.09040314,0.0584212
0.9389043,-0.5951826,-0.4215125,-1.120745,-0.1768474,-0.1596453
1.261072,-0.8631582,-0.4918686,-1.157855,0.3979318,-0.4043337
1.556663,-0.9958073,-0.3852133,-1.198934,0.8845985,-0.3651064
1.608505,-0.914629,-0.3985536,-1.157186,0.1696275,-0.1295159
1.763585,-0.7083674,-0.4189504,-0.9653167,-0.430245,0.08982905
1.891307,-0.4866862,-0.3978147,-0.8775141,0.2223892,0.2341851
1.628165,-0.3662975,-0.3562446,-0.9044066,0.8243413,0.179897
1.392963,-0.4680832,-0.2524322,-0.9459331,0.7524414,0.1096151
1.297593,-0.4917561,-0.1542772,-0.9364714,0.605088,0.2657212
1.172812,-0.4011641,-0.1259389,-0.82313,0.3051529,0.4246176
1.054487,-0.3795979,-0.1326268,-0.787714,0.1770672,0.5855779
0.8893586,-0.2694226,-0.1473068,-0.9494777,0.3261474,0.717029
0.7751152,-0.1990452,-0.1831954,-1.189536,0.2724979,0.6844146
0.711483,-0.2231259,-0.2087138,-1.309619,0.2573111,0.7609891
0.6779313,-0.2320882,-0.1951544,-1.280862,0.3076732,0.7902157
0.7186726,-0.3597223,-0.1597029,-1.271006,0.3698515,0.6269527
0.6738451,-0.4395718,-0.1216348,-1.21495,0.4841174,0.4948287
0.638991,-0.397454,-0.0933616,-1.109679,0.3134352,0.3404568
0.6667727,-0.4019888,-0.07257411,-0.976988,0.1486813,0.2375322
0.6490283,-0.381512,-0.04762749,-0.726952,0.2940808,0.1308571
0.6852481,-0.3333289,-0.02172821,-0.6130999,0.4024203,-0.03856778
0.6874509,-0.2900681,-0.0231903,-0.6528159,0.3578128,-0.1093351
0.6649942,-0.2297595,-0.03517166,-0.6664545,0.284205,-0.1756886
0.7165983,-0.1746135,-0.02032287,-0.688565,0.1981769,-0.1968306
0.7279678,-0.1634749,-0.008926341,-0.6662733,0.1704217,-0.2142761
0.7632676,-0.2090694,-0.008694612,-0.6368764,0.2641235,-0.3511888
0.8044494,-0.2172482,-0.01199141,-0.6219411,0.2878223,-0.4333957
0.7947404,-0.2184215,-0.02358643,-0.595388,0.1807175,-0.4368979
0.8376087,-0.2409272,0.009792385,-0.5189606,0.09953533,-0.4376862
0.886437,-0.241319,0.08121078,-0.3100782,0.09446465,-0.5258848
0.902313,-0.2744345,0.1113341,-0.1428086,0.1285144,-0.6771517
0.8751503,-0.2796132,0.07993269,-0.1094082,0.0992264,-0.7054258
0.8224434,-0.2695676,0.01028811,-0.08483878,0.05673135,-0.6411976
0.8145505,-0.324842,-0.1077227,0.05009604,0.009514706,-0.4768044
0.8875671,-0.4674331,-0.3779978,0.4068001,-0.08376369,-0.1248488
1.148807,-0.7166597,-0.7373033,0.8592954,0.05183158,0.1181577
1.428495,-0.8220803,-0.8257602,1.072175,0.5882793,-0.07104042
1.452045,-0.7443063,-0.5988688,0.940273,1.015816,-0.2591695
1.522923,-0.6899338,-0.4271115,0.7869398,0.4822028,-0.09382552
1.717292,-0.5431678,-0.3778356,0.7452577,-0.2468513,-0.1205384
1.505004,-0.3804968,-0.2269114,0.5852968,-0.07245339,-0.4400099
1.152129,-0.3313025,-0.003067735,0.2880687,-0.3670952,-0.5897601
1.181451,-0.2355911,0.04356307,-0.01337708,-1.251506,-0.4170645
1.203872,-0.1505125,-0.1251549,-0.07111554,-1.194152,-0.07823896
1.120869,-0.138179,-0.2506109,0.02738303,-0.8543801,-0.02204456
1.049203,-0.1913976,-0.2346905,-0.05360715,-0.6359208,-0.1060985
0.8028509,-0.316606,-0.1790353,0.0260347,-0.3567727,-0.005130501
0.6417844,-0.3291692,-0.1114622,0.2481159,-0.5041007,0.02703207
0.6812664,-0.2579137,-0.1039636,0.243031,-0.6491888,0.07151252
0.7292473,-0.221816,-0.1421229,0.2566389,-0.7160204,0.1347074
0.8018521,-0.1637158,-0.1751998,0.2253905,-0.7259128,0.1615464
0.9036849,-0.1126739,-0.26591,0.09161138,-0.4414792,0.3339479
0.9682621,-0.08215777,-0.3076352,0.06074856,-0.272891,0.445062
0.9382986,-0.1053597,-0.2600045,0.07843131,-0.01762696,0.4479424
0.8941473,-0.1616603,-0.2121269,0.1667019,0.2004793,0.3882101
0.7971476,-0.1531171,-0.1266791,0.2435371,0.05186481,0.2455093
0.6336269,-0.1483282,-0.05926766,0.3209982,0.03793666,0.14742
0.6026282,-0.1435009,-0.06158572,0.4365138,0.09532373,0.06221469
0.6125815,-0.1187263,-0.07378752,0.4254675,0.07821788,0.06299721
0.6036184,-0.127362,-0.1024521,0.4015507,0.101663,0.1104022
0.6509292,-0.1380949,-0.1360208,0.4191432,0.09546604,0.08110237
0.7089683,-0.1636933,-0.1489532,0.4408921,0.1046265,0.04428012
0.7468186,-0.1755983,-0.1666704,0.4746828,0.1437508,-0.05316611
0.7129741,-0.1721148,-0.1833209,0.4040009,0.2820588,-0.1143748
0.7198855,-0.2599564,-0.2108777,0.2155636,0.3762918,-0.07465857
0.8841694,-0.447409,-0.2995451,-0.02965665,0.1965183,-0.09129328
1.189782,-0.6506301,-0.4147463,-0.2004581,-0.0467678,-0.1497108
1.5591,-0.8051077,-0.4454401,-0.2239179,-0.09232929,-0.1975106
1.800419,-0.9814394,-0.3496091,-0.065244,-0.02764571,-0.2201384
1.886115,-1.07621,-0.2447393,0.3284819,-0.04719129,-0.2677138
1.770274,-0.8452163,-0.2124323,0.665528,-0.05668489,-0.3318336
1.48962,-0.5212386,-0.1582268,0.7863026,-0.01882059,-0.2171484
1.341632,-0.4106689,-0.08126659,0.8835656,-0.02658106,-0.06593657
1.280993,-0.441792,-0.0718267,0.9103877,-0.1002386,-0.1174618
1.162303,-0.4077254,-0.08635328,0.8048081,-0.3915569,-0.1234129
1.064009,-0.2707061,-0.08760603,0.7372464,-0.6861917,-0.02024015
0.9859224,-0.2804825,-0.1159906,0.7229021,-0.5936045,-0.03730569
0.8574754,-0.3359363,-0.1498199,0.6259328,-0.3740549,-0.06998743
0.6768916,-0.2462609,-0.1443139,0.4963715,-0.2667333,-0.06003464
0.5576975,-0.2497417,-0.1059358,0.4463835,-0.1470913,-0.07492596
0.4913061,-0.2870825,-0.05028251,0.4221504,-0.1955871,-0.06099305
0.4667811,-0.2833206,-0.02586471,0.3987871,-0.3568819,-0.09157634
0.5327916,-0.3198047,-0.0459257,0.4227042,-0.3217236,-0.1760252
0.5509551,-0.2657286,-0.04747183,0.4443577,-0.3019719,-0.2649165
0.5407024,-0.2080446,-0.05214503,0.4430933,-0.2973561,-0.334721
0.5361413,-0.1730289,-0.07270122,0.4446303,-0.2428668,-0.2897193
0.502932,-0.1042533,-0.06370755,0.418212,-0.3424773,-0.2683074
0.5568278,-0.09534916,-0.06272408,0.3872002,-0.5191054,-0.3699475
0.6234548,-0.1199368,-0.07570256,0.3575932,-0.7270388,-0.4507556
0.7045109,-0.2208982,-0.07960638,0.3724281,-0.640583,-0.481973
0.8455394,-0.3252085,-0.0833688,0.5426426,-0.1984357,-0.4835177
0.8486844,-0.2961697,-0.04753473,0.6863662,0.10561,-0.4687695
0.7659919,-0.2889414,-0.03348501,0.6104694,0.1154509,-0.3491331
0.8519137,-0.3996905,-0.1919474,0.5879143,-0.4702264,0.02890914
1.249862,-0.5365851,-0.4243262,0.8819955,-0.8640451,0.3632887
1.722471,-0.6266232,-0.5302384,1.137507,0.1987885,0.262222
1.779461,-0.6583608,-0.5709523,1.019827,1.16727,0.08864776
1.704525,-0.5678951,-0.5762365,0.9100048,0.5223036,0.132774
1.845912,-0.442135,-0.4332612,0.9451008,-0.003945409,0.01140965
1.607074,-0.4759197,-0.1650819,0.8258254,0.4327336,-0.2530632
1.146338,-0.5036333,0.1153558,0.6784527,0.2084708,-0.5082397
1.133779,-0.4012461,0.1418169,0.5980509,-0.5927677,-0.6464933
1.220312,-0.2521529,-0.1238604,0.5427414,-1.030517,-0.2829672
1.217266,-0.1049012,-0.302109,0.5645609,-1.141767,0.04784376
