accx,accy,accz,gyrox,gyroy,gyroz
0.9638116,-0.2382863,-0.5311934,-0.09214456,0.04336452,0.06125029
0.9855932,-0.3647313,-0.5792606,-0.08204077,0.1562237,0.2431819
1.053044,-0.5326911,-0.583176,0.1151911,0.2107323,0.3804917
1.187,-0.6640613,-0.5706888,0.2711305,0.4594405,0.352402
1.324301,-0.664053,-0.4533289,0.3955536,0.8041533,0.1566974
1.450021,-0.6706579,-0.2343813,0.3559922,0.7792205,-0.2186716
1.438421,-0.6679171,-0.1033,0.2251453,0.3139442,-0.7172179
1.313812,-0.5247538,-0.1645171,0.1655029,-0.167404,-1.05818
1.206395,-0.3934851,-0.2507827,0.09215954,0.03202664,-1.060346
1.014952,-0.2745619,-0.2115676,0.01667162,0.3094729,-0.9235144
0.8081257,-0.170831,-0.1456595,-0.07165892,0.04872946,-0.7577386
0.6993546,-0.213804,-0.05953627,-0.1240755,0.0001433663,-0.4182174
0.6123524,-0.2220385,0.02502819,-0.06959575,-0.0277782,-0.0802024
0.612138,-0.182919,-0.02149555,-0.001895686,-0.2253632,-0.05292181
0.6222343,-0.1910961,-0.04844251,0.07248295,-0.2499449,-0.1063402
0.555841,-0.1278792,-0.07464692,0.008097894,-0.5581761,-0.08388853
0.5696813,-0.09829682,-0.163647,-0.2089067,-0.7931534,-0.220137
0.60585,-0.1428733,-0.1471891,-0.3647381,-0.7167739,-0.4448372
0.6514489,-0.1860544,-0.1368684,-0.5298555,-0.8283833,-0.6099118
0.7754252,-0.2687366,-0.1577159,-0.5603865,-0.9106683,-0.6662032
0.898528,-0.3008131,-0.1843486,-0.3162617,-0.964726,-0.5801437
1.023836,-0.2491385,-0.3022217,-0.1085185,-0.8253531,-0.5332111
1.053141,-0.1759504,-0.354413,-0.1050227,-0.3287293,-0.5537738
0.9864499,-0.1013738,-0.3012378,-0.2074097,0.0490794,-0.5990403
0.9546011,-0.06232582,-0.216722,-0.2618483,0.2042691,-0.7122305
0.9181557,-0.1005062,-0.1605665,-0.3031794,-0.03335795,-0.7022284
0.9533267,-0.2753977,-0.2373289,-0.3026525,-0.5412618,-0.3823882
1.097465,-0.4474369,-0.4587462,-0.1218993,-0.9362995,0.2362449
1.207854,-0.3957079,-0.774175,0.05343776,-1.084741,0.7851171
1.21461,-0.3073769,-0.927812,0.1133353,-0.7270123,0.8316638
1.269837,-0.3541117,-0.7746172,0.03359873,-0.4361519,0.694928
1.506758,-0.3235741,-0.6442216,-0.04878974,-0.5009849,0.6840059
1.600539,-0.2782365,-0.6841795,0.1197962,-0.3383172,0.4559232
1.446609,-0.3042181,-0.6396674,0.2282731,0.03646979,-0.01504327
1.33519,-0.2157858,-0.5234567,0.1479597,0.6444745,-0.4429925
1.231734,-0.1923584,-0.4883277,0.1405514,1.072325,-0.622502
1.064132,-0.2174737,-0.4320095,0.1770879,0.7561397,-0.4387854
0.7951985,-0.0871838,-0.3535035,0.1854971,0.4166477,-0.2250014
0.5748689,-0.02430251,-0.3295791,0.1459815,0.2709104,-0.08741047
0.6582025,-0.001992707,-0.3004379,0.1210596,-0.1084789,0.1779525
0.6762548,0.09727518,-0.2116434,0.147208,-0.4365854,0.3626037
0.6012971,0.1279343,-0.1546114,0.1727414,-0.5852084,0.4634964
0.7670137,-0.02180293,-0.2290621,0.2544973,-0.5097016,0.5624441
0.8379966,-0.2441894,-0.2904838,0.3738773,-0.2314771,0.6345582
0.7734176,-0.266863,-0.3043092,0.4313104,-0.07321409,0.7555932
0.7930658,-0.2196008,-0.3199599,0.4405297,0.1975606,0.7034988
0.8041216,-0.213226,-0.2933874,0.518084,0.5034493,0.6240797
0.8386957,-0.1184603,-0.3241966,0.5797086,0.5728417,0.6325626
0.8593352,-0.1022085,-0.3432914,0.4932506,0.7186861,0.4764699
0.8923693,-0.1669424,-0.2979376,0.3744297,0.808781,0.3932129
0.9621951,-0.1791651,-0.2841031,0.2287135,0.824009,0.275574
0.9423306,-0.1565094,-0.2467214,0.1066676,0.7282907,0.03970417
0.9344296,-0.107229,-0.2404357,0.06072645,0.3097579,0.006410835
0.9497274,-0.1043728,-0.2874039,-0.05291414,0.1037614,-0.004287196
0.9461377,-0.1525724,-0.3356352,-0.144207,0.1394937,0.01103866
0.9683041,-0.2224374,-0.3919276,-0.1425624,0.1470847,0.1168942
0.9595354,-0.3037801,-0.4238069,-0.09172148,0.2309042,0.1834341
0.9508581,-0.3628947,-0.4694156,0.01123075,0.3282162,0.229834
0.9809273,-0.4175404,-0.4966375,0.05673279,0.4434507,0.198137
1.13543,-0.5075946,-0.45838,0.08368876,0.4718748,0.2260608
1.469349,-0.7185617,-0.3457778,0.2285915,0.6168174,0.2183968
1.658117,-0.8663117,-0.1957799,0.3728014,0.8172087,-0.1903603
1.486606,-0.6615989,-0.2069144,0.2637584,0.487455,-0.8514958
1.267708,-0.3637804,-0.2971127,0.07769118,0.2106898,-1.229474
1.124986,-0.2061349,-0.2774105,0.09034588,0.5234671,-1.086453
0.8530934,-0.06741413,-0.2075658,-0.01999665,0.6658066,-0.832895
0.6750666,-0.05275423,-0.0775158,-0.2436813,0.2355575,-0.4794556
0.7100369,-0.1709657,0.02867162,-0.2287984,-0.2090917,0.07556619
0.6948477,-0.2142149,0.01302649,-0.1179157,-0.2811405,0.2030675
0.7022066,-0.232577,-0.000194247,-0.02196971,-0.3294791,0.09584106
0.7330621,-0.2551933,-0.02683581,-0.00203013,-0.5464261,0.1857698
0.6941652,-0.1872531,-0.1270261,-0.05902352,-0.6652916,0.1304893
0.6785546,-0.09171131,-0.2245796,-0.1018233,-0.5926046,0.003481356
0.6479286,-0.08427276,-0.2607123,-0.2932647,-0.4210624,-0.1955707
0.651036,-0.1585943,-0.2003631,-0.4823667,-0.2892211,-0.5164154
0.6956346,-0.2284583,-0.1019596,-0.4453141,-0.3767824,-0.6241819
0.7299282,-0.2797599,-0.07172932,-0.3996607,-0.5906845,-0.6288208
0.8296332,-0.2654575,-0.1664011,-0.4330171,-0.6086934,-0.6173006
0.897126,-0.1799177,-0.3068655,-0.4720411,-0.4567813,-0.5715921
0.8905347,-0.126815,-0.3046375,-0.5359638,-0.34357,-0.5946092
0.8640499,-0.06617004,-0.235451,-0.5998601,-0.3703656,-0.5539977
0.8173992,-0.04116858,-0.2201942,-0.6177529,-0.5601159,-0.4684415
0.8342114,-0.1363863,-0.1708385,-0.5884693,-0.775072,-0.335818
0.9151617,-0.2846983,-0.1429628,-0.4159575,-0.9943726,-0.09755486
1.028604,-0.4273272,-0.2016377,-0.08618236,-1.092982,0.1943922
1.165517,-0.4631818,-0.376747,0.1536694,-0.9381612,0.5723453
1.26943,-0.4443303,-0.6828566,0.1783416,-0.5806847,0.7524138
1.326566,-0.4173159,-0.8240878,0.09953743,0.0513237,0.6827025
1.349794,-0.2873499,-0.7145459,0.06907879,0.3341067,0.775305
1.38624,-0.1757763,-0.6874569,0.1218816,-0.1892852,0.8610328
1.426703,-0.1281644,-0.7225343,0.1215507,-0.6131457,0.599376
1.435649,-0.09681231,-0.5952193,-0.006779305,-0.4515037,0.09193038
1.405926,-0.1632891,-0.4808771,-0.1312892,0.04859333,-0.4253143
1.256635,-0.2558689,-0.5006186,-0.09075033,0.6990226,-0.5844478
1.024351,-0.2413264,-0.4466734,-0.00923759,0.9853159,-0.4052179
0.8201884,-0.157782,-0.3171706,-0.03444234,0.8434563,-0.3053132
0.6723752,-0.04689632,-0.2808135,-0.06427027,0.6501989,-0.1057261
0.6014974,0.1020518,-0.2659481,-0.1104505,0.1453907,0.3135777
0.607125,0.1568891,-0.1885603,-0.1432095,-0.4721853,0.6003137
0.6870813,0.08966675,-0.1816103,-0.07607717,-0.5457838,0.8551995
0.793768,0.03814806,-0.264037,-0.04603906,-0.4200496,1.102859
0.890248,-0.04085458,-0.3294386,-0.06440671,-0.2858464,1.15687
0.9328367,-0.1202622,-0.3773825,-0.09669214,0.085412,1.114921
0.9072198,-0.1428882,-0.3866667,-0.1664794,0.3764674,1.000666
0.9210914,-0.1797282,-0.3803238,-0.1893551,0.5662467,0.8310159
0.9012243,-0.1627709,-0.3815949,-0.2215325,0.8135237,0.6174759
0.8233558,-0.1073629,-0.3246574,-0.348942,0.9292069,0.5017354
0.7974159,-0.09441736,-0.2550808,-0.5237575,0.9003397,0.567193
0.7854571,-0.08670643,-0.2185133,-0.6661579,0.8560364,0.5803715
0.8177926,-0.08241677,-0.2269751,-0.7162447,0.771337,0.6288065
0.8629917,-0.05483583,-0.2570992,-0.740856,0.598433,0.7153633
0.8951667,-0.03161025,-0.2579224,-0.7904358,0.4421402,0.7261046
0.9445765,-0.05110248,-0.2917627,-0.840907,0.2858572,0.8227453
0.9327697,-0.06336735,-0.3421042,-0.8812218,0.06175072,0.9041386
0.9405834,-0.09990458,-0.3702254,-0.8915959,-0.02600273,0.9056584
0.9593149,-0.1508126,-0.3948229,-0.9124421,0.06578603,0.8784565
0.9092013,-0.217316,-0.4322988,-0.9527724,0.1230715,0.8239351
0.8824877,-0.3374837,-0.5111359,-0.9601518,0.1612426,0.8156379
0.8788726,-0.4160658,-0.5227003,-0.9528131,0.33932,0.7954013
0.9977873,-0.5647372,-0.4971116,-0.8453662,0.7202124,0.7857172
1.410789,-0.9378986,-0.4974745,-0.4268818,1.300648,0.6301032
1.802301,-1.149772,-0.3918015,-0.03181867,1.71897,-0.1879295
1.662951,-0.8479261,-0.3248458,-0.3257302,1.638472,-1.428178
1.303789,-0.428968,-0.3667802,-0.7872907,1.525268,-1.844006
1.113666,-0.192868,-0.3212268,-0.7849359,1.593129,-1.311636
0.7693036,0.1142397,-0.2350807,-1.146463,1.324203,-0.9933422
0.6007316,0.2691024,-0.1848014,-1.7457,0.8526438,-0.6812704
0.7860582,0.03462326,-0.1352393,-1.682321,0.5270302,-0.005689349
0.7440814,-0.1626547,-0.09201194,-1.552743,0.1712519,0.402152
0.7267769,-0.2243533,-0.1487928,-1.57829,0.02559138,0.7304718
0.7579581,-0.2525199,-0.2969729,-1.458136,0.1582351,0.9810466
0.6318223,-0.2651943,-0.317805,-1.438252,0.06272744,0.9696352
0.7119537,-0.3886043,-0.2464658,-1.36435,-0.1106448,0.8776763
0.7855322,-0.4604157,-0.2100161,-1.282544,-0.1408929,0.4619116
0.8090869,-0.4542669,-0.1684654,-1.292905,-0.2457334,0.06239534
0.9577015,-0.4552848,-0.1666433,-1.185883,-0.3045154,-0.1749596
1.036973,-0.3745959,-0.1618735,-1.090914,-0.18661,-0.432549
1.04591,-0.3313271,-0.1576236,-0.9996797,0.0906472,-0.460287
0.9084784,-0.2733669,-0.2365773,-0.9303394,0.4811418,-0.47848
0.7389507,-0.1374479,-0.2850856,-0.979171,0.7120677,-0.4621153
0.6863666,-0.109152,-0.2553623,-1.023604,0.6285688,-0.3398136
0.6510056,-0.1169721,-0.1712105,-1.063223,0.2542981,-0.2089872
0.6503092,-0.07946871,-0.03652703,-1.064465,-0.2909894,0.002944
0.6346057,-0.08074108,0.04497382,-1.032834,-0.6256123,0.03414413
0.7022718,-0.112646,0.003157603,-1.050591,-0.5935196,0.02503833
0.8247568,-0.114915,-0.06984856,-1.076942,-0.539916,0.03528198
0.835882,-0.1085196,-0.1136602,-1.099465,-0.6110288,-0.02001946
0.8073112,-0.1296332,-0.3062372,-1.126632,-0.7893979,0.1731871
0.7636207,-0.1333079,-0.6785449,-1.230699,-1.216218,0.6833323
0.9497993,-0.1270641,-0.9433325,-1.324183,-1.693632,1.58069
1.42327,-0.1691078,-1.041895,-1.052218,-1.971848,2.120261
1.794746,-0.4049939,-1.187348,-0.6258561,-1.739459,1.364927
1.88374,-0.741968,-1.269419,-0.5878371,-0.2768974,0.1955747
1.798411,-0.7098043,-1.094379,-0.700094,1.917699,-0.4147831
1.515331,-0.4425461,-0.8308894,-0.6818042,2.823929,-0.6438708
0.8578708,-0.3741671,-0.4404208,-0.7316524,2.103827,-0.6126208
0.4735111,-0.3218225,-0.06441917,-0.7512149,1.311173,-0.3074335
0.6455559,-0.1463827,-0.09544018,-0.7584263,0.3045067,0.04018048
0.6062512,0.03648258,-0.1753465,-0.9295795,-1.064037,0.1201473
0.5541144,0.1291172,-0.1360189,-0.9936826,-1.550609,0.007506305
0.6370105,0.07113379,-0.2495495,-0.8206817,-1.693079,0.1732935
0.5993075,-0.01300375,-0.4109782,-0.5789633,-1.678338,0.5622006
0.7369229,-0.1078026,-0.5381785,-0.3505498,-1.136992,0.8959588
0.8598265,-0.166394,-0.5823345,-0.1851413,-0.7049087,1.093167
0.9232113,-0.1103895,-0.565381,-0.1444427,0.1841492,0.9511488
0.981151,-0.142565,-0.5209642,-0.2277027,0.710338,0.8184028
0.8766094,-0.1998131,-0.4234404,-0.2627408,0.2877755,0.7647898
0.8660202,-0.1935348,-0.4075849,-0.1841737,0.4919783,0.4625187
0.8470365,-0.2282774,-0.3960049,-0.1122606,0.6353943,0.298202
0.7746328,-0.1834475,-0.3398907,-0.04008413,0.3968403,0.2388817
0.7774036,-0.1016159,-0.3427603,0.04509115,0.4926551,0.1849442
0.7140887,-0.07219316,-0.333609,0.08016024,0.466866,0.2869077
0.6716646,-0.0725365,-0.3036088,0.01565051,0.4912389,0.3105795
0.651678,-0.1527972,-0.2719727,-0.04714984,0.3999986,0.3996348
0.6574574,-0.2384416,-0.2249074,0.08489276,0.1111077,0.4883144
0.7359127,-0.2769979,-0.2146231,0.3344257,-0.03145526,0.4329684
0.8111326,-0.2623877,-0.2576754,0.5604609,-0.146313,0.3883048
0.9140752,-0.2438854,-0.3037268,0.7216764,-0.02370063,0.2280604
0.9746427,-0.2749627,-0.318612,0.7810465,0.1609277,0.1383173
0.9942506,-0.2647014,-0.3317981,0.8250899,0.2558786,0.1550379
0.9946986,-0.259894,-0.3979382,0.8169585,0.3492157,0.0951954
0.9419084,-0.2971042,-0.5582397,0.6421272,0.3209355,0.09806625
0.9182732,-0.3766138,-0.7077716,0.4257091,0.4630951,0.09067998
0.9140697,-0.5334099,-0.7144977,0.3558694,0.6786504,0.1096939
1.039032,-0.6588506,-0.6729714,0.4746911,0.7860649,0.2471384
1.405081,-0.9103388,-0.6500105,0.6832908,1.150009,0.2370779
1.690827,-1.174014,-0.584663,0.8279006,1.315343,-0.2887199
1.500512,-0.8154073,-0.4502945,0.6647892,0.4532646,-1.139261
1.200931,-0.3139413,-0.2886844,0.3765908,-0.4379998,-1.433742
1.256393,-0.4036562,-0.285833,0.4095178,-0.13712,-1.27931
1.108687,-0.3524512,-0.3278437,0.3535553,0.1121194,-1.244287
0.7969831,-0.03889526,-0.1807717,0.1471398,-0.2397297,-0.9066033
0.8780705,-0.1681572,-0.1191937,0.2995273,-0.08959775,-0.4231132
0.8497493,-0.2778551,-0.08572691,0.3962831,0.04792492,-0.279392
0.7096944,-0.201957,0.0317988,0.3777872,-0.07284615,-0.2308118
0.7641736,-0.2937693,-0.06925325,0.4513253,0.05480717,-0.1682467
0.6742005,-0.2284584,-0.1297894,0.3125043,-0.06542515,-0.03589152
0.5673973,-0.1321931,-0.1116231,0.2065588,-0.2383121,0.07101006
0.5644995,-0.1655573,-0.1776119,0.1656966,-0.4458423,-0.06642853
0.5811218,-0.1334487,-0.1058457,-0.002961533,-0.9053405,-0.3434732
0.6949521,-0.2019259,-0.1011634,-0.1763947,-0.9927701,-0.7356521
0.7862527,-0.2827207,-0.1346958,-0.3171777,-0.9744845,-1.021618
0.8322201,-0.2773183,-0.1389647,-0.2129749,-0.9848843,-1.019534
0.8368743,-0.2515827,-0.304234,-0.1029233,-0.7355821,-1.000847
0.7881942,-0.164615,-0.3682256,-0.2178826,-0.4358828,-0.9547921
0.7701635,-0.1326488,-0.338658,-0.243537,-0.07346335,-0.8133549
0.7378278,-0.1076581,-0.2758786,-0.2592172,0.008919503,-0.7061757
0.7250959,-0.08363053,-0.1323754,-0.2034217,-0.2686063,-0.5782775
0.7561908,-0.1519601,-0.1205791,-0.04683145,-0.6232364,-0.3892747
0.828408,-0.2561839,-0.2112888,-0.03783957,-1.102423,-0.04195061
1.043194,-0.4244857,-0.4155211,0.09383108,-1.36775,0.4986823
1.24601,-0.4969219,-0.7282698,0.2778225,-1.22654,0.8124781
1.286119,-0.4182155,-0.9099178,0.1992944,-0.8459979,0.7489872
1.405985,-0.3827965,-0.8846084,0.1943639,-0.2677452,0.6540464
1.641638,-0.3239547,-0.8204115,0.361791,0.2938459,0.531319
1.620743,-0.2391074,-0.8223366,0.42629,0.3310365,0.2257041
1.40627,-0.2084385,-0.68722,0.3888205,0.234393,-0.2412942
1.256012,-0.1726468,-0.4858496,0.3243825,0.633502,-0.6877016
1.055699,-0.1513272,-0.4485812,0.2675395,0.6220791,-0.717727
0.8789692,-0.1629478,-0.4412996,0.2412381,0.2648584,-0.4876174
0.7076145,-0.1765817,-0.4059072,0.2866057,0.1954755,-0.3405988
0.5777457,-0.1505898,-0.3829757,0.3918995,-0.06728672,-0.08870344
0.6816062,-0.05124826,-0.3327925,0.3943889,-0.1092479,0.1039925
0.6289728,0.03594346,-0.2291925,0.406927,-0.1743088,0.1705226
0.5696784,0.005432317,-0.1913796,0.5625407,-0.531009,0.3767144
0.7520426,-0.08992539,-0.2488455,0.665699,-0.4151701,0.5140872
0.7699236,-0.1363692,-0.2181705,0.7078057,-0.2751135,0.6370049
0.8134544,-0.1348432,-0.2304775,0.7843895,-0.1202581,0.8000811
0.8406953,-0.08942167,-0.3550929,0.8660269,0.1612585,0.7476276
0.7704521,-0.03685923,-0.4175726,0.8398433,0.2678962,0.6279994
0.8591551,-0.07420967,-0.4088568,0.6752827,0.5885305,0.477433
0.8234562,-0.1373078,-0.333504,0.5504242,0.8009422,0.3366672
0.8122812,-0.2044165,-0.2950198,0.5035515,0.8671318,0.2649674
0.8878447,-0.2760819,-0.2818833,0.492892,0.9652777,0.06708295
0.8428969,-0.2543191,-0.2349181,0.4629229,0.8063275,-0.06969507
0.9066749,-0.2227488,-0.2366789,0.4148071,0.6549659,-0.08434803
0.9343556,-0.1933067,-0.2283496,0.4343459,0.3655957,-0.114266
0.9109617,-0.1290668,-0.288,0.3836194,-0.04390912,-0.06534069
0.9349899,-0.1565093,-0.4091933,0.2655954,-0.1652011,-0.01185518
0.9011199,-0.2232429,-0.4675295,0.1666777,-0.195171,0.04839096
0.9803388,-0.3583727,-0.535252,0.08983071,-0.186705,0.1028125
1.276336,-0.7863042,-0.6138308,0.2098833,-0.01287178,0.08386709
1.69882,-1.257436,-0.6466867,0.6733266,0.43881,-0.00209199
1.803212,-1.22583,-0.4372597,1.183174,0.8728062,-0.5568712
1.5346,-0.7803683,-0.1702133,1.018888,0.7152177,-1.427227
1.345439,-0.3961188,-0.27089,0.6627311,0.295523,-1.608735
1.051142,-0.147498,-0.3716045,0.8217811,0.1307578,-1.137535
0.7655977,-0.0258505,-0.2777291,0.5768166,0.09084207,-0.753355
0.7897657,-0.02990934,-0.2246268,0.148331,0.03884,-0.3347185
0.7611803,-0.07746903,-0.07446268,0.2430358,0.01999715,0.06380403
0.702162,-0.2095751,0.06916071,0.2191717,-0.07731404,0.03677073
0.7166531,-0.2579241,0.03777876,0.1938938,-0.2626868,-0.001584395
0.6538117,-0.1646819,0.00807632,0.2092033,-0.4355608,0.1106972
0.623855,-0.1063813,-0.03151194,0.05280616,-0.714032,0.07679029
0.6463181,-0.07554486,-0.10905,-0.04305602,-0.885957,-0.04775036
0.7182637,-0.1204979,-0.1448944,-0.2951537,-0.8076129,-0.3671487
0.8203473,-0.1848517,-0.1941287,-0.5041194,-0.6926623,-0.7812415
0.8270616,-0.2022686,-0.2308362,-0.5218457,-0.5982583,-1.005845
0.8072162,-0.2314401,-0.2664527,-0.4789398,-0.8712846,-1.017184
0.8390396,-0.2054349,-0.3606142,-0.361973,-1.137143,-0.7385355
0.921754,-0.188386,-0.3737108,-0.4308354,-0.4986089,-0.4139707
1.002291,-0.1772182,-0.311326,-0.4599739,0.2876992,-0.3475859
0.9705095,-0.1090969,-0.2475093,-0.414192,0.2610488,-0.3741768
0.860229,-0.08489464,-0.1706488,-0.4965745,-0.1889893,-0.2865512
0.7761487,-0.09632666,-0.2097431,-0.5318835,-0.6415063,-0.1634899
0.7708276,-0.1100879,-0.3051831,-0.6687413,-0.9573386,-0.1257285
0.8569014,-0.1523682,-0.3192534,-0.7355576,-0.9716501,-0.06095086
0.9354517,-0.2747423,-0.368419,-0.5767716,-0.9387256,0.05333513
0.9472063,-0.3809245,-0.5315706,-0.4870432,-1.080099,0.3209693
1.04332,-0.3265594,-0.7416748,-0.4478866,-1.088602,0.8183319
1.258352,-0.2974939,-0.7919861,-0.4474365,-0.838709,1.068925
1.500408,-0.365917,-0.7146285,-0.3978131,-0.5158335,1.024771
1.717722,-0.356204,-0.8049979,-0.1344129,-0.2640126,0.9781277
1.695192,-0.2463819,-0.9121574,0.1290001,0.08551163,0.4559972
1.476609,-0.09452483,-0.8542051,0.09533336,0.8237874,-0.4062769
1.257676,-0.03769783,-0.6768472,-0.05660124,1.545613,-0.5483913
0.9044724,-0.129101,-0.3797461,-0.03112116,1.682608,-0.3200032
0.620123,-0.1596059,-0.2613954,-0.1202703,1.213174,-0.3192037
0.5957215,-0.06158535,-0.3246006,-0.2903342,0.6193205,0.03463463
0.5511017,0.04434572,-0.280816,-0.2824362,0.230848,0.3126168
0.5286014,0.0907454,-0.2681582,-0.3430029,-0.4104809,0.2790872
0.6351976,0.0211254,-0.2754458,-0.3003547,-1.110335,0.5060629
0.8008827,-0.0950028,-0.265831,-0.07716962,-1.255377,0.6370786
1.01012,-0.1492103,-0.3726016,0.0715823,-1.096387,0.9316986
1.105293,-0.1565182,-0.4749663,0.1867129,-0.5961897,1.231734
1.082488,-0.1141362,-0.5076911,0.1380522,0.2881277,0.8637314
1.048237,-0.07409844,-0.4569064,0.05718343,0.8928977,0.6098698
0.9702094,-0.07660688,-0.3573092,0.08526184,0.961258,0.4935708
0.8766605,-0.06734058,-0.2869151,-0.02084013,0.8907235,0.3336932
0.8140208,-0.06202042,-0.2057783,-0.1128855,0.7737402,0.4850603
0.783442,-0.04274591,-0.2399669,-0.1074923,0.5636163,0.5561423
0.7461233,0.01038685,-0.3212408,-0.1343127,0.6316365,0.6691577
0.7060247,0.02322855,-0.2795423,-0.2181564,0.7738149,0.8675379
0.6802005,-0.02918115,-0.282281,-0.4105912,0.6835131,0.8966439
0.6599253,-0.1120712,-0.2768676,-0.5214446,0.5978027,0.9583805
0.728853,-0.1669288,-0.2169528,-0.4734742,0.4055988,0.9574448
0.8232693,-0.1788346,-0.2501664,-0.3992026,0.2177251,0.8750711
0.8528839,-0.1939513,-0.2666129,-0.2890336,0.1448701,0.770124
0.9546354,-0.1941707,-0.2646842,-0.2409214,0.08854604,0.6427549
1.097694,-0.1515235,-0.3071048,-0.2670789,0.2311522,0.6105659
1.112938,-0.1190336,-0.2963003,-0.2920788,0.28987,0.6013083
1.104331,-0.1052479,-0.2728304,-0.375632,0.2525823,0.5814393
1.193695,-0.07848554,-0.2754241,-0.4225483,0.3469053,0.4971727
1.202424,-0.08135165,-0.2812364,-0.4393318,0.2949435,0.3197494
1.091924,-0.1119563,-0.3024908,-0.5774626,0.07056202,0.2039187
0.9897219,-0.1312272,-0.3817688,-0.7888572,-0.4190089,0.30436
0.9236884,-0.2362109,-0.671357,-1.006472,-0.591076,0.7770459
1.138734,-0.5598775,-1.005684,-1.056927,0.5788371,1.213837
1.557151,-0.9206098,-0.9542449,-0.8762639,1.809481,0.7972616
1.697241,-0.9203265,-0.7397231,-0.7873529,1.663184,-0.2154574
1.648228,-0.7092198,-0.6838177,-0.8373419,1.49089,-0.9226338
1.606607,-0.5957418,-0.5618828,-0.8263463,1.734719,-1.095003
1.393309,-0.3206427,-0.4697935,-0.8383564,1.287879,-0.7589689
1.025881,-0.02384486,-0.4504558,-1.038562,1.069152,-0.2895444
0.8155849,-0.05606015,-0.3516141,-1.339731,1.306301,-0.00997069
0.7624201,-0.1435667,-0.3836115,-1.487025,1.096852,0.3576201
0.6149229,-0.2196156,-0.3420577,-1.481878,1.036874,0.5956856
0.5499547,-0.3014299,-0.2142064,-1.350015,0.821267,0.7510218
0.5596841,-0.2331428,-0.2973023,-1.056169,0.4333306,1.093223
0.4759034,-0.2072334,-0.2953825,-0.9140266,0.4213484,1.205751
0.5301752,-0.3225742,-0.2580068,-0.8986031,0.1278514,1.153745
0.6185551,-0.4730205,-0.2485305,-0.7247882,-0.07218945,0.9109319
0.691253,-0.5865258,-0.1112545,-0.5530461,-0.1225341,0.3107558
0.8128339,-0.6026872,-0.09570374,-0.4460343,-0.3821773,-0.2820553
0.7806629,-0.5666597,-0.1334221,-0.4059622,-0.3620482,-0.6948913
0.7635521,-0.5006473,-0.1328578,-0.4238227,-0.1297082,-0.8906807
0.7667021,-0.3769254,-0.1730582,-0.3481215,0.2006953,-1.063443
0.6724935,-0.2299438,-0.1699742,-0.3182478,0.2211466,-1.193121
0.6259625,-0.1415105,-0.135529,-0.3286334,-0.06330518,-1.156439
0.5743596,-0.06854894,-0.08089962,-0.2962947,-0.2337407,-1.194897
0.6011781,0.01214909,-0.0845871,-0.3598582,-0.6139796,-1.17856
0.710668,-0.0120569,-0.1264579,-0.4323538,-0.9116812,-1.108389
0.7844268,-0.03839787,-0.1387948,-0.4957687,-0.9317204,-1.048404
0.9162289,-0.02317438,-0.2027778,-0.5550783,-0.8201221,-0.8905677
0.9877417,-0.03581017,-0.2602456,-0.5159945,-0.5362977,-0.8073311
0.952592,-0.0131523,-0.3171706,-0.5012025,-0.3966141,-0.7076951
0.9011573,-0.07376522,-0.3833995,-0.5745978,-0.3588089,-0.4666362
0.8406775,-0.2259226,-0.466301,-0.7444347,-0.5949696,-0.004591579
0.9052589,-0.3063478,-0.7368146,-0.8801585,-1.177618,0.7543728
1.012567,-0.3333986,-1.012259,-0.7179258,-1.415725,1.36075
1.079481,-0.3849765,-0.9803667,-0.5204834,-1.241674,1.420853
1.354294,-0.5634306,-0.7820265,-0.5598939,-1.01271,1.055191
1.723638,-0.7862764,-0.7064954,-0.3634016,-0.7788521,0.5830062
1.805351,-0.8254517,-0.8412786,0.2198008,-0.3539543,0.1255572
1.668334,-0.6225346,-0.9816903,0.5792303,0.4473338,-0.3818676
1.486075,-0.3560044,-0.8610008,0.5539777,1.326647,-0.834088
1.13993,-0.2086984,-0.6058726,0.485343,1.524393,-1.02909
0.7784801,-0.08354453,-0.422559,0.4887555,0.8973031,-0.9661626
0.7198056,-0.04043313,-0.2971406,0.4872956,0.2885743,-0.8638772
0.6819621,-0.09341905,-0.2518865,0.5049919,-0.1837195,-0.7096108
0.518201,-0.03063004,-0.2285573,0.6110333,-0.6979393,-0.4330935
0.5746057,-0.02684786,-0.2514437,0.6890459,-0.8955448,-0.1551489
0.6579928,-0.06516844,-0.3431909,0.7904588,-0.9416199,0.192331
0.6462467,-0.01692338,-0.3339024,0.9550885,-0.6932505,0.4515732
0.7309137,-0.04654965,-0.3130381,0.9760128,-0.2248061,0.4553636
0.7033239,-0.03589793,-0.2973697,0.9500667,-0.09302073,0.4311227
0.6671554,-0.01147529,-0.2569369,0.9542995,-0.02442499,0.411996
0.6935324,-0.09258729,-0.2837331,0.9366428,-0.1317181,0.3981303
0.6304573,-0.1578073,-0.2646004,0.9471389,-0.3570375,0.3904506
0.7321848,-0.2122135,-0.2979642,0.9918938,-0.1302172,0.3708004
0.8938579,-0.2078478,-0.388638,1.142134,0.2636723,0.3794704
0.9406558,-0.1931288,-0.3759214,1.236739,0.6934062,0.2425797
0.9752037,-0.2404253,-0.3523381,1.113234,1.018988,0.02790482
0.9426862,-0.2382171,-0.322059,0.9828246,0.9133196,-0.108904
0.9233135,-0.2160986,-0.3290661,0.9332507,0.6996441,-0.2325472
0.8996993,-0.1628803,-0.3619128,0.8637413,0.4250378,-0.2761283
0.8529875,-0.08614694,-0.3772233,0.7308287,0.06871591,-0.2334116
0.8924763,-0.100352,-0.4813163,0.5614001,-0.01264945,-0.1446441
0.9583152,-0.2492293,-0.5636681,0.4419649,0.04239627,0.02071361
1.057726,-0.4995018,-0.5803203,0.5281628,0.05366876,0.1976823
1.158947,-0.6174322,-0.6173827,0.7046645,0.2106361,0.2356082
1.259486,-0.5849232,-0.5956535,0.709522,0.4975962,0.08707089
1.386605,-0.5997353,-0.4014898,0.696993,0.6425021,-0.1979934
1.377365,-0.5943263,-0.1605247,0.7073388,0.457165,-0.6348677
1.283206,-0.549782,-0.1654368,0.6311101,0.1882275,-1.014017
1.215889,-0.4844252,-0.2459579,0.5509829,0.1151658,-1.118459
1.116845,-0.3310405,-0.1703998,0.4447107,0.1839449,-1.059598
1.007048,-0.179285,-0.1213969,0.367497,0.2369747,-0.8832704
0.8858064,-0.1253009,-0.06787668,0.2840767,0.01545229,-0.6214416
0.7836583,-0.1744026,-0.008453057,0.2090469,-0.3396545,-0.4098341
0.7500918,-0.238693,-0.07460676,0.3340732,-0.5380363,-0.2960083
0.7222707,-0.234765,-0.1173516,0.4572063,-0.7218429,-0.1838121
0.7061394,-0.2302597,-0.1486992,0.4697143,-0.8135269,-0.0493227
0.7050241,-0.2316503,-0.1994246,0.4448124,-0.7298039,-0.04046113
0.6992145,-0.2084908,-0.1592951,0.3496358,-0.6405975,-0.1315479
0.7124815,-0.2040972,-0.1522813,0.286741,-0.5356323,-0.3169669
0.7049639,-0.2179586,-0.1655126,0.2300843,-0.4427776,-0.6314169
0.690634,-0.2369098,-0.1302421,0.1475722,-0.4768496,-0.8111572
0.6982945,-0.2301086,-0.1466285,0.1119256,-0.689317,-0.7904634
0.7361476,-0.2178674,-0.167182,0.1438046,-0.9278536,-0.7718112
0.8502233,-0.2495361,-0.1902439,0.2489204,-0.913282,-0.7829636
0.9583216,-0.2576745,-0.2436021,0.315982,-0.7145554,-0.7825936
0.9899379,-0.2265302,-0.2676904,0.3134272,-0.5263582,-0.777105
0.9799641,-0.1928567,-0.2712795,0.2984032,-0.3320421,-0.7545141
0.9270997,-0.162957,-0.2519506,0.3051905,-0.264536,-0.7127129
0.8544604,-0.1659904,-0.23879,0.3348965,-0.4227671,-0.6004775
0.8481958,-0.2197323,-0.2647478,0.3533581,-0.6331201,-0.1827087
0.9785536,-0.314049,-0.3547381,0.442705,-0.8032113,0.4313195
1.120218,-0.3417112,-0.5636215,0.5388648,-0.7542787,0.5961406
1.109998,-0.2812714,-0.7379477,0.5230326,-0.5027972,0.3269812
1.080771,-0.2469595,-0.6938691,0.430698,-0.3459611,0.2279636
1.191238,-0.2398979,-0.5956536,0.3425743,-0.2483842,0.2416367
1.426424,-0.2796144,-0.6224126,0.4583162,-0.2478213,0.1590991
1.68048,-0.3242938,-0.7005748,0.6330619,-0.1161938,-0.04998172
1.686042,-0.2436856,-0.7699908,0.587434,0.5750563,-0.5539186
1.35869,-0.1475178,-0.7034087,0.4734683,1.134619,-0.9403649
0.9651076,-0.1510282,-0.4697718,0.3982276,0.7616109,-0.8727185
0.6939052,-0.1788335,-0.3025533,0.4117359,0.07677395,-0.721139
0.5927201,-0.1727678,-0.2179062,0.5165802,-0.1738791,-0.5170358
0.5623937,-0.1104599,-0.2072279,0.5626843,-0.4844942,-0.2234143
0.5214317,-0.006004554,-0.2727093,0.5927973,-0.8029887,0.03332855
0.5904712,0.05405225,-0.2710817,0.6518294,-0.6350407,0.3231191
0.6814235,0.04153437,-0.2779676,0.7608521,-0.598128,0.5490947
0.7246516,0.02744568,-0.3041733,0.9037192,-0.4893432,0.6740188
0.7720634,0.01065381,-0.3115994,0.9179511,-0.1007042,0.6990753
0.750467,-0.05283241,-0.3072234,0.8867509,-0.01599372,0.6074097
0.7914271,-0.1450931,-0.2411029,0.858391,0.1513535,0.5805731
0.8881147,-0.2333711,-0.2460988,0.7867637,0.4012147,0.572494
0.9178384,-0.2541712,-0.2988482,0.8306755,0.5917226,0.5390911
0.9843571,-0.2157089,-0.3425815,0.8746042,0.8755875,0.5156143
1.008614,-0.182859,-0.3965778,0.7667036,1.00719,0.3317451
0.9440265,-0.1058023,-0.347367,0.6254675,1.016649,0.04493689
0.8831262,-0.008003659,-0.2872916,0.4443819,0.6332668,-0.1466832
0.8499002,-0.003659468,-0.2751746,0.2366169,0.01859626,-0.1765683
0.8728196,-0.06161846,-0.3336899,0.07524269,-0.2182768,-0.09991074
0.9060096,-0.1685974,-0.4697243,-0.01927808,-0.219915,0.02403906
0.9598425,-0.3873209,-0.4983283,0.01753347,-0.1692483,0.2642986
1.068205,-0.5923533,-0.5374112,0.1841334,-0.1025146,0.4551939
1.222681,-0.6768393,-0.6396071,0.4372982,0.133959,0.4525629
1.483966,-0.8300271,-0.5627968,0.6626285,0.5233034,0.2834232
1.740428,-1.05502,-0.297916,0.6992021,0.6926936,-0.3394875
1.769649,-1.032141,-0.05786044,0.6568434,0.5646481,-1.19929
1.590198,-0.7409118,-0.1305677,0.6609141,0.3832261,-1.409955
1.278508,-0.3349054,-0.3339669,0.5839667,0.3352118,-1.098014
0.9512846,0.002373213,-0.3141115,0.3679024,0.1159194,-0.9316469
0.8437788,-0.05924532,-0.2594201,0.06998175,-0.1461493,-0.5666213
0.7281923,-0.1748078,-0.1416622,-0.1223706,-0.1632292,-0.04689575
0.5204437,-0.04524096,0.03328126,-0.06667303,-0.3299493,0.08131683
0.6301421,-0.1965959,-0.01980362,0.0642608,-0.4928822,0.2228556
0.6978871,-0.3777831,-0.03538846,0.2078055,-0.5546907,0.3579784
0.5983797,-0.2814728,-0.001556811,0.304501,-0.7007671,0.2563748
0.7244341,-0.3003031,-0.1315066,0.2419448,-0.6861708,0.2373472
0.7165286,-0.2553156,-0.1830941,0.218178,-0.6430396,0.0185815
0.6883588,-0.2010191,-0.1788375,0.1949607,-0.6045774,-0.4023718
0.7935154,-0.2881017,-0.1638845,0.09388083,-0.5250589,-0.8385136
0.7236425,-0.3042109,-0.1040557,0.07107402,-0.6670426,-1.294374
0.7671495,-0.3782645,-0.1282962,0.03603982,-0.8961514,-1.311184
0.8399423,-0.3822649,-0.1499244,0.04033507,-0.9213435,-1.090224
0.8549219,-0.262594,-0.1961787,0.1421548,-0.5116243,-0.960027
0.9344986,-0.1466878,-0.3256525,0.2097174,0.09832008,-0.7541473
0.8358234,-0.01444608,-0.3580694,0.2798043,0.2345071,-0.6215338
0.7881699,-0.03671719,-0.2477908,0.3304893,-0.01542915,-0.5541405
0.8331737,-0.08564257,-0.1339375,0.3752311,-0.2620378,-0.4772523
0.8487267,-0.1304633,-0.1539655,0.393827,-0.6200597,-0.3568545
1.022277,-0.3029257,-0.275028,0.3927612,-0.9441009,0.01309177
1.24718,-0.3703409,-0.4933564,0.5851543,-0.8856859,0.5058585
1.399984,-0.312501,-0.8080379,0.7448199,-0.4036033,0.6910144
1.36034,-0.2654697,-0.896327,0.5762868,0.2984104,0.4826392
1.302284,-0.2528968,-0.6879897,0.3605575,0.4551123,0.343867
1.439708,-0.2426058,-0.5727938,0.3558095,-0.1021076,0.3323909
1.499108,-0.1933935,-0.6559876,0.3774311,-0.4030924,0.04165527
1.517861,-0.1591699,-0.7046955,0.2438796,-0.2421269,-0.4802705
1.451215,-0.1631314,-0.6377256,0.0920082,0.1606672,-0.9050719
1.124416,-0.1912587,-0.4852649,0.01465469,0.5218383,-0.9172994
0.8615022,-0.2036971,-0.2881003,0.05241876,0.1833237,-0.7003341
0.7793594,-0.2175799,-0.2561736,0.250503,-0.2006747,-0.6120077
0.7197059,-0.2214403,-0.3263755,0.4736915,0.02250231,-0.4243621
0.6261828,-0.1585118,-0.2496704,0.5801604,0.01791311,-0.2618249
0.589489,-0.1074666,-0.2179138,0.6142075,-0.3616641,-0.169621
0.6363955,-0.01280981,-0.2393146,0.7306452,-0.6289674,0.1972889
0.6682755,0.1016083,-0.2289349,0.798259,-0.7459377,0.4893038
0.7692818,0.05254302,-0.3461572,0.7259281,-0.5573116,0.6506493
0.8097965,-0.01767269,-0.367337,0.6535058,-0.2505652,0.7945474
0.7447763,-0.003655486,-0.2772595,0.5005471,-0.160191,0.6893974
0.7824185,-0.02854327,-0.2635901,0.3779172,-0.07391409,0.623051
0.7779932,-0.05013779,-0.2332173,0.3570082,0.09401005,0.59621
0.7685693,-0.02937054,-0.2534927,0.3095872,0.420166,0.5040659
0.8303183,-0.07616645,-0.2618678,0.3304931,0.7573261,0.5321719
0.8439031,-0.148254,-0.2347138,0.319964,0.7699512,0.4650629
0.8906464,-0.1698403,-0.2634465,0.2337084,0.777242,0.2901785
0.9043256,-0.1784415,-0.2490857,0.1478284,0.6748286,0.07163995
0.8743553,-0.1254624,-0.2707457,0.02579402,0.2573918,-0.1574581
0.8835883,-0.0517121,-0.3201791,-0.02422292,-0.0005338253,-0.1327067
0.9074214,-0.06349836,-0.3619565,-0.07039381,-0.09951871,0.03664702
1.030067,-0.1785215,-0.4608793,-0.1200607,-0.1465518,0.2424293
1.209465,-0.4129558,-0.5410358,0.03386191,-0.06230742,0.4818857
1.341331,-0.626765,-0.6424719,0.2675814,0.07880544,0.4894032
1.450589,-0.7021295,-0.6741259,0.3501293,0.3568346,0.1805937
1.627461,-0.7843714,-0.5036005,0.3162898,0.8533007,-0.344202
1.770804,-0.8793777,-0.2908861,0.3074372,1.227774,-0.8664569
1.571902,-0.6686027,-0.2188216,0.2941461,0.8328771,-1.012712
1.213039,-0.2154016,-0.3210234,0.2229682,0.1599414,-0.7927987
1.047817,-0.01261758,-0.3747875,0.1236978,0.1695313,-0.5746524
0.938246,-0.02046487,-0.285216,-0.07088261,0.2727446,-0.3922965
0.7807786,-0.008115631,-0.1917204,-0.2708187,0.094179,-0.1059177
0.6820594,-0.1172577,-0.08719458,-0.2799258,0.00684094,0.1403523
0.6569531,-0.3103437,-0.03199119,-0.1324693,-0.247475,0.2834095
0.643141,-0.3882518,-0.06313387,0.0685579,-0.5385704,0.4069502
0.6134921,-0.3425342,-0.07411607,0.2034715,-0.5929639,0.4220451
0.6014066,-0.2837135,-0.1222085,0.1891617,-0.5687868,0.2807398
0.5905643,-0.2317986,-0.1964288,0.1482946,-0.5217187,0.1213192
0.5880924,-0.1708405,-0.1606141,0.1244642,-0.5633291,-0.007614701
0.6293544,-0.1577856,-0.09947927,0.03019444,-0.5576345,-0.2592942
0.6629313,-0.202885,-0.08764015,-0.0408162,-0.5485937,-0.5380509
0.7012273,-0.3032584,-0.05452108,-0.02930319,-0.7852505,-0.5966618
0.7927797,-0.3428881,-0.07441591,0.05149305,-1.059135,-0.6166942
0.9276066,-0.301146,-0.1945922,0.208749,-1.157213,-0.6619407
1.019974,-0.3018701,-0.3005476,0.2514383,-0.8782506,-0.6420678
0.9692836,-0.2197363,-0.317641,0.2151583,-0.3208995,-0.6824437
0.9019235,-0.1046737,-0.2587069,0.2501048,0.1545548,-0.6410918
0.8827863,-0.1024627,-0.2191128,0.2046635,0.3276239,-0.5295595
0.8241571,-0.120333,-0.2002877,0.1346504,0.07972515,-0.415083
0.8915869,-0.09636764,-0.3339192,0.2295921,-0.3148333,-0.2456249
0.9666389,-0.2059072,-0.4854141,0.1816735,-0.4139176,0.05310693
1.083346,-0.4102366,-0.6272921,0.1925735,-0.4613347,0.30131
1.248848,-0.6050103,-0.6975246,0.3349,-0.1508744,0.312825
1.402865,-0.6318804,-0.6845888,0.5338963,0.4136012,0.1051868
1.524026,-0.6634704,-0.6074296,0.5181152,0.8363495,-0.2909162
1.558256,-0.7183308,-0.3594148,0.4239189,0.9668672,-0.7640546
1.46376,-0.669557,-0.1387374,0.3935221,0.4204216,-1.096928
1.304329,-0.5408641,-0.249153,0.408188,-0.06999772,-1.201478
1.105241,-0.2867365,-0.3704514,0.4265071,0.1788249,-1.034236
0.9092756,-0.07402053,-0.219623,0.3575743,0.2947855,-0.7637715
0.7700215,-0.09907694,-0.1192786,0.2647216,0.0605195,-0.5017428
0.6827573,-0.1971171,-0.1009668,0.2038943,-0.05496633,-0.2319909
0.6196047,-0.2632608,-0.01590973,0.2450176,-0.278604,-0.1190348
0.5745258,-0.2924102,-0.05138719,0.3655789,-0.6822949,-0.09103099
0.5626494,-0.2314067,-0.1106327,0.4042702,-0.8965906,-0.1128167
0.557868,-0.1560365,-0.1304557,0.3230951,-0.8866851,-0.2327769
0.5792714,-0.1481356,-0.1789821,0.09043892,-0.6659017,-0.334102
0.6237367,-0.1824919,-0.09751274,-0.1595288,-0.3288891,-0.5219691
0.6235436,-0.2163763,-0.05129203,-0.210016,-0.2343714,-0.7084068
0.6041555,-0.1945845,-0.122297,-0.147846,-0.3414041,-0.746692
0.5959316,-0.1511369,-0.1661925,-0.08675713,-0.5651344,-0.7206153
0.6308769,-0.1404374,-0.2217201,-0.0109344,-0.7283318,-0.6303339
0.782938,-0.1157779,-0.2548242,-0.004574402,-0.4369481,-0.6075167
0.947778,-0.09734305,-0.2965389,-0.1099029,-0.1096145,-0.6275347
0.9398688,-0.1334167,-0.3085068,-0.1850251,-0.2701404,-0.5970754
0.9242495,-0.2742859,-0.2790179,-0.237578,-0.5525022,-0.5063945
1.073125,-0.494471,-0.3572688,-0.2364332,-0.8323227,-0.0814948
1.121366,-0.5631913,-0.4535293,0.04424139,-1.325572,0.6021997
1.064786,-0.4973994,-0.641554,0.3977952,-1.468721,1.008548
1.19302,-0.5164589,-0.9611433,0.570556,-1.025744,0.9695372
1.506436,-0.501876,-1.023558,0.7839103,-0.3036982,0.8059712
1.754719,-0.3426856,-0.834329,0.9276919,0.634481,0.2704745
1.515105,-0.2231107,-0.7067345,0.728105,0.9813517,-0.7777588
1.085642,-0.1867984,-0.5451299,0.5171773,0.6665291,-1.105857
1.067974,-0.1494393,-0.3403425,0.4315542,0.6128366,-0.7648655
0.9636418,-0.1509128,-0.298437,0.3768876,0.5705646,-0.8588801
0.6644057,-0.1487159,-0.2349788,0.517266,0.4633523,-0.8012964
0.6763752,-0.08650554,-0.1463434,0.5752007,0.4207492,-0.5274558
0.6646107,0.0001671593,-0.2286663,0.4765846,0.046001,-0.4946858
0.5007374,0.1351715,-0.2245086,0.4652298,-0.2856225,-0.2361069
0.5022119,0.193205,-0.175975,0.3917819,-0.425557,0.1164074
0.5966811,0.08649345,-0.2317666,0.383049,-0.66003,0.5046406
0.6842089,0.001024757,-0.2095444,0.4181321,-0.7046342,0.9042622
0.7733986,-0.04611431,-0.2524222,0.4027828,-0.5490009,0.8714684
0.8188304,-0.09511645,-0.3426742,0.4765007,-0.3276233,0.7380792
0.8101882,-0.09857456,-0.3301439,0.416666,0.01119187,0.6496246
0.8089173,-0.1432198,-0.3561625,0.338034,0.3597489,0.467982
0.8027929,-0.2027114,-0.3548813,0.3594724,0.7541387,0.4154308
0.7990171,-0.2312485,-0.2845408,0.3157147,1.017519,0.3546805
0.8284473,-0.2498942,-0.2097405,0.3398695,0.930182,0.2071861
0.8311303,-0.2112864,-0.1408238,0.3671805,0.7376718,0.08465142
0.8479898,-0.1977522,-0.1393162,0.3287253,0.3991068,-0.08302672
0.8485578,-0.1963166,-0.2124169,0.2714349,-0.09297195,-0.1730875
0.8217033,-0.1495786,-0.38828,0.1490372,-0.2569796,-0.043726
0.8839798,-0.153566,-0.5377938,0.05512302,-0.2143802,0.09957843
0.9631888,-0.1779488,-0.5669536,0.0175698,-0.3401063,0.1862123
1.073532,-0.2945719,-0.6655159,0.04101983,-0.2411207,0.4518844
1.369779,-0.6441568,-0.7079196,0.1904614,0.3055067,0.5829998
1.746951,-0.9560461,-0.4158221,0.3567737,0.7661085,-0.08766634
1.772989,-0.8417822,-0.1204531,0.4015339,0.6686911,-1.062876
1.385171,-0.4848639,-0.2564716,0.3838818,0.4184727,-1.240703
1.106987,-0.2777964,-0.3901108,0.3292479,0.4583891,-0.9817404
0.9845361,-0.1673898,-0.1967719,0.2046034,0.1670963,-0.8230321
0.8646891,-0.153262,-0.119007,0.1216253,-0.3001465,-0.310397
0.8869656,-0.2421144,-0.07246282,0.1432578,-0.3304382,0.03151498
0.9042361,-0.3028629,0.04713966,0.2512757,-0.5002425,-0.08536561
0.8491173,-0.3590961,-0.05133906,0.3197208,-0.6769051,0.02875673
0.789001,-0.2773036,-0.1360895,0.258507,-0.5665733,0.1008829
0.7085809,-0.169333,-0.1728006,0.2083608,-0.4429649,0.09174356
0.6732813,-0.1713766,-0.2308493,0.1773638,-0.1780503,0.08012952
0.6529154,-0.1190446,-0.1494356,0.1040735,-0.1343044,-0.2502785
0.6478771,-0.1507841,-0.1151317,-0.02645495,-0.308232,-0.5591925
0.6591036,-0.2178153,-0.117463,-0.2028365,-0.341964,-0.8559215
0.6544903,-0.2313588,-0.09172131,-0.2801081,-0.4887819,-1.024168
0.6774431,-0.2705901,-0.1337624,-0.2344397,-0.6960285,-0.868643
0.7320491,-0.2375587,-0.1731061,-0.1378703,-0.7394605,-0.8465399
0.8031522,-0.2150595,-0.239748,-0.03394748,-0.4524721,-0.8215569
0.796354,-0.1487234,-0.2613494,0.01862245,-0.1026017,-0.7226131
0.726677,-0.01296901,-0.224433,-0.03176867,-0.1567464,-0.6900933
0.7139099,-0.0005872731,-0.2333185,-0.1182488,-0.3314175,-0.5531197
0.7263586,-0.05284723,-0.1764982,-0.1190128,-0.5160774,-0.4212161
0.7858528,-0.170794,-0.1501712,-0.1205131,-0.8608174,-0.1862233
0.9547572,-0.3579153,-0.3149243,-0.08318668,-1.054605,0.30127
1.195812,-0.4468677,-0.6275748,0.1215276,-0.9187926,0.783277
1.341231,-0.3778235,-0.9107347,0.2972882,-0.6877646,0.9525105
1.364639,-0.3183399,-0.9391538,0.2590951,-0.4770409,0.9223417
1.564759,-0.361216,-0.9174656,0.167107,-0.2502376,1.000821
1.764434,-0.3106179,-0.9552886,0.2116689,-0.1929078,0.7239878
1.57675,-0.2414063,-0.7843389,0.1838473,-0.1615132,-0.08649473
1.366892,-0.283725,-0.5782916,0.08928359,0.2542335,-0.667814
1.29583,-0.273878,-0.4729404,0.1517536,0.7268599,-0.7648589
1.061623,-0.2464908,-0.3190425,0.1920866,0.7639629,-0.6774945
0.8365508,-0.2200227,-0.2785588,0.2402877,0.6876522,-0.639594
0.6871007,-0.09531405,-0.2986206,0.2858405,0.7103303,-0.5563662
0.4975754,0.06481622,-0.2047168,0.1756608,0.2410374,-0.2388487
0.48991,0.1523851,-0.2019814,0.1332231,-0.5521689,0.08895369
0.5967224,0.1285866,-0.2744836,0.2001286,-0.8590513,0.3819391
0.6668901,0.07763986,-0.2929961,0.2642889,-0.8146723,0.719991
0.7849399,0.02039964,-0.3290136,0.2395646,-0.6045831,0.9344894
0.8646385,-0.06586086,-0.2991039,0.1625856,-0.2074613,1.027618
0.9258017,-0.1087355,-0.243137,0.1673995,0.1162261,1.018585
0.9666594,-0.1099432,-0.2934044,0.1778807,0.3632803,0.9212841
0.8757333,-0.06887639,-0.3129484,0.1945129,0.5689995,0.793923
0.7992222,-0.01168153,-0.2933429,0.07239098,0.8241872,0.7147441
0.7867499,-0.01574975,-0.2874594,-0.2357816,1.194532,0.8130125
0.7704303,-0.004130934,-0.2284271,-0.456823,1.408649,0.9080237
0.7718773,0.03755233,-0.1868179,-0.6357621,1.360484,0.8963381
0.799774,0.01769515,-0.1883958,-0.8062594,1.130017,0.8600469
0.8734416,-0.008817748,-0.2103824,-0.9278253,0.6762996,0.7151266
0.9196329,-0.007260489,-0.2739187,-1.083834,0.1680299,0.5847957
0.9068219,-0.02410789,-0.3560837,-1.26726,-0.04925515,0.6349876
0.9143988,-0.04766225,-0.4757093,-1.43497,-0.1761627,0.8335765
0.9287781,-0.1419815,-0.5821328,-1.493197,-0.349699,1.062997
0.931757,-0.3481872,-0.6395132,-1.420699,-0.2433466,1.130297
1.025407,-0.5669883,-0.7743953,-1.31593,0.08507355,1.089384
1.387707,-0.9093942,-0.8461283,-1.197967,0.8397059,1.050858
1.854694,-1.305275,-0.5173324,-0.7966372,1.894866,0.6581696
1.905517,-1.194111,-0.1743318,-0.3520447,2.093504,-0.3784892
1.573068,-0.7599863,-0.36999,-0.6043825,1.697259,-1.388488
1.323203,-0.5923769,-0.535528,-1.00382,1.604697,-1.495795
1.126963,-0.391984,-0.3165243,-1.098071,1.352775,-1.048565
0.8571636,-0.07490251,-0.2443351,-1.52905,1.017647,-0.6652958
0.7328248,0.04376577,-0.219607,-1.887546,0.8783212,-0.08981665
0.7849827,0.01358027,-0.1010732,-1.806921,0.5241101,0.451849
0.7999214,-0.1102835,-0.1182808,-1.767971,0.2118385,0.5706039
0.7277623,-0.1456079,-0.1357158,-1.732209,-0.005983265,0.795047
0.6792976,-0.1329963,-0.2263733,-1.690861,-0.261609,1.02887
0.6632319,-0.1937602,-0.3615181,-1.672303,-0.2588449,0.9781872
0.6712451,-0.2185918,-0.3256188,-1.585697,-0.266574,0.9045498
0.7443957,-0.342368,-0.2857539,-1.557185,-0.2876297,0.6291138
0.8112455,-0.4319422,-0.2296672,-1.516307,-0.1802133,0.2800337
0.867343,-0.44285,-0.139574,-1.410494,-0.139653,0.02661097
0.8879193,-0.4844056,-0.1243562,-1.286843,0.02762373,-0.2130312
0.8198861,-0.3925459,-0.1575703,-1.193964,0.1754261,-0.2184697
0.7883129,-0.303839,-0.2298222,-1.19866,0.2161244,-0.1859719
0.7969356,-0.2197634,-0.2354508,-1.191746,0.3061308,-0.1761884
0.8024753,-0.1394171,-0.2220109,-1.163934,0.1996566,-0.04623904
0.8280228,-0.1656737,-0.2405363,-1.160394,0.02059708,0.07722687
0.8706459,-0.1505795,-0.1844691,-1.138172,-0.0610022,0.1964615
0.9318289,-0.1656894,-0.1370658,-1.096354,-0.1053456,0.2204311
0.9288155,-0.1783637,-0.1287695,-1.046686,-0.07676169,0.1971328
0.8710202,-0.149283,-0.1701754,-1.051884,-0.1303965,0.1600749
0.7830466,-0.1647811,-0.3925328,-1.115524,-0.4351555,0.1336525
0.7193154,-0.1559842,-0.815733,-1.267596,-0.9913207,0.4983027
0.9168532,-0.2411603,-1.099685,-1.469624,-1.460842,1.164324
1.30408,-0.4904746,-1.001879,-1.398338,-1.649801,1.599514
1.603841,-0.7049415,-1.056177,-1.016824,-1.649221,1.507831
1.725304,-0.6422767,-1.300996,-0.5587743,-0.8536634,0.8997003
1.639314,-0.5085153,-1.130456,-0.2180393,0.7425005,0.1082191
1.467484,-0.5608228,-0.8494895,-0.248955,1.94958,-0.2800468
1.286759,-0.437062,-0.6964095,-0.3499152,2.518862,-0.2568552
1.009662,-0.236055,-0.4988127,-0.3157794,2.440561,-0.4205024
0.698521,-0.105716,-0.4450455,-0.6571374,1.392151,-0.433035
0.4294483,0.2290223,-0.3348654,-1.097209,-0.1485655,0.02813375
0.4349654,0.2942065,-0.2302448,-1.222859,-1.611366,0.3835836
0.7199504,0.04699314,-0.4150948,-1.242143,-2.023931,0.5381593
0.7565277,-0.03706183,-0.4930499,-1.040099,-1.496858,0.484499
0.7237604,-0.1601619,-0.5126511,-0.8029402,-1.175237,0.4146751
0.7961349,-0.2522128,-0.539731,-0.6363661,-0.3632609,0.5635577
0.6892526,-0.2780018,-0.374733,-0.4078468,0.3511251,0.5767915
0.7093987,-0.3704651,-0.3182887,-0.3210607,0.2838412,0.6474457
0.7290471,-0.2692194,-0.291369,-0.167651,0.7263799,0.7132672
0.6331854,-0.147106,-0.2183441,0.01227676,0.797371,0.5936608
0.6701618,-0.1135298,-0.2631719,0.04234374,0.4825899,0.6370595
0.6530138,-0.05003534,-0.2920723,0.1294164,0.6977149,0.590771
0.7443838,-0.07123043,-0.3526365,0.201927,0.6597373,0.5524688
0.8510741,-0.04404199,-0.4027171,0.3080083,0.8236781,0.6275295
0.8205106,-0.09026974,-0.3998775,0.4024445,0.9962245,0.5156825
0.8601105,-0.2707821,-0.3710154,0.4025963,0.7642584,0.4284829
0.8157091,-0.33852,-0.2556821,0.4858518,0.6415421,0.2124244
0.8092405,-0.3982609,-0.2402067,0.5957147,0.2113196,-0.1173021
0.840134,-0.3518974,-0.3116446,0.7089475,-0.05452168,-0.2637758
0.8171743,-0.2212476,-0.4224704,0.7519638,0.1109023,-0.309302
0.8834841,-0.2254315,-0.620798,0.6385087,0.3391699,-0.1500263
0.9155692,-0.3059681,-0.7076502,0.5507759,0.680619,0.03982508
0.9607987,-0.4747577,-0.681818,0.59205,0.5584184,0.06395242
1.055969,-0.5427015,-0.7302085,0.62734,0.3541631,-0.04375995
1.376362,-0.5929624,-0.8001925,0.4945413,0.5331451,-0.5192239
1.777658,-0.7378415,-0.6376153,0.3585404,0.4794422,-1.193487
1.539017,-0.5330197,-0.4379476,0.3424789,0.4177934,-1.420698
1.165536,-0.2437851,-0.5004502,0.2617667,0.4825267,-1.16804
1.173333,-0.2293387,-0.4092235,0.08551198,0.3235892,-0.9278445
0.9607043,-0.1589296,-0.1246621,-0.0103407,0.1579478,-0.528837
0.7774585,-0.1361941,-0.05412364,0.08086741,-0.008849165,-0.02054365
0.8785868,-0.3154744,-0.01097337,0.270307,-0.3046808,0.07754211
0.7677144,-0.4089426,0.06298568,0.4745893,-0.486294,0.1311894
0.6667566,-0.3770391,-0.0735489,0.5699371,-0.4863509,0.1768374
0.6782,-0.3296493,-0.2253084,0.4717369,-0.4732815,0.03329737
0.5780242,-0.2575889,-0.1904108,0.3630817,-0.5335974,-0.07459717
0.6104604,-0.2277236,-0.1617137,0.2222072,-0.5563278,-0.4393409
0.6658497,-0.2499723,-0.1878712,-0.001134483,-0.4768823,-0.8428773
0.6623022,-0.2652736,-0.1393532,-0.1014064,-0.4495156,-1.039355
0.7089096,-0.2668948,-0.1117536,-0.08623906,-0.5307188,-1.172795
0.6980055,-0.2370029,-0.1562872,-0.009612371,-0.609089,-1.031892
0.7513353,-0.1859533,-0.1942367,0.06874629,-0.5660127,-0.9388443
0.7814054,-0.1158185,-0.2214344,-0.05968159,-0.5148747,-0.9633961
0.7259936,-0.03473595,-0.2054735,-0.2772128,-0.5940103,-0.8530777
0.7249006,0.02897056,-0.1846872,-0.3551404,-0.7489206,-0.7774886
0.69919,0.03302434,-0.2185603,-0.3497927,-1.046945,-0.6073691
0.7778079,-0.05475204,-0.2395468,-0.2571004,-1.245775,-0.4267199
0.9395106,-0.1871145,-0.2778323,-0.08828746,-1.119955,-0.3035083
1.03533,-0.3636958,-0.4416902,0.04975825,-1.04162,0.08027628
1.156617,-0.4943703,-0.7033074,0.2180183,-0.9780657,0.6047642
1.274663,-0.5126805,-0.8831674,0.3766046,-0.7269502,0.9556181
1.475958,-0.6020711,-0.8893238,0.465573,-0.430742,1.137271
1.736345,-0.6635172,-0.9056505,0.7505946,-0.02265449,1.186397
1.782969,-0.4274416,-0.9779427,1.031283,0.4109579,0.5329489
1.722332,-0.1803544,-0.9256656,0.6871029,0.755239,-0.7185748
1.558448,-0.2570223,-0.7881735,0.1952967,0.9886303,-1.205083
1.114699,-0.3041602,-0.5716956,0.1836822,0.8861952,-0.986026
0.8336928,-0.1800291,-0.2625253,0.1856822,0.7358507,-0.9005543
0.7985215,-0.2094378,-0.1762173,0.2071155,0.6052042,-0.642923
0.5933429,-0.1596404,-0.2646939,0.4498275,0.01323203,-0.2933012
0.5058522,0.04064923,-0.2486294,0.5679251,-0.5802569,-0.0724768
0.5335908,0.03624094,-0.2996492,0.6859308,-0.7225369,0.1913928
0.4658253,-0.009140051,-0.3467163,0.7646989,-0.7757919,0.3539906
0.5940978,-0.02611983,-0.2694744,0.6898913,-0.778623,0.5851287
0.7272893,-0.1195878,-0.2896934,0.7679475,-0.5972486,0.8140433
0.7468689,-0.1633396,-0.3183317,0.8558805,-0.3722752,0.7708386
0.800127,-0.1810292,-0.3304268,0.8731323,-0.1925567,0.7433034
0.8399852,-0.1946083,-0.3799663,0.9219612,0.1549157,0.6538035
0.9041673,-0.2083849,-0.3457435,0.912731,0.6734369,0.4371922
0.8788483,-0.2280663,-0.3407737,0.9026763,0.9856729,0.2890261
0.8174777,-0.206764,-0.343388,0.8095267,1.040438,0.101326
0.7969343,-0.1697181,-0.2845866,0.5682678,0.8992897,-0.07250054
0.7535164,-0.08968859,-0.2536718,0.3060223,0.5898407,-0.1443791
0.7999392,-0.04121006,-0.2310863,0.1364657,0.2948866,-0.1096388
0.8928621,-0.06805984,-0.2596325,0.1363756,0.118186,0.05366997
1.012922,-0.06553624,-0.3091199,0.1872658,0.06875508,0.2717656
1.071573,-0.1036811,-0.3934153,0.2519242,-0.02045273,0.4531691
1.038247,-0.2577868,-0.5778012,0.3339743,-0.08543718,0.5083013
1.100317,-0.4968377,-0.6773644,0.3246498,0.04599154,0.5070109
1.155498,-0.6982381,-0.6383864,0.3193972,0.1795555,0.4428807
1.317246,-0.769908,-0.5028304,0.3781524,0.4005442,0.2814729
1.549174,-0.830512,-0.2723298,0.4345364,0.6026119,0.03088242
1.452122,-0.7716648,-0.1593647,0.4744729,0.3843717,-0.4871329
1.259027,-0.5156985,-0.2791521,0.4051233,0.1589991,-0.9667735
1.09815,-0.3391373,-0.3615462,0.2760841,0.2353198,-1.054747
0.84616,-0.1813547,-0.2458221,0.2501785,0.2707595,-0.99408
0.7179909,-0.04628548,-0.1428299,0.149086,0.221251,-0.7857511
0.6343778,-0.1372281,-0.08498954,-0.08036176,0.09544559,-0.3948528
0.5411094,-0.1771463,-0.02561048,-0.1157118,-0.2173589,-0.07354943
0.5851709,-0.160603,-0.05103212,0.005305955,-0.4848351,0.04998459
0.6384257,-0.2445816,-0.05847324,0.08748282,-0.590799,0.01103532
0.6767701,-0.2443865,-0.06628019,0.1225141,-0.7124156,-0.009799709
0.6883334,-0.2363533,-0.1268195,0.03702696,-0.7192692,-0.04345108
0.621075,-0.219883,-0.1459998,-0.1221457,-0.491959,-0.2171419
0.5956008,-0.1608104,-0.1836574,-0.2629343,-0.3224711,-0.4330276
0.5762043,-0.1816457,-0.192211,-0.3387272,-0.4164774,-0.6379599
0.6055446,-0.1916407,-0.1659421,-0.3526771,-0.579376,-0.7099496
0.7846706,-0.2060082,-0.2224577,-0.4254335,-0.5236969,-0.6482042
0.9218528,-0.2021828,-0.255377,-0.484657,-0.2225107,-0.6517785
0.8998397,-0.1245485,-0.2508232,-0.5079301,0.1612738,-0.6319023
0.8516044,-0.07346665,-0.2752506,-0.5748367,0.2933525,-0.5483203
0.8775742,-0.06092156,-0.2762504,-0.5851064,0.09110777,-0.4906469
0.8106531,-0.1412034,-0.2844381,-0.6480521,-0.3810961,-0.2085152
0.6863534,-0.2631594,-0.4026321,-0.7578155,-1.376797,0.4374353
0.7565843,-0.3234233,-0.6785183,-0.6377411,-2.09138,1.113072
0.918647,-0.3440905,-0.9079376,-0.5032979,-1.863745,1.563743
1.230069,-0.3760721,-0.9129534,-0.481823,-1.60807,1.66664
1.694009,-0.5134373,-0.9274433,-0.1644542,-0.940508,1.273944
1.88618,-0.6214731,-0.9849485,0.2271323,0.443252,0.6105488
1.741172,-0.5627588,-0.8900137,0.1264498,1.121318,-0.05168596
1.495475,-0.4084126,-0.7275176,-0.0798355,1.344843,-0.4903425
1.272631,-0.2038934,-0.4629717,-0.04223377,1.613294,-0.401175
1.043525,-0.02336807,-0.2120499,-0.2053751,1.228446,-0.2193922
0.8305341,0.1170548,-0.222706,-0.5098729,0.6310321,-0.2122876
0.7036154,0.1760936,-0.223036,-0.6627003,-0.005825775,0.09691945
0.6296437,0.132859,-0.2095928,-0.7721157,-0.5638015,0.419363
0.6513965,0.1040842,-0.3053546,-0.7142146,-0.3009398,0.5145944
0.6552096,0.05644319,-0.3112234,-0.6032568,-0.103095,0.732755
0.6245673,-0.05299556,-0.3298719,-0.5785056,-0.1575468,0.9399063
0.6617512,-0.1208566,-0.3357418,-0.4620276,0.2516803,1.113127
0.6615529,-0.1179082,-0.2997082,-0.4139484,0.4731851,1.268334
0.7182998,-0.1339882,-0.3372318,-0.3420745,0.6696763,1.268867
0.7748823,-0.1877984,-0.3152671,-0.2061962,0.9719706,1.252435
0.7503429,-0.2531146,-0.291184,-0.2406019,0.949979,1.116611
0.7823195,-0.3285736,-0.2589575,-0.2262843,0.9516314,0.8528158
0.7926654,-0.306195,-0.1997905,-0.2046949,0.8589989,0.6957253
0.8438622,-0.2048047,-0.2500876,-0.2446715,0.7732806,0.6427251
0.9410277,-0.1118915,-0.2735157,-0.2372498,0.7673924,0.6361042
0.9895438,-0.01806457,-0.2653609,-0.3484682,0.5614609,0.5934697
1.036472,-0.01094847,-0.3114336,-0.5289081,0.4348804,0.5210359
1.009834,-0.02865956,-0.3630648,-0.7818584,0.2427677,0.4951361
0.9643772,-0.01983621,-0.4448285,-1.017807,-0.03256495,0.5116016
0.9375509,-0.0920269,-0.5936233,-1.040759,-0.133955,0.6910343
0.9957781,-0.2957251,-0.8594708,-1.007616,0.1933274,1.286655
1.329561,-0.8641846,-1.011521,-0.8914603,1.50125,1.81862
1.612578,-1.367317,-0.7015376,-0.8472818,2.589176,1.076864
1.477547,-0.8699152,-0.3453396,-1.149792,1.672027,-0.3610993
1.322736,-0.2208575,-0.4911416,-1.435051,0.5390337,-0.8699377
1.415762,-0.4201899,-0.6419871,-1.387026,1.116719,-0.797351
1.274314,-0.3517632,-0.5268101,-1.350139,1.445404,-0.5673458
0.9381361,0.08550275,-0.5582906,-1.674071,1.19817,0.04113348
0.8105433,-0.06475979,-0.4675576,-1.941354,1.419957,0.4782404
0.6854807,-0.273507,-0.2633132,-1.824111,0.9479564,0.6696124
0.6060906,-0.3921797,-0.279476,-1.601874,0.4382884,0.76357
0.6276885,-0.5076954,-0.2767207,-1.290562,0.3987363,0.8544195
0.5606507,-0.351838,-0.3938925,-0.9906761,0.2530327,1.098679
0.5538301,-0.40827,-0.5280373,-0.9522175,0.5887432,1.05001
0.5645088,-0.475977,-0.3696488,-0.9113501,0.6156347,0.7731612
0.5815225,-0.4254741,-0.2117686,-0.7250946,0.421263,0.4479205
0.658233,-0.5673706,-0.1187741,-0.6138234,0.3851418,-0.01905031
0.6529268,-0.5252071,-0.0781709,-0.5259812,-0.08424713,-0.365503
0.6663176,-0.4815346,-0.07208067,-0.434673,-0.1508212,-0.6814643
0.6883111,-0.469206,-0.04213298,-0.4612695,-0.01496437,-0.9119599
0.6555811,-0.2824879,-0.06987786,-0.444523,-0.01859586,-1.023855
0.6293144,-0.1933156,-0.07866187,-0.4313202,0.0205741,-1.25842
0.5726785,-0.0805443,-0.1117614,-0.5381599,-0.2709366,-1.349359
0.5607465,-0.02489516,-0.132018,-0.6167127,-0.6158157,-1.251044
0.6317673,-0.06708849,-0.1209794,-0.6690928,-1.153643,-1.118434
0.7447171,-0.05021823,-0.2487011,-0.6389386,-1.44551,-0.9033196
0.8843594,-0.09738453,-0.399048,-0.6046675,-1.054565,-0.6683976
0.9933419,-0.09306386,-0.4786808,-0.6275993,-0.588224,-0.5312988
1.045288,-0.09107753,-0.4743654,-0.4988146,-0.03196049,-0.5522442
1.037898,-0.1970809,-0.3950676,-0.3266958,0.2715049,-0.5873861
1.024387,-0.3716223,-0.3691694,-0.225355,0.09224692,-0.5519501
1.039127,-0.6113783,-0.4865983,-0.1803908,-0.2778759,-0.284698
1.076501,-0.680436,-0.7580262,-0.06236085,-0.611321,0.2881754
1.151245,-0.6146705,-0.9005838,0.218534,-0.3839032,0.5861533
1.283582,-0.5954029,-0.7800921,0.3176496,0.1188062,0.454183
1.534296,-0.5801982,-0.6884629,0.2988385,0.3024644,0.3471247
1.707922,-0.5193294,-0.7070562,0.4382934,0.2410971,0.09487578
1.57225,-0.2731182,-0.717529,0.4958329,0.2125254,-0.5213473
1.356043,0.02970421,-0.7346793,0.2691696,0.3784417,-0.9776828
1.205511,0.01978126,-0.7345214,-0.0196652,0.4163275,-1.01933
1.043863,-0.1262096,-0.5466144,0.01481229,0.04979422,-0.8466126
0.862105,-0.1163488,-0.3035838,0.2094845,-0.2793161,-0.5418021
0.6921465,-0.1656333,-0.3064894,0.3123125,-0.2397483,-0.3492374
0.6686436,-0.1573921,-0.3334136,0.4530897,-0.3417572,-0.2291033
0.5909399,0.02372635,-0.2142651,0.5155934,-0.7995608,-0.008978283
0.4498515,0.007494721,-0.2182764,0.567981,-1.078618,0.2110084
0.6374108,-0.01911221,-0.3255369,0.7246796,-0.9903514,0.5308704
0.7905157,0.03344039,-0.3806609,0.772634,-0.630299,0.7145094
0.7502074,-0.02561481,-0.4194871,0.7644577,-0.2130572,0.655617
0.783323,-0.004145173,-0.3835379,0.7632832,-0.1526878,0.6371065
0.7220043,-0.03906861,-0.3396972,0.7634053,-0.23906,0.5197829
0.7132793,-0.1466986,-0.3700667,0.780925,-0.01751161,0.3729424
0.7551949,-0.2087758,-0.3144678,0.7715722,0.3411899,0.3108758
0.7449986,-0.3271795,-0.2182942,0.8306996,0.67631,0.2283506
0.8334511,-0.3492374,-0.1932088,0.951708,0.9303191,0.1391962
0.8428805,-0.3212542,-0.2149248,1.077725,0.9294469,-0.00974743
0.8576343,-0.2750536,-0.2653176,1.12146,0.8230189,-0.158389
0.9151264,-0.1267405,-0.2721186,0.9826583,0.5756492,-0.331574
0.8927002,0.008627776,-0.2856146,0.7981277,0.02918454,-0.4622342
0.9436281,0.1107018,-0.3473902,0.5827936,-0.3275445,-0.3579121
1.005719,0.05933527,-0.4520406,0.3312189,-0.2575245,-0.1106014
1.122312,-0.1298002,-0.6163234,0.2002545,-0.1295285,0.2317432
1.306482,-0.292991,-0.6767738,0.2426756,0.01256118,0.3777117
1.363332,-0.4356247,-0.6543811,0.3232284,0.2384787,0.2091758
1.402646,-0.5422668,-0.6739662,0.2755776,0.5038081,0.06516527
1.520923,-0.7176717,-0.5708953,0.3090451,0.7380365,-0.2989331
1.569451,-0.8477412,-0.316979,0.476757,0.68152,-0.8285584
1.387019,-0.636153,-0.1790006,0.5421113,0.509973,-0.9053491
1.07374,-0.325133,-0.2432179,0.5742168,0.4077519,-0.7423022
0.8572541,-0.2009152,-0.26982,0.5010249,0.1388444,-0.6101202
0.7524149,-0.1543556,-0.1869037,0.3608695,-3.228743e-05,-0.2881325
0.7109987,-0.1577712,-0.1249998,0.3619401,-0.09118725,0.0530049
0.7104697,-0.2563075,-0.04245571,0.4006696,-0.4477433,0.1749211
0.7208732,-0.3369145,-0.001790269,0.5235526,-0.4900249,0.1767592
0.7181923,-0.3399646,-0.07822117,0.6771379,-0.385932,0.1140361
0.6820309,-0.2880072,-0.1076416,0.6880417,-0.5948358,-0.01629289
0.645682,-0.2217035,-0.1024769,0.5995901,-0.780978,-0.1819651
0.6623061,-0.2249457,-0.1107882,0.4578282,-0.8903189,-0.4433704
0.714034,-0.2540582,-0.08509778,0.3775188,-0.8227205,-0.7994417
0.7297674,-0.257361,-0.100481,0.3325874,-0.5217634,-1.106885
0.673862,-0.2448684,-0.1144186,0.2853168,-0.2033558,-1.314431
0.5559496,-0.1909422,-0.1022315,0.2995982,-0.1151173,-1.352225
0.507326,-0.1367422,-0.1265302,0.3058801,-0.6122523,-1.151095
0.6544755,-0.0887432,-0.16066,0.3380774,-1.006447,-0.8911308
0.8689113,-0.05741767,-0.2258104,0.4207328,-0.600994,-0.7355937
0.9640761,-0.0687019,-0.243181,0.4766843,-0.2435987,-0.6763109
0.9346174,-0.09070416,-0.1838137,0.4271547,-0.4212072,-0.6463593
0.9442382,-0.1853142,-0.2165955,0.2662638,-0.7200415,-0.413369
1.081497,-0.347359,-0.4567956,0.194904,-1.093518,0.235397
1.195798,-0.4390387,-0.8856607,0.3601908,-1.335316,0.921717
1.260168,-0.4261659,-1.099967,0.5690066,-1.097361,1.023413
1.532259,-0.4732871,-0.9060857,0.5829931,-0.8589999,0.7938357
1.913036,-0.5877384,-0.8195801,0.6942106,-0.7051875,0.6473838
1.879034,-0.4933149,-0.9079484,0.9091945,-0.2530662,0.1109512
1.549838,-0.3259093,-0.8026771,0.736153,0.18118,-0.7307156
1.349158,-0.3113199,-0.6218565,0.5461966,0.7575064,-1.120293
1.124683,-0.256335,-0.431696,0.5980148,1.198479,-1.138718
0.884845,-0.1876573,-0.2014638,0.5711597,0.7746723,-1.049615
0.7079076,-0.133824,-0.1698184,0.6423142,0.3161949,-0.8577283
0.5301194,0.01149634,-0.2340434,0.7334438,-0.07931692,-0.6298105
0.5015466,0.09719762,-0.1903229,0.7081499,-0.7391045,-0.3191166
0.5135129,0.09224806,-0.1970514,0.7404153,-0.9741982,-0.01665496
0.5552941,0.06057247,-0.2482903,0.7682515,-1.161941,0.3168603
0.6980053,0.003343611,-0.2653501,0.8304629,-1.272927,0.6689614
0.7587171,-0.03360681,-0.3013337,0.868885,-0.82179,0.7707117
0.8067135,-0.06876386,-0.3037759,0.8545807,-0.3761074,0.7480814
0.8368908,-0.09187612,-0.2973033,0.9088294,-0.004614653,0.6977017
0.8162777,-0.09771642,-0.329883,0.9031894,0.1810851,0.5838873
0.8341798,-0.1213567,-0.3452237,0.8591585,0.2611508,0.4919861
0.8377619,-0.1589895,-0.3467566,0.7804571,0.6327728,0.4129225
0.8497415,-0.2070494,-0.3378918,0.6203912,0.7918441,0.3660955
0.8494857,-0.2093073,-0.3079131,0.5291192,0.771175,0.233715
0.8499428,-0.1600172,-0.2429919,0.4267561,0.6698879,0.02233269
0.887797,-0.1161263,-0.1851375,0.2839334,0.2677399,-0.07242485
0.9132302,-0.0832617,-0.2274885,0.2818587,0.0005198542,-0.08880633
0.9530192,-0.1053635,-0.3087272,0.3179209,-0.130904,-0.03074485
0.9727696,-0.1937288,-0.4210911,0.2557255,-0.253846,0.1421242
1.018586,-0.3092921,-0.5788054,0.260894,-0.2475903,0.3836838
1.115239,-0.4530392,-0.6178455,0.3905607,-0.146042,0.4955341
1.186569,-0.565119,-0.6284714,0.4923771,0.05179234,0.390244
1.31242,-0.6363717,-0.6794789,0.4974291,0.2446104,0.3099609
1.486602,-0.7544567,-0.4804691,0.4509017,0.5214992,0.03844412
1.564582,-0.8099362,-0.2075806,0.4365333,0.712228,-0.6063918
1.412128,-0.644094,-0.239304,0.4249925,0.4121489,-1.021082
1.1326,-0.4006536,-0.3261923,0.4025566,0.04824011,-0.9945558
0.9700547,-0.2414368,-0.2855207,0.3656145,0.08586858,-0.8895813
0.8432535,-0.1488644,-0.2202231,0.2234811,0.08401113,-0.7181905
0.7206071,-0.1648994,-0.08773513,0.07583051,-0.2281942,-0.3851907
0.6888179,-0.2521387,-0.01007455,0.04885246,-0.5140608,-0.1229106
0.6634043,-0.3022424,-0.06829077,0.1854632,-0.8079351,-0.0191248
0.6735744,-0.3326836,-0.09949819,0.3797243,-0.9872243,0.07579508
0.6900475,-0.3055059,-0.1203913,0.4220909,-0.8100146,0.06729358
0.643979,-0.2333175,-0.1560927,0.385189,-0.6638896,-0.06364428
0.6184057,-0.1755076,-0.1599036,0.3023549,-0.4694982,-0.2524805
0.5966366,-0.1427486,-0.176696,0.1468056,-0.1887851,-0.5683382
0.5776437,-0.2015976,-0.1622647,0.01386034,-0.2267365,-0.7886192
0.5698467,-0.2739925,-0.1139458,-0.06429565,-0.4767254,-0.8141123
0.5797175,-0.2970113,-0.104131,-0.05634429,-0.8563727,-0.7661974
0.7171381,-0.261862,-0.1621749,-0.0422905,-0.9794867,-0.6303206
0.9283991,-0.1268479,-0.3016713,-0.05623241,-0.3741495,-0.5615089
1.032138,-0.06642182,-0.3627373,-0.05226225,0.3001812,-0.6070412
0.9597308,-0.1100207,-0.2731489,-0.08920349,0.3398266,-0.6728461
0.8468806,-0.1381838,-0.1763138,-0.1699591,-0.005025094,-0.6669605
0.839616,-0.1770741,-0.1617335,-0.2384845,-0.5779052,-0.2622001
0.9597646,-0.2310482,-0.390354,-0.1464797,-1.452882,0.5190476
1.146341,-0.3143557,-0.8099071,0.1023008,-1.772164,0.9561289
1.191833,-0.3683107,-0.9873443,0.2437786,-1.188724,0.6764519
1.302039,-0.417944,-0.8507879,0.2035893,-0.4245564,0.3294263
1.633299,-0.5392995,-0.7640841,0.2144131,0.3204354,0.2155732
1.667931,-0.5261868,-0.777779,0.4413639,0.3701663,-0.03652768
1.549096,-0.3706048,-0.7344067,0.5673296,0.2020116,-0.4085545
1.527704,-0.2596101,-0.6956074,0.3761012,0.952455,-0.8637991
1.228229,-0.1905725,-0.5691903,0.2224244,0.948387,-1.04475
0.9265584,-0.1824746,-0.332448,0.2822575,0.3091978,-0.8068601
0.8002536,-0.1926764,-0.2716338,0.4068515,0.2250843,-0.7552019
0.619724,-0.1360379,-0.3076582,0.4966828,-0.3634767,-0.5990364
0.5622404,-0.03929676,-0.2789943,0.5225095,-0.6408031,-0.2412284
0.5920273,0.06853935,-0.2735177,0.5399002,-0.6161596,-0.03807288
0.6356921,0.09167236,-0.2674018,0.5913124,-0.9795044,0.3296501
0.7433221,0.02293367,-0.2839163,0.6015428,-0.5941294,0.5824443
0.7627824,-0.02134812,-0.3255799,0.5573821,-0.3408633,0.629559
0.7283426,-0.04600605,-0.299955,0.5591456,-0.3716937,0.7156213
0.7309734,-0.05549653,-0.2556775,0.5680621,-0.04965604,0.6448835
0.748255,-0.06401445,-0.2350522,0.5656185,0.001771008,0.6430265
0.7729529,-0.1077682,-0.2422778,0.5933698,0.3142797,0.6688675
0.7900962,-0.1385337,-0.2907137,0.5834601,0.707934,0.5839956
0.8017056,-0.1552605,-0.3127648,0.5609087,0.8647399,0.5279353
0.8015357,-0.1844214,-0.2833334,0.5167626,0.9434294,0.3591791
0.8160921,-0.2184211,-0.2474587,0.4295413,0.5966993,0.1256605
0.8464612,-0.2180775,-0.231227,0.3551733,0.2905862,-0.08157145
0.8693664,-0.1947781,-0.2488343,0.2977497,0.08321314,-0.1805796
0.9036225,-0.2036319,-0.2974384,0.2917447,-0.02101752,-0.1482858
0.93492,-0.2204783,-0.4258515,0.2593234,0.05511647,-0.0573821
1.005738,-0.3189762,-0.5859331,0.2185847,-0.0002059418,0.188468
1.136145,-0.4790454,-0.618172,0.29157,0.110261,0.3427525
1.275792,-0.5268343,-0.6854737,0.3797652,0.1781034,0.2541448
1.473543,-0.6258022,-0.7885293,0.5055787,0.3376428,-0.02786769
1.645122,-0.8438807,-0.4805092,0.6424463,0.6578248,-0.6777334
1.614967,-0.8389861,-0.1170055,0.6156788,0.2694621,-1.282378
1.452652,-0.579413,-0.2960617,0.5682009,-0.1231762,-1.29732
1.217096,-0.2804437,-0.4378985,0.5615225,0.08750308,-0.9886791
0.9694232,-0.002837513,-0.285345,0.3833868,0.07427124,-0.6471753
0.85812,0.07504362,-0.2698881,0.1145881,-0.1269221,-0.1446935
0.7734004,-0.09569294,-0.1597147,0.0431649,-0.193034,0.3335465
0.6783868,-0.2584388,0.0007157602,0.1927131,-0.3879877,0.4875769
0.6648834,-0.3136226,-0.06415442,0.3376641,-0.6350858,0.5154879
0.6265694,-0.2671513,-0.08202444,0.3292835,-0.7320177,0.5257421
0.6103956,-0.1977004,-0.1131724,0.2487487,-0.8532795,0.437027
0.6798034,-0.2064457,-0.1648188,0.1633269,-0.9063004,0.2094963
0.7577871,-0.2242697,-0.114931,0.06811668,-0.8184681,-0.2562749
0.8474201,-0.2724839,-0.1461437,0.006641769,-0.7755662,-0.7494933
0.8728442,-0.3238491,-0.1480335,-0.01835315,-0.6285733,-1.018855
0.7973574,-0.2907801,-0.1452421,0.008023477,-0.5197074,-1.074721
0.7268674,-0.2450727,-0.2378825,0.03025355,-0.612772,-0.9643622
0.7372928,-0.193351,-0.2775848,-0.01829442,-0.5881327,-0.8459042
0.7962336,-0.1734174,-0.2940065,-0.03999727,-0.4067353,-0.7867836
0.8354427,-0.2002009,-0.2427517,-0.02216474,-0.2482857,-0.6991961
0.8688062,-0.1831651,-0.1777488,0.03756506,-0.2586058,-0.5908951
0.8631505,-0.1605092,-0.2064385,0.1251435,-0.3118935,-0.4990345
0.819147,-0.1319465,-0.2309432,0.1193912,-0.1809508,-0.4322695
0.7932988,-0.09682607,-0.263685,0.06867462,-0.03655354,-0.3450641
0.7959414,-0.141869,-0.3050217,-0.002442781,0.01152625,-0.0668746
0.9195574,-0.1868421,-0.5074843,-0.1178938,-0.1049662,0.4757059
1.074823,-0.1535739,-0.9088645,-0.1683845,-0.3753944,0.9758089
1.142491,-0.1673484,-1.035849,-0.2033402,-0.5182666,1.058908
1.374435,-0.3066124,-0.8242356,-0.2851122,-0.6599474,0.8632261
1.700937,-0.4375465,-0.7386408,-0.2948957,-0.8489997,0.6476944
1.677909,-0.4233471,-0.8426398,-0.2256428,-0.5913075,0.1547924
1.514484,-0.3768974,-0.8297836,-0.1004502,0.1657524,-0.4864085
1.469656,-0.4012199,-0.61595,0.03908674,0.9112194,-0.6137533
1.211444,-0.3571814,-0.3558489,0.07107185,1.14572,-0.485781
0.9662096,-0.255547,-0.2529325,0.07826409,0.8518518,-0.5447851
0.9307856,-0.1770121,-0.3220433,0.1106714,0.512427,-0.4842101
0.7271057,-0.0381085,-0.3317975,0.09384179,0.1089136,-0.3538814
0.613374,0.06040324,-0.317732,0.08194934,-0.5250088,-0.2703869
0.6605117,0.04367934,-0.3675171,0.1045727,-0.8446905,-0.07843512
0.610205,0.001627466,-0.3482508,0.1807899,-0.7858242,0.05539961
0.6554817,-0.07429332,-0.3366089,0.2960329,-0.7116664,0.2070067
0.7052513,-0.1304454,-0.3382237,0.374057,-0.4484247,0.4851786
0.7226986,-0.1431333,-0.2892042,0.4385996,-0.003583265,0.6336996
0.7439112,-0.1642579,-0.2951536,0.5556674,0.2797219,0.6734105
0.7017607,-0.1860405,-0.3264951,0.6866287,0.3076243,0.682719
0.7843119,-0.214461,-0.3583973,0.7135954,0.4253976,0.6348076
0.861914,-0.2152186,-0.3816778,0.6818624,0.7071013,0.5837825
0.8568988,-0.1978832,-0.3611049,0.6523071,0.7660861,0.4899524
1.398838,-0.6268304,-0.4440248,0.8886033,0.2584559,-0.2905095
1.616466,-0.7956818,-0.2001137,0.8511587,0.4284358,-0.8687057
1.582062,-0.76138,-0.1595263,0.7752573,0.1941884,-1.272198
1.291672,-0.5041208,-0.2491484,0.5789558,0.1427464,-1.329012
1.023107,-0.2857323,-0.3065697,0.3373563,0.1013386,-1.231335
0.7044498,-0.001868797,-0.2406785,0.1819202,0.01006548,-1.096662
0.6422251,-0.06731945,-0.1375624,0.02668303,-0.07764844,-0.7948065
0.6751175,-0.2104576,-0.01838022,0.02538957,-0.1943241,-0.5596214
0.4811759,-0.08888715,0.06829755,0.1156009,-0.2753842,-0.4987197
0.5318017,-0.2211771,0.05170172,0.1626409,-0.5602825,-0.4056889
0.5338681,-0.2256832,0.03425202,0.2656435,-0.7176951,-0.4403808
0.4148503,-0.08634686,-0.04335963,0.1733105,-0.5826982,-0.4971421
0.5683454,-0.1830402,-0.1176855,0.007180638,-0.4707096,-0.5106885
0.564879,-0.1121828,-0.1013025,0.0424749,-0.4435706,-0.6440014
0.571585,-0.08831504,-0.16728,0.03543504,-0.8001195,-0.6559557
0.7203168,-0.1494169,-0.2613456,0.002885121,-1.317213,-0.6006238
0.8465388,-0.1316554,-0.342877,-0.003051383,-1.284961,-0.6086619
1.138186,-0.2748602,-0.4015697,-0.07418843,-0.8314116,-0.589563
1.220925,-0.3453497,-0.3730458,-0.1127392,-0.4423006,-0.5146106
1.163385,-0.3667882,-0.4673064,-0.07689887,-0.3056793,-0.103428
1.124477,-0.3985365,-0.7163671,0.09723347,-0.5891619,0.4716483
0.9355299,-0.328032,-0.878616,0.3259013,-0.9613118,0.6172083
0.9928022,-0.3595291,-0.8273922,0.3445937,-0.9597433,0.530848
1.292876,-0.4584885,-0.741236,0.3242381,-0.91159,0.5719675
1.636766,-0.5365805,-0.8028853,0.5554462,-0.8145509,0.3531544
1.770494,-0.4426376,-0.8368423,0.7475936,-0.3226612,-0.2081429
1.466537,-0.2370759,-0.8412062,0.6295929,0.4712625,-0.7031757
1.20043,-0.2382407,-0.7735532,0.5410818,1.043684,-0.9536262
1.003951,-0.2320227,-0.4640512,0.6653098,0.7948246,-0.7611981
0.7361178,-0.1742673,-0.2374693,0.7431734,0.5276027,-0.5164677
0.6561321,-0.1754681,-0.2083598,0.751158,0.6116894,-0.4838423
0.5869568,-0.03038143,-0.1836685,0.7760848,0.07938673,-0.1616453
0.4621997,0.1281667,-0.1711634,0.7519886,-0.5699333,0.09211092
0.5058913,0.1459861,-0.1781018,0.7440104,-0.8647367,0.1438411
0.5801955,0.1201331,-0.2182556,0.7531776,-1.020664,0.2982028
0.6318662,0.03920207,-0.2352612,0.7072084,-0.8020611,0.3421342
0.8235173,-0.1093283,-0.2713374,0.7192482,-0.5441414,0.5188123
0.9371102,-0.1939833,-0.364976,0.8488188,-0.1736293,0.626998
0.8962162,-0.2019232,-0.4002421,1.019911,0.2917202,0.5072228
0.9519903,-0.2986634,-0.4267941,1.060619,0.4135743,0.5300674
0.9828064,-0.3777341,-0.431511,0.9732617,0.701458,0.362081
0.9723399,-0.343905,-0.4275085,0.9296838,1.07932,0.03616919
0.9878107,-0.2928567,-0.4441067,0.7882565,1.073268,-0.2426437
0.8732629,-0.1848187,-0.4249542,0.5385871,0.8168792,-0.5159247
0.8011149,-0.1683066,-0.4743361,0.35776,0.4476318,-0.5286848
0.8940019,-0.3215511,-0.536907,0.2627268,0.19612,-0.3195866
1.02798,-0.4277683,-0.5749414,0.312756,-0.01081251,-0.005658365
1.195565,-0.4740868,-0.6317295,0.3287344,-0.1304071,0.2390037
1.454979,-0.599614,-0.5752648,0.2733743,0.09664207,0.2363158
1.656988,-0.7617883,-0.3720395,0.3454588,0.3207387,-0.06509487
1.507727,-0.7161176,-0.1809794,0.3801432,0.3524213,-0.6972028
1.302598,-0.5438625,-0.2908155,0.3518117,0.4479173,-1.109602
1.263209,-0.4403745,-0.443055,0.3089496,0.5461097,-1.041867
0.9638539,-0.2199848,-0.2204638,0.2064849,0.4723348,-0.9208665
0.5743034,-0.009671551,-0.04593362,0.1671118,0.3077896,-0.7422216
0.544034,-0.06600681,-0.06131414,0.1719644,0.04159278,-0.4423829
0.5971953,-0.1875355,-0.002257023,0.219069,-0.1731881,-0.3702127
0.4745206,-0.2275483,0.03289999,0.2823971,-0.2338641,-0.4937972
0.4541858,-0.2640052,0.05082836,0.2625498,-0.3983079,-0.4560346
0.5382958,-0.2356244,0.02395741,0.1446851,-0.4410493,-0.4191428
0.4820099,-0.1074494,-0.07580569,-0.08793889,-0.4719837,-0.4746466
0.5007089,-0.09629415,-0.1365527,-0.2145528,-0.7487074,-0.4198118
0.6010744,-0.1376463,-0.1869601,-0.2114614,-0.8970122,-0.4163982
0.6877264,-0.1215437,-0.2804061,-0.2505109,-1.062323,-0.4195512
0.8971324,-0.180495,-0.4194283,-0.2775558,-1.009058,-0.3751786
1.036596,-0.2024147,-0.4011033,-0.3454775,-0.5177599,-0.4782366
1.148559,-0.2099349,-0.2987132,-0.3539561,-0.1209331,-0.6178235
1.21925,-0.2613942,-0.3572208,-0.28289,0.1282732,-0.617302
1.060481,-0.3288868,-0.3779988,-0.2374972,-0.2702897,-0.1948188
0.9532176,-0.4535445,-0.5159929,-0.03266284,-1.116411,0.4833803
0.8890519,-0.4150507,-0.8026612,0.1350321,-1.29379,0.7763071
0.9069845,-0.3504518,-0.8048852,0.1086856,-1.196327,0.8725079
1.238196,-0.4360993,-0.6557508,0.129694,-1.214717,1.076336
1.604719,-0.4111642,-0.6141608,0.2170478,-1.147249,1.052519
1.717829,-0.3305019,-0.7961816,0.3414344,-0.7873449,0.5829748
1.537114,-0.2624783,-0.9855548,0.3317583,0.2602124,-0.1880357
1.296578,-0.2056302,-0.7510322,0.1827818,1.203829,-0.684112
1.069793,-0.2278732,-0.4330655,0.2020752,1.148589,-0.6299937
0.8364228,-0.2085047,-0.3494014,0.2553679,0.8464027,-0.5461096
0.774941,-0.1608825,-0.2904874,0.2155125,0.8634634,-0.5044233
0.6158366,-0.07026234,-0.2105452,0.1802216,0.4553681,-0.2745084
0.4620062,0.0868241,-0.1504305,0.07353212,-0.2348049,-0.07664958
0.5613322,0.1286749,-0.1517539,0.0009948296,-0.4866007,0.1478064
0.5903401,0.09169316,-0.1876654,0.04546452,-0.6375049,0.5018239
0.7065334,0.05654582,-0.2281355,0.06164003,-0.5429198,0.8344876
0.8453298,-0.01732155,-0.3321803,0.06998167,-0.2097955,1.097616
0.8038773,-0.0781328,-0.3894426,0.1058582,0.1130592,1.176535
0.8635152,-0.1035793,-0.3612539,0.09706344,0.7212873,1.107419
0.8761546,-0.1051637,-0.3595134,0.04992674,1.01522,1.035995
0.8394219,-0.1150235,-0.3393684,-0.03395398,1.044949,0.9489057
0.8789245,-0.1513706,-0.2927524,-0.1752649,1.188144,0.8167743
0.8891811,-0.1540572,-0.2811504,-0.335469,1.145007,0.6438109
0.9635955,-0.1141487,-0.2469121,-0.4760979,1.217551,0.4755216
0.9950891,-0.06453391,-0.1987277,-0.6310511,1.138954,0.338677
0.9467205,-0.0003133103,-0.2383298,-0.8810388,0.7911068,0.3062166
0.9056095,0.06104289,-0.3817906,-1.236876,0.5049421,0.3879037
0.834596,-0.0008721936,-0.5628888,-1.634443,0.2069961,0.5587795
0.840157,-0.1907853,-0.6863597,-1.88298,0.1643999,0.8168442
0.9498533,-0.3937233,-0.7925799,-1.877913,0.2226512,0.9129057
1.241894,-0.74501,-0.8744261,-1.757019,0.53388,0.8290286
1.589086,-1.105373,-0.5870699,-1.239654,1.416119,0.5528226
1.535561,-0.9903209,-0.1930036,-0.5477392,1.979164,-0.1873845
1.312782,-0.6957902,-0.3254008,-0.7302119,1.842877,-0.831834
1.222101,-0.5807746,-0.4218448,-1.090693,1.578219,-0.8464312
0.9878742,-0.299089,-0.1996269,-0.8808371,1.399124,-0.6967315
0.8376974,-0.0740029,-0.2456962,-1.103659,1.047345,-0.5303736
0.8967199,-0.1488391,-0.2313474,-1.333444,0.735418,-0.1519994
0.8126486,-0.1564538,-0.08695422,-1.149068,0.6354178,0.2272854
0.7667167,-0.1793852,-0.1851718,-1.336162,0.2156471,0.4788815
0.7769498,-0.1863475,-0.2179547,-1.45585,-0.126375,0.7048609
0.7394394,-0.1182854,-0.2357299,-1.427281,-0.1407629,0.8761662
0.8607004,-0.2512019,-0.2591636,-1.439975,-0.2935155,0.9069176
0.9626766,-0.3702469,-0.1576533,-1.226095,-0.1787691,0.7443574
0.9626048,-0.4113726,-0.1708682,-1.183813,-0.04587339,0.378719
0.9353786,-0.4610463,-0.179929,-1.176767,-0.1815084,0.03157462
0.8796998,-0.4327043,-0.1624346,-1.092862,-0.07316823,-0.1095053
0.867574,-0.4062947,-0.1883973,-1.080059,0.0895124,-0.1459004
0.7993136,-0.3033975,-0.1588219,-0.9381435,0.3080639,-0.1705007
0.7362358,-0.2303332,-0.1838497,-0.9090087,0.4624716,-0.1630075
0.7493931,-0.2441008,-0.1887023,-0.9293218,0.2411969,-0.1114377
0.7748979,-0.1846847,-0.1506793,-0.9327528,0.02650446,-0.06201352
0.8484243,-0.1813863,-0.146679,-1.029264,-0.2058035,-0.01209556
0.9194923,-0.2087011,-0.1350759,-1.011581,-0.3774432,0.03368754
0.9700607,-0.2166612,-0.1757308,-1.016638,-0.2549033,0.02156062
0.9619474,-0.2288214,-0.2015932,-1.017942,-0.1372968,0.00373672
0.9183422,-0.1706501,-0.2017583,-0.960886,0.01714253,-0.03422869
0.8818325,-0.1185476,-0.2421081,-0.9976035,0.2083665,-0.1114585
0.6996679,-0.07872706,-0.3223855,-1.048567,0.1499896,-0.1338593
0.4575491,-0.03366736,-0.5055268,-1.195792,-0.3230468,-0.03654309
0.45933,-0.05538271,-0.6430024,-1.445707,-1.3091,0.2656729
0.8792037,-0.2428924,-0.7004382,-1.66704,-2.239287,0.8309053
1.490547,-0.6883015,-0.9296185,-1.573066,-2.489809,1.479259
1.74899,-1.026678,-1.142901,-0.7341147,-2.461,1.604248
1.636751,-0.7847451,-1.072259,0.1566038,-1.733671,0.9306556
1.732647,-0.4923312,-1.099686,0.06571585,1.051853,0.1489575
1.933377,-0.6396536,-1.219939,-0.1989955,3.70889,-0.3317562
1.452355,-0.4609465,-0.8423591,-0.01684055,3.118056,-0.7735983
0.6078425,0.03514167,-0.3165114,-0.3640002,1.7688,-0.9398896
0.3136347,0.1005648,-0.2452709,-0.9185398,1.042017,-0.5457251
0.4889236,0.1069289,-0.3346244,-1.160806,-1.097159,-0.06394033
0.6550391,0.2369982,-0.3119384,-1.464395,-2.191157,0.3071993
0.6526135,0.2117447,-0.3209234,-1.210374,-1.562242,0.6202827
0.6676008,0.01425657,-0.4600241,-0.7777621,-1.636901,0.6078011
0.6910364,-0.3128146,-0.5713247,-0.6268189,-0.9648827,0.5684811
0.6500572,-0.4467704,-0.5545972,-0.1437187,-0.1775692,0.6777213
0.7393009,-0.4298785,-0.4793087,0.07222652,-0.1838952,0.6331398
0.7698129,-0.450257,-0.3631667,0.1067881,0.5062952,0.6194251
0.750547,-0.354339,-0.3289765,0.3377919,0.7646473,0.5899559
0.7715313,-0.1935925,-0.3379889,0.3237972,0.6432,0.4477282
0.6871026,-0.07014477,-0.2979851,0.3943559,0.6648005,0.3774291
0.7101163,-0.04940436,-0.3322786,0.5042809,0.4547017,0.2724922
0.7435101,-0.08749365,-0.3639276,0.5557998,0.619323,0.2210302
0.7387981,-0.1409314,-0.3604142,0.6621044,0.6295189,0.2541326
0.803891,-0.2466144,-0.3734954,0.6478779,0.6448307,0.2265561
0.7867511,-0.2794086,-0.3314903,0.7043682,0.723523,0.2028751
0.8131696,-0.2728329,-0.2912154,0.7488652,0.3083109,0.1085921
0.8393596,-0.2795777,-0.2944286,0.7980831,-0.04373226,-0.07872996
0.8327169,-0.248195,-0.3389204,0.8626311,-0.2614025,-0.2311002
0.8722888,-0.2343347,-0.4956316,0.7321196,-0.07895015,-0.2622917
0.8589476,-0.2803764,-0.707759,0.6625432,0.2922331,-0.1511373
0.9170478,-0.3945672,-0.7480071,0.6618838,0.3845731,-0.04198224
1.034777,-0.4709021,-0.6624903,0.6615707,0.4331905,0.001500315
1.22451,-0.4965942,-0.6733497,0.6683996,0.2878731,0.00599343
1.517334,-0.683331,-0.5783024,0.6008747,0.2907239,-0.1720425
1.586026,-0.9112554,-0.3698051,0.5893878,0.1486214,-0.5837079
1.383192,-0.7866125,-0.3498842,0.5806756,-0.2601357,-0.9347585
1.145575,-0.4985224,-0.3521425,0.4980805,-0.1446942,-1.071105
0.950511,-0.3726205,-0.2307887,0.3301033,-0.1199805,-1.152999
0.7769399,-0.214319,-0.07246048,0.1734888,-0.2766655,-1.071431
0.6864541,-0.1598027,0.05858814,0.2009349,-0.1625746,-0.803574
0.6837473,-0.2704559,0.06368004,0.3079466,-0.04245052,-0.7158841
0.6332437,-0.2216149,0.03612978,0.450747,0.213165,-0.7592601
0.5342812,-0.1858987,0.00657441,0.5014206,0.3528171,-0.7512263
0.4302225,-0.1533434,-0.09299182,0.3486065,0.2048579,-0.7638769
0.3784469,-0.0479212,-0.1656221,0.1315087,-0.09763559,-0.6709738
0.4414597,-0.05663944,-0.2150103,-0.1183813,-0.6767518,-0.4993212
0.5801617,-0.02699268,-0.2692051,-0.2420024,-0.9919646,-0.4445397
0.764426,-0.04617195,-0.2826068,-0.2194719,-0.7754835,-0.4743035
0.8881399,-0.1675227,-0.2767289,-0.2690923,-0.6519019,-0.481119
0.953878,-0.2027099,-0.2818261,-0.2950669,-0.6295827,-0.4048408
1.067604,-0.2255168,-0.3075159,-0.2306162,-0.3227482,-0.3563804
1.128359,-0.2398677,-0.3282815,-0.1695544,-0.1105182,-0.3676548
1.112554,-0.3185265,-0.3331635,-0.08544655,-0.3568041,-0.2783512
1.106864,-0.4520483,-0.3929723,0.01367076,-0.8185037,0.01493623
1.111884,-0.4793666,-0.5726785,0.1772001,-1.095281,0.3725159
1.148537,-0.4343297,-0.7757678,0.3740773,-0.9873432,0.4587533
1.267744,-0.3725773,-0.8530015,0.3654823,-0.8737498,0.5857423
1.498117,-0.3797538,-0.8236342,0.4409664,-0.8122475,0.872079
1.640051,-0.3373532,-0.762496,0.7088083,-0.3796695,0.4257892
1.462078,-0.2245197,-0.723229,0.5971338,0.2052134,-0.409523
1.178454,-0.2742507,-0.6458251,0.4184698,0.6727751,-0.6651801
0.997543,-0.3032171,-0.4229477,0.4887283,0.8421856,-0.7117508
0.8330743,-0.2309413,-0.2701418,0.4281086,0.4764057,-0.6670359
0.7404965,-0.1673907,-0.3155799,0.4869694,0.1274272,-0.4296287
0.7279242,0.002678861,-0.3231159,0.6029121,0.1201354,-0.2684353
0.671227,0.1610524,-0.2782609,0.5015237,-0.130204,0.01664031
0.6374926,0.2030107,-0.2872144,0.4937752,-0.6506171,0.3391458
0.643919,0.2062729,-0.2900316,0.503243,-0.8629786,0.5209549
0.6658504,0.1400005,-0.2934474,0.4682708,-0.6750916,0.6832058
0.7386678,0.04499702,-0.3062688,0.481571,-0.4214499,0.799241
0.7782908,-0.04306585,-0.2841896,0.4729551,-0.1779727,0.9499079
0.8098889,-0.1602562,-0.2565117,0.5707606,0.1751354,0.9467778
0.8404564,-0.2262154,-0.261606,0.6814041,0.3863845,0.7778403
0.7928561,-0.2015574,-0.304208,0.6408897,0.4514455,0.6591576
0.777013,-0.2060014,-0.3427848,0.5433349,0.64276,0.4411888
0.8037862,-0.2577626,-0.3091423,0.4629782,0.689245,0.2778474
0.8292392,-0.2612741,-0.250472,0.4445125,0.5642266,0.136783
0.8756779,-0.2266026,-0.2451477,0.444905,0.4861956,-0.08756398
0.888032,-0.1635241,-0.2626596,0.3796138,0.3293913,-0.1531832
0.9044156,-0.1079154,-0.3019383,0.2798599,0.1385125,-0.1582758
0.9397805,-0.1580216,-0.3902291,0.2220234,-0.01246544,-0.0540115
0.9358127,-0.2698153,-0.5099869,0.172492,-0.1074684,0.1729496
0.941765,-0.4171144,-0.6367767,0.1496347,-0.1804151,0.3381976
1.021337,-0.579685,-0.7010345,0.2228267,-0.2032144,0.4403051
1.233339,-0.6583978,-0.6776059,0.2953491,0.1050598,0.327478
1.581312,-0.7421277,-0.5654113,0.3830535,0.4556345,-0.0891889
1.780783,-0.8178736,-0.3324417,0.459728,0.4178965,-0.7411457
1.536028,-0.6627752,-0.1870521,0.41312,0.2750589,-1.129317
1.1665,-0.3805787,-0.2966813,0.3718195,0.2528999,-0.9795306
1.017922,-0.1959055,-0.3573754,0.2894436,0.2490851,-0.8601164
0.8362604,-0.08564759,-0.2113341,0.09401995,0.2010717,-0.6857268
0.6560016,-0.08239732,-0.08470556,-0.02007803,0.06312128,-0.2913821
0.6629499,-0.2067528,-0.004799704,-0.01265263,-0.1880425,-0.1058605
0.6464694,-0.3057638,0.05421521,0.05175763,-0.4070144,-0.03033683
0.6383663,-0.3173349,0.01166597,0.147136,-0.5253607,-0.01159507
0.6477827,-0.2094262,-0.09931554,0.178474,-0.6093241,-0.07640431
0.5920273,-0.06972451,-0.2290017,0.03866581,-0.4517392,-0.1168808
0.6133106,-0.09070559,-0.2500814,-0.2005105,-0.08630421,-0.2932351
0.628367,-0.1456912,-0.1742851,-0.3638605,0.04428795,-0.4988592
0.6252679,-0.1654893,-0.1848539,-0.4168152,-0.1712199,-0.633513
0.6873247,-0.2266452,-0.2018096,-0.3844333,-0.5803893,-0.6877566
0.7645646,-0.2083928,-0.2540432,-0.3567169,-0.8174826,-0.5355416
0.8816808,-0.1587619,-0.3772264,-0.3864816,-0.4887409,-0.4026953
0.9022319,-0.1602666,-0.3334181,-0.3749165,0.09329877,-0.4125618
0.8298224,-0.1456116,-0.2060585,-0.3593955,0.2729166,-0.4441233
0.8076999,-0.1851486,-0.1512802,-0.3783218,-0.08935488,-0.4057149
0.7794138,-0.3099743,-0.1757852,-0.3556771,-0.7161149,-0.03623589
0.8279477,-0.422635,-0.366087,-0.2825526,-1.292451,0.6939385
1.008894,-0.4223035,-0.6566314,-0.1129622,-1.483163,1.252819
1.330108,-0.368531,-0.8564517,0.06723215,-1.241199,1.281005
1.743916,-0.3753167,-0.8105396,0.0151565,-0.8530525,1.132547
1.908802,-0.2979805,-0.7432956,-0.1877605,-0.09160335,0.8064839
1.806994,-0.1993759,-0.8308667,-0.2310249,1.071837,0.06885869
1.560818,-0.2716039,-0.7063981,-0.1913502,1.482915,-0.3640722
1.098402,-0.297518,-0.4533508,-0.3174378,1.091394,-0.308773
0.8177321,-0.2247055,-0.3259085,-0.4213937,1.016341,-0.2468937
0.8216957,-0.1706625,-0.226432,-0.4126808,0.8915775,-0.01364839
0.6893693,-0.05104511,-0.2221622,-0.4676298,0.3899951,0.2255067
0.6132313,0.07550099,-0.2007331,-0.4694243,-0.033562,0.3466827
0.653294,0.1003723,-0.1844571,-0.3899683,-0.4023479,0.5526191
0.605197,0.04754432,-0.2562557,-0.279973,-0.4476143,0.6696631
0.6618613,-0.03951737,-0.2144324,-0.1007856,-0.3524634,0.8781878
0.7085245,-0.1234735,-0.2178551,-0.00771505,-0.3502094,1.11747
0.696666,-0.1490817,-0.2610611,0.02637291,-0.04482542,1.133752
0.7888278,-0.1508468,-0.2515402,0.09673952,0.2468579,1.204006
0.8551115,-0.2270456,-0.3296201,0.1657871,0.5123663,1.233913
0.9148161,-0.2543005,-0.3390116,0.2506988,0.7981247,1.128718
0.9594082,-0.2112173,-0.3048901,0.2254225,0.8688962,0.9457088
0.951581,-0.2035791,-0.297673,0.07691974,1.010303,0.6435412
0.9617934,-0.1122684,-0.222798,-0.08867733,0.8733734,0.4755832
0.9448742,0.005360323,-0.1728513,-0.3073486,0.4696564,0.4091539
0.9529662,0.009513384,-0.1979869,-0.5627359,0.2747881,0.3405924
0.9749846,-0.03132012,-0.3022024,-0.8457521,0.1815505,0.3778149
0.9693405,-0.04656609,-0.3744454,-1.014514,0.2655976,0.4053079
0.9682106,-0.05637165,-0.3738081,-1.034732,0.2492042,0.5390994
0.9734806,-0.1950988,-0.5374061,-1.277457,0.2147026,1.083779
1.157973,-0.5123682,-0.9024831,-1.565372,0.5878258,1.588291
1.503988,-0.7857884,-1.091189,-1.485145,0.8655804,1.132773
1.650624,-0.7051692,-0.8435918,-1.49988,0.8677081,-0.05600957
1.49814,-0.4969874,-0.6117632,-1.842142,0.8548336,-0.9700073
1.345835,-0.5105663,-0.6664648,-1.936324,0.948748,-1.27717
1.243046,-0.4759569,-0.6207874,-1.681764,1.235636,-1.078026
0.9837816,-0.4397832,-0.4813882,-1.449456,1.574792,-0.699191
0.8162502,-0.515132,-0.4033675,-1.274981,1.656799,-0.182252
0.8010209,-0.4586532,-0.3278474,-1.052033,1.373139,0.4724175
0.6764473,-0.3989387,-0.3351926,-0.9035193,1.068919,0.7506756
0.6695233,-0.2893029,-0.3458778,-0.9260113,0.6139737,0.9251902
0.7671553,-0.1902888,-0.3090826,-0.9078304,0.04585211,1.137133
0.806554,-0.2842357,-0.4030292,-0.9006933,-0.0544894,1.092103
0.9493433,-0.3262376,-0.5485907,-0.9954327,0.0308024,1.106559
1.043487,-0.4173399,-0.5492819,-0.8398193,0.3246406,0.889226
1.040193,-0.5252192,-0.4639209,-0.6648521,0.9255667,0.3973002
1.02208,-0.5021224,-0.375418,-0.7447496,1.064659,0.1107964
0.8347507,-0.5221064,-0.2304781,-0.7341453,0.8201846,-0.03018945
0.5713946,-0.4775585,-0.05170396,-0.6798841,0.6599873,-0.1718983
0.4618301,-0.4063853,-0.005121704,-0.6271036,0.3773599,-0.4013375
0.4958229,-0.3540929,-0.04398457,-0.5047459,-0.07636875,-0.3957786
0.4806766,-0.2509453,0.01175514,-0.4669622,-0.4585605,-0.3781422
0.4823819,-0.2249438,0.008651463,-0.4525239,-0.7436947,-0.6007616
0.6091258,-0.1814648,-0.06479946,-0.4367776,-0.8247327,-0.6734728
0.6557745,-0.1010325,-0.05882451,-0.4763433,-0.6317043,-0.9290025
0.6839723,-0.03165358,-0.1131075,-0.5363074,-0.5015783,-1.146181
0.7274668,0.05036356,-0.1750007,-0.5782379,-0.3847551,-1.1767
0.7020063,0.02945997,-0.1988893,-0.5793601,-0.2421284,-1.335227
0.765739,-0.02969267,-0.2359355,-0.5906066,-0.4358032,-1.178219
0.8536783,-0.08191497,-0.2252392,-0.6139096,-0.7797987,-0.993646
0.9441475,-0.1688982,-0.2836796,-0.6065531,-0.9077315,-0.9020153
1.035485,-0.2381682,-0.3061856,-0.5351381,-0.7910549,-0.7010172
0.9954158,-0.3538274,-0.3267641,-0.4386613,-0.7070684,-0.539147
0.9898855,-0.5059768,-0.5634741,-0.3687137,-0.869869,0.06335279
1.02274,-0.5366789,-0.707015,-0.2399775,-0.9666036,0.8466109
1.017184,-0.4753266,-0.6811294,-0.1396354,-0.8938777,1.171462
1.122434,-0.4886903,-0.6999542,-0.1781113,-0.8981261,1.18294
1.299233,-0.5184353,-0.7232902,-0.0752056,-0.9612043,1.112318
1.549112,-0.5094061,-0.7424075,0.3444574,-0.9622329,0.933527
1.834915,-0.545257,-0.8587004,0.7098069,-0.6346701,0.2570576
1.778469,-0.4822895,-0.9976621,0.616903,0.3945783,-0.7776
1.421522,-0.3335959,-0.8649386,0.3989967,1.467257,-1.384362
1.157014,-0.2927236,-0.5563446,0.4956756,1.456116,-1.299046
0.9178672,-0.2863764,-0.3370087,0.6034969,1.066647,-1.115144
0.6604846,-0.2411669,-0.2293516,0.6736244,0.8877681,-1.030671
0.5121642,-0.1829559,-0.2477158,0.7826859,-0.06162646,-0.5650909
0.5062462,-0.1930553,-0.2401584,0.6922079,-0.9914535,-0.1450494
0.6060567,-0.198786,-0.2359621,0.7180817,-1.157919,0.05775226
0.5642872,-0.04704431,-0.3119503,0.8273348,-1.429368,0.453848
0.594671,0.04329659,-0.3344869,0.8000092,-1.225089,0.5922636
0.7738442,-0.07985298,-0.3542656,0.8656458,-0.6952621,0.5448942
0.7227897,-0.2473712,-0.3010868,0.8455183,-0.524945,0.546297
0.7435172,-0.296202,-0.2262447,0.8995229,-0.08710706,0.3954678
0.8094775,-0.2658148,-0.2598219,1.12934,0.2460011,0.3455042
0.7415548,-0.283624,-0.2820446,1.216292,0.5686477,0.2895028
0.8170623,-0.2815263,-0.3701382,1.237287,1.049311,0.1700945
0.8704189,-0.2586214,-0.4362017,1.154469,1.05176,0.1158027
0.9235575,-0.2020001,-0.3416936,1.067054,0.9852017,-0.1012312
0.9671783,-0.05469858,-0.294236,0.9525856,0.5814332,-0.3464314
0.9039553,-0.01770391,-0.4060413,0.6491389,-0.1270784,-0.4608197
0.9559902,-0.1360291,-0.5827465,0.3550193,-0.2055656,-0.361828
1.047761,-0.3274888,-0.6446458,0.1495247,-0.1088294,-0.04372077
1.181685,-0.5169465,-0.6223408,0.2899661,-0.2528021,0.1635968
1.319056,-0.5731176,-0.6142479,0.5326754,-0.2470104,0.1820793
1.506117,-0.6747781,-0.4827064,0.5785522,0.1744441,-0.101036
1.820291,-0.8670411,-0.2274245,0.8024407,0.5322346,-0.7081485
1.695334,-0.7739508,-0.1261789,0.8039804,0.2555132,-1.142519
1.207231,-0.3931126,-0.2875867,0.6061183,-0.0004061414,-1.106671
0.9007589,-0.08236966,-0.3813245,0.6911736,0.1301253,-0.8403871
0.784339,-0.007721806,-0.29245,0.6083864,0.07239268,-0.6472091
0.7978016,-0.1320558,-0.2018254,0.4768522,-0.09652631,-0.3933099
0.6523434,-0.2374497,-0.03434075,0.5357039,-0.03472935,-0.1939343
0.4997975,-0.3013946,0.09746555,0.5948065,-0.1251844,-0.2765144
0.6198595,-0.3952533,0.05425345,0.7635493,-0.4164659,-0.3221509
0.5549962,-0.3634661,0.05536733,0.7976079,-0.5327835,-0.4056276
0.4909822,-0.2956198,0.05799928,0.6819251,-0.6002529,-0.4982101
0.5942356,-0.1590557,-0.04824503,0.570624,-0.5395377,-0.4621747
0.5292617,-0.0009343653,-0.06882845,0.2854728,-0.4010446,-0.6405762
0.5550195,-0.08572349,-0.04027307,0.1101812,-0.5752413,-0.8172307
0.5969787,-0.1019173,-0.1051801,0.1026227,-1.008372,-0.8379434
0.6101962,-0.08703913,-0.1878274,0.0735792,-1.474985,-0.7767584
0.8440288,-0.1901382,-0.3061237,0.1492567,-1.303628,-0.6198953
1.092845,-0.1709797,-0.422439,0.1969431,-0.3327467,-0.6526182
1.271931,-0.1959752,-0.4317107,0.18211,0.323681,-0.6840424
1.193225,-0.2396339,-0.3801964,0.1762099,0.03445286,-0.5323406
0.9798991,-0.3165439,-0.3489041,0.1577585,-0.7577046,-0.1386139
0.9858601,-0.4524776,-0.53613,0.2862827,-1.250783,0.5566652
0.9365134,-0.3130974,-0.8677751,0.4220637,-1.219071,0.8543258
0.9745419,-0.1932302,-0.9707019,0.3928008,-1.09305,0.8150748
1.414441,-0.3583977,-0.903666,0.4312364,-0.9843688,0.9069869
1.922626,-0.4478112,-0.926318,0.5801969,-0.41611,0.3452714
1.965575,-0.3353547,-0.9859218,0.584064,0.7920024,-0.7316709
1.496965,-0.224958,-0.872941,0.4384636,1.44536,-1.08073
1.094933,-0.1989613,-0.5823875,0.4234848,1.034294,-0.9295014
0.8312569,-0.1865632,-0.2999446,0.5051497,0.7716395,-0.8992686
0.6146873,-0.1837106,-0.1913663,0.538078,0.6976766,-0.7016963
0.5524094,-0.1271853,-0.2362202,0.6249204,0.232562,-0.3822156
0.4422806,0.003649316,-0.1911344,0.6160179,-0.2632426,-0.1230079
0.43805,0.1193292,-0.1373995,0.5252044,-0.744304,0.2063387
0.4925456,0.1708384,-0.215606,0.6240387,-1.106622,0.4973194
0.4733332,0.1001315,-0.2382746,0.6874728,-1.003793,0.7429207
0.6213348,-0.004810511,-0.2642843,0.6754064,-0.8574767,0.9932298
0.7335352,-0.1012666,-0.2947847,0.8062032,-0.6939628,1.027279
0.7987706,-0.2146662,-0.2797301,0.9555817,-0.1880341,0.8815074
0.8686634,-0.2572359,-0.3401936,1.043256,0.136133,0.7230581
0.8438526,-0.2773498,-0.3661093,0.977195,0.3699443,0.4695276
0.8741966,-0.2911346,-0.36888,0.8339063,0.8336522,0.2020654
0.8589375,-0.2722334,-0.3913891,0.780914,1.080408,-0.0003707061
0.8450278,-0.2331986,-0.368291,0.6905606,1.088703,-0.2322216
0.8651563,-0.1289532,-0.3476065,0.6119188,0.8629461,-0.3391924
0.840371,-0.08530056,-0.3207926,0.4711872,0.4052575,-0.2890372
0.9332086,-0.1614485,-0.3985791,0.2055295,0.06937154,-0.1522372
1.029001,-0.2656308,-0.5501019,0.1008841,-0.07303774,0.1366039
1.083612,-0.3592908,-0.5837498,0.1120243,-0.2893966,0.3140623
1.251528,-0.4612531,-0.55443,0.1792825,-0.5165879,0.2331471
1.629661,-0.8961596,-0.4269959,0.4481545,-0.004158645,-0.1320199
1.988436,-1.411013,-0.2695988,0.7417359,0.8290637,-0.9774013
1.769658,-1.042613,-0.3112466,0.6690964,0.8884185,-1.660406
1.262156,-0.2616004,-0.3674384,0.4475865,0.6931292,-1.476881
0.9753397,-0.02750401,-0.2793023,0.4376546,0.5991804,-1.023095
0.7264942,0.09478183,-0.1826016,0.1878271,0.1961949,-0.6142427
0.5809975,0.1545555,-0.04886373,-0.03384031,-0.3042711,0.06650087
0.6046219,-0.0941574,0.03869491,0.2069247,-0.6598488,0.4842794
0.6012899,-0.2803292,-0.01115389,0.3135752,-0.8512752,0.4166739
0.5787155,-0.3527461,-0.004449597,0.3970117,-0.8803248,0.3692596
0.5568622,-0.2153793,-0.02498677,0.4558297,-0.8888571,0.2790768
0.5778664,-0.05154571,-0.1064744,0.2434872,-0.9075035,0.1082856
0.6206858,-0.1157323,-0.1380535,0.1543189,-0.7475983,-0.1247053
0.6382549,-0.1074534,-0.2212469,0.01523688,-0.4769397,-0.5516389
0.6549434,-0.1547269,-0.2042561,-0.1063905,-0.4896746,-0.9326863
0.6228644,-0.2384636,-0.1444903,-0.09937071,-0.8199469,-1.05216
0.6575861,-0.2243574,-0.2188431,-0.2268586,-1.076183,-0.9008879
0.8171476,-0.2726691,-0.2810408,-0.1877127,-0.7749056,-0.761835
0.9928482,-0.2611125,-0.3682083,-0.06960772,0.2088302,-0.7186716
1.058986,-0.2423434,-0.3360538,0.00941795,1.026856,-0.6129136
0.9602772,-0.2220834,-0.2083909,0.09274782,0.7003471,-0.6133133
0.9045249,-0.203726,-0.2298146,-0.0182552,-0.2858499,-0.3777965
0.8734354,-0.2560989,-0.2014559,-0.003843049,-1.024132,0.2996265
0.8831899,-0.2474504,-0.3239711,0.1881778,-1.464226,0.7893455
1.018489,-0.2888965,-0.6852998,0.3171609,-1.308334,0.8497413
1.092699,-0.2976555,-0.782562,0.3389254,-0.9260227,0.8145215
1.456053,-0.2391727,-0.7145545,0.19025,-0.7003118,0.7887138
1.928199,-0.2540064,-0.7776454,0.08718319,0.3021116,0.1064033
1.704875,-0.201775,-0.8253541,0.08089083,1.01204,-0.9637202
1.269213,-0.2024237,-0.643764,0.08529804,0.6442973,-1.014442
1.061956,-0.2876879,-0.3405216,0.09899101,0.6189502,-0.5191319
0.8256369,-0.3112769,-0.2421253,0.1753472,0.5858603,-0.4030321
0.7593993,-0.2761147,-0.273851,0.3578371,0.2200261,-0.181435
0.7192269,-0.09972355,-0.270661,0.3320421,-0.1528562,0.01597935
0.564577,0.1005216,-0.2833253,0.2416375,-0.7710153,0.03945153
0.5870839,0.1595438,-0.2719327,0.3073403,-1.181946,0.2151831
0.557866,0.0821448,-0.261939,0.3056335,-1.278231,0.2866888
0.5039365,-0.0432187,-0.2650453,0.3955643,-1.137197,0.402485
0.6290361,-0.1297516,-0.2363391,0.5651379,-0.8058647,0.6818012
0.7005454,-0.2129599,-0.2198781,0.7555283,-0.3842496,0.7313093
0.8090813,-0.2229842,-0.2400715,0.9925914,0.09077083,0.6978714
0.9028798,-0.2083853,-0.3107338,1.061515,0.3606712,0.6316411
0.891775,-0.250687,-0.3947641,1.087157,0.8210338,0.4705252
0.9523624,-0.2635223,-0.4150349,1.041625,1.292467,0.3586966
0.9465322,-0.2856644,-0.3443667,0.9189782,1.299762,0.1404738
0.8776136,-0.1948843,-0.2664104,0.8766807,1.122742,-0.1464371
0.8113871,0.0009028754,-0.2836926,0.6555946,0.6113126,-0.303217
0.804342,0.005068719,-0.3504562,0.3060317,-0.03227382,-0.2694374
0.9645208,-0.18621,-0.4711712,0.06048214,-0.3949667,-0.06022018
1.100434,-0.3760986,-0.6344198,-0.0002434523,-0.522131,0.1671436
1.249702,-0.4433009,-0.7418613,0.1055841,-0.4750682,0.2863131
1.572968,-0.6667299,-0.762568,0.1901365,-0.1969406,0.1426485
1.825412,-0.9942325,-0.5032282,0.3772809,0.3374016,-0.4144264
1.675856,-0.795864,-0.161662,0.5401546,0.5199518,-1.107748
1.341141,-0.3992506,-0.2947233,0.4613836,0.5052049,-1.173228
1.115637,-0.2120018,-0.444622,0.4388119,0.620547,-0.7544156
0.8072382,0.03162502,-0.2098344,0.3881254,0.3360563,-0.6104224
0.6357108,0.03540377,-0.1320886,0.1812675,0.1392903,-0.3013862
0.6428142,-0.1738282,-0.0884223,0.09037056,-0.01993215,0.1045124
0.5278561,-0.2687478,0.05894488,0.1587276,-0.5269659,0.08160676
0.5457091,-0.3761746,-0.005371967,0.2584649,-0.7855949,0.1121482
0.5401868,-0.2867589,-0.04197511,0.2885779,-0.9752039,0.05025315
0.4591685,-0.1194881,-0.07426572,0.2018972,-0.9910854,-0.1461264
0.5445294,-0.1136889,-0.1631225,0.01620227,-0.6994872,-0.2192443
0.5247766,-0.0571122,-0.1282683,-0.1218483,-0.4345534,-0.45103
0.5009003,-0.1011963,-0.1417858,-0.1739519,-0.2126156,-0.5980468
0.518314,-0.1679646,-0.1398162,-0.2935603,-0.5392902,-0.6341489
0.5313051,-0.1449718,-0.1645363,-0.3396433,-1.152287,-0.5967407
0.8201429,-0.2234227,-0.3851359,-0.2054165,-1.277834,-0.4170087
1.114637,-0.2508898,-0.5696159,-0.09722908,-0.484906,-0.4246933
1.082435,-0.2378799,-0.521581,-0.09907303,0.7183384,-0.4419106
0.9242223,-0.2507817,-0.2826745,-0.1170489,0.6102835,-0.4169372
0.9128801,-0.274809,-0.1632151,-0.156364,-0.2021581,-0.2788656
0.9612835,-0.3347026,-0.2815375,-0.2432406,-0.6689919,0.2678629
0.9999112,-0.3023503,-0.5619893,-0.1407091,-1.224128,0.7983143
1.151906,-0.2991787,-0.8678667,0.04464076,-1.104921,0.9492268
1.344352,-0.3724335,-0.880697,0.06016317,-0.766628,0.8961201
1.704794,-0.380272,-0.8913302,0.1467937,-0.6376561,0.7862581
1.960236,-0.308512,-1.050349,0.1623196,0.2432812,0.2653941
1.69208,-0.2153561,-0.9192829,0.02835116,0.8375059,-0.509232
1.400182,-0.2812014,-0.7055374,0.0616314,0.8919289,-0.6627882
1.184099,-0.3623437,-0.5629893,0.07787905,1.040055,-0.4309799
0.9283212,-0.3024268,-0.3187103,0.1115547,0.7688461,-0.3418832
0.8688637,-0.2625951,-0.2467466,0.2633934,0.4792782,-0.2203219
0.7510688,-0.1354351,-0.308019,0.2530224,0.05522936,-0.05889542
0.6215211,0.05180829,-0.263884,0.1756458,-0.6239987,0.03016614
0.6702988,0.06974816,-0.2872763,0.1454578,-0.8624915,0.12243
0.6850531,0.008018684,-0.3422732,0.1841564,-0.9577192,0.3043979
0.7477675,-0.05532536,-0.3431372,0.29578,-0.767488,0.4359826
0.8460972,-0.1500413,-0.374674,0.3392117,-0.3439874,0.5413216
0.8468823,-0.2159039,-0.3635655,0.4284537,-0.1315395,0.6132569
0.8390995,-0.2198074,-0.3510748,0.540618,0.1720715,0.4912515
0.8023817,-0.2018092,-0.3537622,0.5453895,0.3131297,0.3802141
0.7549499,-0.1771102,-0.3051881,0.5431203,0.4422386,0.2519796
0.740685,-0.1496475,-0.2594271,0.512855,0.7047919,0.1273909
0.7449219,-0.1482876,-0.1976934,0.4829187,0.6523742,0.1883581
0.785202,-0.1673579,-0.1819801,0.5264044,0.6509357,0.1965757
0.8186148,-0.1817591,-0.2272474,0.5754412,0.689756,0.1758684
0.8534186,-0.1545517,-0.2341653,0.5743314,0.5562776,0.1915717
0.8853814,-0.09456247,-0.2700841,0.4971528,0.3639083,0.1399272
0.8884042,-0.05649508,-0.3358329,0.3612729,-0.00519498,0.1218258
0.9017166,-0.04026509,-0.3680234,0.2377978,-0.199381,0.1428113
0.9302373,-0.08021901,-0.3851282,0.2283562,-0.07158591,0.1757264
0.988355,-0.1811435,-0.4334185,0.2545572,0.08925292,0.2127994
1.055606,-0.295274,-0.5110321,0.2075068,0.3689174,0.2264579
1.092675,-0.4184972,-0.5093208,0.1939553,0.6433129,0.1552882
1.122656,-0.4872945,-0.4890715,0.1797557,0.5054598,-0.010022
1.247495,-0.5634095,-0.4890826,0.1152965,0.3119934,-0.1480476
1.51599,-0.7792281,-0.3373006,0.04527665,0.4236916,-0.4287715
1.651173,-0.9059747,-0.2163425,-0.04156027,0.2594616,-0.9016055
1.477744,-0.67889,-0.3842673,-0.04660202,0.002045337,-1.089945
1.257444,-0.3342767,-0.533894,-0.03663158,0.1306346,-0.913877
1.082064,-0.1822434,-0.3938023,-0.08333289,0.1237465,-0.7257188
0.8344218,-0.1256573,-0.2415278,-0.07385934,-0.01112841,-0.3697079
0.7052288,-0.1550889,-0.2161333,-0.1002328,-0.1298131,0.3119502
0.7743368,-0.3335181,-0.1342751,-0.09456162,-0.4048979,0.8642706
0.8097659,-0.4191053,-0.1045985,0.06766971,-0.5131984,1.09712
0.8434737,-0.3801248,-0.1776206,0.1844297,-0.4300185,1.113414
0.8929049,-0.3050666,-0.1806738,0.1401666,-0.3729537,0.9300063
0.8912809,-0.2238955,-0.1686394,-0.04997107,-0.320326,0.7300061
0.9647064,-0.2801243,-0.1628299,-0.2418734,-0.258473,0.476768
0.9946305,-0.3381505,-0.1590881,-0.3226429,-0.08565219,0.133131
0.9337954,-0.3142492,-0.1770432,-0.4203203,0.2192342,-0.1680095
0.9146765,-0.3343247,-0.1625172,-0.5309975,0.392974,-0.4352842
0.8093414,-0.3657272,-0.1865889,-0.548916,0.2216612,-0.5156903
0.6886552,-0.4219902,-0.232113,-0.4981383,-0.3312881,-0.4612116
0.7572012,-0.4630295,-0.2673657,-0.3985603,-1.082575,-0.4476457
0.950493,-0.4637597,-0.3641835,-0.1271656,-1.337092,-0.4078618
1.14024,-0.498597,-0.4889844,0.2196111,-1.067395,-0.3760312
1.183084,-0.4784337,-0.5649368,0.2746905,-0.8915125,-0.2903926
1.042925,-0.3614186,-0.5886497,0.1090339,-0.4428529,-0.09262205
1.659714,-1.028985,-0.7061684,0.2777355,0.1835829,-0.05934173
1.587706,-0.8685473,-0.4814547,0.3965835,0.3569255,-0.6378547
1.431088,-0.6442819,-0.2934905,0.278138,0.5108656,-0.8683424
1.35199,-0.5596828,-0.410553,0.2549198,0.4417296,-0.82989
1.064198,-0.2752702,-0.5091611,0.1253443,0.3735957,-0.747122
0.7556169,-0.02326222,-0.3079936,-0.123147,0.2876468,-0.5829679
0.7318311,-0.09584919,-0.123396,-0.1180533,0.01851091,-0.2840879
0.6028724,-0.1433285,-0.08854889,-0.01249268,-0.1713433,-0.05802322
0.5362574,-0.1816886,-0.05401323,0.01018697,-0.2286144,-0.04392098
0.5891342,-0.2490402,-0.03950383,0.0139782,-0.2394897,-0.07000535
0.5141475,-0.1953812,-0.02893405,-0.06657843,-0.2425839,-0.09067671
0.5427858,-0.1774319,-0.01869825,-0.2432715,-0.2563226,-0.1672584
0.5681873,-0.1681411,-0.0254429,-0.3714926,-0.290339,-0.3352137
0.6113694,-0.1421922,-0.0294446,-0.4359907,-0.3235161,-0.5683996
0.6862698,-0.1566566,-0.1336532,-0.5202938,-0.4524571,-0.7473486
0.6410756,-0.1566345,-0.2975238,-0.5996132,-0.9572502,-0.7931771
0.7394247,-0.1851814,-0.3983723,-0.6281441,-1.546206,-0.6390834
0.9501634,-0.2046903,-0.5026652,-0.5930264,-1.328322,-0.4689473
1.152871,-0.1989724,-0.5717548,-0.5035552,-0.1703437,-0.4896804
1.218446,-0.2169375,-0.4899298,-0.4108585,0.8801596,-0.5033255
1.027783,-0.2762382,-0.3786587,-0.3772233,0.7976829,-0.3380666
0.899287,-0.4013616,-0.4096145,-0.342652,-0.2714097,0.08418599
0.9153564,-0.4580144,-0.5889755,-0.1550132,-1.04281,0.6114918
0.9961875,-0.3951879,-0.8060826,0.02917425,-0.9873347,0.732439
1.186633,-0.3663039,-0.8841318,0.004698918,-0.8870087,0.5633817
1.531329,-0.3636473,-0.9265764,0.05249704,-0.7793779,0.5162939
1.844178,-0.246956,-1.078806,0.2493339,-0.187403,0.1909769
1.645723,-0.09270109,-1.023159,0.2305698,0.6425565,-0.4193494
1.157585,-0.08591736,-0.7644866,0.1553109,1.129957,-0.5660846
0.8918206,-0.1320303,-0.557708,0.2772821,1.04744,-0.386833
0.7664541,-0.1050045,-0.3479098,0.3756127,0.8294392,-0.3182913
0.6579661,-0.09625634,-0.2499064,0.5075749,0.6541533,-0.1462711
0.5081356,-0.08624803,-0.2335692,0.6083719,0.3753249,0.05274684
0.440323,-0.01197952,-0.1930184,0.4660749,0.008848212,0.1428242
0.489729,0.05894952,-0.1924526,0.377427,-0.5076468,0.343727
0.4716559,0.1026235,-0.1848318,0.3767111,-0.8422377,0.5473438
0.5734126,0.09114951,-0.262278,0.3920266,-0.805126,0.6452532
0.707765,0.007134959,-0.3268375,0.4873737,-0.6872475,0.7537191
0.7653023,-0.1131682,-0.2950182,0.5203431,-0.3955736,0.7897602
0.9182193,-0.2448187,-0.3386085,0.6827372,0.1430581,0.7342783
0.9183823,-0.2884929,-0.3943672,0.9251442,0.633627,0.6342919
0.8743895,-0.262263,-0.4507513,0.863256,0.7790061,0.4588339
0.9255337,-0.2689563,-0.4783199,0.6554863,0.8063815,0.2476393
0.8864757,-0.2429943,-0.4731873,0.4443948,1.043479,0.06450376
0.9054684,-0.1764884,-0.5097896,0.1594829,0.9777533,0.01322488
0.9248967,-0.1382825,-0.5034231,-0.1144055,0.5692967,0.07469527
0.9613673,-0.209807,-0.551255,-0.2397545,0.3020379,0.1688049
1.075628,-0.3855001,-0.6416934,-0.1747636,0.1194598,0.2882049
1.127385,-0.4741485,-0.6560446,-0.139486,0.145958,0.332894
1.308501,-0.541845,-0.6118327,-0.1498976,0.2002172,0.3127903
1.531204,-0.7740276,-0.4600343,0.077991,0.200591,0.1270356
1.524251,-0.9712965,-0.3215125,0.2955678,0.3945672,-0.4143548
1.385624,-0.8287988,-0.3067952,0.1701193,0.3768797,-0.9097695
1.182848,-0.4640716,-0.3415405,0.04667977,0.4377122,-0.9891264
0.9371857,-0.2293357,-0.3362906,0.08783072,0.7011218,-0.9078989
0.753605,-0.1109502,-0.2409367,0.006799796,0.5206284,-0.7875068
0.6174039,-0.05755764,-0.0871128,-0.1375769,0.2079522,-0.5020815
0.5257225,-0.1314827,0.06233088,-0.1438901,-0.1653126,-0.2190308
0.6162314,-0.1978936,0.07776785,-0.08710895,-0.5644116,-0.1570114
0.6850682,-0.2233123,0.03757836,-0.03332267,-0.4747239,-0.2324344
0.6035574,-0.1796286,-0.002393684,-0.03506839,-0.3081853,-0.3140606
0.5830939,-0.08528894,-0.2102599,-0.2166507,-0.2044464,-0.3843419
0.5305488,-0.06760069,-0.321406,-0.5022445,0.1278275,-0.4459281
0.5371718,-0.09215976,-0.2011714,-0.6540254,0.1044292,-0.459985
0.7027275,-0.1422859,-0.175736,-0.6681125,-0.6502522,-0.3501138
0.8517987,-0.1470078,-0.269008,-0.7528265,-1.317181,-0.1621357
1.032258,-0.1194196,-0.3955772,-0.8605586,-1.017869,-0.05327281
1.097777,-0.1317729,-0.4945863,-0.8913598,-0.2856301,-0.08292917
1.054515,-0.1155041,-0.448823,-0.952151,0.2182029,-0.1918741
1.043139,-0.1924082,-0.3098217,-0.9524059,0.5508814,-0.2487678
0.9115467,-0.3709604,-0.2386489,-0.8108546,0.03599277,-0.06768412
0.820549,-0.4490253,-0.398322,-0.601203,-1.000376,0.3669878
0.8241537,-0.3482909,-0.6969159,-0.3975488,-1.404488,0.7822459
0.871773,-0.2382532,-0.8235439,-0.3288418,-1.595133,1.09798
1.165042,-0.3364536,-0.7997087,-0.3002708,-1.49622,1.474817
1.539388,-0.376207,-0.8902445,-0.1227566,-1.223902,1.693168
1.66008,-0.2144746,-1.045728,0.1498581,-1.247744,1.460926
1.486119,-0.1144577,-1.069946,0.1850125,-0.272941,0.8490794
1.279921,-0.1033692,-0.9536644,-0.05188872,1.42207,0.09190351
1.134193,-0.1425566,-0.7474681,-0.1825431,2.129963,-0.2656424
0.8530769,-0.1936872,-0.4353082,-0.2796225,1.842369,-0.1437912
0.5689997,-0.2294062,-0.05188522,-0.3279259,1.422931,-0.1327297
0.5254219,-0.2253882,0.02895136,-0.2879441,1.057264,0.01029318
0.6317491,-0.08431625,-0.1632909,-0.4238713,0.3250862,0.4359074
0.6148204,0.09390693,-0.09646968,-0.4308089,-0.2366708,0.6789415
0.5810572,0.1865768,-0.07835007,-0.2939653,-0.5513765,0.9595737
0.7244447,0.1018705,-0.2675598,-0.2155973,-0.8695581,1.21094
0.8005018,-0.05643254,-0.318543,-0.09240059,-0.5849162,1.288448
0.8551864,-0.07033706,-0.4395465,-0.09737079,-0.2293398,1.381005
0.9085528,-0.1426706,-0.4429514,-0.06260732,0.2443711,1.245525
0.9040747,-0.2804288,-0.3560321,0.04559665,0.9780253,1.085655
1.009109,-0.2848174,-0.4653104,0.018866,1.204288,1.001889
1.006227,-0.2541491,-0.4187619,-0.04890321,1.530893,0.7749117
0.9879408,-0.1972322,-0.4113168,-0.3113117,1.703124,0.5638706
1.007192,-0.1059986,-0.4386026,-0.6760806,1.197963,0.3599965
0.8743306,-0.04377396,-0.3018759,-0.9186834,0.5880866,0.3064582
0.8594435,-0.08053157,-0.3557325,-1.059782,-0.1423858,0.4439525
0.8471439,-0.1760652,-0.4632071,-1.102896,-0.4127744,0.569448
0.8006314,-0.2213434,-0.6272671,-1.183706,-0.2450098,0.7748546
0.883778,-0.358639,-0.8657203,-1.198391,-0.249827,1.145322
1.058043,-0.6768769,-0.8603856,-0.9666223,0.3955436,1.415759
1.48402,-1.011777,-0.607373,-0.5541858,1.354073,0.8504283
1.715562,-0.9842483,-0.3143033,-0.2795562,1.458296,-0.3453801
1.436614,-0.6316639,-0.4398834,-0.4700979,1.510603,-0.9506249
1.125482,-0.3986789,-0.611676,-0.7527103,1.859953,-0.8442908
0.8768169,-0.1557022,-0.3543114,-0.9377826,1.441649,-0.5453208
0.6861335,-0.04257985,-0.2783267,-1.276506,0.8800271,-0.1673901
0.6962784,-0.1898761,-0.2821839,-1.476991,0.8773427,0.2263628
0.7400904,-0.1564667,-0.1277922,-1.472298,0.6085625,0.4681971
0.7113321,-0.168993,-0.1242127,-1.508292,0.3375853,0.5197675
0.6972609,-0.2279076,-0.148754,-1.52459,0.1966798,0.640555
0.6429547,-0.1575578,-0.2191311,-1.560595,-0.3336796,0.7877934
0.5807787,-0.2399953,-0.2817945,-1.584456,-0.7678283,0.8260112
0.674806,-0.2675781,-0.2467105,-1.556515,-0.8590424,0.8413751
0.8265,-0.2638712,-0.2697737,-1.578113,-0.6187988,0.6806715
0.9289872,-0.3110402,-0.2674255,-1.561792,-0.1834462,0.3969579
0.9613804,-0.2543442,-0.2860061,-1.528368,0.1479822,0.153187
0.9040705,-0.2601309,-0.3229471,-1.51269,0.4603349,0.03552305
0.8714562,-0.2358099,-0.2963817,-1.4491,0.6761905,0.1287825
0.8513399,-0.2064451,-0.2586879,-1.376591,0.8828641,0.1899919
0.7858204,-0.2265437,-0.1708169,-1.269602,0.9998395,0.2202504
0.7525689,-0.1445248,-0.1500393,-1.22251,0.9055411,0.2603732
0.7528197,-0.103738,-0.149699,-1.293879,0.8772605,0.1648352
0.7104002,-0.0969829,-0.1315851,-1.372176,0.4834096,0.1505645
0.5822929,-0.1515762,-0.4124042,-1.516273,-0.4519646,0.3481902
0.5095948,-0.2779654,-0.9002499,-1.731967,-1.341843,0.8529319
0.7770043,-0.3131317,-1.12176,-1.853642,-1.961592,1.607418
1.274766,-0.4709031,-1.040433,-1.551567,-2.388079,1.898607
1.546989,-0.7437961,-1.206339,-0.7389666,-2.276301,1.35602
1.585538,-0.8309663,-1.600949,-0.1628092,-0.5697539,0.5019508
1.584941,-0.746284,-1.534397,-0.2486974,1.953695,-0.2118332
1.429972,-0.6186001,-1.083371,-0.3027851,2.915142,-0.7104929
1.091005,-0.5034667,-0.6458657,-0.1134123,2.650521,-0.7797034
0.6787084,-0.2949341,-0.390808,-0.2379009,2.023951,-0.4770705
0.4098174,-0.02238221,-0.4107456,-0.5747686,0.3133317,-0.1704645
0.4395655,0.100596,-0.3745613,-0.9157954,-1.272811,0.1173261
0.5726781,0.104137,-0.3256869,-1.132509,-1.716381,0.3861244
0.7042975,0.02639821,-0.4300842,-0.8827384,-1.945571,0.5918656
0.803652,-0.1263141,-0.4692831,-0.622433,-1.705674,0.7064326
0.7908614,-0.2543092,-0.5914253,-0.3876558,-0.9607158,0.7302623
0.7584397,-0.3066848,-0.6298969,0.06859413,-0.2356852,0.7822701
0.7139514,-0.257328,-0.4462565,0.1754358,0.4579231,0.6862684
0.6387667,-0.2174586,-0.3752589,0.2430727,0.6112642,0.4893125
0.5883554,-0.2092288,-0.2834017,0.4384235,0.6673114,0.3842138
0.568732,-0.1559263,-0.221901,0.4362973,0.8491464,0.2238836
0.5938237,-0.1271553,-0.2781658,0.5289788,0.6729755,0.1708218
0.6311407,-0.09810644,-0.3009432,0.5611218,0.743657,0.2747762
0.69616,-0.1070884,-0.3987458,0.6058051,0.8852828,0.3471262
0.7812789,-0.1968645,-0.4010514,0.71203,0.8443045,0.4184416
0.8171619,-0.3016272,-0.3460716,0.6299243,0.7917965,0.3925678
0.8854041,-0.418277,-0.3993094,0.6384212,0.3674357,0.2103599
0.9250441,-0.3704175,-0.4268173,0.6229691,0.02695822,-0.06815798
0.8083694,-0.2120099,-0.6095701,0.496471,-0.04942297,-0.2543796
0.7180298,-0.216327,-0.8397517,0.2865067,-0.02634344,-0.1554362
0.763655,-0.3808323,-0.8024437,0.09577185,0.2544958,0.03440677
0.8594606,-0.6520678,-0.6629496,0.4180246,0.5417282,0.1820662
0.9898111,-0.7660083,-0.5956098,0.7481122,0.7431846,0.201885
1.173787,-0.7152348,-0.571333,0.6022636,0.6976753,-0.1132957
1.447225,-0.8665666,-0.4881138,0.4898341,0.5087224,-0.6580102
1.638583,-0.9571238,-0.4095671,0.3885836,0.2723653,-1.219544
1.449944,-0.7253081,-0.4725892,0.1647972,-0.07318987,-1.495682
1.121508,-0.3943735,-0.5121405,0.1112463,0.1399735,-1.365922
0.9562568,-0.1156325,-0.3813734,0.02288381,0.3847813,-1.281874
0.7726668,-0.02300512,-0.2184234,-0.2252015,0.0712636,-1.229591
0.6391863,-0.09400332,-0.1112744,-0.2236874,0.03287711,-0.9247307
0.6292315,-0.1907383,-0.04400804,-0.03969185,0.06684222,-0.6475363
0.5702725,-0.2816948,-0.03363768,0.1250647,-0.0613079,-0.4840256
0.5845918,-0.3300414,-0.03864689,0.3300981,-0.04801164,-0.4424056
0.6083965,-0.2971105,-0.09982795,0.4087973,-0.1211794,-0.5647219
0.555296,-0.2280336,-0.2329386,0.3299586,-0.158383,-0.6225393
0.5772315,-0.1919072,-0.2681475,0.1782758,-0.1875329,-0.6694977
0.5829071,-0.1288831,-0.2418523,0.009264325,-0.5051462,-0.6747542
0.6128273,-0.07212135,-0.2660979,-0.03052441,-1.107467,-0.5263496
0.7011119,-0.1003754,-0.2745022,0.01056708,-1.610601,-0.4350425
0.785582,-0.1587963,-0.2906939,-0.02822987,-1.457826,-0.4231412
0.9675515,-0.2516156,-0.3708295,-0.1430483,-0.9965581,-0.5223849
1.060212,-0.3145321,-0.4258064,-0.1688575,-0.67454,-0.7097009
0.9934475,-0.3245333,-0.4190643,-0.06694288,-0.4278937,-0.756513
0.9855176,-0.4107271,-0.4722087,0.03586305,-0.4792541,-0.5808703
0.9879268,-0.5482946,-0.5771234,0.1156212,-0.8013553,-0.06619786
0.9686499,-0.546643,-0.6109451,0.2762644,-1.15307,0.4759954
0.9870691,-0.3794571,-0.66027,0.4197506,-1.26195,0.5059381
0.9845615,-0.2556708,-0.7615255,0.2929638,-1.07892,0.3696492
1.05555,-0.2484846,-0.7531956,0.2545709,-1.042407,0.4854456
1.384011,-0.338016,-0.7525473,0.6430623,-0.8510322,0.4474306
1.706393,-0.4080782,-0.9103538,0.9289684,-0.1898886,0.03637181
1.583836,-0.3077777,-0.980201,0.81114,0.6469655,-0.4702363
1.296737,-0.2274187,-0.872339,0.6637632,1.403236,-0.8524708
1.173784,-0.2237137,-0.6934989,0.6555033,1.410299,-0.8848441
0.8929616,-0.1522128,-0.4352216,0.5267696,0.8623445,-0.7375641
0.6022949,-0.08103987,-0.2539214,0.416631,0.2272225,-0.5827073
0.5502624,-0.05142542,-0.2271907,0.5286241,-0.6684946,-0.2226186
0.4787706,-0.002571984,-0.2233374,0.5205769,-0.9687534,0.00766992
0.5300423,0.04445857,-0.2290323,0.5349479,-0.728594,0.08979378
0.6538847,-0.01267819,-0.2349228,0.729288,-0.681233,0.3346272
0.6873861,-0.09940614,-0.2423663,0.8619744,-0.3092486,0.4798757
0.7737916,-0.1120789,-0.3106756,1.015015,0.01941912,0.573709
0.7376139,-0.1175988,-0.4067546,1.078105,0.1290024,0.6595112
0.7319829,-0.1274795,-0.4387644,1.046342,0.5594126,0.5949142
0.8129445,-0.1840939,-0.3805227,1.051486,0.7626686,0.4977695
0.7753454,-0.2633651,-0.3289455,0.9580602,0.6865447,0.317724
0.8502912,-0.2944509,-0.3290434,0.8132863,0.6774061,0.08390324
0.9458196,-0.3156726,-0.3363761,0.6891733,0.5827399,-0.1367142
0.9602023,-0.2563306,-0.3818595,0.621284,0.4508588,-0.3800629
0.93133,-0.1513666,-0.4899729,0.4099334,0.2557232,-0.4612979
0.8547874,-0.1562636,-0.6058649,0.0530992,0.1088969,-0.266084
0.9434791,-0.2966712,-0.6466272,0.02679974,0.01865966,0.01329672
1.029887,-0.4756544,-0.6367771,0.1468429,-0.230333,0.1957333
1.103028,-0.5585385,-0.6848232,0.1706872,-0.2443199,0.2645891
1.363669,-0.6763269,-0.7023472,0.3341462,0.1526917,0.1486751
1.498271,-0.8404689,-0.5584122,0.5279683,0.4025045,-0.1873785
1.399041,-0.7671498,-0.366253,0.5705115,0.2381011,-0.6591527
1.293019,-0.6218837,-0.3189658,0.5078959,0.09065014,-1.017348
1.166237,-0.5461501,-0.370164,0.4809965,0.2652536,-1.003144
0.92322,-0.3196415,-0.3124208,0.4772596,0.3407156,-0.906209
0.7407162,-0.1541585,-0.2123712,0.3689217,0.1909759,-0.8342578
0.6801233,-0.1833187,-0.1690104,0.2537919,0.07842106,-0.5054465
0.579441,-0.1802768,-0.08062387,0.2108983,-0.1385592,-0.237881
0.5565311,-0.1885548,-0.007192396,0.242551,-0.3012338,-0.2287079
0.5985786,-0.1852736,-0.01203672,0.265797,-0.2392256,-0.2520443
0.5586183,-0.1183702,-0.05853557,0.1116212,-0.2542832,-0.2855534
0.5527814,-0.06908155,-0.1305739,-0.1448523,-0.2904001,-0.2894935
0.5953142,-0.02913424,-0.1603699,-0.3823865,-0.2544173,-0.3551822
0.6411753,-0.07152939,-0.1668669,-0.5304277,-0.4046957,-0.5216252
0.6852994,-0.1239648,-0.2142967,-0.5513387,-0.9988374,-0.5740311
0.7213617,-0.1164537,-0.3314224,-0.6195746,-1.585632,-0.5021372
0.8124511,-0.1456688,-0.46379,-0.7863287,-1.1855,-0.4267019
0.9357779,-0.1675515,-0.4473731,-0.8650466,-0.3428198,-0.4235358
0.9863021,-0.2107701,-0.3379487,-0.7806341,-0.009445269,-0.3795533
0.9201772,-0.2902393,-0.3266849,-0.6620741,0.1238107,-0.1366621
0.8633775,-0.3730436,-0.486396,-0.5497909,-0.4261938,0.331338
0.8923727,-0.4304912,-0.8015657,-0.2923417,-1.497238,0.9079385
0.9041638,-0.3906675,-0.9772887,-0.05574058,-1.577039,1.133886
1.04298,-0.4107324,-0.8379458,-0.1240591,-1.218277,1.08308
1.495719,-0.4755601,-0.7602285,-0.1507263,-1.152894,1.100355
1.87342,-0.4129472,-0.8910414,0.1754865,-0.5887234,0.7108507
1.769289,-0.2673073,-1.014781,0.3806473,0.7218243,0.0324899
1.510859,-0.1011552,-1.064484,0.142163,2.135628,-0.3815331
1.282334,-0.09751064,-0.8061695,-0.1459538,2.382428,-0.6123557
0.8353722,-0.153273,-0.323618,-0.2401571,1.6122,-0.5105487
0.5670805,-0.05845145,-0.2055001,-0.3166963,1.048862,-0.3176106
0.6101998,-0.06322402,-0.2850072,-0.3729959,0.4918707,-0.2288215
0.4964285,-0.07693797,-0.1869788,-0.3366045,-0.0857825,0.1498375
0.4833287,0.03394062,-0.1855005,-0.314027,-0.3785873,0.4085715
0.6087907,0.04038747,-0.2739297,-0.2176404,-0.5159163,0.5291675
0.6108388,0.01729299,-0.2824942,-0.0430625,-0.4353209,0.8188803
0.7146193,-0.0333088,-0.2961144,0.01686076,-0.3668384,0.974872
0.7726784,-0.1358322,-0.3326098,0.09395701,-0.3256338,1.160071
0.7526301,-0.1584254,-0.4206408,0.2035226,-0.1559556,1.220842
0.8687386,-0.2040562,-0.4581773,0.2439417,0.1116828,1.095422
0.9838382,-0.2850342,-0.3835134,0.336599,0.5209187,1.077971
1.043259,-0.3176436,-0.3632913,0.3915411,0.7600475,0.8031457
1.028834,-0.2685404,-0.3755954,0.316664,0.8206774,0.4176695
1.009439,-0.1389129,-0.3476342,0.144382,0.9293262,0.2006715
1.020346,0.001450908,-0.3103047,-0.1204013,0.888672,0.09555786
0.9947889,0.1584408,-0.289024,-0.373235,0.819659,0.184577
1.007047,0.2540544,-0.3029136,-0.6020745,0.7367872,0.3123889
0.99163,0.253642,-0.3219333,-0.8421571,0.3063645,0.5389698
0.975476,0.1915908,-0.4455469,-1.022311,-0.2100793,0.7085545
1.00221,-0.04511204,-0.7948921,-1.217715,-0.5841415,0.6827325
1.03924,-0.5513793,-1.110163,-1.591874,-0.7861862,0.9620105
1.251149,-1.15005,-1.015561,-1.768088,-0.2511084,1.236352
1.476449,-1.22984,-0.7385156,-1.340033,0.7617867,0.810256
1.475438,-0.7833752,-0.7000637,-0.9526545,1.161647,0.10119
1.450375,-0.5699944,-0.7732014,-1.044985,1.313694,-0.262623
1.447379,-0.5796336,-0.7956023,-0.9674643,1.855079,-0.4117103
1.223049,-0.4970862,-0.6309578,-0.6480418,2.034094,-0.5054443
0.9347923,-0.4060178,-0.3548294,-0.6100543,1.669883,-0.4118756
0.8603582,-0.3129549,-0.3650612,-0.751383,1.341508,-0.2205343
0.7437944,-0.2382362,-0.3419303,-0.8953209,1.029635,-0.02001241
0.5998778,-0.1861427,-0.180474,-0.949089,0.6858344,0.2126611
0.6896583,-0.1919661,-0.2813894,-0.8214561,0.5268815,0.4198015
0.7154647,-0.2034812,-0.3246966,-0.8205245,0.5854887,0.5797546
0.6196489,-0.1633585,-0.2722056,-0.9926768,0.5503925,0.6848664
0.6286378,-0.206501,-0.3304311,-1.098207,0.3632478,0.6991821
0.6455203,-0.2336054,-0.2899205,-1.020827,0.3352697,0.6042831
0.6924798,-0.3197002,-0.190132,-0.8573427,0.2863957,0.4273647
0.7676178,-0.496921,-0.1153947,-0.8830467,0.1174214,0.1358183
0.7265288,-0.4674488,-0.1221326,-0.8879363,0.07800972,-0.1942653
0.6415635,-0.382241,-0.1811582,-0.838637,0.1091339,-0.3824798
0.5355422,-0.3075286,-0.1532745,-0.938211,0.1997889,-0.5734381
0.4461161,-0.1806421,-0.1475448,-0.9489109,0.2810465,-0.8523254
0.4948296,-0.1893045,-0.1286876,-0.9740511,0.1940953,-1.02528
0.5638002,-0.186059,-0.05730972,-1.008058,-0.04845202,-1.063365
0.6285236,-0.1080399,-0.0737104,-0.9220659,-0.5822045,-0.9968402
0.7452992,-0.1381119,-0.1127622,-0.8892913,-1.312158,-0.7821026
0.8293134,-0.1564182,-0.2145163,-0.8208399,-1.579011,-0.5053314
0.9623935,-0.1171476,-0.4123409,-0.8887737,-0.9271646,-0.394824
1.044464,-0.1483294,-0.4465247,-1.057284,-0.09146084,-0.4253417
0.8966569,-0.1733878,-0.3234668,-1.016596,-0.09473515,-0.288688
0.7827719,-0.2124218,-0.3196149,-1.008319,-0.7005025,0.09932751
0.7550302,-0.3042904,-0.5676997,-0.9212081,-1.531542,0.7108941
0.7171384,-0.2760351,-0.9960511,-0.6732047,-2.330548,1.427965
0.8119321,-0.1912253,-1.237544,-0.6497874,-2.420265,1.908804
1.057027,-0.2502644,-1.126077,-0.5108107,-2.097014,1.930542
1.556755,-0.6006817,-1.077286,0.3248312,-1.285256,1.22419
1.985526,-0.9697985,-1.163089,1.167538,0.6024838,0.0958064
1.73917,-0.7115572,-1.074754,0.9349615,2.039124,-0.4634495
1.341562,-0.2877357,-0.886094,0.5194611,2.281185,-0.6397864
1.182544,-0.3163836,-0.6081006,0.7145776,2.302844,-0.894848
0.8229244,-0.2090254,-0.3379701,0.3371142,1.63018,-0.7935062
0.5258862,0.00723867,-0.3141315,-0.1782846,0.2688717,-0.6057841
0.4617848,-0.007513692,-0.2587414,-0.00342345,-0.9570206,-0.4545905
0.3751508,0.06475713,-0.16916,0.06290767,-1.915613,0.02542699
0.4658156,0.06561959,-0.2322564,0.3556139,-2.019333,0.2864508
0.5744022,-0.01560568,-0.2498527,0.8136224,-1.573532,0.3079864
0.5838773,-0.02441951,-0.2932197,0.9740069,-1.368144,0.5195021
0.7083056,-0.1971011,-0.3701599,1.273196,-0.876318,0.6559877
0.7512409,-0.3531541,-0.4288095,1.341496,-0.02519321,0.7101321
0.7665998,-0.4122004,-0.5415358,1.396406,0.6893573,0.632068
0.8278312,-0.4590148,-0.5263192,1.55178,1.029329,0.3309245
0.8456698,-0.4269664,-0.4651128,1.362779,0.9382045,-0.01288016
0.9057102,-0.3792782,-0.4455978,1.312257,0.8187813,-0.4272966
0.8976766,-0.2288766,-0.3862498,1.110633,0.6116883,-0.6837844
0.9060528,-0.1342374,-0.4479742,0.7002798,0.173058,-0.7080206
0.9551533,-0.2359169,-0.5953249,0.597615,0.04645643,-0.6679614
0.9323914,-0.3110301,-0.7377013,0.4971577,0.1041242,-0.4861342
1.017004,-0.3773372,-0.8331853,0.3659649,-0.05064775,-0.3070199
1.227128,-0.473605,-0.7582926,0.2990094,-0.1233481,-0.2463818
1.514059,-0.6462181,-0.5562739,0.4112822,-0.1043458,-0.3839777
1.63692,-0.8341229,-0.3514407,0.5958419,-0.2190322,-0.6645418
1.432648,-0.7405963,-0.3709843,0.5059245,-0.30134,-0.8081167
1.201184,-0.4861518,-0.4747496,0.4852042,-0.06894992,-0.8976971
0.949163,-0.2906132,-0.3621884,0.5573485,0.339053,-0.927393
0.7295165,-0.1574358,-0.3182526,0.4857199,0.4261595,-0.821334
0.6656332,-0.1616517,-0.276369,0.4664254,0.2332662,-0.6248701
0.5461151,-0.1927018,-0.07416049,0.4644151,0.01446888,-0.3421605
0.5044882,-0.2114932,-0.02251894,0.4406185,-0.28441,-0.2095198
0.589556,-0.3201474,0.003479216,0.416308,-0.4616809,-0.2531541
0.5836773,-0.3097883,0.03044719,0.298568,-0.4628604,-0.3661615
0.6092822,-0.2150907,-0.05629964,0.1678267,-0.5240058,-0.5734848
0.6599781,-0.1909665,-0.114614,0.07084743,-0.5749033,-0.8129451
0.6545601,-0.1281651,-0.2259872,-0.01132269,-0.5853181,-1.071076
0.6809715,-0.1571399,-0.2835612,-0.03757931,-0.7968531,-1.254899
0.7071026,-0.230505,-0.2616599,-0.07490731,-1.215446,-1.270338
0.7834328,-0.2064863,-0.3337617,-0.1357379,-1.388068,-1.131183
0.9193164,-0.1832625,-0.3840592,-0.1113625,-0.9960348,-0.9207566
1.003629,-0.1263928,-0.3905169,0.03028913,-0.2012395,-0.781736
1.024817,-0.1750589,-0.3579345,0.2427253,0.5816277,-0.7308779
0.9634245,-0.3171704,-0.3447422,0.3633604,0.5128003,-0.5510316
0.9242448,-0.3462195,-0.4876762,0.3904644,-0.7922487,0.1248749
0.9941454,-0.3562194,-0.7674467,0.5472396,-1.913573,0.9209173
1.098995,-0.3571119,-1.02319,0.7172044,-1.599845,1.012272
1.262912,-0.3906329,-0.9750146,0.7065121,-0.8548956,0.638427
1.452229,-0.4472759,-0.8269432,0.6638226,-0.3448793,0.3045814
1.530972,-0.3859066,-0.8517584,0.6232675,0.3014338,-0.1188465
1.449499,-0.3033596,-0.846379,0.4801935,0.2594149,-0.548192
1.28904,-0.2253104,-0.8170881,0.3688612,-0.02648437,-0.8484792
