accx,accy,accz,gyrox,gyroy,gyroz
1.526028,-0.3871104,0.2544256,-0.3212102,0.2253932,-0.8326653
1.902178,-0.3301101,0.2571878,-0.3527254,0.6795901,-0.5052434
1.87759,-0.139636,0.2484444,-0.4140171,0.9637497,-0.1279297
1.567913,-0.02729906,0.2950328,-0.4026983,0.6220281,-0.1719776
1.450057,-0.09594871,0.3365836,-0.1844142,0.1116911,-0.2025482
1.502518,-0.2285665,0.3913056,0.06714676,0.117062,-0.02032452
1.441875,-0.172008,0.3847649,0.3754405,0.2279045,0.1670403
1.27753,-0.09217939,0.2928862,0.539515,0.1086612,0.3293105
1.035803,-0.1159498,0.2580601,0.4299118,0.07079271,0.3643455
0.8766535,-0.07075475,0.2139122,0.3507148,-0.06203964,0.3755458
0.7737125,-0.07622272,0.1768981,0.3202252,-0.1903499,0.4315674
0.7311228,-0.05347252,0.2084916,0.1819367,-0.1061238,0.3333962
0.762425,0.01141741,0.18626,0.040766,-0.1355813,0.1734158
0.6668368,-0.03995294,0.1673347,-0.005281263,-0.1867834,0.1046936
0.5713889,-0.0591969,0.1721185,-0.06555676,-0.2972432,0.1010787
0.5326794,-0.1067587,0.1513936,-0.09247362,-0.5398138,0.1061477
0.5393047,-0.09897037,0.1496062,-0.04996302,-0.5640408,0.06280057
0.5801551,0.001590275,0.1372765,-0.08784361,-0.5458793,0.02377148
0.5450055,-0.03839002,0.1345201,-0.09129051,-0.69313,0.03619704
0.6013398,-0.06544536,0.1327728,-0.06672534,-0.7878121,0.07392055
0.6819409,-0.0727444,0.1033688,-0.1251504,-0.7354605,0.09807327
0.6878246,-0.04962076,0.09884113,-0.1416712,-0.6812249,0.06690489
0.7282493,0.04443652,0.1496527,-0.1254214,-0.7078883,-0.05954774
0.7638182,-0.02117916,0.2428991,-0.01168801,-0.6752902,-0.2592391
0.8385014,-0.1101238,0.2501801,0.1444183,-0.6175351,-0.3359887
0.9772187,-0.1558272,0.1500276,0.1004378,-0.4739509,-0.2212947
1.297025,-0.2176975,0.02123386,0.0007229442,-0.03084239,-0.07538428
1.640899,-0.224465,-0.08942477,0.04553496,0.4726323,0.01267306
1.57311,-0.2546662,-0.05288575,0.3597792,0.6528704,-0.09912562
1.474498,-0.1644915,0.02719513,0.7926573,0.4262914,-0.4555237
1.625456,0.09540366,0.04192356,0.6873574,0.1940209,-0.6535145
1.612708,0.247241,0.1183525,-0.02261585,0.2171402,-0.3802176
1.476438,0.1211045,0.1565572,-0.5186485,0.09073042,-0.0006671344
1.342316,-0.1053227,0.1160102,-0.3104083,-0.1840117,0.0550817
1.159902,-0.0936532,0.1228499,0.1081744,-0.4121367,0.0714555
1.116345,-0.04964469,0.09970567,0.2244308,-0.6445151,0.2811446
1.129221,-0.1188741,0.03860724,0.3312839,-0.5300398,0.3579925
1.018865,-0.08596663,0.01310775,0.4709388,-0.3221797,0.3153158
0.8705087,-0.05643691,-0.01025984,0.4565073,-0.4167457,0.3304856
0.790237,0.03158064,-0.03020083,0.4468201,-0.3100439,0.3105986
0.8279138,0.1588321,-0.02547089,0.2810836,-0.08832506,0.2736898
0.8232416,0.1238172,0.006979031,0.09436377,-0.004631709,0.2307907
0.7348615,0.08032162,0.02853558,0.0226892,0.1232174,0.2193797
0.6796126,0.03058176,-0.01623991,-0.2289003,0.1367328,0.300986
0.6358242,-0.01471638,-0.06116241,-0.3515019,0.1395396,0.4023258
0.664375,0.004794637,-0.02711496,-0.2256008,0.2283371,0.4365558
0.6973443,-0.02288623,0.05942539,-0.0201863,0.3883676,0.2917111
0.7182603,-0.02077639,0.1586885,0.2466273,0.7054568,0.03107998
0.8022567,0.05708659,0.1996152,0.3005894,0.7385006,-0.1512004
0.7890939,0.1571455,0.1424213,0.1028831,0.5022758,-0.1511208
0.7869697,0.209248,0.1124223,-0.198307,0.4592864,-0.008264419
0.9066283,0.1909311,0.1368786,-0.3787283,0.4963539,0.08947266
0.97634,0.1933297,0.1081957,-0.3772388,0.5030978,0.1007578
0.9533774,0.1076015,0.05976399,-0.3887473,0.4530109,0.01908132
0.9310973,-0.1325403,0.05352928,-0.3431721,0.378412,-0.2830371
1.094647,-0.3548464,0.1620536,-0.2418211,0.4338984,-0.7456305
1.412102,-0.4091923,0.31164,-0.261497,0.5516902,-0.9342663
1.671929,-0.2193341,0.2704296,-0.5024566,0.6532047,-0.6170464
1.748857,-0.04515826,0.2406529,-0.7062533,0.6056194,-0.3933288
1.667087,-0.1987698,0.3902337,-0.5068167,0.4166205,-0.4503922
1.625971,-0.3257059,0.4325033,-0.121254,0.3192048,-0.1611887
1.489333,-0.1584701,0.3570902,0.1395324,0.2664227,0.2956826
1.18461,-0.05131622,0.3230945,0.2054349,0.1833817,0.3706702
1.035225,-0.0496801,0.3273217,0.08905301,-0.01027314,0.2946564
0.9734098,-0.02404508,0.3170361,-0.02001501,-0.2952029,0.3679374
0.8848723,-0.02309309,0.2486647,-0.06065995,-0.3846843,0.447697
0.8565469,0.009008379,0.2405147,-0.1307731,-0.3934795,0.4836448
0.8024375,-0.05387026,0.2834052,-0.08875121,-0.4554879,0.5288147
0.7390492,-0.1763975,0.2761529,0.08273576,-0.4410656,0.3941246
0.7185543,-0.1385733,0.2736336,0.108016,-0.4410329,0.1517899
0.6950766,-0.07893964,0.23394,-0.01707496,-0.4716763,0.02232786
0.6649643,-0.04153431,0.1715372,-0.1631935,-0.546748,-0.02511669
0.6356316,-0.01365477,0.1504443,-0.2007438,-0.6976537,0.04522611
0.6344379,-0.06566881,0.1367708,-0.1712291,-0.7072168,0.1158239
0.6590504,-0.08045111,0.1395874,-0.3128197,-0.5211777,0.09289151
0.6655536,-0.06005348,0.1267758,-0.4215014,-0.3808796,0.08107048
0.6612213,-0.06675211,0.1054113,-0.3445619,-0.4272706,0.02314835
0.671519,-0.07922138,0.1099611,-0.2165975,-0.4570442,-0.06423114
0.6966078,-0.09482918,0.1328906,-0.1064506,-0.3450013,-0.1481248
0.7293642,-0.06792765,0.1873382,-0.1189441,-0.2942452,-0.2207372
0.7395768,-0.04580988,0.2302821,-0.07502052,-0.3157286,-0.2669541
0.7359991,-0.08647337,0.247482,0.07566631,-0.256067,-0.3296311
0.8328804,-0.1272123,0.1901257,0.1061543,0.01398856,-0.2628404
1.183978,-0.16487,-0.01140407,0.1264474,0.4964978,-0.1373181
1.689518,-0.2363639,-0.1805825,0.2757067,0.7085994,-0.1483586
1.883614,-0.2585729,-0.1180267,0.5107752,0.4887687,-0.2400257
1.758931,-0.134753,0.03106522,0.6472146,0.3601018,-0.5011108
1.745748,0.03035834,0.07916583,0.4255315,0.306807,-0.684846
1.621419,0.07209589,0.1035168,-0.005564975,0.006579393,-0.2979926
1.262846,-0.01187318,0.1067551,-0.1508431,-0.3274249,0.2074162
1.122659,-0.0718308,0.1163412,0.09516857,-0.5086895,0.2189052
1.128708,-0.01411763,0.1717729,0.2754698,-0.5798713,0.1754443
1.067543,0.01936079,0.08084578,0.1429599,-0.5937146,0.3698193
1.012522,-0.01432156,-0.005203621,0.06915702,-0.6088165,0.4319377
0.903916,0.00985306,0.02865522,0.2235116,-0.618456,0.4381323
0.8106391,0.07395822,-0.03544852,0.2289239,-0.6094401,0.4506045
0.8434872,0.1508028,-0.07060934,-0.008716877,-0.4400501,0.3180316
0.8998095,0.1931243,-0.01285985,-0.3230584,-0.09477097,0.2351741
0.8947928,0.1564874,0.03875836,-0.5883697,0.1269061,0.2047304
0.8216212,0.1197381,0.07182747,-0.6933017,0.1899329,0.2174796
0.7078369,0.0730811,0.02283208,-0.7633607,0.2164727,0.3044244
0.6624463,0.05144334,-0.008161136,-0.724597,0.3095296,0.3223503
0.705374,0.1038413,0.05359853,-0.5691781,0.5611241,0.2915652
0.707006,0.1246099,0.1319579,-0.5379377,0.6665988,0.1522931
0.729015,0.1485296,0.1616562,-0.5579417,0.5224981,0.0196125
0.8277248,0.2151536,0.1300803,-0.8382789,0.4282364,0.06522699
0.9030523,0.2334492,0.07722157,-1.425702,0.4024918,0.1380295
1.002138,0.1982982,0.001106245,-1.745699,0.4640453,0.1878604
1.052347,0.1089512,-0.04382433,-1.71454,0.6635582,0.1403798
0.9356583,-0.02657131,-0.04142846,-1.659017,0.8416683,0.01654908
0.797818,-0.1549011,-0.03734818,-1.536477,0.948041,-0.09503018
0.7843509,-0.272903,0.01420686,-1.183608,0.9253211,-0.3180848
0.9598218,-0.3724748,0.09076279,-1.024451,0.6618393,-0.6157877
1.324639,-0.3500814,0.1327229,-1.225177,0.2860413,-0.7690973
1.710758,-0.1594871,0.1397033,-1.381228,0.1639251,-0.6541648
1.83565,-0.01317221,0.1709562,-1.666346,0.413456,-0.563313
1.71141,-0.04679972,0.2893659,-1.921472,0.5431257,-0.6776294
1.620339,-0.06536298,0.3566265,-1.799047,0.3203301,-0.677639
1.467756,0.03256961,0.2520245,-1.722845,0.1465583,-0.5670988
1.167671,0.08521757,0.1391695,-1.752447,0.1379846,-0.3712809
1.016086,0.05359071,0.1203177,-1.914586,0.09531031,-0.05424833
0.9705221,0.0332162,0.09735441,-2.276351,2.754435e-05,0.03187508
0.8550459,-0.000836947,0.07061937,-2.415762,-0.03721497,-0.02025652
0.8036421,-0.05601924,0.06828847,-2.433684,-0.05473598,0.02729362
0.82243,-0.1382761,0.04180196,-2.466896,-0.1223698,0.0160515
0.8451528,-0.23208,0.02375616,-2.293265,-0.06678695,0.0114248
0.8649919,-0.2286351,0.04762669,-2.067574,0.06936737,0.03769524
0.8065789,-0.1898169,0.07858303,-1.869646,0.1012405,0.01418784
0.7048283,-0.1557469,0.08939979,-1.739445,0.09548804,0.05387149
0.6377446,-0.1080208,0.06670091,-1.788068,0.03586314,0.1359782
0.6191737,-0.1068359,0.04893633,-1.784418,-0.03319755,0.2241065
0.6443977,-0.09372654,0.08466385,-1.684213,-0.01921817,0.277665
0.6550617,-0.08987742,0.1244527,-1.531106,-0.02280725,0.2119151
0.6327755,-0.1330357,0.1291047,-1.217659,-0.0607905,0.1436949
0.6263152,-0.160795,0.1701655,-0.901961,-0.09527042,0.08328869
0.669369,-0.1846363,0.2364266,-0.6059557,-0.09549411,-0.0217085
0.7419448,-0.1692153,0.2486389,-0.2908763,-0.07620151,-0.1067828
0.8088355,-0.1128481,0.2458447,-0.1220694,-0.0769961,-0.2187841
0.8700026,-0.04991084,0.2548506,-0.06079766,0.0328415,-0.3152066
0.9544695,-0.02287789,0.1953515,-0.0707876,0.4203432,-0.3103604
1.177849,-0.1396802,-0.03997493,-0.1857833,1.046202,-0.2757642
1.539783,-0.299237,-0.2906458,-0.1707364,1.394874,-0.2915166
1.740187,-0.378425,-0.2298942,0.3011316,1.116553,-0.4853854
1.722269,-0.3841777,-0.09492263,0.7496635,0.6172247,-0.8081161
1.713681,-0.1496171,-0.1235015,0.1817086,0.1236493,-0.8858227
1.630198,0.2551067,-0.04356588,-0.854921,-0.1957071,-0.5980694
1.500563,0.3479103,-0.007886187,-1.207768,-0.1869735,-0.2661645
1.460095,0.09760515,-0.06918935,-1.147893,-0.396382,-0.127893
1.316341,-0.07951032,0.02394274,-0.9999845,-0.7312352,-0.13898
1.199199,-0.1172719,-0.01206152,-0.7744896,-0.746013,-0.1701555
1.142444,-0.1284793,-0.08795323,-0.642526,-0.8024855,-0.1649942
0.924726,-0.1015471,-0.009840052,-0.4672703,-0.850626,-0.1632543
0.8268162,-0.06228896,-0.03781608,-0.4003798,-0.7191783,-0.1377614
0.8393519,-0.01185477,-0.03305888,-0.5402119,-0.5854078,-0.02632894
0.8056614,0.03372851,-0.01191749,-0.7022285,-0.4566783,0.1603628
0.8705843,0.04629353,-0.06620782,-0.8898624,-0.3928371,0.3330336
0.9186133,0.04698191,-0.03563317,-0.9283206,-0.2102736,0.331992
0.9531072,-0.002804066,-0.01991441,-0.8116462,0.0522304,0.235456
0.9561386,-0.08764538,0.04071151,-0.5438274,0.1321112,0.1526077
0.8892525,-0.1197732,0.1357014,-0.05899153,0.227382,-0.007724782
0.8970441,-0.09588027,0.1240574,0.2687123,0.2862687,-0.06881664
0.8520819,-0.07489123,0.08748764,0.3626054,0.2380309,0.03893013
0.8048373,-0.05695111,0.01832738,0.4160265,0.3156397,0.09339892
0.8074836,-0.02563494,-0.01551244,0.4025274,0.483038,0.1031679
0.7253994,-0.05053692,0.01614158,0.4449233,0.6273944,0.05114607
0.709549,-0.1013027,0.04010721,0.6201249,0.6905979,-0.0614531
0.7448575,-0.08187075,0.07315244,0.7102258,0.6563452,-0.0929968
0.7520955,-0.00536688,0.06001142,0.6021116,0.5886755,-0.06539137
0.7651945,0.0769033,0.009062937,0.4079996,0.4708655,0.05875359
0.7498521,0.05410612,-0.04433722,0.3038203,0.389145,0.2809633
0.7751322,-0.05176403,-0.07289736,0.4451354,0.5185744,0.3428605
0.8172053,-0.114403,-0.02965335,0.7307607,0.7259018,0.1276718
0.8827235,-0.1790553,0.064885,0.9416933,0.7324692,-0.2770526
1.126316,-0.2626425,0.2592229,0.9525009,0.3708601,-0.744823
1.590173,-0.3287367,0.4417036,0.6996502,-0.02918341,-0.861096
1.97871,-0.3143782,0.4198848,0.4074129,0.1531655,-0.348954
1.897752,-0.2431892,0.3345157,0.2223654,0.3604187,0.1259912
1.669983,-0.2750028,0.2972649,0.06335531,0.047407,0.07183277
1.602945,-0.2800861,0.2473322,0.1964498,-0.05202523,0.09832572
1.422492,-0.2300849,0.2325085,0.5309732,0.01220834,0.3653845
1.229062,-0.2504105,0.2489978,0.5631441,-0.09073186,0.4657867
1.068588,-0.1921848,0.2363789,0.5778702,-0.07584519,0.5571074
0.8380917,-0.1127757,0.2158002,0.6705802,-0.1123008,0.6412427
0.7040112,-0.05562689,0.1854784,0.5330706,-0.1630754,0.6166977
0.5964703,0.001754255,0.1699918,0.4988524,-0.1743109,0.6550109
0.5672814,-0.07723091,0.1810605,0.504109,-0.2713878,0.6000212
0.6374605,-0.137068,0.1780513,0.4786073,-0.3040414,0.4560619
0.6398795,-0.1335551,0.1965355,0.6589358,-0.39645,0.3190564
0.7241402,-0.1372157,0.2333571,0.6756907,-0.464539,0.1348804
0.8202878,-0.07115213,0.2366016,0.5931671,-0.3909465,0.05945325
0.818863,-0.01598766,0.2050844,0.531769,-0.3914499,0.0002019896
0.823508,0.006709723,0.1793588,0.3765341,-0.4861956,-0.09136608
0.8161705,-0.04834063,0.218185,0.3813402,-0.6316235,-0.1621971
0.8604034,-0.1615115,0.2577139,0.3602005,-0.6325531,-0.2490315
0.8845771,-0.1642615,0.2184414,0.285978,-0.4658823,-0.1226356
0.8056662,-0.1293515,0.1420201,0.3442455,-0.3996854,0.04327878
0.7397377,-0.1063761,0.07838989,0.4202422,-0.5257468,-0.02938835
0.7016598,-0.0705527,0.09565703,0.5720428,-0.6825214,-0.2030687
0.6538688,-0.04403337,0.1626544,0.6933633,-0.6011353,-0.4291115
0.6064703,-0.02487481,0.1688244,0.7396131,-0.5313054,-0.5051221
0.6373204,-0.02572225,0.1653035,0.7859224,-0.6073789,-0.4003237
0.7158179,0.01801365,0.1900226,0.7195765,-0.4890097,-0.3917853
0.8233364,0.04494493,0.2099303,0.5467407,-0.2929928,-0.3501875
1.067398,-0.02477622,0.1958423,0.3183358,-0.02912137,-0.184969
1.434571,-0.1504884,0.05951124,0.2814359,0.4475853,-0.1085672
1.763116,-0.3286525,-0.06750781,0.7286109,0.772309,-0.1683607
1.780538,-0.3388365,0.00561457,1.160325,0.6293877,-0.3539667
1.691823,-0.0959433,0.09473214,0.8079121,0.3531223,-0.5007583
1.705023,0.07990534,0.09888129,0.1236323,0.2720331,-0.2926194
1.457263,0.04377139,0.1759296,-0.08665068,-0.01990616,0.02128216
1.144278,-0.05055307,0.2184629,0.0581597,-0.4075872,0.05820954
1.037318,-0.07987542,0.1363069,0.3663356,-0.5260664,0.0989112
1.094829,-0.1230611,0.09465997,0.6224694,-0.5896248,0.211449
1.223314,-0.159296,0.04773616,0.7058511,-0.4356449,0.1536557
1.025395,-0.1054233,-0.007724834,0.7806896,-0.3661991,0.1437528
0.8556574,-0.05249991,-0.01037269,0.714154,-0.4364251,0.2084745
0.9420878,0.03745473,-0.06374092,0.5705042,-0.2114327,0.2185761
0.9178435,0.09037831,-0.04585864,0.4143413,-0.1605146,0.2832262
0.9608424,0.01694662,0.04833888,0.3258637,-0.008478882,0.236654
0.9334977,-0.003438916,0.09693214,0.4275692,0.2903755,0.0902158
0.8140561,-0.007384354,0.121176,0.3775511,0.1840971,0.06127987
0.7727953,-0.006612716,0.04965741,0.2975636,0.158601,0.1189113
0.6326165,0.04600473,0.01818264,0.2794501,0.1880681,0.2499923
0.591311,0.02894472,0.05790107,0.2033407,0.1781009,0.3251903
0.594089,-0.01152486,0.04533744,0.3449984,0.2414688,0.3215129
0.5798851,-0.04840844,0.06106092,0.485861,0.1534308,0.3480578
0.6728856,-0.06824041,0.01712563,0.4828596,0.1320439,0.3599417
0.7222567,-0.03254656,-0.03331734,0.4389681,0.2254238,0.3904737
0.8271712,-0.02257289,0.02415642,0.3481422,0.4583088,0.3244191
0.8973538,-0.0008230022,0.05556952,0.3973209,0.7660466,0.1463581
0.843045,0.03583628,0.06775199,0.4007991,0.8694359,0.04334336
0.8540942,0.04251418,0.0879225,0.2849325,0.8387034,-0.06127492
0.8621183,-0.003568465,0.1059793,0.2384352,0.6232252,-0.2529062
0.8972652,-0.203853,0.1597588,0.2223482,0.2108895,-0.6422296
1.146764,-0.3763756,0.2546973,0.2209446,0.02834956,-0.9578218
1.664645,-0.2820156,0.3073803,0.07140573,0.5040857,-0.652777
1.985579,-0.1176454,0.3238426,-0.1791231,0.9483351,-0.2512378
1.61295,-0.1061079,0.4373331,-0.2061188,0.5177628,-0.3004801
1.25585,-0.215885,0.480007,0.06083114,0.06425634,-0.2976817
1.440962,-0.3037886,0.3844324,0.4402995,0.09841283,-0.06608333
1.446005,-0.1827504,0.3387868,0.5889536,0.06508143,0.1707612
1.236307,-0.01361953,0.3128637,0.49677,0.02705843,0.2954255
1.195387,-0.07514778,0.2972759,0.419599,-0.0106395,0.2338801
0.9928597,-0.1073188,0.2676954,0.35553,-0.1924138,0.2426922
0.8157169,-0.04347358,0.2036942,0.2757736,-0.2970384,0.3287233
0.7931703,-0.1013113,0.1969727,0.2321548,-0.3547097,0.3537239
0.6269513,-0.1240705,0.2033068,0.2492082,-0.4034769,0.414093
0.6311544,-0.1202931,0.2034549,0.3087162,-0.3532696,0.2954705
0.7093578,-0.09982722,0.204571,0.3415527,-0.32598,0.06137645
0.6359995,-0.009454083,0.192639,0.3165108,-0.3935002,-0.05101661
0.6434911,-0.04911178,0.1776818,0.2648915,-0.5172964,-0.1066739
0.6068362,-0.08708469,0.1457926,0.2041996,-0.6029538,-0.01478883
0.6106269,-0.06240187,0.1506028,0.09402887,-0.5581289,0.07660842
0.6947608,-0.09934908,0.1578316,-0.05485666,-0.5121251,0.05299803
0.6799324,-0.06895419,0.1300692,-0.1506759,-0.5586407,0.06556868
0.7488577,-0.04463022,0.1414039,-0.1959867,-0.5470555,0.04836041
0.8475385,-0.0786413,0.1575314,-0.2284945,-0.4204754,0.01694073
0.8542009,-0.06641044,0.1660071,-0.1086975,-0.3014636,-0.03847262
0.8147612,-0.03404249,0.1960979,0.1205977,-0.2562718,-0.1424907
0.7469052,-0.0009950529,0.2206018,0.1891398,-0.2389736,-0.2075859
0.746216,-0.0293091,0.2333584,0.2440325,-0.1558619,-0.2600493
0.8065817,-0.08867202,0.1848575,0.4163662,0.02159132,-0.217414
1.05037,-0.1179658,0.02567792,0.4391089,0.3007519,-0.04013974
1.515024,-0.2153738,-0.1304378,0.3892023,0.5345129,0.1523075
1.788496,-0.309865,-0.07750358,0.5764778,0.510247,0.1868911
1.751438,-0.2385231,0.1079472,1.018821,0.5110169,-0.1843062
1.721844,-0.003345581,0.1867072,1.283832,0.5351285,-0.7113535
1.679296,0.2479403,0.197106,0.7336699,0.1640825,-0.7512874
1.438845,0.2751717,0.1861517,-0.1610561,-0.2375119,-0.2578506
1.232451,0.1389958,0.1641566,-0.3606026,-0.3873499,0.2513197
1.188532,0.07713975,0.1581907,-0.2199637,-0.5597079,0.4034796
1.142729,-0.004986595,0.07778848,-0.1748897,-0.6628033,0.328747
1.038534,-0.06603629,0.04371238,0.08691993,-0.5888158,0.34927
0.8807062,0.04856901,0.08485792,0.2313771,-0.5178647,0.3742554
0.8068215,0.141054,0.06558849,0.112785,-0.4744982,0.318319
0.8725799,0.18309,0.0738819,-0.01564258,-0.3160227,0.3404279
0.9262445,0.2108734,0.08154163,-0.2623644,-0.1331743,0.3060467
0.9208151,0.1802418,0.06960305,-0.4757973,0.02087877,0.1885267
0.8875211,0.2121562,0.07429928,-0.63922,0.1660015,0.1455356
0.8253005,0.2059625,0.009549286,-0.9304243,0.09615058,0.1290512
0.7372867,0.1604367,-0.06424656,-1.169235,0.04222596,0.1409475
0.7299921,0.1693933,-0.07354946,-1.245891,0.1541079,0.1606256
0.7921544,0.09744269,-0.01289021,-1.161261,0.2090975,0.1849612
0.8211413,0.04502002,0.05243998,-0.9990358,0.3914421,0.2431996
0.8501587,0.07708825,0.04960203,-0.950923,0.5487138,0.2734207
0.8400766,0.1463189,0.04612932,-1.059309,0.5025289,0.3121459
0.8361831,0.2849885,0.05527053,-1.266194,0.5408111,0.3136387
0.8962542,0.3432813,0.05344418,-1.556115,0.562262,0.2904146
0.9169646,0.2509635,0.01225365,-1.913476,0.4684835,0.3372648
0.886738,0.09459201,-0.04642535,-2.080307,0.3514837,0.3351025
0.8278539,-0.06225759,-0.04568652,-1.870169,0.2640181,0.2696559
0.7906656,-0.204817,-0.06579522,-1.532828,0.266643,0.1688207
0.8561453,-0.3984075,-0.1030547,-1.093579,0.246735,-0.05481308
1.159662,-0.6824542,-0.05891087,-0.5841838,0.2805437,-0.4654132
1.554129,-0.8678828,0.003201692,-0.4728342,0.4890437,-0.9087722
1.597825,-0.6438852,0.04900739,-0.6162976,0.6498949,-1.072241
1.670131,-0.1969737,0.09375953,-0.8478081,0.6281114,-1.20329
1.999244,0.03219769,0.09715964,-1.628429,0.6722916,-1.395113
1.830843,0.02091794,0.07917156,-2.345415,0.9261341,-1.093697
1.382094,-0.04471995,0.08779638,-2.188108,0.9923238,-0.604384
1.183445,-0.03961527,0.1190773,-2.04289,0.7558876,-0.4879063
1.043216,-0.07499467,0.1480943,-2.315052,0.5814767,-0.4141109
1.099206,-0.1715392,0.1292197,-2.250057,0.539591,-0.1709359
1.105036,-0.1504538,0.09813671,-2.168651,0.5742444,0.04170386
0.8836303,-0.1696545,0.1216348,-2.235094,0.5641419,0.05600478
0.8108804,-0.2543175,0.1410567,-1.970559,0.4455712,0.01547514
0.7611719,-0.2444218,0.1375645,-1.792212,0.370557,0.04248868
0.7864629,-0.2176527,0.1138685,-1.67257,0.3489238,-0.07231836
0.8103588,-0.1870312,0.06800979,-1.468129,0.3435481,-0.1817451
0.6795931,-0.2149961,0.09226781,-1.338105,0.1928587,-0.1996243
0.6954872,-0.2647671,0.129664,-0.8934814,-0.1182725,-0.2845889
0.714952,-0.2128226,0.1235881,-0.5180848,-0.2879145,-0.3282496
0.8102836,-0.1554072,0.1612863,-0.4062246,-0.3051067,-0.4207188
0.964538,-0.09432988,0.1744054,-0.2272856,-0.2322428,-0.5061441
0.8825547,-0.07566066,0.14946,-0.2458231,-0.1776574,-0.4608959
0.8563548,-0.1092755,0.1671637,-0.2326075,-0.3229082,-0.4406206
0.8348188,-0.1106769,0.1724704,-0.05957268,-0.4781062,-0.368279
0.7418094,-0.1724071,0.1712431,0.057179,-0.4913468,-0.2833127
0.7349589,-0.1902671,0.1707113,0.1767525,-0.5069353,-0.2486517
0.6763724,-0.1109192,0.1266336,0.18896,-0.6434464,-0.214057
0.6018006,-0.05071253,0.08669425,0.1813957,-0.8171181,-0.2708503
0.5993707,0.04511332,0.08197809,0.203413,-0.8837891,-0.3386712
0.7005011,0.06267668,0.1237848,0.2029168,-0.8127688,-0.3498494
0.8355976,-0.0490126,0.1811629,0.3593853,-0.6459856,-0.2891749
0.897078,-0.113753,0.1848752,0.5470154,-0.5090031,-0.2084974
0.9017015,-0.1106153,0.1683485,0.5755174,-0.4246841,-0.2404823
0.8796548,-0.08497376,0.1545681,0.5943035,-0.2862906,-0.243286
0.9742398,-0.09853983,0.09651668,0.6613436,0.001451388,-0.1332721
1.260432,-0.1675862,-0.04903303,0.6545534,0.4355772,0.02855001
1.636539,-0.2793911,-0.1852627,0.7240733,0.7490909,0.1315681
1.765361,-0.3594315,-0.09833612,1.017449,0.7315876,-0.06867253
1.596312,-0.1922463,0.06419371,1.195983,0.4767687,-0.4253543
1.531751,0.1020266,0.08540288,0.9645788,0.1781,-0.5183432
1.466974,0.2028585,0.1413218,0.4608681,-0.09095137,-0.3145182
1.362202,0.08316358,0.1694233,0.04605203,-0.3070276,-0.08629175
1.351179,-0.03202878,0.1082641,-0.02712488,-0.4066046,-0.005595775
1.221286,0.01156487,0.1424572,0.08594141,-0.5096936,0.06265753
1.160545,-0.03890914,0.07949557,0.1724923,-0.5546176,0.2012049
1.149779,-0.1770109,-0.01246689,0.3920868,-0.4638056,0.2856543
0.9613935,-0.09395365,0.04360701,0.7051553,-0.5089269,0.3713634
0.8274371,0.04879512,-0.01269944,0.6800163,-0.5203516,0.4264581
0.7892383,0.1421342,-0.05879975,0.466043,-0.3249386,0.3566416
0.8624234,0.1616397,0.01429026,0.4282226,-0.09977321,0.2858001
0.9158204,0.04456144,0.03930907,0.4123333,0.1402972,0.2181072
0.7950352,0.009356228,0.03444144,0.3849858,0.1767729,0.2541319
0.735124,0.01130489,0.003229154,0.314071,0.09939133,0.4014326
0.6875584,-0.00556604,-0.003716794,0.1963224,0.1839603,0.3895763
0.6632901,0.02891815,-0.00441162,0.2597206,0.2296011,0.2904647
0.712735,-0.02150585,0.0223815,0.4124987,0.2718113,0.1845781
0.7334406,-0.04538525,0.1026688,0.5904448,0.3115911,0.1093378
0.8595898,0.004365155,0.0848101,0.7081778,0.3142124,0.1685707
0.9460068,0.0398491,0.06629676,0.5839071,0.4400432,0.1757074
0.9236296,0.1148628,0.08332318,0.453196,0.4870763,0.1535386
0.93278,0.1335454,0.06764351,0.3868598,0.5434631,0.1611692
0.8791402,0.104928,0.0845563,0.2803149,0.6894262,0.06878175
0.836152,0.0432083,0.1004917,0.2325447,0.5517186,-0.07581834
0.9455509,-0.137888,0.1767744,0.1803609,0.2768413,-0.3548978
1.26819,-0.2890336,0.2958946,0.04095687,0.1395957,-0.6206249
1.676448,-0.2690867,0.3453924,-0.1291999,0.2066602,-0.5242433
1.801636,-0.1681554,0.371983,-0.2680687,0.5311594,-0.2967863
1.608822,-0.1419281,0.3235288,-0.3249712,0.7062847,-0.1865034
1.469939,-0.1685758,0.246349,-0.1818673,0.3800311,-0.1414717
1.445759,-0.2079909,0.3263078,0.1526959,-0.009751985,-0.131565
1.272027,-0.2464327,0.4054784,0.387,0.007242494,0.0199922
1.117756,-0.1714552,0.3243156,0.5612595,-0.01117542,0.2849314
1.046073,-0.09119039,0.2805021,0.6697476,-0.2899477,0.4077941
0.8600098,-0.0960278,0.2810292,0.4867665,-0.36796,0.4776864
0.801325,-0.06780385,0.2211259,0.3893552,-0.4514189,0.5543503
0.8078569,-0.04154346,0.2213935,0.3880349,-0.5902193,0.543115
0.7387859,-0.09339116,0.2492118,0.3058886,-0.5243443,0.488625
0.7818311,-0.1570468,0.2335058,0.4678014,-0.5590413,0.3580091
0.7761524,-0.1531269,0.2142174,0.6258306,-0.5693573,0.1866212
0.7309354,-0.1176066,0.1788659,0.6541127,-0.554627,0.06793812
0.7481748,-0.08504838,0.1755241,0.7255814,-0.6960605,-0.01839186
0.7267894,-0.06865281,0.189612,0.7240371,-0.7033367,-0.04927839
0.752038,-0.09263768,0.1646756,0.7223837,-0.6821221,-0.05367108
0.7657264,-0.1000487,0.1420467,0.6672183,-0.6536456,-0.04428066
0.7452937,-0.09445154,0.1290193,0.6092136,-0.6070292,0.003068175
0.7701934,-0.08038644,0.1255396,0.6487568,-0.7034624,0.04488931
0.7845159,-0.04846044,0.1281066,0.6568169,-0.7156586,0.07921124
0.8195714,-0.07402843,0.1174904,0.7058032,-0.5917151,0.09015901
0.8316828,-0.137902,0.1051638,0.7772893,-0.4560816,0.1119023
0.8225792,-0.1711386,0.08882491,0.8188269,-0.4369724,0.1525505
0.8398927,-0.1047149,0.09097204,0.7562923,-0.4373061,0.08077367
0.8087056,0.01356804,0.128857,0.6472103,-0.3464345,-0.07604917
0.7947956,0.01095924,0.1831398,0.7913867,-0.4210263,-0.2243674
0.8093539,-0.04290753,0.2372428,1.005958,-0.4615078,-0.3331954
0.8096169,-0.04429976,0.2342431,1.09845,-0.3467234,-0.3180654
0.896815,-0.05973284,0.1732131,1.1086,-0.13843,-0.2083804
1.201435,-0.1156896,0.0276054,0.9620233,0.3702551,-0.1102134
1.694763,-0.2216314,-0.2179335,0.8478337,0.6706709,-0.0985246
1.923749,-0.26557,-0.2617352,0.8814409,0.4904688,-0.2054608
1.730101,-0.1600751,-0.06333577,0.9054385,0.3948162,-0.3944017
1.56301,-0.06861921,0.03926304,0.8567241,0.3119369,-0.5341922
1.431112,-0.05352082,0.1081499,0.7602586,-0.01829834,-0.3299938
1.242218,-0.03304245,0.2097539,0.6750374,-0.2067599,0.01976773
1.224517,0.01980621,0.1831072,0.6483513,-0.2609494,0.06579691
1.219256,0.07367844,0.1228576,0.604578,-0.4297712,0.1601555
1.162967,0.04824103,0.09590947,0.4989873,-0.3616642,0.3550467
1.123637,-0.02097989,0.05527143,0.5639397,-0.2353252,0.2876191
0.9428528,-0.03560048,0.0534564,0.6768385,-0.3418608,0.2890027
0.8589324,0.02473714,0.05429175,0.4860589,-0.2692637,0.3736107
0.9248438,0.1072893,0.008092351,0.2854882,-0.1763686,0.3299073
0.9116554,0.09645932,0.01611081,0.2244782,-0.1487059,0.3238786
0.9441474,0.04460203,0.06815265,0.2167443,0.06677347,0.2487323
0.9325462,0.04444913,0.08416992,0.3274819,0.2109513,0.116133
0.8327568,0.02071266,0.101293,0.3581466,0.2340526,0.08632195
0.7704504,0.00364244,0.07379831,0.3392236,0.1866643,0.1476781
0.663352,0.01660101,0.02434606,0.3494871,0.125203,0.2859766
0.6104314,-0.005159509,0.03139881,0.3380026,0.1750533,0.3668055
0.6849939,-0.03570338,0.03118585,0.4159601,0.1951714,0.370535
0.820125,-0.07602279,0.03763141,0.5060743,0.2440363,0.3700902
0.9542322,-0.08734479,0.04055947,0.5736742,0.335726,0.3608015
1.007965,-0.03525555,0.031307,0.5739988,0.3875585,0.3314053
1.016208,0.02688986,0.06060901,0.5150316,0.5132811,0.249689
0.9830865,0.09475893,0.08291248,0.5027859,0.6290558,0.1699676
0.9319422,0.1080938,0.0984967,0.4116502,0.6896074,0.08315013
0.8646996,0.05837737,0.08594535,0.388186,0.7530844,0.02489558
0.7665579,-0.005958156,0.07846403,0.4773489,0.7224504,0.03280897
0.7975179,-0.163311,0.1727135,0.5151737,0.5714583,-0.1639002
1.024067,-0.3558747,0.2567302,0.5805975,0.3254796,-0.5849995
1.362846,-0.3877813,0.2637328,0.5095208,0.1693991,-0.7661332
1.65499,-0.2418509,0.2994362,0.3232106,0.3876432,-0.4674372
1.769757,-0.1317479,0.3758061,0.2406039,0.6148798,-0.1829449
1.676459,-0.1851643,0.3928714,0.2209523,0.4496613,-0.2463136
1.426206,-0.19686,0.372753,0.3530838,0.3025384,-0.1439158
1.236291,-0.07262599,0.3653623,0.5440825,0.2597457,0.1601555
1.124575,-0.004295689,0.3230953,0.5641278,0.1272105,0.2813065
1.026158,-0.02936685,0.3214286,0.4505699,0.06984527,0.3274504
0.9796682,-0.04030777,0.3325578,0.2677731,-0.06845567,0.319822
0.9072326,-0.01421445,0.269885,0.08082944,-0.2286231,0.3701987
0.8621461,-0.01435203,0.2467278,-0.0023983,-0.249321,0.5114956
0.7874654,-0.0782809,0.2581563,0.1534877,-0.4174479,0.4982269
0.6983095,-0.1396877,0.27688,0.4407853,-0.5508849,0.4502336
0.7640757,-0.1361107,0.3016959,0.6007166,-0.5282192,0.3286215
0.7735349,-0.06929465,0.2808429,0.6637951,-0.5337935,0.1220163
0.7595248,-0.01124157,0.2657662,0.6069463,-0.4811782,0.06435616
0.7934658,-0.01736329,0.2468479,0.4863174,-0.5117665,0.06304459
0.7529161,-0.02647682,0.2306842,0.4909473,-0.6068924,0.1046869
0.803988,-0.01228527,0.2408718,0.4511483,-0.6057901,0.1415936
0.8399089,-0.008269735,0.2160439,0.3248452,-0.6129508,0.07542955
0.7827074,-0.02317474,0.1919158,0.1995177,-0.5901212,0.01592034
0.7868171,-0.05155941,0.1978731,0.113069,-0.6005561,-0.01498585
0.8200631,-0.08256903,0.2162614,0.2545331,-0.6365343,-0.01319438
0.8691672,-0.1140602,0.2397067,0.4867218,-0.6036284,-0.03353664
0.8550978,-0.1117197,0.2473323,0.6360033,-0.6321349,-0.06157379
0.8289862,-0.05788268,0.2409199,0.7057354,-0.6361816,-0.05588731
0.8582665,-0.01178001,0.2308428,0.6455937,-0.5657368,-0.1157213
0.8350419,-0.02387038,0.2368155,0.6475102,-0.5077371,-0.1838588
0.8248009,-0.05096043,0.23152,0.6775707,-0.4245499,-0.1920215
0.8305633,-0.0603078,0.1863656,0.5724504,-0.2388331,-0.1077325
0.9032662,-0.1141792,0.08654821,0.5249031,0.09294552,0.0584942
1.215014,-0.1818016,-0.09855471,0.5917494,0.2924196,0.1930081
1.631172,-0.2134557,-0.2172287,0.7836239,0.2834241,0.2048958
1.814664,-0.2036413,-0.0970435,1.060506,0.3032547,-0.0731915
1.674262,-0.0501426,0.1094825,1.117976,0.2376534,-0.4773081
1.5677,0.1735505,0.1727641,0.8149852,0.03763585,-0.5032299
1.556726,0.2374556,0.1303441,0.3084148,-0.1619284,-0.1122532
1.36632,0.1294905,0.1048787,-0.06735885,-0.2702177,0.2585169
1.183259,0.01288361,0.09363697,-0.08709294,-0.3475116,0.3199883
1.119273,-0.04846411,0.04567772,0.0865437,-0.5268044,0.260557
1.063565,-0.103596,-0.01969522,0.2283498,-0.5475581,0.3072371
1.017064,-0.1142852,-0.01587693,0.3899633,-0.4622987,0.3169799
0.9112061,-0.09229676,0.005806087,0.5199057,-0.5225328,0.259962
0.8656239,-0.04595982,-0.0173409,0.4311604,-0.4651213,0.2736226
0.900319,0.08047099,-0.013226,0.2497798,-0.3256638,0.329322
0.8891656,0.1217648,-0.01207097,0.04133658,-0.1715042,0.4340673
0.9164721,0.06128353,-0.02018326,-0.1395821,0.05230387,0.4980527
0.9043766,0.05716228,0.00249264,-0.1194538,0.1433395,0.3820737
0.8380001,0.05942883,0.0312232,-0.07261822,0.2222935,0.203032
0.81253,0.07095267,0.08565648,-0.0263359,0.2937449,0.03279737
0.7767226,0.1093611,0.1112191,0.07813902,0.2560536,-0.02455522
0.7778986,0.1150713,0.07518989,0.05324835,0.2807982,0.1219118
0.7743376,0.08492867,0.02844502,-0.06082122,0.3146771,0.2919584
0.741168,0.03179518,-0.009240842,-0.1373984,0.3651182,0.4012579
0.7691786,0.003534305,0.04152337,-0.02473148,0.4735004,0.4027462
0.8101402,0.001670134,0.1413778,0.203383,0.5004807,0.2841315
0.8592436,0.009957506,0.1469472,0.2007593,0.4720638,0.2049532
0.9050946,0.06301542,0.09876332,0.01663725,0.4723506,0.1807093
0.9199912,0.1096714,0.07458942,-0.2010824,0.5000339,0.1697483
0.9158963,0.05088084,0.0744894,-0.3119755,0.5451208,0.1335484
0.8820955,-0.09058802,0.09509597,-0.1972343,0.6233502,0.006443303
0.9644396,-0.2411083,0.1364162,-0.08702902,0.6412345,-0.2706433
1.236099,-0.3668387,0.2004862,-0.0197168,0.5491611,-0.7064593
1.567258,-0.3465894,0.2145443,0.009724196,0.5065466,-0.8808676
1.747839,-0.208094,0.1641783,-0.09584369,0.5264485,-0.5676284
1.678951,-0.1630285,0.1659142,-0.1237248,0.5135647,-0.3414293
1.627345,-0.1844957,0.2198384,-0.02783312,0.4319632,-0.3899593
1.558044,-0.1829938,0.2632124,0.08191682,0.3323931,-0.1906933
1.288961,-0.1250533,0.2651064,0.2050051,0.3145357,0.2590794
1.175828,-0.05252612,0.2413202,0.2552284,0.258976,0.4453648
1.189699,-0.0961288,0.2553328,0.1836787,0.1271135,0.3057106
1.081844,-0.1249222,0.2453244,0.03654793,0.1112989,0.2244007
1.069362,-0.08992485,0.2159633,-0.1192937,0.1726092,0.3745987
1.03832,-0.1125642,0.2281951,-0.3380917,0.1586726,0.5426422
0.8116986,-0.1273483,0.2146286,-0.4773513,0.08812119,0.6028226
0.694055,-0.1467346,0.2130001,-0.2144132,-0.05271961,0.6019671
0.7228258,-0.1929976,0.2365462,0.1374442,-0.2613444,0.4777368
0.6768302,-0.2052029,0.2378735,0.2632228,-0.3782958,0.3018652
0.6650849,-0.1375658,0.2593576,0.3675818,-0.3945585,0.1358687
0.7327378,0.002292219,0.2794494,0.4256003,-0.4338735,-0.0245771
0.714994,0.03937006,0.2840457,0.3823991,-0.523352,-0.04880799
0.6761283,-0.02028968,0.2787809,0.3578311,-0.6491879,-0.04586678
0.6711282,-0.03764697,0.2648707,0.347463,-0.7432688,-0.07192734
0.6841552,-0.05919092,0.2650312,0.3163712,-0.7767345,-0.09098873
0.7589429,-0.07120786,0.2442732,0.3070704,-0.8154619,-0.2118855
0.8157593,-0.03423165,0.2207911,0.3480164,-0.8725805,-0.2787915
0.8654223,-0.01434438,0.2143733,0.3602428,-0.861313,-0.2050231
0.9213571,-0.0469856,0.1791659,0.3258247,-0.7726292,-0.1118946
0.9103854,-0.07939678,0.1431528,0.2916194,-0.6834969,-0.0554776
0.9135214,-0.05491834,0.1663841,0.3045758,-0.4978743,-0.09970081
0.9116006,-0.0336818,0.2258308,0.4582284,-0.3021754,-0.2421487
0.9522036,-0.1432378,0.07430086,-0.7948771,0.5652766,-0.01437069
1.149788,-0.3871364,0.1564549,-0.6284827,0.5686284,-0.2869988
1.443345,-0.4889235,0.2220108,-0.4344007,0.6427409,-0.6163024
1.601823,-0.2352741,0.2559959,-0.3272304,0.7253923,-0.6771367
1.626128,0.07921253,0.3072111,-0.5848816,0.7030641,-0.4722595
1.5798,0.08536151,0.3867243,-1.092501,0.5630304,-0.2729614
1.546959,-0.04841497,0.4183475,-1.269413,0.2190955,-0.2096359
1.524118,-0.1336263,0.3463654,-0.8983356,0.05461889,-0.06291497
1.43893,-0.1029174,0.3228535,-0.4398636,0.1916315,0.1408127
1.309917,-0.07076592,0.3527831,-0.3828764,0.1620794,0.09264103
1.151893,-0.1153257,0.337752,-0.465962,0.07006522,0.02328875
1.009788,-0.07749269,0.2964752,-0.4426139,0.01549447,0.1722626
0.8485095,-0.0134246,0.2269655,-0.5398446,-0.1082066,0.3101103
0.6795043,0.004695341,0.2124524,-0.6268865,-0.2104505,0.4189302
0.6561849,-0.01823732,0.2378164,-0.581707,-0.3555086,0.4853934
0.6643001,-0.08717077,0.2233524,-0.4931643,-0.4251977,0.3474686
0.6171149,-0.04907661,0.2347717,-0.3580914,-0.3552333,0.1440813
0.6389235,0.02405756,0.2462826,-0.322574,-0.365386,-0.1081186
0.6300434,0.02887739,0.2343714,-0.3656779,-0.4838021,-0.3366793
0.6067726,-0.001924351,0.2207573,-0.3486156,-0.6256723,-0.2996347
0.6446873,-0.1320786,0.1883951,-0.3322423,-0.6999679,-0.2427544
0.6257449,-0.1810306,0.1675019,-0.3553729,-0.7027487,-0.2639574
0.6537699,-0.07385281,0.143641,-0.4595069,-0.7252557,-0.2304806
0.7278666,-0.02200606,0.09291484,-0.6168288,-0.7485299,-0.2389017
0.7393568,-0.04155684,0.06796826,-0.641636,-0.7199998,-0.2289247
0.7655108,-0.06355313,0.107556,-0.5075022,-0.6080685,-0.2284562
0.8012727,-0.05943924,0.191611,-0.2869574,-0.4314261,-0.3336735
0.8377426,-0.08246429,0.2668796,0.06918312,-0.340534,-0.436453
0.7926332,-0.1215816,0.2583938,0.3881011,-0.3219653,-0.4290207
0.7615141,-0.1176711,0.1894238,0.4218869,-0.1335238,-0.2556587
1.065533,-0.1343765,0.08366718,0.2671097,0.2570588,-0.03593595
1.565198,-0.1338099,-0.1612265,0.08521963,0.6903967,0.06006494
1.84465,-0.1478925,-0.2765552,0.06519809,0.8944296,-0.03440373
1.800517,-0.1525997,0.0005793968,0.2206503,0.6380663,-0.2996253
1.714733,0.007137788,0.2262315,0.1927051,0.2753531,-0.4834583
1.612131,0.1612537,0.1836327,-0.2232441,0.07971814,-0.2687173
1.403173,0.1484316,0.1752456,-0.7013824,-0.1601936,0.1286689
1.349901,0.06837976,0.2086623,-0.6739748,-0.2810145,0.2010649
1.289201,0.04127553,0.1423056,-0.4821276,-0.300738,0.1644897
1.179331,0.02694963,0.059348,-0.6194219,-0.4114841,0.26228
1.126698,-0.04839802,0.01493048,-0.5272353,-0.3364591,0.2545288
0.8658111,-0.07872528,-0.03944183,-0.3420155,-0.2891279,0.309346
0.7830213,-0.06158848,-0.04092648,-0.4260606,-0.3234627,0.4289558
0.8569582,-0.04908216,-0.04368574,-0.3555282,-0.1332677,0.409215
0.751785,-0.03606767,-0.07657746,-0.2548227,0.01157019,0.3401212
0.8535201,-0.02592403,0.03577198,-0.1475723,0.2270236,0.1846751
0.8970558,0.001781893,0.1267822,-0.03177338,0.4296411,0.08810088
0.7517999,-0.005967011,0.04931219,-0.1528176,0.3252214,0.1428213
0.7023068,0.01281104,-0.0126537,-0.2165664,0.3500737,0.20737
0.6278437,0.07052655,-0.02277123,-0.2800217,0.4212349,0.2675108
0.6451042,0.05092262,-0.01899873,-0.3598103,0.4303584,0.2384264
0.6695274,-0.01824366,-0.004221018,-0.2386837,0.5908478,0.1385773
0.7210428,-0.1106364,0.0620015,-0.03437892,0.7208809,0.01995719
0.9068639,-0.1187431,0.1524036,0.269535,0.777971,-0.077114
0.9175913,0.0001138492,0.1391102,0.2931152,0.7041949,-0.04996543
0.8774829,0.1081931,0.07352418,-0.05606945,0.6182845,0.01185041
0.8752431,0.1501279,0.02742607,-0.2537143,0.6405933,0.05233739
0.8107389,0.07167369,-0.01173666,-0.2990411,0.5871579,0.0408456
0.826048,-0.09927229,0.01047597,-0.1722083,0.5523752,-0.1586494
0.9868725,-0.2900226,0.1487308,0.02853821,0.4352335,-0.5844259
1.357576,-0.3553299,0.3285321,0.002757398,0.2856948,-0.8927307
1.676266,-0.1123976,0.3763618,-0.1894853,0.4393088,-0.6318843
1.667726,0.07944431,0.332083,-0.4796639,0.5365737,-0.2298598
1.653068,-0.09426241,0.3979378,-0.5696459,0.3072325,-0.1892784
1.697831,-0.2095805,0.4654346,-0.4398401,0.1132731,-0.09718663
1.501146,-0.06845446,0.3644407,-0.3002673,0.1371407,0.1711235
1.240795,-0.01423549,0.2883897,-0.0578656,0.1638274,0.406171
1.092117,-0.07811143,0.3296519,-0.09285058,0.0712265,0.5042655
0.911612,-0.08741068,0.3298772,-0.2254287,-0.04241391,0.3834957
0.8251782,-0.1002043,0.295265,0.02395652,-0.1792634,0.4156894
0.8142399,-0.07207697,0.2792215,0.11974,-0.2852043,0.5272325
0.7155829,-0.002627543,0.2546252,0.06696909,-0.3281857,0.4651824
0.6708333,-0.04799334,0.2483444,0.1209926,-0.4241331,0.4680863
0.6731081,-0.07778713,0.2634273,0.1122981,-0.4738783,0.3099132
0.6435978,-0.0226652,0.2488199,0.1496059,-0.4649541,0.0480975
0.612297,-0.01565297,0.2081753,0.06257168,-0.5312024,-0.06550111
0.5894677,-0.02369526,0.1741661,-0.1103724,-0.5931261,-0.1343301
0.6058062,-0.0412424,0.1666146,-0.108632,-0.633829,-0.05140205
0.6422887,-0.09326412,0.1574458,-0.126988,-0.6523608,0.006885897
0.6682744,-0.1124465,0.1031599,-0.2551662,-0.6150341,0.04339049
0.6753406,-0.05968756,0.09916481,-0.4263719,-0.628534,0.08961128
0.7244731,0.0005923876,0.1744786,-0.4039299,-0.6221159,-0.07411268
0.8086605,-0.03786226,0.2326758,-0.1169278,-0.5253931,-0.2104535
0.8108945,-0.1146252,0.2694694,0.163659,-0.4397476,-0.3139027
0.8040261,-0.1352912,0.2607975,0.3013537,-0.3167846,-0.3479637
0.9046059,-0.08509045,0.2273911,0.1827499,-0.1031226,-0.2372118
1.047739,-0.005068877,0.1905655,0.004469483,0.2081225,-0.2024614
1.148507,-0.04968361,0.1064891,-0.09218162,0.5680684,-0.1022032
1.327698,-0.1719066,0.02131612,-0.108239,0.8225057,-0.0292058
1.671057,-0.2326346,-0.03622888,0.3779357,0.9093698,-0.09470813
1.90151,-0.2468551,0.06857475,0.9657338,0.7723644,-0.1804068
1.870961,-0.1484635,0.250627,0.8173237,0.3669436,-0.3395734
1.651202,0.1016667,0.1831232,0.1563709,-0.1071103,-0.3279598
1.334629,0.3490454,0.1445809,-0.4348212,-0.341791,-0.08506683
1.278144,0.285108,0.2864406,-0.5332236,-0.4825958,0.2454094
1.375765,0.05189837,0.2724601,-0.3061969,-0.6647038,0.502578
1.280518,0.0379051,0.1693989,-0.2815707,-0.5687786,0.3689087
1.247037,-0.0471767,0.06323188,-0.166951,-0.5126249,0.2541925
1.103017,-0.1192661,0.0003125426,0.1095644,-0.6818003,0.4642246
0.7618642,0.05731926,0.02934723,0.03995281,-0.636069,0.5480829
0.7080205,0.08457859,-0.03722008,-0.1476958,-0.5687954,0.5719669
0.7462876,0.108044,-0.05970607,-0.2944059,-0.4129519,0.6309982
0.77538,0.129121,0.01266941,-0.4451049,-0.05354312,0.4683753
0.9154727,0.02941878,0.04649678,-0.3506573,0.1612494,0.2397357
0.9290626,0.09114203,0.1162232,-0.3446809,0.3458851,0.1023629
0.8496209,0.09499248,0.05324653,-0.579327,0.4073145,0.09397744
0.728926,0.1153297,-0.07092422,-0.7922034,0.3799307,0.2313441
0.6368203,0.2003212,-0.02991435,-0.9385627,0.5031151,0.3429272
0.6490202,0.09610325,0.01485312,-0.8248638,0.5742372,0.3759537
0.6773056,0.01393301,0.0450292,-0.6956923,0.6453607,0.3580112
0.7387433,-0.0881218,0.05351958,-0.7108267,0.7224389,0.3106249
0.7589586,-0.1478615,0.03108789,-0.562712,0.8022065,0.204991
0.7740321,-0.03346843,0.08787851,-0.4879692,0.9643665,0.05356531
0.8458648,0.03357572,0.1130184,-0.598864,1.023474,0.03463859
0.8427809,0.05706942,0.07141928,-0.722968,0.9505787,0.08009875
0.7535476,-0.01825022,0.03019942,-0.7816037,0.711461,0.06826914
0.7115022,-0.2349091,0.02087597,-0.5965429,0.4944319,-0.0293621
0.9786681,-0.5062883,0.1509984,-0.2637009,0.527589,-0.3549212
1.487246,-0.6344369,0.3425184,0.0290233,0.543839,-0.7166531
1.809958,-0.3797337,0.3978597,0.07302863,0.5001638,-0.7398915
1.844482,-0.0686691,0.341044,-0.2584563,0.4909739,-0.5846067
1.717527,0.01656335,0.3211238,-0.5584512,0.3640149,-0.5543431
1.52823,0.03530621,0.3312601,-0.4982231,0.1734613,-0.3857798
1.361732,0.05506533,0.3244258,-0.3100356,0.1504278,-0.06303508
1.279936,0.07210977,0.3506772,-0.2791947,0.1702891,-0.0389569
1.24974,0.03606641,0.3687372,-0.3847587,0.06252996,-0.1101239
1.157369,-0.03324167,0.3635727,-0.5752693,0.02806888,0.005543549
1.032781,-0.03480676,0.3385571,-0.7649007,0.02105737,0.098201
0.9176023,0.006281856,0.2431855,-0.8649829,-0.05768983,0.1402084
0.7964998,0.02789039,0.1716473,-1.023081,-0.1051692,0.1785562
0.7146169,-0.02808353,0.1654565,-1.11791,-0.220772,0.1748082
0.6699611,-0.09421922,0.2017278,-1.024544,-0.3141685,0.1243107
0.6648175,-0.0585779,0.2487746,-0.9957935,-0.294567,0.03853586
0.6561672,-0.01490944,0.2120082,-1.038088,-0.3181505,-0.03826788
0.6018076,-0.00118853,0.1751794,-1.082583,-0.372684,-0.05262711
0.5926966,0.02504568,0.1830615,-1.234602,-0.4196144,0.006090006
0.6214789,0.03226443,0.1759844,-1.523626,-0.4005865,0.03690405
0.6731922,0.0830906,0.1915914,-1.771043,-0.2403578,-0.01764161
0.7586584,0.154361,0.1912825,-1.826904,-0.06900585,-0.1246433
0.7847813,0.1400361,0.1484159,-1.952091,-0.02980246,-0.2570324
0.81337,0.1317453,0.1030199,-2.153174,-0.03285565,-0.3439996
0.91516,0.1539579,0.1002035,-2.12582,0.05265586,-0.3640157
1.013709,0.1311082,0.1740374,-2.115667,0.1565041,-0.4086874
1.096743,0.1126479,0.2229371,-2.244858,0.3003032,-0.5284847
1.076826,0.1046753,0.1767475,-2.244731,0.4967363,-0.6442066
0.9322967,0.08374462,0.09055417,-2.224495,0.5662374,-0.6876045
0.9179643,0.01441603,-0.03305829,-2.271691,0.6498703,-0.6208441
1.106372,-0.2184259,-0.2838631,-2.408367,0.9289097,-0.392178
1.334076,-0.4371052,-0.4999969,-2.463248,1.159948,-0.2177549
1.569987,-0.368023,-0.275617,-1.804177,0.9810125,-0.4815107
1.795079,-0.2698474,0.111621,-1.046522,0.2759833,-0.9911798
1.803603,-0.2977122,0.1149505,-1.375771,-0.3403307,-1.118618
1.619697,-0.148712,0.04050194,-2.158202,-0.2896375,-0.8183402
1.526265,0.01481543,0.0971814,-2.49523,-0.1916345,-0.4402483
1.378034,-0.06484027,0.0701269,-2.416536,-0.482412,-0.2046268
1.177749,-0.1135305,0.06746607,-2.113731,-0.6858764,-0.2435152
1.089423,-0.08886915,0.05870096,-1.998509,-0.7881377,-0.2627101
0.8685066,-0.1041531,-0.02108237,-1.927766,-0.8469367,-0.09014586
0.7445666,-0.08203821,-0.03495285,-1.675488,-0.7490387,0.03566816
0.741462,-0.07557661,-0.02000119,-1.600222,-0.7302126,0.1563745
0.7124808,-0.05779026,-0.001438355,-1.511104,-0.5167164,0.2223178
0.9195383,0.03044804,-0.007369007,-1.449919,-0.07057446,0.1688376
0.9774589,0.06033049,-0.01106772,-1.502533,0.1536672,0.09474529
0.9157939,-0.005688897,0.05581343,-1.261579,0.2975926,-0.07934609
0.8957753,-0.07657126,0.07536607,-1.016503,0.2255886,-0.1472476
0.6890473,-0.08366719,0.007833286,-0.8823613,0.006488533,-0.05456582
0.6789706,-0.05071543,-0.07962458,-0.7323798,0.1110792,-0.06556159
0.7236955,-0.04799204,-0.08416934,-0.5558865,0.2139025,-0.03770919
0.7021208,-0.09337618,-0.04368675,-0.27449,0.3531613,0.05572515
0.8016636,-0.1583627,-0.03896489,-0.056425,0.6949859,0.07404909
0.8186234,-0.1547976,0.09866137,0.3685305,0.7270719,0.09451132
0.8703376,-0.0295373,0.2405889,0.666717,0.5071968,0.123558
0.8725872,0.1100795,0.1587644,0.2495165,0.3186935,0.1562022
0.8345587,0.1448146,0.02500064,-0.1984595,0.2258499,0.1967503
0.8998619,0.1012425,-0.05624436,-0.2153838,0.3476973,0.1775327
0.8906575,-0.05103713,-0.06753433,0.03613542,0.4511838,-0.07549926
0.9938501,-0.3808189,0.03755513,0.3443988,0.4930369,-0.6170071
1.28535,-0.5754592,0.1758753,0.5618212,0.6692673,-1.007577
1.601656,-0.4269583,0.2478617,0.4798704,0.7442056,-0.9473895
1.757227,-0.255943,0.2461314,-0.1020459,0.6592778,-0.7654521
1.718161,-0.1713238,0.2417554,-0.5448595,0.6582065,-0.6508986
1.714759,-0.1511253,0.2731566,-0.2027811,0.6446289,-0.3591113
1.539228,-0.2060638,0.3109538,0.4707122,0.4737333,-0.01278699
1.252785,-0.1319307,0.371059,0.6873945,0.2933667,0.008133542
1.276682,-0.07604188,0.4251422,0.5478915,0.2418285,-0.05996564
1.309493,-0.1144153,0.377832,0.428213,0.2540763,0.06729543
1.113725,-0.0483144,0.297991,0.1553623,0.2166878,0.1892124
0.9089801,-0.03734524,0.2652508,-0.1492356,0.09836714,0.3447072
0.6880766,-0.0479843,0.2210808,-0.3050158,-0.1458911,0.5963473
0.5045553,-0.0489907,0.1898031,-0.2887947,-0.4110817,0.6177611
0.5141141,-0.1262121,0.2078403,-0.06013475,-0.4407501,0.3870327
0.5645945,-0.05660918,0.2202296,0.1645187,-0.3316126,0.08151717
0.5511201,0.007333698,0.2102187,0.2345185,-0.3355225,-0.2269573
0.4918794,-0.06459252,0.1880196,0.1433097,-0.5372715,-0.3398748
0.3866795,-0.08810589,0.1483885,0.1542665,-0.8315518,-0.3252817
0.3855072,-0.1062577,0.1334475,0.2551659,-0.9286473,-0.3156446
0.475377,-0.05242804,0.1509029,0.2091534,-0.9553579,-0.2697447
0.5746706,0.04963738,0.1500598,0.1284812,-1.069458,-0.2846783
0.7501699,0.01998486,0.1695067,0.007416313,-1.050193,-0.2940753
0.8937894,-0.1140034,0.2040313,0.1170179,-1.077911,-0.2436011
0.9471467,-0.2823077,0.184038,0.3924133,-1.140089,-0.1576028
1.015724,-0.3363097,0.1389643,0.4289667,-0.8009006,-0.001928799
1.033781,-0.2431005,0.09667129,0.4918234,-0.3556772,0.01137967
0.8954907,-0.156974,0.08228606,0.5329275,-0.2580948,-0.1424572
0.7944987,-0.1097598,0.07315034,0.5432363,-0.149254,-0.2949162
1.026697,-0.1520826,-0.04534429,0.7327148,0.1985849,-0.3663511
1.562393,-0.2623177,-0.1815768,0.9624962,0.390787,-0.2059642
1.975122,-0.2318889,-0.1421019,1.26046,0.4772239,-0.06422917
1.867747,-0.02959744,-0.01304891,1.248008,0.5430563,-0.2507142
1.605513,0.2125247,0.09552805,0.5643567,0.2271336,-0.3597884
1.503513,0.2742714,0.1978106,-0.2033319,-0.1324707,-0.09948688
1.255051,0.07257702,0.2045677,-0.295714,-0.2810894,0.1804172
1.206025,-0.04490247,0.1582591,0.09793754,-0.4709284,0.2666079
1.351802,0.0001898298,0.131317,0.2414183,-0.5270169,0.286045
1.131111,-0.02715015,0.03992347,0.3330718,-0.5560124,0.2977589
0.9426647,-0.0500113,7.390556e-05,0.4558769,-0.6665464,0.3076406
0.7976173,-0.01198325,0.01573212,0.3225571,-0.6602637,0.3681141
0.6635245,0.03667431,-0.04040453,0.3203848,-0.6126922,0.4499261
0.8727517,0.08077367,-0.04163695,0.2768482,-0.4391686,0.4683851
0.9405258,0.08337662,0.02882601,0.1710143,-0.1050581,0.4145308
0.9165714,0.04571636,0.08572821,0.3418788,0.194139,0.3284729
0.8937888,-0.01634104,0.07148129,0.4275212,0.2760101,0.2726692
0.6781689,-0.02973607,-0.01672194,0.4724516,0.1862677,0.2976786
0.6541677,-0.01203823,-0.06826082,0.4899848,0.2131737,0.3480443
0.6366526,-0.02207819,-0.07676452,0.4492557,0.3259245,0.3497705
0.5934914,-0.01920907,0.01112456,0.6401709,0.4752326,0.3183536
0.6910628,-0.0226294,0.1201816,0.8334186,0.5910713,0.2831462
0.7241027,-0.03925815,0.09498612,0.9595301,0.500409,0.2777446
0.8540608,-0.04499423,0.09607839,1.011533,0.4460279,0.3083583
0.9299022,-0.01457482,0.09804265,0.95117,0.5024942,0.3175766
0.915794,0.02885069,0.01867389,0.926388,0.4940712,0.3000705
0.933313,0.001359498,-0.00391937,0.8478529,0.4951129,0.2101093
0.7938346,-0.05312167,-0.02424402,0.8873654,0.5352076,0.0008710656
0.7952793,-0.1123278,-0.01382283,1.027932,0.549487,-0.2840714
0.9891279,-0.2131043,0.1556772,1.020786,0.5490199,-0.6886396
1.282255,-0.2654942,0.3208018,0.9124509,0.5501958,-0.9279616
1.709987,-0.1746967,0.3451525,0.6539973,0.5483682,-0.5972435
1.807605,-0.01285676,0.386456,0.3758526,0.494463,-0.1955411
1.678286,0.02954402,0.514333,0.1322297,0.2818618,-0.1791907
1.614094,-0.04720117,0.5407671,-0.02497053,0.02513304,-0.0231309
1.362139,-0.06954995,0.4341772,0.1490073,-0.06880316,0.3792002
1.1529,-0.01168403,0.3424833,0.2739913,-0.1675845,0.4899052
1.16818,0.03133569,0.3279242,0.1584868,-0.3085891,0.3687435
1.083284,0.003698038,0.3348997,0.08426913,-0.3026251,0.3779152
0.9112841,-0.02089693,0.2657714,-0.1159389,-0.3509634,0.477852
0.8094672,-0.005395536,0.2103341,-0.402809,-0.454469,0.502298
0.7237405,-0.02715324,0.2099565,-0.4324295,-0.4059083,0.4248148
0.6968753,-0.05049491,0.1712493,-0.3064661,-0.3523065,0.2523048
0.730821,-0.05050867,0.1716746,-0.24756,-0.2652961,0.04166172
0.6741396,-0.05650175,0.1630592,-0.2623042,-0.2208052,-0.05386412
0.5780175,-0.05226353,0.08945507,-0.3517711,-0.3565045,-0.01024124
0.5301924,-0.06981061,0.06578494,-0.5111843,-0.4060815,0.07411282
0.5254028,-0.09048156,0.07048527,-0.6262293,-0.3954052,0.1206178
0.5719623,-0.0900284,0.08612325,-0.6591719,-0.4140185,0.0744528
0.5856228,-0.09335745,0.1048593,-0.7044682,-0.4238039,0.004202752
0.6343576,-0.09346037,0.1335809,-0.7361189,-0.4519242,-0.01292673
0.7519439,-0.12007,0.1973133,-0.6503333,-0.3775437,-0.06327597
0.7922695,-0.1650854,0.2186708,-0.4363306,-0.2945598,-0.1989617
0.7998036,-0.1809005,0.2096687,-0.1532398,-0.2444793,-0.2989231
0.8305444,-0.1629505,0.1655371,-0.007355637,-0.06141153,-0.2928164
0.9741687,-0.1531509,0.05882939,-0.01930476,0.314723,-0.2324239
1.286295,-0.2155717,-0.04439773,0.07376529,0.6908563,-0.1836204
1.573439,-0.2880611,-0.07013174,0.2438728,0.6563776,-0.2005901
1.756746,-0.2518159,0.05000791,0.5866921,0.4885947,-0.2971392
1.871447,-0.07951316,0.1578625,1.130638,0.4535792,-0.4923173
1.854674,0.09853372,0.1199471,1.139384,0.0661407,-0.5940136
1.574879,0.1172105,0.1329706,0.5091479,-0.4264438,-0.2940835
1.266945,0.1163977,0.2273901,-0.03162394,-0.5918107,0.188429
1.354623,0.1596168,0.2167507,-0.2013634,-0.7384877,0.4089023
1.440945,0.07126198,0.1156134,-0.1165138,-0.7731177,0.3701531
1.217144,-0.007809782,0.03546883,-0.1487051,-0.6188098,0.2757886
1.126756,0.01508449,0.01378454,-0.2943741,-0.6219638,0.2372705
1.053094,0.04936085,0.03628401,-0.2530793,-0.5896738,0.3408588
0.8553348,0.1244903,0.02023857,-0.3613528,-0.3780608,0.4663846
0.8643378,0.114601,0.001829387,-0.6342435,-0.1576761,0.4196679
0.8509603,0.08103837,0.04598128,-0.7529547,0.1039456,0.335085
0.6730005,0.1521028,0.0545932,-0.9065456,0.2449127,0.2788101
0.624996,0.1674705,0.03423111,-1.145926,0.2579518,0.1618911
0.6089819,0.2053683,-0.01808871,-1.424693,0.2452724,0.1408527
0.4969532,0.2781756,-0.1370316,-1.712136,0.1369812,0.253858
0.4637607,0.2579442,-0.1876811,-1.888029,0.1327493,0.3579818
0.5316464,0.2388741,-0.152399,-1.954468,0.2010877,0.3879379
0.6144074,0.2071076,-0.1141414,-1.868154,0.2290293,0.2966258
0.7706413,0.1409834,-0.08182699,-1.742492,0.2374221,0.1817511
0.9163291,0.1036282,-0.0559945,-1.663063,0.1306593,0.1019191
0.970139,0.1099377,-0.05573583,-1.560496,0.05466952,-0.00312836
1.054504,0.1214316,-0.07341768,-1.524433,0.01191555,-0.08915217
1.043077,0.08635669,-0.0866972,-1.446228,-0.05164687,-0.1450909
0.9229755,0.01911857,-0.1510987,-1.231743,-0.1459537,-0.223917
0.9728847,-0.1647477,-0.2273479,-1.10196,-0.1925641,-0.4923396
1.302806,-0.420673,-0.2088524,-1.111833,0.3128106,-0.9748328
1.748385,-0.5042191,-0.1023546,-1.039573,0.9200935,-1.184611
1.810722,-0.4013812,0.002079615,-0.949626,0.7992625,-0.9467181
1.648689,-0.2049221,-0.01679233,-1.302267,0.5633304,-0.7862392
1.817477,0.01976242,-0.06633956,-1.750358,0.6913922,-0.8006251
1.878719,0.08817851,-0.04523437,-1.647391,0.7987593,-0.5433029
1.654722,-0.01634217,-0.03472851,-1.585237,0.8893808,-0.1915893
1.477778,-0.06412151,0.005775536,-1.746134,0.8750318,-0.1686148
1.285826,-0.1100078,0.05944966,-1.551234,0.6790302,-0.1551485
1.154546,-0.207515,0.05705635,-1.336074,0.6825724,0.04930544
0.9944777,-0.1756872,0.04891834,-1.159811,0.6073003,0.1288497
0.7888536,-0.1479551,0.03601534,-0.81761,0.3353894,0.1250654
0.741998,-0.1390328,0.03534753,-0.729544,0.2396508,0.1836015
0.6935346,-0.04874658,0.03953261,-0.6276913,0.1458228,0.1914367
0.6804522,-0.003117044,0.03798908,-0.3599575,0.1453604,0.1645153
0.6805307,0.04827219,0.08403718,-0.3165342,0.1482451,0.105534
0.5781114,0.0509082,0.1181062,-0.2644564,-0.06637519,0.004607728
0.5447187,0.01504667,0.1026727,-0.1697869,-0.235369,-0.03296877
0.5375715,0.0482994,0.08639635,-0.05833088,-0.4346676,-0.1012117
0.5488882,0.01599012,0.06504814,0.1389667,-0.4862805,-0.1905261
0.5990939,0.002620262,0.03044446,0.1352784,-0.3922428,-0.117934
0.6325248,0.02064834,0.01432805,0.2001569,-0.4526968,-0.05863639
0.673169,-0.01918576,0.03906462,0.4657952,-0.4876457,-0.1510041
0.6646861,-0.04562901,0.08871627,0.5770309,-0.6472126,-0.2220139
0.7272223,-0.09341779,0.1432087,0.6181054,-0.8240199,-0.2543738
0.8430786,-0.08511983,0.1481805,0.6262681,-0.7768145,-0.303148
0.8346099,-0.02569248,0.1395866,0.606043,-0.7958224,-0.3500873
0.8267162,-0.02440475,0.1975884,0.6581357,-0.8389115,-0.4271983
0.8568439,-0.05396881,0.2200989,0.6641732,-0.7227808,-0.4392789
0.8921974,-0.1225528,0.1901257,0.6404124,-0.3774749,-0.2621173
1.086056,-0.1594894,0.08548983,0.6265798,0.08066662,-0.0215055
1.544745,-0.1816974,-0.1688718,0.6237721,0.3675346,0.08371675
1.931067,-0.2285766,-0.2742442,0.7640423,0.5540335,0.01890391
1.861696,-0.2088726,-0.09248852,0.9622036,0.749612,-0.1385514
1.7031,-0.1499423,0.0521609,1.006012,0.6558123,-0.310537
1.573206,-0.03683357,0.1008867,0.9370138,0.1174242,-0.3073615
1.256801,0.03974257,0.2152085,0.9234429,-0.3685545,-0.043491
1.234595,-0.01779132,0.2344817,0.9826407,-0.5278323,0.2730121
1.351376,-0.02372385,0.09704612,1.080365,-0.6566202,0.5357079
1.152363,-0.003725922,0.05864156,1.182877,-0.754731,0.6376273
1.020862,-0.02825094,0.03323823,1.108345,-0.6861582,0.5650335
0.8337828,0.02103406,-0.03374214,0.9430632,-0.6700181,0.5845931
0.6582318,0.08919321,0.009854084,0.9005462,-0.6939796,0.6269159
0.8286496,0.1056759,-0.005800381,0.7966073,-0.4108356,0.5334957
0.85185,0.09077751,-0.0059481,0.6817768,0.0471116,0.3843423
0.8187999,0.08082867,0.06398219,0.6942139,0.4110724,0.2250772
0.8654535,0.09945711,0.01389579,0.545284,0.5668743,0.1949709
0.7478698,0.09523782,0.01103818,0.2379399,0.4944153,0.2683487
0.7407853,0.06358337,0.03472935,0.09886128,0.5187775,0.25201
0.7220041,0.02808316,0.03451134,0.2323447,0.5103145,0.1663986
0.6657596,0.005461597,0.09054106,0.3929299,0.3050111,0.09870674
0.7455115,-0.01752324,0.03864991,0.4252777,0.1649269,0.1365931
0.7686398,-0.09673873,-0.03188259,0.5639848,0.1293742,0.2791064
0.8563975,-0.1407095,-0.02298705,0.6827092,0.2567038,0.3793484
0.9778936,-0.07433735,0.01105428,0.6314798,0.4239655,0.3602882
1.054133,0.01704296,0.06911201,0.6668528,0.5972868,0.2485558
1.101572,0.1065896,0.05590517,0.6113513,0.7590686,0.1051149
0.9493717,0.1526961,0.06072479,0.4492592,0.6925204,-0.01867691
0.8165829,0.1117479,0.1137009,0.4886173,0.6408552,-0.06257315
0.8045731,0.05226632,0.1126232,0.5284071,0.5596191,-0.08438851
0.8927841,-0.07817977,0.1949987,0.5204048,0.3727844,-0.249253
1.225161,-0.2962274,0.3318707,0.5849553,0.3335861,-0.392243
1.566505,-0.3585148,0.3420076,0.566819,0.3802915,-0.3412815
1.699069,-0.2287102,0.3342397,0.5111617,0.4628229,-0.3049902
1.636459,-0.129226,0.3745238,0.5563216,0.3725671,-0.2741473
1.560736,-0.1029162,0.3395009,0.7347553,0.1825582,-0.05303427
1.485294,-0.1049974,0.3268281,0.9412182,0.1641968,0.2728179
1.202013,-0.1177921,0.3830489,0.9587339,0.1043371,0.4793805
1.053594,-0.1104771,0.355351,0.9552356,-0.01623763,0.4574913
1.104372,-0.1010718,0.3148712,1.046121,-0.1704745,0.4063661
0.9881744,-0.06101999,0.2737042,0.9026229,-0.2722865,0.5168294
0.8550153,-0.01109347,0.2130637,0.6512945,-0.3067237,0.6157067
0.7538891,-0.05719104,0.2507155,0.6198568,-0.4543352,0.6014754
0.6539005,-0.1012164,0.2648526,0.695603,-0.4291299,0.4801832
0.669581,-0.026634,0.2424241,0.7568163,-0.38493,0.2207821
0.6481298,0.06058942,0.2502071,0.6758334,-0.5721153,0.04890191
0.5223192,0.09046966,0.1849279,0.5016541,-0.6957814,0.04704448
0.4601798,0.07536856,0.1481053,0.437416,-0.7796947,0.05379388
0.5100563,0.01778418,0.172262,0.4285295,-0.7388757,0.05186344
0.5584696,-0.02221926,0.1670148,0.4393106,-0.6587481,-0.01118672
0.6112578,-0.01911529,0.1648849,0.3908981,-0.7341977,-0.1003061
0.6868464,-0.04070606,0.1604895,0.3245357,-0.7011523,-0.1229864
0.7398388,-0.09648087,0.1768997,0.391815,-0.6754457,-0.1312313
0.8416348,-0.1252894,0.2279562,0.4635586,-0.686746,-0.1509202
0.9170686,-0.149675,0.2586653,0.5291534,-0.5762879,-0.1956347
0.915843,-0.1845388,0.1932788,0.5528153,-0.4436113,-0.207834
1.073728,-0.1926422,-0.005583709,0.5308432,-0.1012383,-0.1501805
1.47363,-0.2630681,-0.1999672,0.6804026,0.383528,-0.09653337
1.859893,-0.3407373,-0.1944959,1.061851,0.603811,-0.1244688
2.002159,-0.2536539,0.007564967,1.653847,0.5993992,-0.2907561
1.947877,-0.1239406,0.1351576,1.882276,0.5478014,-0.5255047
1.7307,0.02762068,0.09763098,1.221211,0.1366328,-0.6105576
1.365909,0.226009,0.1426735,0.4537059,-0.501925,-0.2898347
1.159185,0.1871405,0.2612017,0.3322117,-0.4962728,0.2078961
1.257676,0.04680559,0.2210989,0.441571,-0.3385633,0.3986415
1.304748,0.07345851,0.0718948,0.4085938,-0.5888575,0.379437
1.195597,-0.001516896,-0.001787617,0.5060809,-0.4926042,0.3051993
1.172107,-0.06087314,0.004256452,0.6390566,-0.4573111,0.2170577
1.024399,0.06990177,0.005177427,0.5004602,-0.6606413,0.2709785
0.7805465,0.0649701,-0.03513795,0.3210867,-0.4862346,0.3415625
0.8451052,0.04617668,-0.0422442,0.1756304,-0.3626197,0.3764663
0.931523,0.05455097,0.00201456,0.06414997,-0.1465966,0.4400241
0.8721869,-0.04866623,0.005879036,0.2056796,0.1515715,0.4224293
0.8750654,-0.04229818,0.05350561,0.4116162,0.1002532,0.3243784
0.797677,-0.04363373,0.08459005,0.4338247,0.1476913,0.2011194
0.6797324,-0.04942853,-0.01848812,0.35868,0.1988731,0.1371913
0.6363336,0.04521436,-0.07097467,0.3071683,0.2385119,0.2032611
0.59673,0.05255763,-0.05657385,0.3443108,0.3925269,0.2503551
0.6129605,0.03569269,-0.009170852,0.4834396,0.3532373,0.2308991
0.686307,-0.05406133,0.05394462,0.6867068,0.4139219,0.2257642
0.7997032,-0.1593222,0.06252543,0.8741317,0.5520454,0.1731931
0.9394361,-0.03611908,0.1247671,0.9382338,0.5425743,0.104622
1.011047,0.1827213,0.1612172,0.7567742,0.5124607,0.1104947
1.013054,0.2999484,0.06957045,0.3118117,0.4354196,0.1376992
0.9546861,0.1896492,-0.01098985,-0.07153171,0.4143125,0.1485031
0.860383,-0.01132795,-0.003182337,-0.03800142,0.4393745,0.1229485
0.8569409,-0.1346692,0.05858044,0.2667416,0.4493737,-0.01569862
1.00794,-0.315417,0.1761982,0.5582724,0.4555075,-0.3708897
1.27785,-0.3848833,0.3420977,0.6794287,0.4230402,-0.7393649
1.526679,-0.1703017,0.3609578,0.4619792,0.3726182,-0.7049523
1.67081,-0.03725759,0.3724532,0.1647738,0.2247443,-0.5143192
1.809155,-0.2124305,0.5708863,0.1316077,0.1262235,-0.4845229
1.822399,-0.3218349,0.5582356,0.2096536,0.1900642,-0.252343
1.490928,-0.0746935,0.3713971,0.3559607,0.2125314,0.1780928
1.126482,0.1314526,0.3292969,0.573189,0.1640233,0.4390085
1.126363,0.03601445,0.3266396,0.6302408,0.0311541,0.4351691
1.156727,-0.00267757,0.341587,0.5850899,-0.170412,0.3334207
0.9382264,0.05798353,0.308578,0.6533348,-0.2338247,0.4368165
0.8741518,0.02003559,0.272313,0.7873276,-0.1732494,0.5199028
0.9046128,0.008065909,0.317909,0.832067,-0.1833107,0.4551113
0.7106868,-0.01555612,0.2811353,0.8442917,-0.2524193,0.4339741
0.6095057,-0.09110044,0.2631667,0.8681612,-0.3329236,0.2492801
0.6417343,-0.04432391,0.2526528,0.7372251,-0.4690184,0.1452141
0.5683225,-0.008768661,0.1585306,0.5342131,-0.5924327,0.2496683
0.5179796,-0.08616152,0.1323256,0.4672283,-0.6458434,0.2628219
0.5592816,-0.1153769,0.1202752,0.5016141,-0.6340885,0.3234387
0.6116865,-0.09676548,0.1292956,0.5020367,-0.6172865,0.286937
0.640646,-0.06973292,0.1640076,0.4260627,-0.6769394,0.09359443
0.6871719,-0.01356547,0.15641,0.3944488,-0.7123007,-0.0700715
0.7604727,0.02631222,0.2135826,0.4172058,-0.7042141,-0.2328293
0.8102403,-0.002286602,0.2800949,0.4561278,-0.7279807,-0.2758218
0.8574533,-0.04397729,0.2913119,0.5849733,-0.7006122,-0.2900469
0.9156945,-0.02648309,0.2950054,0.7340114,-0.5473708,-0.2930097
0.9563864,-0.04280029,0.2726799,0.7495124,-0.2575995,-0.195707
0.9856286,-0.09842466,0.1863743,0.6470537,0.1220189,-0.1300736
1.174947,-0.1334236,0.01797984,0.6315846,0.5285146,-0.0893299
1.503964,-0.2271199,-0.1274712,0.7648207,0.7289691,-0.1475448
1.61627,-0.2768774,-0.128981,0.9285885,0.4763983,-0.298924
1.54828,-0.1475833,0.01369935,0.9630243,0.1417757,-0.4310054
1.57035,0.0587629,0.137968,0.6565808,0.05194357,-0.4353238
1.636631,0.1966727,0.1101101,0.1812632,0.01183322,-0.1432656
1.606287,0.1600731,0.06413843,-0.1054806,-0.07244537,0.1480713
1.414836,0.01912426,0.07545151,-0.1147225,-0.2810774,0.1819816
1.141055,-0.08361238,0.0689023,0.1542996,-0.5628929,0.1974816
1.036113,-0.1339825,0.04897861,0.5001666,-0.7037957,0.3224934
1.0946,-0.1404936,0.02571872,0.6736025,-0.7074422,0.4120423
1.018459,-0.1383818,-0.001791324,0.7196608,-0.6396235,0.3962201
0.9000042,-0.1153871,-0.00975408,0.7253445,-0.5935356,0.4227659
0.8691118,-0.04905096,-0.01392702,0.6332124,-0.509434,0.4366665
0.8122958,0.01073311,-0.01238669,0.4878004,-0.3534691,0.4104438
0.8405645,0.07940586,0.02992537,0.4100808,-0.2193234,0.4338643
0.8578506,0.07945826,0.07823764,0.3681562,-0.04126135,0.3105073
0.7725519,0.01139889,0.08670499,0.3514994,0.0003633841,0.1451441
0.7151044,0.03092761,0.04151447,0.3396217,-0.03472324,0.1574346
0.6341741,0.03867053,-0.03297392,0.3069186,0.09387371,0.2451103
0.6283212,0.01406886,-0.05087367,0.3098402,0.1555237,0.3415334
0.6846686,0.02070175,0.01067802,0.3509301,0.2720591,0.346643
0.7318606,-0.02042456,0.09889989,0.4813817,0.5227231,0.2288559
0.8583795,0.0003371503,0.1469877,0.5998055,0.6498979,0.08699534
0.8840849,0.09976941,0.1365289,0.5453792,0.6860083,0.04606681
0.8517824,0.1812342,0.1121391,0.3652987,0.5553438,0.1052658
0.9135376,0.2068585,0.06914616,0.07996868,0.4169787,0.1023136
0.9252158,0.1050939,0.02718958,-0.08497901,0.5249154,0.06869501
0.9202642,-0.02079342,0.04830348,0.05258635,0.612679,-0.03463451
1.00535,-0.1620184,0.1287482,0.2022483,0.6112609,-0.3542667
1.257731,-0.2966407,0.2329863,0.1825997,0.6030628,-0.7490922
1.604826,-0.2536909,0.2938632,-0.01773876,0.50474,-0.897156
1.720613,-0.1948618,0.3038249,-0.3628376,0.4224617,-0.6192066
1.678133,-0.20893,0.347395,-0.5294304,0.4459014,-0.3406074
1.680451,-0.183977,0.3680158,-0.4857957,0.4597334,-0.3459373
1.479024,-0.1452556,0.3115977,-0.4119852,0.3869388,-0.09446153
1.165131,-0.0756164,0.3065074,-0.1447212,0.2404294,0.3097
1.153313,-0.04187517,0.3436728,0.07613971,0.01476045,0.2698459
1.222102,-0.08289706,0.3349981,-0.02989317,-0.1668433,0.1951673
1.105241,-0.07209157,0.2794932,-0.1190827,-0.1786491,0.3715477
1.014218,-0.04032384,0.1960654,-0.1905926,-0.1671571,0.4961953
0.9061558,-0.04814766,0.1865578,-0.3740599,-0.1925722,0.61359
0.6921548,-0.09710876,0.1928203,-0.4087149,-0.2418192,0.6282824
0.6178876,-0.1626666,0.1556816,-0.2190773,-0.3182462,0.4567516
0.7000885,-0.1156022,0.193418,0.004968841,-0.2728984,0.2456113
0.7253385,-0.02379647,0.2088116,0.03960992,-0.2218016,-0.03701387
0.6464564,-0.03089201,0.1797395,-0.1040636,-0.3158902,-0.1975264
0.5783488,-0.07543545,0.1787769,-0.2298715,-0.4491896,-0.1566109
0.5944299,-0.1187567,0.1360948,-0.2878423,-0.5840311,-0.09903985
0.6428438,-0.1049567,0.1255761,-0.3050078,-0.5942747,-0.02514975
0.6944566,-0.04250005,0.1293105,-0.3083746,-0.5204509,-0.004126857
0.7102904,-0.04100802,0.09132309,-0.2908269,-0.5598267,-0.02969545
0.6803335,-0.05910823,0.09694881,-0.2471004,-0.6033274,-0.0325513
0.6787997,-0.07984231,0.100568,-0.2417074,-0.6327678,-0.09459023
0.6897393,-0.09594331,0.1182037,-0.1750836,-0.656984,-0.217971
0.7280133,-0.1216329,0.1876087,0.03741077,-0.5775597,-0.3331181
0.8099749,-0.2114711,0.2050111,0.1663229,-0.4651212,-0.3805693
0.8469204,-0.2229828,0.1602866,0.134109,-0.2223066,-0.3859533
0.8701217,-0.1696083,0.1208924,0.1168436,0.2051256,-0.3937232
0.9720771,-0.1734434,0.06906303,0.1351877,0.5502955,-0.3973422
1.220712,-0.1835994,-0.09840373,0.1615369,0.6687174,-0.4260997
1.631231,-0.2019987,-0.2429195,0.3319864,0.6421668,-0.4802122
1.914532,-0.184001,-0.08587181,0.744537,0.6310187,-0.543012
1.770474,-0.08736485,0.1294601,1.016038,0.5077849,-0.6125085
1.419814,0.07684379,0.1424797,0.691965,-0.03385469,-0.6176239
1.213218,0.225891,0.1900669,0.1916955,-0.6353117,-0.3332965
1.208219,0.177976,0.2178783,0.09653339,-0.6623546,0.2115531
1.279866,0.0713351,0.103225,0.2003759,-0.4803768,0.5041258
1.218257,0.01522731,0.05535177,0.2576387,-0.5853432,0.4314702
1.100348,-0.06822334,0.01486264,0.3210902,-0.5183135,0.3410971
1.0245,-0.003602692,-0.02470277,0.3239159,-0.3812391,0.2828762
0.9118774,0.116486,-0.005244418,0.1511282,-0.3911126,0.2466485
0.9351061,0.09180523,-0.04616216,-0.1335864,-0.05844612,0.2793619
0.947107,0.06392133,-0.01666781,-0.2280678,0.1950294,0.2920943
0.8248646,0.0331944,0.03017023,-0.178029,0.1744134,0.285496
0.7856153,0.0183286,-0.005185076,-0.3117275,0.2270216,0.2818309
0.6852566,0.04314819,0.007839626,-0.4406637,0.1075537,0.2573973
1.647876,-0.1173517,0.4065424,-0.5913054,0.1960126,-0.1369852
1.560327,-0.1909615,0.3764618,-0.02944668,0.2368188,0.09142175
1.308776,-0.09392288,0.2899087,0.01444678,0.2853295,0.1915014
1.182015,-0.118056,0.2873343,-0.1206001,0.1440623,0.2963345
0.8756392,-0.1008164,0.2340346,-0.08088969,-0.1196501,0.2291458
0.697465,-0.04507908,0.201217,-0.2243716,-0.2850669,0.226424
0.6542659,-0.06438881,0.1948046,-0.4099324,-0.393775,0.3145028
0.5170622,-0.006644617,0.1600305,-0.4315689,-0.2824758,0.2279046
0.5652183,0.003689995,0.1751608,-0.5316827,-0.2460789,0.1193342
0.5443504,-0.005359235,0.137564,-0.6188394,-0.4122032,-0.1038752
0.4219677,0.0046856,0.09747174,-0.6419217,-0.5114323,-0.2094683
0.4337045,-0.08209251,0.1156339,-0.6611608,-0.6535069,-0.09797238
0.4741231,-0.08385153,0.09592562,-0.6962813,-0.5960137,-0.15147
0.5659991,-0.01501932,0.0962854,-0.8477059,-0.5119712,-0.1271434
0.5912738,0.02745548,0.1017586,-1.016633,-0.7041998,-0.0742816
0.6023897,0.05000132,0.1283931,-1.097742,-0.756851,-0.2006101
0.7269266,-0.02718486,0.1949551,-0.9898194,-0.727757,-0.2669746
0.8384339,-0.1091511,0.221072,-0.8185419,-0.7003845,-0.2741103
0.9394407,-0.182407,0.2273723,-0.8090715,-0.530366,-0.2242489
1.02547,-0.2615852,0.1991966,-0.7776427,-0.1938635,-0.175431
1.161591,-0.2852642,0.1176633,-0.7087314,0.3549509,-0.1759581
1.381161,-0.3109648,-0.03580972,-0.552082,0.7777042,-0.1825782
1.540288,-0.3134994,-0.1426613,0.04620909,0.8066919,-0.3052272
1.561533,-0.266718,-0.03109381,0.737065,0.5138678,-0.5181219
1.540114,-0.04447414,0.06842232,0.6912179,0.262089,-0.6637155
1.618696,0.3409115,0.03010536,-0.04199795,0.2537639,-0.4363
1.645871,0.4061495,0.03240553,-0.7168372,0.04761795,0.07473782
1.490536,0.1030947,0.0473831,-0.9072854,-0.2800152,0.349272
1.27646,-0.07994883,0.03699282,-0.6064183,-0.3846161,0.468998
1.157385,-0.04948024,0.04559787,-0.2789516,-0.4407524,0.6493717
1.148744,-0.0629924,0.02102337,-0.12251,-0.3622425,0.7146001
1.010369,-0.13032,-0.02819774,0.1443243,-0.1871801,0.5191199
0.8023477,-0.08447359,-0.037455,0.2091243,-0.1325003,0.2349194
0.7444265,-0.03341942,-0.007190159,0.128759,0.08071959,0.1365559
0.6774317,-0.06078171,0.01830838,0.2007737,0.3358983,0.1282931
0.5484437,-0.03593817,-0.001066692,0.0654702,0.3078969,0.2199536
0.4266705,0.01503802,-0.01884505,-0.1519077,0.3412036,0.4250033
0.3208343,0.06939467,-0.0001429405,-0.324009,0.4455545,0.4976461
0.3355284,0.08974636,0.0119862,-0.4230543,0.4397585,0.499654
0.4718527,0.00172622,0.04386156,-0.2545745,0.5668645,0.4073592
0.5796022,-0.04982101,0.08144879,-0.1218324,0.6700405,0.1939089
0.6151402,-0.04017615,0.06048146,-0.0369603,0.6787791,0.08555088
0.6922471,-0.04480008,0.04516738,0.1148499,0.8264058,0.07373907
0.7981582,-0.04507658,0.06189436,0.2307321,0.8908121,0.09717674
0.8220681,-0.09380129,0.06047903,0.2657537,0.6812956,0.0957399
0.9167433,-0.2004939,0.08062483,0.1081637,0.3398468,-0.03082787
1.330203,-0.2945584,0.1801728,-0.2043616,0.2206174,-0.333001
1.862782,-0.2561374,0.3308391,-0.6399699,0.5991414,-0.5741527
1.947932,-0.1116604,0.4411081,-0.8882287,0.935083,-0.315735
1.57628,-0.07244327,0.4766396,-0.8543472,0.5921372,-0.01649882
1.376782,-0.2080294,0.4891736,-0.6548519,0.09737792,-0.1910873
1.437602,-0.3572263,0.4846978,-0.01220533,0.02101835,-0.2272657
1.381559,-0.2517934,0.4144625,0.369925,-0.002219076,-0.009450486
1.209335,-0.0660641,0.2879715,0.2029127,-0.1210757,0.08883748
0.9852791,-0.06988527,0.235361,0.1292179,-0.2413695,0.2097452
0.7727508,-0.04078285,0.2929007,-0.0836507,-0.4267725,0.1867609
0.6979141,-0.003036238,0.2960465,-0.1272325,-0.5490652,0.06458029
0.6417052,0.006413398,0.2394023,0.003025891,-0.5762938,0.09495403
0.5571393,0.07344669,0.1992229,-0.2342663,-0.5755131,-0.02897768
0.5150869,0.007408901,0.153274,-0.3496173,-0.6550974,-0.1640416
0.5305996,-0.06711846,0.1549716,-0.3906445,-0.7321114,-0.16001
0.6085904,-0.08214631,0.1432685,-0.3927656,-0.619913,-0.2371087
0.6586779,-0.1238555,0.06613122,-0.270325,-0.5811622,-0.2646607
0.6586866,-0.09082008,0.04301178,-0.4267091,-0.6800901,-0.2586037
0.6688082,-0.09365966,0.05222852,-0.5529657,-0.7076558,-0.1848561
0.6919985,-0.09992725,0.04940999,-0.6848985,-0.568652,-0.02670699
0.7098956,-0.04349459,0.08014468,-0.9085824,-0.3504552,-0.04735122
0.7341734,-0.02848392,0.1612452,-0.8382144,-0.328243,-0.2247901
0.7655054,-0.03165772,0.2412653,-0.5937718,-0.3274557,-0.4553913
0.7617278,-0.1083781,0.2659973,-0.2354472,-0.1778777,-0.5333571
0.8051564,-0.1805181,0.3055998,0.00790873,0.02190168,-0.3906715
0.9842596,-0.1504585,0.2724418,0.03366614,0.3069848,-0.2619667
1.373253,-0.1475176,0.009915937,0.1961748,0.5313404,-0.09409201
1.809189,-0.1690165,-0.2162952,0.3710886,0.6776836,-0.01544523
1.749105,-0.1274468,-0.1273828,0.414879,0.7195207,-0.2855358
1.528996,0.03491517,0.05432859,0.2987174,0.4844414,-0.5110253
1.642242,0.2310816,0.08768998,-0.05063174,0.1261162,-0.310047
1.489595,0.2259175,0.07450018,-0.395129,-0.1917943,-0.04714488
1.176095,0.03854284,0.0569248,-0.470627,-0.376706,0.05883065
1.083473,-0.08387673,0.03509221,-0.08315065,-0.5051897,0.3101641
1.007927,-0.09127389,0.06567721,0.4590509,-0.5380488,0.501342
1.10943,-0.08765675,0.06813931,0.5007695,-0.2844534,0.4288122
1.078893,-0.03919345,0.06802164,0.2416919,-0.1313408,0.4282482
0.9015722,0.07625609,0.06476243,0.05758892,-0.08327353,0.4302234
0.8995933,0.1621536,0.01643737,-0.2020404,0.0716021,0.3328849
0.7476925,0.1749468,0.03607057,-0.3926167,0.1830184,0.2770815
0.7363782,0.1506354,0.0616264,-0.4418586,0.4360516,0.2329978
0.7482826,0.1119639,0.05818625,-0.5469511,0.5105137,0.2762166
0.5325553,0.0752324,0.04200622,-0.6078894,0.396459,0.3685943
0.5595117,0.09382479,-0.01086124,-0.5953947,0.5012464,0.4020645
0.5653562,0.1068897,0.01455807,-0.5941442,0.4373985,0.4191106
0.5902266,0.03040474,0.03709716,-0.5136816,0.3823821,0.3767225
0.7636975,-0.07560353,0.00549534,-0.1833244,0.4571542,0.3141676
0.8410659,-0.1562066,0.005349071,0.3486441,0.4769447,0.2268934
0.9495554,-0.1608965,-0.02156388,0.6499502,0.6925068,0.07815585
0.891388,-0.06351572,-0.02687292,0.5903931,0.8147052,0.008537991
0.7894736,0.04461204,0.01917084,0.4221239,0.7526756,-0.0299248
0.8195332,0.02697601,0.09440017,0.2213373,0.6143754,-0.2350763
0.9403688,-0.1303044,0.2410071,0.06703329,0.2829862,-0.6158499
1.438656,-0.2216813,0.3664963,-0.2761837,0.07004888,-0.8221246
1.925629,-0.09590196,0.4091886,-0.9250865,0.2807878,-0.5833635
1.987093,0.02382232,0.4530968,-1.117204,0.6341787,-0.3214324
1.816863,-0.1048289,0.4890105,-0.8765414,0.5728937,-0.2587063
1.473456,-0.2082737,0.4145695,-0.7477941,0.2971613,-0.03889999
1.08722,-0.09916591,0.3267646,-0.4735101,0.09338437,0.2202532
1.051717,-0.05965973,0.3249655,-0.4445085,-0.06526671,0.2595404
1.205169,-0.08062146,0.2797202,-0.7894834,-0.00561949,0.2834565
1.022195,-0.05079424,0.2218764,-0.9064618,-0.08735323,0.3435664
0.8997066,-0.05142225,0.2109784,-1.05289,-0.235242,0.3212825
0.9155211,-0.03856038,0.1745677,-1.058975,-0.2057886,0.3065569
0.7193427,-0.09150244,0.1669832,-0.7853064,-0.3403413,0.315764
0.7131049,-0.1999827,0.1869646,-0.6443565,-0.3888905,0.215447
0.6887712,-0.1868295,0.1903774,-0.4741385,-0.3913733,0.06598132
0.585756,-0.1069473,0.1904666,-0.5357369,-0.4926807,0.01248476
0.655867,-0.01879885,0.1844502,-0.683589,-0.536456,0.01484613
0.5853386,0.0378965,0.1949103,-0.61528,-0.6493574,-0.0008719637
0.6449853,0.03086915,0.1891401,-0.9094216,-0.547978,-0.009504062
0.7416817,0.04809545,0.1469381,-1.289507,-0.3332269,-0.003369038
0.6802637,0.09888632,0.1144138,-1.518486,-0.2074212,-0.07068036
0.778721,0.1325622,0.132055,-1.785008,0.09435148,-0.2516091
0.8120408,0.09378882,0.1734768,-1.880607,0.250116,-0.4926809
0.8346974,0.0344216,0.1726414,-1.936714,0.1212994,-0.6897286
0.9204,0.07630136,0.1883849,-1.987175,0.06044863,-0.7128288
0.9687516,0.1231024,0.219477,-2.165749,0.1949882,-0.6613412
1.057431,0.1127289,0.1848532,-2.514246,0.3239474,-0.6470432
0.9940501,0.09704928,0.1003594,-2.657489,0.3404969,-0.521331
0.9698796,-0.007393789,-0.03407261,-2.615056,0.5607928,-0.2471536
1.197856,-0.2562005,-0.1080542,-2.326705,0.9167765,0.06120079
1.535923,-0.6009224,-0.05998099,-1.671502,0.9788527,0.2474231
1.76523,-0.729394,-0.06531546,-0.9273999,0.5236696,0.1704766
1.679438,-0.3144156,-0.1083137,-0.5784601,-0.2442361,-0.1074609
1.680836,0.223592,-0.0931275,-0.7053644,-0.6056602,-0.332276
1.858025,0.3268059,-0.1039244,-1.28838,-0.3811449,-0.2285581
1.752015,0.1580144,-0.1273854,-2.3947,-0.1657492,0.0227912
1.466072,0.0429942,-0.1188097,-2.893824,-0.2171178,0.06634497
1.16672,-0.04125103,-0.1191867,-2.670579,-0.3832907,0.0511516
0.9694671,-0.1460685,-0.1133036,-2.653986,-0.5735089,0.1055864
0.9544682,-0.1420984,-0.09206873,-2.263982,-0.4929654,0.1820737
0.827493,-0.1014967,-0.06055927,-1.914008,-0.2058783,0.2520547
0.6990462,-0.1156137,-0.03389492,-2.027491,-0.2138748,0.211925
0.7154297,-0.03050121,-0.08091933,-1.979341,-0.2391319,0.1950433
0.6873422,0.05132281,-0.1491756,-2.190452,-0.1709056,0.2116786
0.749192,0.04281453,-0.1351324,-2.313944,-0.214828,0.1619795
0.8483943,0.03352888,-0.09284949,-2.087518,-0.122612,0.1531317
0.9019274,-0.03978294,-0.08270547,-1.908946,-0.07913941,0.09141476
0.9872694,-0.08954778,-0.1087048,-1.586524,-0.07370877,0.007089746
0.9591066,-0.06745099,-0.1690806,-1.520681,-0.01496239,0.001682783
0.9572133,-0.04902332,-0.1858663,-1.528725,-0.06551544,0.04931058
1.031806,-0.01745826,-0.1239327,-1.181019,0.03281619,0.1882363
1.088692,-0.02775079,-0.06376981,-0.9094097,0.1755715,0.223793
1.18612,-0.04247152,-0.05093052,-0.8434291,0.2460515,0.1461696
1.189047,-0.04975123,-0.07016513,-0.855194,0.2664549,0.1114966
1.165582,-0.1493542,-0.115317,-0.7073813,0.1394965,0.08196731
1.185559,-0.3272619,-0.1589291,-0.5311683,0.1182793,0.07653169
1.17916,-0.5004217,-0.1077737,-0.2438,0.2414524,-0.01493551
1.210128,-0.5132915,-0.003993952,0.3854161,0.4936916,-0.168424
1.215531,-0.3811837,0.02332698,0.6501232,0.8260607,-0.2282692
1.218421,-0.2313281,0.05555328,0.5979796,1.028416,-0.2738416
1.239201,-0.0702081,0.09859477,0.4580681,1.117646,-0.2343788
1.214266,-0.02296534,0.08664425,-0.03405427,1.08582,-0.060522
1.175461,-0.102831,0.1168,-0.1527849,1.072672,0.04969025
1.050421,-0.1898519,0.1463326,0.1128024,1.059987,0.04883718
0.8905577,-0.2875944,0.1490025,0.1927412,0.8786235,0.04168373
0.858428,-0.274015,0.1742009,0.4016579,0.6906445,0.07548112
0.8232622,-0.1674933,0.1565212,0.5529243,0.5179737,0.1274656
0.6860356,-0.1482192,0.1478354,0.4804276,0.3259635,0.1489182
0.6799402,-0.1266691,0.1578001,0.512555,0.1419956,0.1569255
0.7443483,-0.08670978,0.1485306,0.5080709,0.05599945,0.1781029
0.6712365,-0.0622665,0.1822237,0.4388488,0.1127474,0.1300817
0.6672176,-0.0111226,0.2012509,0.3307007,0.122584,-0.00264105
0.615168,-0.002891239,0.1831877,0.07855114,0.1177346,-0.1402497
0.3865351,0.05619236,0.1681482,-0.1421411,0.008235242,-0.2602555
0.3244653,0.1212282,0.149314,-0.2281121,-0.3032476,-0.3731321
0.3884966,0.03672142,0.1613287,-0.2134633,-0.5477172,-0.4916006
0.4542213,-0.03974491,0.1690192,-0.2559991,-0.7472364,-0.5552393
0.5613119,-0.06634612,0.1404629,-0.3864349,-0.9106704,-0.5322392
0.6623823,-0.01640887,0.1245449,-0.3939299,-0.9039246,-0.5669518
0.8214924,0.06212664,0.1406668,-0.3656199,-0.7792134,-0.7468839
0.9674911,-0.06258541,0.1745994,-0.3026536,-0.5890129,-0.8644934
0.975526,-0.197924,0.1856646,-0.09998853,-0.4038963,-0.6320826
0.920438,-0.1823191,0.1528115,0.02575651,-0.1317526,-0.270074
0.9753186,-0.1812337,0.06854301,0.07313356,0.2057409,-0.2269772
1.264376,-0.2269494,-0.05699412,0.1714423,0.3802233,-0.3010707
1.653014,-0.2953872,-0.1172739,0.4423851,0.436458,-0.2358947
1.815427,-0.3013636,-0.02211736,0.8462625,0.3748122,-0.2495861
1.697382,-0.1653522,0.08243029,0.8311072,0.155027,-0.3175412
1.579572,0.0226498,0.05316618,0.5457601,-0.1294345,-0.2860524
1.446305,0.1130699,0.06494572,0.3921514,-0.3780025,-0.09073425
1.265415,0.07293543,0.1265892,0.1240466,-0.482303,0.2731113
1.264469,0.01851502,0.07539341,0.2312234,-0.5396388,0.4313241
1.304722,-0.0586165,0.03708153,0.6286017,-0.4650492,0.3141432
1.20857,-0.1409698,0.009588038,0.6246439,-0.2671573,0.246615
1.043913,-0.08025537,-0.04264533,0.8105398,-0.3129757,0.1908361
0.8884153,-0.004955289,0.0002088824,0.9813336,-0.2789712,0.1713925
0.8173407,-0.02162673,0.02060493,0.7799656,0.005077767,0.2509334
0.774236,-0.01302727,0.002727757,0.7868412,0.114756,0.2834145
0.6732607,-0.00351297,0.002234525,0.5900073,0.1555238,0.3654078
0.5352108,0.01070932,-0.05336585,0.2357856,0.2691129,0.4660485
0.4414878,0.06454418,-0.05680991,0.2034593,0.518169,0.4150808
0.4173056,0.06591149,0.01616653,0.2433512,0.8096045,0.3147959
0.4645756,0.004396727,0.08325564,0.4313561,0.7994639,0.1676341
0.5296938,-0.07819554,0.1091002,0.654895,0.6619165,0.03793748
0.5249528,-0.1227498,0.05598839,0.7503637,0.5703604,0.07704555
0.5999338,-0.09488569,0.03167057,0.8624183,0.5774339,0.1169385
0.7804555,-0.04483293,0.06120012,1.055043,0.7390883,0.09344058
0.9032469,0.004434352,0.07577929,1.217657,0.7739447,0.0253203
0.9763886,-0.03347917,0.1126588,1.003335,0.5961384,-0.2693126
1.149313,-0.1703946,0.1984228,0.5990044,0.3884298,-0.6901478
1.579497,-0.2165995,0.3412449,0.3040509,0.3942135,-0.7880049
1.935934,-0.08307292,0.4617201,0.1638366,0.4777746,-0.3823096
1.866978,0.05603257,0.5346703,0.1871339,0.3381032,0.009384738
1.700016,-0.01335542,0.5980326,0.2278205,0.1777247,-0.03052143
1.569213,-0.08972171,0.5166788,0.417364,-0.02625398,-0.01076044
1.357196,-0.006619244,0.3798323,0.4545258,-0.2011012,0.2392117
1.23178,-0.03832933,0.3906346,0.364825,-0.1755625,0.267
1.084378,-0.1518614,0.4015541,0.7025214,-0.3335217,0.25831
0.823575,-0.191278,0.3402889,0.8935829,-0.5224549,0.3545009
0.7059505,-0.161826,0.2808634,0.7964555,-0.5033666,0.3482078
0.6107816,-0.02381421,0.2183487,0.7321611,-0.5363497,0.3945207
0.5027398,0.04452314,0.1829904,0.5251014,-0.5958997,0.3546475
0.540311,0.04683594,0.1484727,0.3549004,-0.6699225,0.1401979
0.4977479,0.04175217,0.1061862,0.1948994,-0.7828991,0.02157547
0.4492119,-0.08076213,0.08897064,0.1188343,-0.8585016,-0.05495531
0.5019455,-0.1502592,0.08408304,0.2410446,-0.8626558,-0.06001296
0.5027702,-0.1288604,0.102925,0.3114155,-0.7932129,-0.04475481
0.5690122,-0.05948705,0.09988927,0.3342178,-0.757636,-0.1641333
0.6341008,0.04051653,0.1027526,0.3858207,-0.7582432,-0.2945239
0.6674501,0.02119648,0.1689986,0.5662888,-0.7412659,-0.4284871
0.8160989,-0.03386912,0.2396214,0.707069,-0.698282,-0.4533147
0.9338563,-0.06787441,0.2914368,0.7198302,-0.6419154,-0.3186097
1.04223,-0.08836874,0.2517899,0.5988026,-0.5002764,-0.1502013
1.309231,-0.1182418,0.0975546,0.1814291,-0.06522837,0.0297119
1.586886,-0.2369765,-0.1086147,0.1108569,0.5192926,0.04379528
1.642475,-0.2893052,-0.2072417,0.714143,0.7357948,-0.08081858
1.582202,-0.20215,0.03297874,1.290522,0.3559829,-0.2324172
1.612081,0.00760767,0.2753542,1.1831,-0.05532084,-0.3691849
1.627384,0.2459431,0.1974742,0.5360793,-0.07937835,-0.2518159
1.536325,0.2458227,0.1616464,0.1295563,-0.2361876,0.02519944
1.388298,0.1072664,0.2055406,0.07853997,-0.510577,0.2489094
1.267275,0.04084551,0.1135575,0.2157468,-0.5501031,0.3822977
1.218441,-0.0244586,0.02989411,0.3450566,-0.6609753,0.3808778
1.091731,-0.05511486,-0.004312955,0.3525748,-0.7025539,0.3774228
0.9000882,0.003996577,-0.03854565,0.4920942,-0.578704,0.4050462
0.8509494,0.02290955,-0.0439208,0.3977648,-0.5216253,0.4328874
0.8899814,-0.01831382,-0.05004916,0.2573005,-0.269275,0.5155487
0.868979,-0.03049946,-0.02584619,0.3984084,0.05874959,0.5297811
0.8194273,-0.00452451,0.02452506,0.3829656,0.2867129,0.4093209
0.7101457,0.02547633,0.0270194,0.4333886,0.4702433,0.217075
0.5206419,0.00878484,0.02206212,0.4555521,0.3718952,0.08085055
0.4642671,0.00618468,0.05152576,0.3970809,0.3100218,0.08844173
0.5314511,0.06940387,0.1228777,0.659031,0.4101971,0.1172352
0.546236,0.09661535,0.1737195,0.9011347,0.3112201,0.2138293
0.6120387,0.04894297,0.06909123,0.9339147,0.1688467,0.4363425
0.7189487,-0.01291584,-0.08700335,0.7318491,-0.09438717,0.6143555
0.7570465,-0.006689472,-0.1243988,0.4419114,-0.3081045,0.6993304
0.8399129,0.02563863,-0.09617708,0.3718532,0.07285134,0.6302722
1.009807,0.04953251,-0.01190584,0.3779503,0.6068626,0.3651517
1.156413,0.1413954,0.1105536,0.3563336,0.8647398,0.0473553
1.119223,0.1650263,0.1127441,0.1151914,1.012849,-0.1517784
0.9425996,0.0137547,0.07201306,-0.2648634,0.9550765,-0.2001647
0.8935909,-0.2455014,0.1354872,-0.3903026,0.6465074,-0.3891941
1.012992,-0.4498191,0.1731319,-0.2884023,0.3699101,-0.7216713
1.406757,-0.3422611,0.2466031,-0.1024189,0.3342472,-0.7735919
1.950352,-0.1407021,0.5457403,-0.06596344,0.4389709,-0.6602506
1.946752,-0.1066466,0.7511385,-0.3349454,0.6129884,-0.5490081
1.47449,-0.01991723,0.4925713,-0.6122562,0.788933,-0.2375116
1.125742,0.06663359,0.2110055,-0.5414444,0.5051814,-0.05683057
0.9960099,0.01660472,0.3566761,-0.4246931,0.02423086,-0.1771211
1.128263,-0.0578279,0.4414959,-0.5536541,0.07341451,-0.1235074
1.242215,-0.09652885,0.3216436,-0.5785452,0.1163207,0.05446621
1.118417,0.007436527,0.2862948,-0.8221013,-0.05401385,0.1743917
0.9820123,0.1229716,0.1085244,-1.310652,-0.01817638,0.3768272
0.7527975,0.04473433,0.0254397,-1.299531,-0.1507096,0.4245967
0.6115973,-0.03785984,0.1401354,-1.217722,-0.2068897,0.2547627
0.6937746,-0.03338298,0.05703813,-1.34561,-0.07165798,0.1169051
0.6185074,-0.054978,0.05426426,-1.308333,-0.2082878,-0.03044336
0.5805043,-0.1089944,0.1180571,-1.313204,-0.2349194,-0.1085742
0.7013177,-0.1658788,0.08950647,-1.35497,-0.1907178,-0.07645544
0.751398,-0.1699846,0.1658895,-1.36279,-0.128633,-0.1168579
0.8136486,-0.1099176,0.1680211,-1.454316,0.1225606,-0.177208
0.798147,-0.0489034,0.1787852,-1.448497,0.08537134,-0.2514518
0.7456906,0.02580622,0.2717916,-1.277926,-0.04525506,-0.3408906
0.7665751,0.06943038,0.3012168,-1.169071,-0.09693886,-0.3217647
0.7746602,0.03483364,0.3450291,-1.32226,-0.2374232,-0.2962661
0.8611808,0.04278807,0.2459624,-1.62057,-0.1608539,-0.2915741
0.9443981,0.05848998,0.06802819,-1.839163,0.05138848,-0.2671012
0.9600418,0.009167961,0.04522952,-1.926125,0.3042577,-0.3207798
0.9289598,-0.02079418,0.0773721,-1.794265,0.5991778,-0.3722922
0.9139013,-0.09194383,0.07002957,-1.58097,0.8650312,-0.3206764
1.280681,-0.3774939,-0.05774994,-1.440455,1.239899,-0.150862
1.824164,-0.853696,-0.1789302,-1.000074,1.25404,0.01857372
1.948477,-1.024383,-0.1256027,-0.377467,0.5737097,-0.1731434
1.779397,-0.6258016,-0.06964484,-0.2092823,-0.1221185,-0.6326807
1.681941,-0.1530339,-0.04327163,-0.5447151,-0.3484347,-0.7904504
1.521721,0.09518503,0.06899404,-1.038379,-0.4024267,-0.4294571
1.193809,0.08744548,0.1239729,-1.227904,-0.5794265,0.08560102
0.9955907,-0.08470813,0.06111322,-1.149485,-0.7035543,0.2393604
0.9658416,-0.09182543,0.03465514,-1.111502,-0.7929131,0.1489479
0.9671389,-0.03659615,-0.01873345,-0.9965912,-0.8397318,0.03407206
0.9547012,-0.03483056,-0.08817302,-1.00557,-0.6788472,-0.2014648
0.8796726,-0.00984671,-0.03504144,-1.061002,-0.6511931,-0.2067286
0.9028822,-0.03670188,-0.01099343,-0.9109851,-0.560927,-0.08265222
0.9433047,-0.00895066,-0.0307563,-0.8941459,-0.2784878,-0.1725241
0.9047119,0.01136098,-0.02175293,-0.9309537,-0.3244951,-0.1054202
0.9580232,-0.02902643,-0.04756927,-0.9283076,-0.3062649,-0.03504087
1.001272,-0.05368801,-0.03741093,-0.8924116,-0.09755214,-0.1375259
1.034176,-0.1677634,-0.008281603,-0.5996158,-0.0465594,-0.1665564
1.046136,-0.1851166,0.01670994,-0.2188335,0.05674632,-0.2391389
0.9806218,-0.09575671,0.06742221,0.02416324,0.2001936,-0.2354045
0.9977442,-0.06616578,0.0649737,0.02329692,0.3921699,-0.131869
0.966204,-0.003767644,0.05149502,-0.04007413,0.5192139,-0.08901095
0.8753395,-0.01781478,0.04959897,-0.03402357,0.4587,-0.01486435
0.8318138,-0.08991783,-0.0009136702,-0.09030222,0.464832,0.03113732
0.7285248,-0.1218532,-0.04878127,0.03236226,0.4534469,0.06456028
0.6772047,-0.1485283,-0.05757201,0.2261591,0.3941077,0.08310146
0.6705923,-0.1139062,-0.04865458,0.2639041,0.4167435,0.0356476
0.6354376,-0.09155815,-0.02744029,0.3997775,0.5059032,-0.01000759
0.7081793,-0.05438882,0.02668041,0.5637558,0.6406647,-0.07069598
0.8397329,0.0426036,0.1125485,0.5601095,0.6759295,-0.0876894
0.8964414,0.1173132,0.1627977,0.4598517,0.5749367,-0.09025789
0.87109,0.1995173,0.1365768,0.3163048,0.404992,-0.07096812
0.8708556,0.2153047,0.09812741,0.0893728,0.1981415,0.01267876
0.9442242,0.1615153,0.07516528,-0.01148299,0.04845793,-0.02637319
1.018796,0.03559524,-0.002352331,0.08716764,0.02871406,-0.1624469
1.17213,-0.3059834,-0.0455915,0.1728277,0.1774406,-0.423634
1.437435,-0.5768447,0.06531789,0.4847153,0.4925348,-0.7759598
1.592194,-0.4726308,0.1859664,0.7459902,0.742625,-0.8158869
1.573512,-0.2271658,0.2400345,0.4859688,0.6550262,-0.7092926
1.596896,-0.0977167,0.3150872,0.1367278,0.4232041,-0.7109422
1.652821,-0.1533518,0.3576893,-0.0479001,0.3190048,-0.5226952
1.593442,-0.2405049,0.3117237,0.2438785,0.3326783,-0.1486282
1.478358,-0.1288692,0.2838197,0.7822896,0.4161231,0.211935
1.221363,-0.03352388,0.3098618,0.6902677,0.3811511,0.3230969
0.9085227,-0.07129827,0.2990682,0.4571115,0.1992797,0.1271416
0.8549715,-0.002187379,0.2620245,0.3174656,0.02750678,0.1420889
0.8206252,0.04636999,0.240017,-0.1061635,-0.1121477,0.3089156
0.6594685,-0.009886065,0.2332735,-0.2225717,-0.2107483,0.3676217
0.581854,-0.04878333,0.2623453,-0.09785712,-0.3972547,0.5441906
0.5434441,-0.0906657,0.2747143,0.001326552,-0.6004677,0.5261965
0.5481794,-0.03284438,0.2611955,0.3510074,-0.6488634,0.2489784
0.5603301,0.06059789,0.2537278,0.4741684,-0.7336021,-0.03642497
0.5183648,0.03678509,0.2313531,0.2860337,-0.9112888,-0.3034153
0.5521984,-0.05277266,0.2296585,0.2854474,-1.091326,-0.2815447
0.7083299,-0.1879316,0.2393993,0.4021961,-1.103178,-0.1958413
0.9311585,-0.2216145,0.2166248,0.4787495,-0.8898213,-0.2014005
0.9905108,-0.06857627,0.1504112,0.4046138,-0.6279344,-0.1446195
0.8763883,0.04389823,0.07287159,0.1843533,-0.4093893,-0.1696788
0.8403852,-0.02437457,0.08692529,0.02501475,-0.5181624,-0.1351792
0.7862948,-0.1117835,0.1266828,0.06240164,-0.6882677,-0.1273891
0.7258854,-0.1057318,0.135621,0.3363721,-0.5256934,-0.2150198
0.7290458,-0.1126006,0.233105,0.6924779,-0.5469955,-0.2533565
0.6463496,-0.130076,0.3003508,1.065853,-0.6979173,-0.3596542
0.6536618,-0.1287059,0.225143,1.328684,-0.6816999,-0.3281808
0.8835456,-0.1159798,0.1297921,1.23564,-0.5874102,-0.1497708
1.301421,-0.07601116,-0.0468826,1.09918,-0.2260635,0.002789577
1.782469,-0.1184452,-0.2387222,1.140404,0.2483325,0.09234428
1.884093,-0.1777065,-0.1576041,1.198608,0.6006093,-0.05965873
1.727878,-0.1056533,0.03777635,1.446827,0.5938558,-0.2953948
1.685083,0.09233464,0.1205777,1.586536,0.2611166,-0.4274678
1.561714,0.3054027,0.1968267,0.8562216,0.1215102,-0.2672194
1.42099,0.2536911,0.2263168,-0.1261547,-0.05817988,0.1598647
1.383926,0.0866756,0.1894155,-0.1917396,-0.3368688,0.3562576
1.298291,0.06483557,0.1465062,0.1065672,-0.4692799,0.3839047
1.183863,-0.03433093,0.0519735,0.0479135,-0.6063449,0.3817671
0.9838251,-0.08099405,0.01306508,0.1611641,-0.5546217,0.3357979
0.7923022,0.00478177,0.00952262,0.3346395,-0.5505576,0.4483384
0.7594244,-0.01450094,-0.04007542,0.2476139,-0.6107462,0.5168572
0.7316876,0.009832874,-0.02169569,0.331587,-0.4166635,0.5427318
0.744556,0.03190054,0.01586959,0.4601594,-0.324485,0.6426621
0.8047075,0.0002127885,0.03983195,0.5155031,-0.1237311,0.5885735
0.7914272,0.05102082,0.06137776,0.6232138,0.1808678,0.4186869
0.7639558,0.03708719,0.02294398,0.5578773,0.1904631,0.2217837
0.6841441,0.03086619,-0.03648017,0.4334305,0.1742167,0.1627029
0.5998973,0.06103624,-0.1016143,0.3212709,0.2215923,0.2632657
0.6331602,0.01869512,-0.07249204,0.2904448,0.4039963,0.2363207
0.6549805,-0.005975088,0.07252886,0.4725896,0.6287918,0.1480813
0.6653986,-0.05247366,0.149519,0.6328433,0.6554484,0.04891429
0.8245862,-0.03245233,0.1286262,0.7951814,0.6173993,-0.02746852
0.999175,0.09997705,0.08962713,0.8249467,0.5498411,0.08672555
0.9712949,0.1662381,0.08670252,0.6295721,0.5227942,0.1861885
0.8984449,0.1516176,0.05061426,0.5421694,0.5097299,0.1436979
0.9150085,0.0716605,-0.04009902,0.5220561,0.410828,0.02291818
0.9048999,-0.09566811,-0.006170736,0.5941213,0.2760833,-0.2777611
1.074611,-0.3975533,0.1595568,0.6997705,0.2518787,-0.6089856
1.544557,-0.5524483,0.3076348,0.6148485,0.5419328,-0.6035053
1.849892,-0.2622532,0.329581,0.4423455,0.729202,-0.3315006
1.777466,-0.05300148,0.3405069,0.1910511,0.4181628,-0.1456594
1.636459,-0.1906181,0.4289136,0.1454217,0.08285916,-0.005576476
1.516591,-0.2255071,0.3446321,0.5063455,0.1193517,0.297187
1.290264,-0.1527947,0.2598846,0.9062774,0.1679122,0.5070852
1.187194,-0.1792724,0.3822522,1.131209,-0.02587767,0.3810931
1.243937,-0.1823489,0.389866,1.094973,-0.07865158,0.3216826
1.121079,-0.1083418,0.2935696,0.9228502,-0.02920861,0.4811849
0.9493442,-0.02390046,0.2299442,0.7474104,-0.1191919,0.5639075
0.8078617,0.03422548,0.2108419,0.5328279,-0.2531655,0.6880136
0.6276621,-0.03905518,0.2211715,0.5155397,-0.4794724,0.7395258
0.6071299,-0.1334268,0.1585849,0.6635134,-0.5783275,0.5237411
0.6271591,-0.06739649,0.1740517,0.7309343,-0.4599062,0.3120732
0.6062124,-0.01122239,0.2173356,0.690762,-0.4340702,0.1024301
0.5687245,-0.00973065,0.1760698,0.5524665,-0.5443302,0.03041117
0.5020021,-0.03911662,0.1780372,0.467574,-0.6412803,0.108162
0.5743093,-0.1189426,0.1309392,0.4607535,-0.6012307,-0.01664723
0.6280095,-0.04161428,0.08578131,0.4456976,-0.6060855,-0.1302844
0.5928006,0.07186181,0.09463201,0.440391,-0.7576414,-0.1590757
0.6410834,0.04851698,0.1077115,0.4345444,-0.8498919,-0.2465693
0.7304549,0.03790195,0.2130106,0.4834416,-0.8532035,-0.3126483
0.8381176,-0.002130561,0.2545779,0.5883134,-0.83775,-0.3585905
0.9377822,-0.05963263,0.2196649,0.6416475,-0.8306976,-0.2742484
1.038634,-0.06682931,0.2187247,0.4932847,-0.5922922,-0.1503011
1.116861,-0.1368315,0.1264706,0.2825061,-0.08033288,-0.1055994
1.18774,-0.2549407,-0.07717355,0.2949614,0.2907426,-0.04187189
1.395788,-0.34279,-0.2598034,0.3751819,0.4822229,-0.01438203
1.582508,-0.3435484,-0.1636776,0.7080602,0.5089582,-0.09305715
1.646052,-0.1871876,0.08397703,1.30235,0.2977965,-0.3501925
1.698863,0.06714107,0.1224298,1.253996,0.1156607,-0.5547966
1.65777,0.2055464,0.116033,0.633268,0.03813911,-0.4124342
1.48235,0.1420217,0.1324027,0.1546727,-0.08227323,-0.1556998
1.248144,0.07717998,0.1300165,-0.06369647,-0.2350276,0.06005289
1.095914,0.05746653,0.1694017,0.07629851,-0.3551369,0.2361566
1.142038,-0.01835438,0.1069911,0.2315233,-0.4471577,0.3267708
1.163398,-0.05887952,0.04855194,0.2914304,-0.4094279,0.4164173
1.034427,-0.03153383,0.0382646,0.5606183,-0.2554101,0.4879862
0.8982642,0.04335928,0.003292993,0.571908,-0.266063,0.4820804
0.7732592,0.1385129,0.05320618,0.3753532,-0.2438993,0.3825083
0.7770911,0.1269067,0.06563497,0.3435917,-0.05540194,0.2187746
0.8166356,0.06316717,0.04214425,0.2819049,-0.01139687,0.1892602
0.6835556,0.0447613,0.01473399,0.2790706,0.03604254,0.3030241
0.6364629,0.02924914,-0.08636011,0.1997168,0.1152747,0.4012938
0.6474531,0.01700811,-0.08726609,0.0872006,0.1530482,0.4577302
0.6229477,-0.02068575,-0.001027159,0.2013221,0.3127543,0.3782284
0.7231687,-0.08296155,0.08477711,0.3506986,0.442436,0.2203634
0.7867157,-0.07804209,0.1305146,0.577862,0.4839583,0.1507916
0.8407192,0.0168851,0.08887052,0.651711,0.4519419,0.07744713
0.9008922,0.1424898,0.07902646,0.4445819,0.4131533,0.03315494
0.8640301,0.1678396,0.07092398,0.3088937,0.4297942,0.07190463
0.8659539,0.05325248,0.02180996,0.240193,0.3652484,0.08252523
0.8149238,-0.05837549,-0.02988538,0.334468,0.350045,0.05902346
0.8513428,-0.1063007,-0.03919399,0.5183017,0.3526323,-0.1355165
1.311303,-0.1815613,0.1587257,0.5588596,0.3546526,-0.5537705
1.880963,-0.2833563,0.3897436,0.5399734,0.5201331,-0.7403722
1.945837,-0.2746856,0.3625228,0.3676992,0.7024023,-0.3712575
1.613816,-0.2288914,0.3393283,0.185759,0.7362615,-0.03372888
1.538968,-0.3001604,0.568904,0.3089536,0.4180975,-0.244835
1.60327,-0.3193732,0.7026909,0.5375647,0.08057264,-0.3212112
1.503258,-0.2133316,0.4671594,0.6182848,0.1847137,0.08299536
1.316112,-0.07769645,0.2433735,0.5926317,0.2297859,0.4170384
1.04079,0.03065697,0.3297916,0.5696474,-0.006300714,0.5323138
0.9774841,-0.0526069,0.3684165,0.6123194,-0.2271233,0.4345526
0.943341,-0.1473469,0.2373359,0.6601389,-0.4274211,0.3445495
0.7406041,-0.0557373,0.2486744,0.6531756,-0.5097917,0.4729471
0.7722542,-0.009563448,0.2733774,0.6639135,-0.4314463,0.4693051
0.7129271,0.01631709,0.2239566,0.636412,-0.4245033,0.4066731
0.5636468,0.05155977,0.2413813,0.4937,-0.4972091,0.355783
0.6008825,0.01037918,0.1827742,0.299604,-0.5979205,0.1589075
0.4869505,0.02953436,0.1409886,0.1221157,-0.796443,0.08874261
0.4701109,0.03999499,0.1666435,0.08281923,-0.8836651,0.1156682
0.5503646,-0.004388205,0.1298238,0.1571142,-0.8701212,0.1323146
0.5031,-0.02874984,0.1393625,0.1889904,-0.9616767,0.1842469
0.6214582,-0.07425958,0.1141557,0.1090685,-0.947037,0.1679216
0.7261059,-0.06279352,0.05668535,0.01011965,-0.7986489,0.1271105
0.7821825,-0.04858958,0.08266901,0.06996535,-0.6306061,0.01409321
0.9135814,-0.1240921,0.1069207,0.2243668,-0.4668525,-0.1876392
0.9132701,-0.1616499,0.1474917,0.4211727,-0.3935716,-0.332628
0.9004662,-0.154623,0.1853044,0.5535812,-0.1551748,-0.3467688
1.019571,-0.1711323,0.1506546,0.4591488,0.3191408,-0.233107
1.321833,-0.2365763,-0.03719418,0.4882372,0.6354663,-0.1407492
1.652036,-0.2933166,-0.2343228,0.7781377,0.5976719,-0.159956
1.720885,-0.2205592,-0.06607688,0.97442,0.318095,-0.3237598
1.749246,-0.06945636,0.1582534,0.906402,0.09086187,-0.4907984
1.761383,0.07540886,0.1040577,0.6580312,0.03592775,-0.3859018
1.57271,0.1481422,0.1492064,0.4067699,-0.0564566,-0.1439364
1.375753,0.09598487,0.2150331,0.1544729,-0.3877987,0.09066173
1.153244,0.02982889,0.09844803,0.06734024,-0.6862419,0.3311118
1.044472,-0.03089159,0.06573561,0.2595666,-0.6296135,0.4272592
1.147999,-0.1233096,0.006644754,0.4868813,-0.6103336,0.436922
1.015294,-0.121805,-0.06507861,0.7698191,-0.6460434,0.4721703
0.8601931,-0.04398478,-0.003522669,0.8332582,-0.475412,0.4833993
0.8847947,-0.007074068,-0.04391182,0.5270141,-0.3334349,0.4901589
0.8019759,0.01042073,-0.0327281,0.3421314,-0.04497919,0.4223292
0.8103882,0.02573395,0.07689588,0.2852394,0.2580428,0.2727465
0.7633286,0.03997571,0.06864025,0.3350648,0.2564322,0.1447854
0.5763535,0.01874549,0.02584411,0.4407337,0.2750418,0.02824451
0.5577001,-0.01443044,-0.05323808,0.385054,0.3809894,-0.00483035
0.5684235,0.05256646,-0.04218147,0.4204155,0.5165873,0.03458472
0.6096937,0.1055725,0.04334481,0.4771048,0.5726836,0.0437388
0.6964481,0.06123301,0.0752554,0.4653436,0.5290405,0.05975268
0.7760218,0.05109389,0.1701288,0.5044031,0.4814583,0.07573222
0.865977,0.08772473,0.1318367,0.4141919,0.2932261,0.102119
0.8943711,0.1061234,0.01929964,0.2622217,0.2465942,0.1301041
0.9528102,0.07822399,0.01414635,0.1428592,0.4399743,0.09425658
0.9352447,0.02456766,-0.043077,0.1120242,0.5774037,0.02356201
0.8961414,-0.06134584,0.01678525,0.2136244,0.6000966,-0.170285
1.047489,-0.2154639,0.2053007,0.2212764,0.4997609,-0.5647662
1.337939,-0.2864192,0.3082546,0.05060377,0.4694879,-0.8209449
1.765701,-0.1422086,0.3047719,-0.3370829,0.5367115,-0.6523087
1.916604,-0.01352869,0.2744592,-0.7492589,0.53843,-0.3507652
1.635083,-0.1329585,0.3923061,-0.7313573,0.4275746,-0.1576613
1.436261,-0.2810601,0.4588537,-0.2529799,0.1635232,-0.0711466
1.356118,-0.2693909,0.3840454,0.3682823,-0.04819133,-0.05463878
1.287314,-0.1928239,0.384198,0.7251906,-0.1143651,0.143812
1.226936,-0.05160941,0.3266259,0.6907011,-0.1637303,0.3317675
1.049484,0.04302553,0.2477112,0.4686109,-0.2626789,0.3220314
0.8930168,0.01416574,0.2312458,0.1404613,-0.3829063,0.4279977
0.8422125,-0.01934203,0.1876529,-0.08061768,-0.3953992,0.4393128
0.7874614,-0.0893574,0.1770742,-0.03019236,-0.3812538,0.3364785
0.7390127,-0.117195,0.1364803,0.05546355,-0.3615273,0.2977714
0.7055726,-0.05994116,0.1154546,0.1203286,-0.2761746,0.09229206
0.6500994,-0.06169488,0.1603598,0.1863723,-0.2723177,-0.02436325
0.6221592,-0.08549034,0.1519756,0.1412276,-0.3131458,0.01264802
0.6826046,-0.09838902,0.1526029,0.09797329,-0.3351774,0.005689945
0.7583666,-0.07421331,0.1517429,0.08401382,-0.374552,0.05201175
0.7758518,-0.01213168,0.1430658,0.04359024,-0.3996993,0.05308121
0.8708403,-0.09642388,0.09324122,0.4855965,-0.3777699,-0.2812161
1.173094,-0.1834284,-0.1160617,0.5032542,-0.1249603,-0.1636686
1.575514,-0.2951443,-0.3434114,0.5561984,0.136744,-0.0244497
1.720308,-0.3266524,-0.3077141,0.5932054,0.4282215,0.1546917
1.729386,-0.252587,-0.2335847,0.6660533,0.7186982,-0.1441151
2.000647,-0.1838792,-0.3322026,0.7079923,0.5944378,-0.6341995
2.011675,-0.05885169,-0.2859573,0.6649632,0.04249724,-0.634662
1.592217,0.08962028,0.005717862,0.2897764,-0.2453084,-0.3433648
1.419359,0.1876719,0.2529865,-0.06753074,-0.1759986,0.002490781
1.420158,0.1888561,0.2337646,0.0171259,-0.1776584,0.3069057
1.270026,0.06764234,0.09191051,0.03903636,-0.2974201,0.4497012
0.9710134,0.01203226,0.1262799,0.1165774,-0.4299072,0.4655454
0.7844701,-0.01735188,0.1265237,0.4250514,-0.4588115,0.4887853
0.8247305,-0.06895202,0.002826189,0.5100044,-0.4207199,0.5262279
0.8222932,0.02911991,-0.03537169,0.5029259,-0.3113835,0.4438587
0.9361515,0.130726,-0.09609578,0.4282706,-0.006645984,0.2765934
0.9885951,0.1574058,-0.05036107,0.2856886,0.3307415,0.06541713
0.8352268,0.1204126,0.07119685,0.2585564,0.4936896,-0.08467401
0.8649483,0.01595966,0.06347018,0.1639735,0.4305803,0.07411726
0.798882,0.04562963,0.0604389,0.01142099,0.3311214,0.3581449
0.670813,0.1177536,-0.01641924,-0.1909405,0.2127729,0.5088445
0.6409111,0.1254814,-0.05504819,-0.3146277,0.05797133,0.568094
0.601871,0.04815845,-0.01571819,-0.232025,0.1679364,0.4078561
0.7491499,-0.1232618,-0.06849981,-0.2057417,0.2883728,0.1446503
0.8322471,-0.1080019,-0.04316735,-0.1760417,0.3093573,0.0550303
0.8935963,-0.005192306,-0.03366365,-0.1795429,0.4971686,3.970619e-05
0.9592495,0.01969513,-0.05231368,-0.2693581,0.66773,-0.02253539
0.8090938,0.08018611,0.007545,-0.2264288,0.828107,0.007243018
0.7622492,0.06564515,0.02266985,-0.2047169,0.8915941,-0.06712225
0.7431002,-0.05251686,0.08150045,-0.1775215,0.685996,-0.2450345
0.8476722,-0.2768792,0.2230866,-0.06034331,0.3662715,-0.5395727
1.286543,-0.4351681,0.3442633,-0.05832012,0.09244343,-0.681585
1.738212,-0.255402,0.2830509,-0.1203652,0.1702904,-0.4085773
1.978642,-0.08241528,0.1781509,-0.1464758,0.3183125,-0.1798924
1.833894,-0.1124625,0.2913027,-0.02371496,0.1641984,-0.254804
1.612493,-0.07824054,0.334725,0.2167568,0.1607409,-0.1653873
1.492466,-0.001251699,0.2927268,0.2642125,0.1975404,0.1804822
1.344839,0.03637396,0.3291777,0.1299606,0.06113815,0.3614641
1.320265,0.0485813,0.312421,0.005201939,0.06211762,0.3421424
1.180282,4.399798e-05,0.3082791,-0.03916923,-0.02575742,0.3277342
1.003489,-0.02437583,0.2555257,-0.04551182,-0.2196582,0.4196289
0.8930234,-0.002272621,0.1488176,-0.1535712,-0.3131585,0.6156799
0.6590292,-0.0247689,0.1412485,-0.2430667,-0.4516224,0.6993863
0.5874381,-0.07957933,0.1571015,-0.1227626,-0.5569545,0.5646604
0.5539617,-0.1242718,0.1709784,0.0716356,-0.5899445,0.3015372
0.5353824,-0.08639594,0.1522404,0.1076054,-0.5023361,0.0502037
0.6231799,-0.01708152,0.1105788,-0.04108099,-0.3784793,-0.06272774
0.5380528,-0.04862337,0.1013622,-0.1840468,-0.47298,-0.07642703
0.5414869,-0.05621442,0.09635934,-0.1653449,-0.5690436,-0.08454259
0.6181582,-0.01724828,0.1223461,-0.0716788,-0.5933791,-0.1922335
0.6202067,-0.03420387,0.1199325,-0.04288048,-0.5675227,-0.3590064
0.6770107,-0.04657091,0.1093677,-0.02541331,-0.4787112,-0.4020152
0.6561109,-0.06087652,0.1403217,0.01526843,-0.5885355,-0.3242315
0.7364769,-0.04451614,0.15559,0.03967689,-0.6564317,-0.272629
0.8726425,0.008258288,0.1909978,0.06993742,-0.4323843,-0.311492
0.8966887,-0.02185201,0.1535635,0.05025501,-0.1470133,-0.2995945
1.141378,-0.1406993,-0.02739042,-0.03324286,0.1116182,-0.1227083
1.601606,-0.3274788,-0.214205,-0.01855331,0.2712163,0.2096676
1.85929,-0.3949358,-0.253982,0.2620396,0.3574572,0.3652202
1.737026,-0.1643371,-0.1435158,0.5262474,0.4886233,-0.169924
1.60021,0.1033281,-0.03853116,0.2780777,0.4304906,-0.7235996
1.504107,0.1473513,0.06644381,-0.1306255,-0.02466608,-0.4142398
1.224827,0.01425759,0.09532188,-0.2317158,-0.4563625,0.005053941
1.121148,-0.1006385,0.02946371,-0.2173574,-0.538165,0.07498289
1.150536,-0.08593709,0.08004368,0.01988193,-0.6175614,0.2489211
1.077775,-0.06933809,0.05805796,0.4330125,-0.6564499,0.3560702
1.031257,-0.07776245,-0.0280978,0.5510246,-0.4644189,0.3740256
0.8940776,0.001219545,0.006120448,0.5689489,-0.394215,0.3761363
0.7871856,0.1355125,-0.04363192,0.6562869,-0.408306,0.2334475
0.8143677,0.2290448,-0.06223858,0.4718726,-0.2598381,0.1996904
0.8209428,0.2448929,0.005465433,0.1956995,-0.008933214,0.09239133
0.8178765,0.2330857,-0.001581786,0.09814778,0.1781987,-0.01398476
0.7466213,0.1877722,-0.01525457,-0.1596499,0.1451586,0.276305
0.6708948,0.09054685,-0.05501809,-0.5593024,0.1016798,0.5650794
0.6536503,0.03339168,-0.06187016,-0.6094181,0.1483715,0.664471
0.6259797,-0.01602638,-0.03695841,-0.4222219,0.2123757,0.5167416
0.6511312,-0.04829272,-0.01619137,-0.3071521,0.418286,0.1536343
0.7353815,-6.623744e-05,0.06543382,-0.1841361,0.5345481,-0.0753465
0.8231309,0.03570721,0.0422922,-0.1513547,0.3976385,-0.1329399
0.8811604,0.1184057,-0.02873614,-0.3379233,0.2967972,0.08340326
0.9081625,0.1732732,-0.04154826,-0.5641475,0.3319046,0.3142399
0.8907885,0.02304244,-0.09501115,-0.6117215,0.4071862,0.2984495
0.8407613,-0.1645999,-0.06364359,-0.4618654,0.4999697,0.2093936
0.8673759,-0.3568483,0.07790175,-0.2735061,0.5022032,-0.2058254
1.126645,-0.4610223,0.2009621,-0.1514248,0.2017348,-0.8620262
1.630288,-0.2535834,0.197033,-0.273038,-0.01343594,-1.09552
1.859277,0.0295465,0.1027325,-0.691278,0.4551742,-0.5468524
1.597877,0.1359331,0.1130364,-1.094981,0.8935077,0.1601162
1.45894,0.05194319,0.1465743,-1.142096,0.4612297,0.2255507
1.534286,-0.1234197,0.205547,-0.5914275,0.01156053,0.1092323
1.472244,-0.2226956,0.3246539,0.1402016,0.1412569,0.2096513
1.389937,-0.1856966,0.2755309,0.2975721,0.1556385,0.3518375
1.213757,-0.03534871,0.1904233,0.003497662,0.04121208,0.495864
0.838871,0.04573863,0.1790513,-0.2566922,-0.02882729,0.4859592
0.7455493,0.005184326,0.1409523,-0.3887688,-0.3030437,0.4539831
0.8663413,-0.008624728,0.1632233,-0.4218551,-0.3788793,0.4735414
0.7652317,-0.00751119,0.1605026,-0.3486984,-0.1947583,0.3750209
0.7376016,-0.005691944,0.1194831,-0.31501,-0.119958,0.1817097
0.7150474,-0.01373158,0.1170496,-0.4691791,-0.1387185,-0.03129253
0.4392506,-0.04601909,0.06586462,-0.6456625,-0.3432528,-0.06423059
0.3390614,-0.06800662,0.05697505,-0.6954197,-0.6321207,0.03155218
0.4541434,-0.06434338,0.09869149,-0.5830022,-0.72198,0.02189116
0.5595553,-0.01567481,0.09258572,-0.4705318,-0.6061446,-0.07238142
0.6654655,-0.007461106,0.0884275,-0.5648089,-0.4654588,-0.1321368
0.6969149,-0.06323511,0.06969297,-0.6412278,-0.3979099,0.00428995
0.6958049,-0.1021172,0.05272183,-0.6431473,-0.3394639,0.1680887
0.7185917,-0.07895503,0.08194654,-0.6479881,-0.3412386,0.06097956
0.762606,-0.03590923,0.1243127,-0.5503269,-0.2388524,-0.2002248
0.8220154,-0.08710486,0.1650797,-0.4318113,0.05449336,-0.445194
0.9336555,-0.1425389,0.1250434,-0.3366039,0.4044271,-0.4965691
1.294761,-0.1739448,-0.06379368,-0.304094,0.9054788,-0.2765652
1.703407,-0.242585,-0.2285606,-0.2700342,1.093634,-0.06092903
1.690081,-0.2119159,-0.1199724,-0.09405482,0.7131896,-0.0426958
1.558109,-0.06437469,0.07756712,-0.0009742595,0.3080851,-0.3898297
1.711976,0.1333902,0.05639056,-0.1485545,-0.07034496,-0.757399
1.733026,0.1957908,-0.008868897,-0.4359733,-0.3190093,-0.2901823
1.522709,-0.0003133637,-0.01803424,-0.6020056,-0.3464921,0.3945053
1.340885,-0.1433097,-0.02764607,-0.4573322,-0.4565022,0.3719847
1.150074,-0.1041669,0.04041335,-0.164588,-0.4359134,0.2078045
1.109122,-0.02421495,0.06182073,0.04937451,-0.3146845,0.1604043
1.06421,0.06531865,0.02223303,-0.1199945,-0.2501067,0.1348779
0.8466953,0.1188708,0.01059213,-0.5024957,-0.11995,0.241206
0.748628,0.1272267,-0.009645906,-0.6026126,-0.1568485,0.3069355
0.7214334,0.131454,0.008001945,-0.6840778,-0.1121401,0.3676468
0.7221477,0.1379493,-0.002674059,-0.8378631,0.1320518,0.3395177
0.7054507,0.1217589,-0.04383257,-0.9395985,0.2083561,0.2379179
0.5820594,0.09841037,-0.07831231,-1.24907,0.2271855,0.2978026
0.5110973,0.1018588,-0.1509398,-1.465384,0.09151707,0.3451879
0.4781632,0.08839862,-0.1525153,-1.471313,-0.1036375,0.4245246
0.5460141,0.06639894,-0.1176569,-1.52589,-0.07233941,0.5074872
0.7027617,0.06849296,-0.09936872,-1.407016,0.04585347,0.4143758
0.8523818,0.08588137,-0.06245504,-1.266097,0.3085095,0.3305135
1.013203,0.1228033,-0.04980202,-1.33585,0.5565374,0.1971171
0.9858784,0.170772,-0.009151389,-1.486546,0.5600979,0.06706066
0.9310943,0.2272135,0.03041622,-1.796541,0.4057482,0.1212674
1.007504,0.2486349,0.00752255,-2.092167,0.2074153,0.1184731
0.9801274,0.2310032,-0.03742816,-2.129034,0.0828681,0.01624184
0.9784224,0.1618561,-0.1052091,-2.071623,-0.1521452,-0.03577363
1.043107,-0.1107957,-0.2135447,-1.974725,-0.4723831,-0.1090374
1.136104,-0.4964905,-0.3031746,-1.734106,-0.4621553,-0.3793458
1.445098,-0.677622,-0.256308,-1.373696,0.006088035,-0.8452245
1.725898,-0.6032879,-0.1867901,-0.9919446,0.5405082,-1.158242
1.782536,-0.4386715,-0.1949125,-0.9756094,0.6313139,-1.16285
1.858233,-0.2048879,-0.1905542,-1.738341,0.6648328,-0.955614
1.920658,0.06974179,-0.2623936,-2.566954,1.172472,-0.512941
1.677273,0.0980316,-0.2999816,-2.539238,1.571208,-0.1848805
1.24193,-0.04622327,-0.1385231,-2.314502,1.377242,-0.2400947
1.080126,-0.07213002,-0.01172392,-2.452408,1.090024,-0.2251434
1.144601,-0.1326897,0.02085933,-2.328551,1.056515,0.01846093
1.063779,-0.1703696,0.01966104,-2.077617,0.9617427,0.2680484
0.906995,-0.1192049,-0.01310698,-2.080429,0.7931783,0.4359922
0.7891276,-0.1739842,0.0194179,-1.888818,0.6390063,0.4080887
0.6870222,-0.1868358,0.05854748,-1.530434,0.2903361,0.3175162
0.6389401,-0.1631445,0.09281136,-1.180075,0.06640328,0.2195086
0.6369465,-0.159229,0.1225921,-0.802942,0.07522482,-0.03252991
0.6130254,-0.09935829,0.1059815,-0.6214409,-0.09087506,-0.2043971
0.5214854,-0.1310597,0.1427587,-0.3792211,-0.3679898,-0.2092618
0.5053716,-0.1484525,0.1397441,-0.0289894,-0.5534031,-0.262141
0.5880274,-0.05733508,0.07948111,0.01743873,-0.5201659,-0.3201477
0.6226322,0.03083216,0.048909,-0.1157872,-0.3604508,-0.3375526
0.6445751,0.1139917,-0.004190536,-0.2890324,-0.3175832,-0.3932118
0.6265892,0.114729,0.01026644,-0.4757215,-0.4450176,-0.46911
0.6122164,0.04978179,0.04831745,-0.5058738,-0.6638457,-0.4757208
0.7242316,-0.01023084,0.06332704,-0.3848482,-0.6425717,-0.4033063
0.8151467,-0.0466266,0.1184939,-0.2491416,-0.5488825,-0.3628276
0.8206617,-0.04476132,0.1385703,-0.1418341,-0.6270104,-0.3690201
0.8545409,-0.1241044,0.161425,0.01224327,-0.5678923,-0.4045089
0.9643688,-0.2548803,0.1067221,0.2057925,-0.4460489,-0.4415389
1.162934,-0.2716986,-0.1233002,0.3077907,-0.1832217,-0.3129952
1.497893,-0.1797993,-0.340638,0.1696953,0.2202225,-0.02957353
1.759016,-0.135986,-0.3822425,0.02416479,0.4081796,0.107941
1.685475,-0.2546561,-0.2632543,0.2326976,0.5488702,-0.1970829
1.688352,-0.3352783,-0.1059169,0.4897089,0.519541,-0.6848377
1.786495,-0.1576374,0.06972787,0.4921072,0.203393,-0.7563268
1.513463,0.0751616,0.09894825,0.2574148,-0.1569229,-0.4789926
1.33872,0.1079625,-0.01597703,-0.1313327,-0.5518457,-0.1377295
1.364497,0.03966274,0.05811227,-0.1746663,-0.6058958,0.1775656
1.23581,-0.027902,0.08638647,0.2653061,-0.3969809,0.2304729
1.220168,-0.1588674,0.01871703,0.7432208,-0.4033863,0.1794121
1.098935,-0.218213,0.04283097,1.00297,-0.3519199,0.2422816
0.8792876,-0.09771865,-0.08279798,0.985803,-0.2909488,0.271574
0.8522137,0.03916096,-0.1218009,0.8666159,-0.2879875,0.2969349
0.7398543,0.1147411,-0.02385415,0.7962581,-0.006885216,0.2567604
0.7751318,0.1132856,-0.0270133,0.7806227,0.2895197,0.1559868
0.8362041,0.03011873,0.01384386,0.807986,0.3535834,0.2623144
0.6291142,-0.02202664,-0.03971932,0.7733026,0.1841363,0.4288682
0.5825348,-0.015831,-0.1087158,0.7759363,0.02252782,0.4358664
0.6029586,0.0101865,-0.03444016,0.7984541,0.2229024,0.2682745
0.6538712,0.03296688,0.007269709,0.741367,0.4001426,0.02070219
0.7515444,0.02986968,0.04719008,0.7385139,0.3602899,0.0307679
0.7241615,0.05285112,0.03037858,0.7062669,0.315173,0.1886278
0.8182545,0.1114317,-0.02018083,0.6250311,0.2339338,0.2578669
0.9206933,0.1565604,-0.009019823,0.5552485,0.2656182,0.3556033
0.9698414,0.1516325,-0.02508511,0.4878556,0.4150716,0.273523
1.006869,0.08206291,-0.03404999,0.4719639,0.4982816,0.08430118
0.87536,-0.03174732,-0.01197969,0.4204221,0.409413,-0.01370227
0.846131,-0.2046127,0.0956175,0.4265658,0.1864391,-0.3486295
1.166804,-0.3186728,0.2347784,0.4520241,0.1437585,-0.6666015
1.692387,-0.2456774,0.226259,0.3088146,0.3165525,-0.570779
1.911278,-0.1209864,0.2485069,0.1070356,0.4979794,-0.3213513
1.758342,-0.05302618,0.3600437,-0.06679381,0.5263311,-0.1183458
1.659662,-0.09084951,0.3281436,0.02149588,0.349275,-0.04111563
1.471859,-0.1717858,0.2757625,0.3287333,0.1741666,0.04257032
1.24729,-0.119157,0.3142018,0.5865805,0.04970596,0.2602754
1.192951,-0.06008156,0.2863852,0.7896817,-0.06749647,0.3081682
1.068913,-0.04524503,0.2517322,0.6558036,-0.192461,0.2463767
0.9137232,0.03236855,0.2297929,0.4199941,-0.3564572,0.354961
0.8190465,0.03039638,0.1875362,0.4113947,-0.3933036,0.4693676
0.7222525,-0.0231112,0.2155833,0.283468,-0.3513299,0.5178492
0.6807298,-0.03745754,0.2020058,0.2617851,-0.3361442,0.4711607
0.6822158,-0.05355688,0.1506315,0.3218338,-0.260994,0.2610465
0.6705467,-0.01569287,0.1377554,0.164806,-0.2201642,0.06440709
0.6437167,-0.01188017,0.1007063,0.1237032,-0.2651491,-0.03752878
0.6236013,-0.08301381,0.1018456,0.1011069,-0.4003182,-0.004439052
0.626949,-0.1276789,0.09473744,0.042433,-0.6090207,0.07364023
0.6611742,-0.1300646,0.07516355,0.04586563,-0.682708,0.05824078
0.735853,-0.1125763,0.1041934,-0.05120296,-0.5921762,0.06134627
0.8230556,-0.1538102,0.08489735,-0.04350843,-0.4490209,-0.044958
0.8707162,-0.2033064,0.05480591,0.1036865,-0.2755413,-0.2432754
0.8602896,-0.192293,0.06028271,0.3429529,-0.2271132,-0.3107136
0.7952628,-0.1044594,0.1513064,0.6721625,-0.3221655,-0.3653956
0.7232988,0.05807348,0.2812545,0.8305148,-0.3254975,-0.3972888
0.7865369,0.07379204,0.199609,0.7439483,-0.2605403,-0.3711526
1.060156,-0.03080659,-0.01338453,0.5114492,-0.05350652,-0.3041122
1.459608,-0.1183646,-0.1857498,0.3865755,0.2728328,-0.0705807
1.764101,-0.227214,-0.2302561,0.3820621,0.2762159,0.1942036
1.822884,-0.1922716,-0.02507346,0.4220373,0.3516813,0.1123446
1.84536,-0.1059935,0.161263,0.5414596,0.6751403,-0.3809828
1.801676,-0.1239718,0.1361798,0.43585,0.3797826,-0.6951428
1.409952,-0.05103614,0.08047662,0.2775954,-0.24704,-0.3936386
1.070469,0.02262481,0.05051693,0.2832926,-0.5333979,0.05300961
1.15916,-0.02141556,0.0594845,0.3418515,-0.6250053,0.1785389
1.256777,-0.05667322,0.06049264,0.5836036,-0.5749346,0.2699307
1.132895,-0.078535,-0.0008560218,0.7500045,-0.5838789,0.3937611
1.104991,-0.08103052,-0.03195465,0.809665,-0.579083,0.2827976
1.102727,-0.054832,-0.04302528,0.8767142,-0.4569447,0.2747997
0.9184774,-0.009032125,-0.06431916,0.7473136,-0.4814505,0.3965909
0.8595693,0.08339223,-0.07891229,0.5535905,-0.3457538,0.4041886
0.8907376,0.1282137,-0.07980955,0.2835927,-0.06108045,0.444205
0.8510737,0.08365499,-0.02762993,0.1206396,0.1863164,0.2981876
0.8629572,0.06498129,0.05519665,0.2105661,0.4618209,0.07990547
0.7572251,0.07963757,0.08420076,0.1000912,0.4096774,0.08883912
0.5952032,0.07077095,0.007112784,-0.1206813,0.2529349,0.1838489
0.5176053,0.08034409,-0.06203684,-0.1727501,0.2208314,0.3557549
0.4992581,0.1064061,-0.02471687,-0.06257231,0.2109567,0.41933
0.6160079,0.1020547,0.03692451,0.1852346,0.3270427,0.3779155
0.7231789,0.08640943,0.06997365,0.2658352,0.2477551,0.4144816
0.7899701,0.08320832,0.02245819,0.04446287,0.09130418,0.4661289
0.8736033,0.1263106,-0.0509999,-0.2375396,0.06734449,0.5872587
0.9713797,0.1841931,-0.03131005,-0.3534864,0.1420758,0.6430103
1.073216,0.16583,-0.04591751,-0.389185,0.4989663,0.5029181
1.030745,0.1028503,-0.1114828,-0.5241163,0.6797359,0.3083025
0.9086623,-0.01319103,-0.07647907,-0.6037715,0.5950831,0.09853927
0.8399569,-0.2632589,0.01622092,-0.557276,0.4803819,-0.2690581
1.020759,-0.5177206,0.1015526,-0.4853685,0.2466325,-0.6893393
1.463366,-0.5723463,0.1300678,-0.3717319,0.1649396,-0.7667726
1.753704,-0.4292107,0.1172179,-0.3922644,0.2330708,-0.6610677
1.809372,-0.1692637,0.1535283,-0.9088217,0.665998,-0.5477347
1.582854,0.08065403,0.1042696,-1.446355,1.258084,-0.1564451
1.137424,0.06340226,0.04325628,-1.007526,0.9273319,0.142244
0.9790657,-0.1105767,0.2234667,-0.3510255,0.2201702,-0.1243833
1.115934,-0.1080761,0.3675657,-0.4574345,-0.01480604,-0.3865372
1.262811,-0.06770042,0.2412195,-0.5395454,-0.06486923,-0.1553315
1.292197,-0.0144808,0.07825685,-0.7217104,0.1686682,0.05354241
1.091349,0.0962014,0.0321673,-1.245716,0.3061913,0.1063607
0.8215941,-0.01211429,0.05761876,-1.23962,-0.02778314,0.2111033
0.7746651,-0.1264546,0.07581711,-1.166097,-0.1872158,0.1351458
0.8680781,-0.06493687,0.06431076,-1.337902,-0.08741625,0.1042599
0.8169669,-0.07489047,0.05602627,-1.306704,-0.0343337,0.138873
0.7564752,-0.09258297,0.04868469,-1.427487,-0.07453346,0.05503366
0.7760962,-0.07696372,0.03213099,-1.590037,-0.1229933,0.1277918
0.7610567,-0.08104067,0.06341279,-1.597032,-0.05479248,0.1349394
0.8112781,-0.06447965,0.1077596,-1.679249,0.04600975,0.05437667
0.7777894,-0.06179291,0.06813263,-1.762664,0.2577799,0.04910186
0.6429926,-0.05920908,0.05506064,-1.839522,0.3127834,-0.04211969
0.6014038,-0.06025703,0.1285332,-1.758111,0.05076863,-0.08326676
0.6328652,-0.07174721,0.1669621,-1.51607,-0.08409926,-0.1952188
0.7776726,-0.07551811,0.124904,-1.336454,-0.1558747,-0.2964908
0.8824372,-0.07603546,0.07876416,-1.200874,-0.1620874,-0.1470493
0.9174492,-0.06843836,0.110286,-1.167796,-0.04577564,-0.1089928
0.9458165,-0.07378792,0.1422002,-0.9785586,0.0621246,-0.2640265
0.8156089,-0.07648592,0.1701137,-0.588331,0.3213893,-0.416625
0.7824944,-0.1079164,0.1952865,-0.5033337,0.7577336,-0.415254
1.086324,-0.2758164,-0.01328617,-0.5548254,1.367405,-0.2634018
1.50022,-0.5296261,-0.2395291,-0.364774,1.520423,-0.2251099
1.615389,-0.5949444,-0.0912749,-0.06316587,0.8750683,-0.4166631
1.489463,-0.3325864,0.0330222,-0.03135247,0.4344513,-0.8105271
1.572604,0.0336162,-0.158088,-0.5664641,0.3038292,-0.998986
1.597313,0.2047164,-0.2374766,-1.322277,-0.1067825,-0.6672452
1.364776,0.009330446,-0.1281184,-1.579226,-0.5149979,-0.2816608
1.239799,-0.28972,-0.02445353,-1.087989,-0.569931,-0.160185
1.266321,-0.2985656,0.1050867,-0.4327343,-0.5277636,-0.08307756
1.297601,-0.2209451,0.1030219,-0.1827914,-0.6339895,-0.00656218
1.192198,-0.1782179,0.01144153,-0.2444399,-0.5868906,-0.06029845
1.096408,-0.07553322,0.01781764,-0.32961,-0.4177794,-0.09225637
1.094781,-0.04180915,-0.05379093,-0.2832337,-0.3236621,-0.02284423
0.9315699,0.04963856,-0.1467065,-0.4045529,-0.2354908,0.02599701
0.7715254,0.1396852,-0.1250043,-0.65837,-0.2367236,0.1048373
0.7973016,0.00200482,-0.08060845,-0.5959157,-0.04149013,0.1244369
0.8253847,-0.1131928,-0.008637361,-0.4156186,0.2527318,0.05121041
0.7333247,-0.1002563,0.01274857,-0.15636,0.2047865,0.04951397
0.6247848,-0.1061436,-0.01163147,0.1316567,0.144225,0.06204286
0.586614,-0.1221921,-0.00515772,0.2152809,0.1665838,0.08931366
0.503909,-0.09797371,-0.03104694,0.3523499,0.127797,0.1223417
0.4803119,-0.05633962,-0.0149924,0.5312912,0.2011381,0.05226275
0.5929206,-0.01719703,0.04023718,0.708917,0.3676085,-0.06269316
0.7228005,0.0301024,0.04353341,0.7459879,0.3958182,-0.08728717
0.8056885,0.0352482,0.02990214,0.4873419,0.1339484,0.1317399
0.7749752,0.03388173,-0.006702445,0.3291115,-0.12392,0.3890528
0.7748545,0.05377447,-0.05196386,0.2684756,-0.04082524,0.3362617
0.816387,0.03723024,-0.08901904,0.3096673,0.1307936,0.1836644
0.8320911,-0.01537018,-0.0730177,0.5750151,0.1233458,0.05393931
0.983323,-0.1808664,0.02428337,0.7214971,0.02779662,-0.2894489
1.295315,-0.4440234,0.09653754,0.5351365,-0.1294802,-0.6938227
1.645872,-0.5705764,0.1428662,0.1971442,-0.1153355,-0.8125128
1.790241,-0.3848969,0.159874,0.06451424,0.3659279,-0.53345
1.82223,-0.1805824,0.1871738,-0.1558462,0.7194007,-0.2050539
1.834216,-0.3259071,0.2788696,-0.372022,0.3667402,-0.2363053
1.63267,-0.4181622,0.2438565,0.1099383,0.01267105,-0.1727741
1.598965,-0.2733429,0.1956706,0.6908359,0.2912476,0.1360731
1.558273,-0.2455253,0.259762,0.8850428,0.4562075,0.2249738
1.152469,-0.1943475,0.2255504,0.8070537,0.1960612,0.3094719
0.9532121,-0.09588941,0.2023278,0.4745028,0.1317583,0.3690305
0.8250208,-0.04442145,0.1950634,0.254713,0.007113376,0.3283117
0.6602579,0.06796025,0.1146978,0.08185849,-0.2340673,0.4439707
0.6820285,0.04197886,0.1453663,0.08803654,-0.3095753,0.4310029
0.5728146,-0.09242724,0.2037512,0.3782118,-0.5194189,0.3292693
0.5563339,-0.1505451,0.2232302,0.5422723,-0.6188565,0.187321
0.6107267,-0.1159913,0.2378947,0.6183218,-0.6030365,-0.1256193
0.5405331,0.007688063,0.1903191,0.5260564,-0.6902968,-0.3010882
0.5917147,0.01497906,0.1527057,0.407719,-0.688311,-0.3460299
0.5880513,-0.03992,0.09446473,0.3482594,-0.7477452,-0.2626842
0.6020896,-0.02264589,0.05641025,0.2081614,-0.7861826,-0.1575701
0.6851386,0.003376251,0.09552139,0.2887973,-0.7736062,-0.2369729
0.7092709,0.03595683,0.06788909,0.2480789,-0.7971207,-0.2537231
0.8513099,-0.1170731,0.01728959,0.04912727,-0.7226386,-0.2615527
0.9464016,-0.292302,-0.009246861,0.05189258,-0.697453,-0.2837627
0.9156552,-0.1759926,0.001151601,0.1774838,-0.6407359,-0.229166
0.8933726,-0.07115363,0.08984554,0.5779189,-0.4627608,-0.2733846
0.854414,-0.09370944,0.1394579,0.8334966,-0.3024957,-0.4103126
0.7777997,-0.08208073,0.1566768,0.8158363,-0.2057758,-0.5710423
0.7881573,-0.100338,0.1202638,0.8646395,-0.1560911,-0.5666025
1.146519,-0.1831245,-0.09506865,0.8094089,-0.03062737,-0.3261076
1.693685,-0.2450633,-0.3652731,0.8550345,0.1719415,0.07125295
1.992804,-0.1979219,-0.4259023,0.9474562,0.7440081,0.3789064
1.866271,-0.0990013,-0.1981775,0.9580637,1.353019,-0.1054784
1.473296,-0.01472453,0.1028927,0.9966064,0.7600329,-0.7090685
