accx,accy,accz,gyrox,gyroy,gyroz
1.126807,-0.103637,-0.6586881,0.465989,-0.8517527,0.5451265
1.528011,-0.1029367,-0.7901135,0.4393128,0.1351724,0.3274301
1.874181,-0.08572955,-0.8737318,0.1279266,1.489251,0.05200739
1.56604,-0.0316068,-0.5985181,-0.20217,1.868497,-0.06385651
1.087822,0.01521721,-0.154668,-0.1949972,0.9622597,-0.0162077
1.143177,-0.0319554,-0.1441876,-0.06240758,-0.1345894,-0.04320259
1.012489,-0.1145076,-0.1386221,-0.0684623,-0.6916203,-0.1642586
0.7681453,-0.1077629,-0.03615279,-0.05622854,-0.8953482,-0.1984683
0.9998217,-0.06183745,-0.3135014,0.01236399,-0.6868592,-0.1568302
0.9587093,-0.02893229,-0.3877766,0.0578126,-0.3958905,-0.06803254
0.8205262,-0.001002771,-0.2823097,0.1449392,-0.4253855,0.03466623
0.9212063,-0.02130857,-0.3588461,0.1696576,-0.3991253,0.08149927
0.8022039,-0.0492836,-0.2408456,0.1422562,-0.2950557,0.1114823
0.8830719,-0.06678774,-0.2274758,0.2345328,-0.1355757,0.1306281
0.9860862,-0.08955182,-0.3059,0.3210853,0.2114078,0.1372275
0.8608383,-0.06804268,-0.24627,0.3295035,0.4329611,0.1608462
0.8734574,-0.0532834,-0.2888799,0.2988155,0.4928369,0.1760947
0.7628275,-0.04860721,-0.2115869,0.2601169,0.4060527,0.1824295
0.7270758,-0.01723601,-0.1292692,0.2787395,0.1988303,0.2021862
0.8516371,-0.01510341,-0.1654438,0.2344971,0.154981,0.2262324
0.8846347,-0.01231057,-0.1801973,0.1174187,0.2271311,0.2272168
0.9555347,-0.004499035,-0.2832837,0.001282196,0.286507,0.2233547
0.8989293,-0.01819152,-0.3031607,-0.150271,0.2061657,0.2312522
0.8507192,-0.02666674,-0.2699734,-0.225398,0.02235173,0.2117714
0.9199002,-0.05762115,-0.2757887,-0.1840519,-0.02398446,0.157474
0.9068266,-0.08908737,-0.2557784,-0.1769722,0.03781798,0.07729561
0.9057301,-0.08059215,-0.2592374,-0.2542798,0.1738901,0.03757968
0.881261,-0.04177947,-0.1955246,-0.3188593,0.2364613,0.06471089
0.8523205,0.01471552,-0.1455996,-0.3224194,0.1312482,0.04557157
0.8592436,0.02853579,-0.1501806,-0.2711501,0.003643106,-0.003259767
0.8484168,-0.01483296,-0.1657205,-0.1682256,-0.1886574,-0.04174196
0.8900553,-0.08236535,-0.2688801,-0.1106624,-0.3841877,-0.1309232
0.9918563,-0.195617,-0.4160814,-0.09662594,-0.4873666,-0.2133872
1.186778,-0.3361571,-0.549093,-0.01195705,-0.3689134,-0.2520825
1.405731,-0.4241089,-0.5678398,0.09821423,0.1477146,-0.2919066
1.519786,-0.4348894,-0.5405124,0.09786473,0.6266531,-0.3757253
1.565846,-0.4004923,-0.5008311,-0.01926139,0.5277731,-0.5518097
1.570699,-0.3102146,-0.337459,-0.1281362,0.166782,-0.6608157
1.478512,-0.1462586,-0.2739861,-0.1466357,0.08199762,-0.4524586
1.247892,-0.0163964,-0.31899,-0.04312275,0.06441821,0.0008564149
1.01858,-0.008571654,-0.2752296,0.08415659,-0.04504869,0.4003814
0.8935575,-0.03202547,-0.225803,0.08896561,-0.1002864,0.5655005
0.800078,-0.05270612,-0.207514,0.021232,-0.2083989,0.5480803
0.7416165,-0.1139327,-0.2020645,-0.0544511,-0.2755973,0.510983
0.7411648,-0.1632944,-0.1955508,-0.07914536,-0.3296842,0.4575933
0.7776117,-0.197626,-0.1954331,-0.05398938,-0.3327666,0.330604
0.8273058,-0.2291613,-0.222897,-0.1000569,-0.1421239,0.2104769
0.8795077,-0.2130957,-0.2257475,-0.2152851,0.001419838,0.04116614
0.9005009,-0.1702123,-0.2142735,-0.3630724,0.2097864,-0.1970395
0.8504361,-0.1051717,-0.1936041,-0.5029055,0.3277786,-0.3150337
0.8034633,-0.03806029,-0.1534027,-0.5937743,0.2274097,-0.3551811
0.7930465,-0.03354169,-0.1260814,-0.6133725,0.2679057,-0.3874349
0.7829577,-0.05531754,-0.1173958,-0.510819,0.217985,-0.3474055
0.7652574,-0.0737033,-0.1305284,-0.3897703,0.07395744,-0.3077328
0.7522139,-0.1161089,-0.1380403,-0.3012101,-0.1150767,-0.2925651
0.8108574,-0.1617642,-0.1407572,-0.1677757,-0.4203277,-0.2894216
0.9161198,-0.1803509,-0.1887258,-0.03860371,-0.433821,-0.3144357
0.9662559,-0.1683708,-0.2547055,0.04160605,-0.2434608,-0.3035592
0.9518627,-0.1434056,-0.267313,0.1011421,-0.06684694,-0.2545957
0.9576066,-0.1255349,-0.2331427,0.1889698,0.03413249,-0.2185756
1.015774,-0.1224397,-0.2172541,0.2669231,0.02975458,-0.2388557
1.015957,-0.1198007,-0.2089693,0.2690582,0.1320824,-0.2837629
0.9709945,-0.1020861,-0.1848119,0.30353,0.1927581,-0.2580455
0.9521713,-0.1061321,-0.1776204,0.4249098,0.1606974,-0.2088116
0.9281171,-0.1196986,-0.2025599,0.6000478,0.09987657,-0.1082581
0.9720648,-0.09660976,-0.3006862,0.7733691,-0.2001155,0.1624429
1.137198,-0.07074623,-0.4781477,0.7827566,-0.4390523,0.4632818
1.380264,-0.0507128,-0.6556584,0.6743255,-0.06962441,0.551219
1.553245,-0.04011637,-0.7278807,0.4953953,0.6755817,0.3780421
1.497817,-0.03950433,-0.6025809,0.1100908,1.074808,0.161824
1.326364,-0.02325783,-0.375498,-0.1366348,0.925125,0.06921581
1.176229,-0.04859744,-0.2332254,-0.01273967,0.3180738,0.06875347
1.153606,-0.1078616,-0.2261922,0.07066016,-0.4080512,0.1109466
1.220565,-0.1379786,-0.3316946,0.07481953,-0.4565584,0.06946345
1.127379,-0.137645,-0.4045876,0.04777796,-0.02322768,-0.03237511
0.9695667,-0.09299395,-0.3125681,-0.07887003,0.04483859,-0.1100307
0.8340556,-0.04968399,-0.1945639,-0.02275492,-0.2258083,-0.1568389
0.7005475,-0.04171628,-0.1770295,0.08369175,-0.59568,-0.09943361
0.7343644,-0.04619569,-0.2092265,0.1282519,-0.8627646,-0.06041161
0.803819,-0.06099086,-0.2588845,0.3175069,-0.7862713,0.004382054
0.8493303,-0.06250007,-0.3002677,0.4304542,-0.4291604,0.1572966
0.895792,-0.05539685,-0.2946098,0.4246309,0.07763916,0.1957729
0.8208368,-0.03460462,-0.2429877,0.3832305,0.3303731,0.2519622
0.7933227,-0.009397954,-0.190415,0.2760144,0.1676724,0.3048242
0.800863,-0.01816449,-0.1704924,0.2579771,0.04854861,0.2503173
0.7568083,-0.01930628,-0.1493477,0.2541821,-0.02081711,0.2504081
0.7770531,-0.01718221,-0.149741,0.1591475,-0.1070522,0.2252351
0.7826362,-0.02860535,-0.1901598,-0.003671803,-0.0939791,0.2233101
0.7872485,-0.01739359,-0.1923701,-0.1389496,-0.2650815,0.3009151
0.8442291,-0.005056183,-0.1939483,-0.1245364,-0.422604,0.3244399
0.9192775,-0.008865396,-0.2448378,-0.1779587,-0.2267258,0.3026614
0.997252,-0.02657397,-0.2766685,-0.3493526,0.02937215,0.2127259
1.002765,-0.04709731,-0.2704822,-0.4317393,0.1267096,0.1204581
0.9563079,-0.0442888,-0.233909,-0.4231651,0.03907922,0.0877037
0.8985498,-0.04256202,-0.2082768,-0.3619463,-0.06861067,0.05399029
0.8776888,-0.07373152,-0.245422,-0.2950537,-0.05783973,-0.01224578
0.9171183,-0.1242357,-0.3300994,-0.2584451,-0.1074364,-0.1458567
0.9731633,-0.18479,-0.4551473,-0.3111624,-0.2947824,-0.2782034
1.116059,-0.267855,-0.5571316,-0.3821207,-0.4668183,-0.3506797
1.309072,-0.3447151,-0.5834428,-0.260378,-0.2862487,-0.3380465
1.439131,-0.3683163,-0.5895041,-0.08312595,0.2145885,-0.3277638
1.487386,-0.3535217,-0.5643708,-0.01232606,0.5765454,-0.4458136
1.445743,-0.3135022,-0.4514661,0.01494247,0.6330069,-0.4919798
1.371788,-0.2278324,-0.3113922,0.07127065,0.3460284,-0.3966566
1.268584,-0.1432515,-0.2788489,0.1999662,0.03520308,-0.2465053
1.133629,-0.09172939,-0.3368052,0.2177392,0.0767072,-0.01075814
1.027603,-0.03205249,-0.344416,0.08020138,0.1237358,0.1804704
0.9531763,-0.02451711,-0.3187758,-0.07354247,0.05150241,0.2836944
0.9105459,-0.08791288,-0.3046451,-0.2501248,0.00614598,0.3255078
0.8504964,-0.1141771,-0.258459,-0.3182105,-0.07474774,0.2809351
0.8006146,-0.1253148,-0.2239538,-0.3121206,-0.04942994,0.2437516
0.8049444,-0.1419818,-0.20747,-0.3839306,0.02762032,0.1991521
0.7791613,-0.128523,-0.1791401,-0.4195624,0.04693299,0.09837312
0.7943342,-0.1226474,-0.182176,-0.4796757,0.1598109,-0.02098272
0.8282871,-0.11093,-0.1775919,-0.6014027,0.2554856,-0.1517439
0.7876432,-0.09682372,-0.1515628,-0.6718664,0.2120887,-0.2415106
0.7824411,-0.09941724,-0.1430968,-0.699407,0.09435308,-0.2362936
0.769757,-0.1032634,-0.1297727,-0.6028595,-0.1359042,-0.1850983
0.7453992,-0.1260619,-0.1452559,-0.4173548,-0.3656789,-0.1493469
0.7837936,-0.1335433,-0.1757701,-0.2453732,-0.3756573,-0.1334347
0.8268251,-0.141655,-0.1889209,-0.05849229,-0.2699277,-0.1671959
0.8992479,-0.1783402,-0.2373035,0.03281109,-0.1820699,-0.2369089
0.9572466,-0.184435,-0.2698707,0.05540814,-0.04169143,-0.2652338
0.9592629,-0.1777652,-0.2529505,0.1372142,0.09810735,-0.2534022
0.9574407,-0.153759,-0.2388777,0.1602049,0.1422434,-0.2346748
0.944571,-0.1036025,-0.2100828,0.1488768,0.1332815,-0.2242439
0.9445213,-0.08866994,-0.1778417,0.2014097,0.1448827,-0.1832636
0.9304434,-0.08324681,-0.18455,0.2338039,0.1988346,-0.0948573
0.889841,-0.07068404,-0.2018323,0.3154164,0.1813285,0.001862976
0.8932344,-0.07248687,-0.2294227,0.4681236,-0.09103031,0.1894962
0.9952406,-0.06525048,-0.3469509,0.5101164,-0.5202622,0.448764
1.209158,-0.06428413,-0.546117,0.4471961,-0.4935532,0.5311185
1.417697,-0.1043399,-0.6800924,0.3229461,0.3184901,0.3571914
1.553189,-0.126136,-0.6582258,0.1229585,1.01678,0.1295531
1.608688,-0.03403092,-0.5577563,0.006967358,0.7723811,0.04665707
1.515909,0.07672505,-0.4908259,-0.0004490602,0.3896191,0.1087436
1.35643,0.04889125,-0.4469291,-0.1082649,0.4735588,0.156064
1.211267,-0.0390168,-0.3696478,-0.2534618,0.3481099,0.08353989
1.017495,-0.1060016,-0.2288476,-0.2566425,-0.01313588,-0.02756697
0.8391337,-0.1556058,-0.09506081,-0.197211,-0.4773325,-0.1301537
0.7982879,-0.1042652,-0.1237454,-0.0869171,-1.004794,-0.1814772
0.8096328,-0.01637609,-0.2384273,0.05277434,-0.9611703,-0.0995299
0.7863461,-0.002590198,-0.2907134,0.07497087,-0.8257394,-0.03128723
0.8590484,-0.0008655853,-0.3064036,0.06453987,-0.7278789,0.004645731
0.9882287,-0.004984719,-0.2919412,0.1007316,-0.08866085,0.08137538
0.9684972,0.002333751,-0.2746346,0.08893528,0.319809,0.0823976
0.8799386,0.02647226,-0.2479115,0.01978903,0.4153692,0.1210623
0.8340704,0.01469595,-0.1819311,-0.04758816,0.4568204,0.2212853
0.8310939,0.03275387,-0.1629685,-0.0718515,0.2482414,0.2507772
0.882789,0.07002284,-0.1986022,-0.07449202,0.2723008,0.29323
0.8835997,0.09573021,-0.257867,-0.2037487,0.5159464,0.3055629
0.7973388,0.1322129,-0.2893904,-0.5806005,0.7547712,0.2788735
0.6905845,0.1196107,-0.2079287,-0.9927271,0.6988923,0.3093846
0.6402393,0.07176877,-0.1079195,-1.092645,0.2320183,0.3623542
0.6965146,0.01537491,-0.09966463,-0.9370393,-0.03868417,0.4276026
0.7761436,-0.05197742,-0.1487532,-0.8775125,-0.04712226,0.4384049
0.8651748,-0.1041118,-0.1745871,-0.9288619,0.1142412,0.4104762
0.9089396,-0.1122046,-0.1569019,-0.8471981,0.2134716,0.4516737
0.8889843,-0.09319385,-0.1487958,-0.6861223,0.1165913,0.4594552
0.9480643,-0.1399385,-0.1479728,-0.5542964,0.2136635,0.3773033
0.9426052,-0.1636744,-0.1498851,-0.442736,0.2802411,0.2393599
0.8459296,-0.1188902,-0.194889,-0.4143251,0.1692736,0.03967802
0.8357423,-0.1208387,-0.2940382,-0.4273727,-0.2725203,-0.1124309
0.8961882,-0.1178647,-0.4048094,-0.4269073,-0.935965,-0.1415177
1.215946,-0.1990891,-0.5240682,-0.4123917,-0.8506401,-0.09466572
1.711059,-0.3953616,-0.7219334,-0.370626,-0.2518925,-0.06080208
1.835469,-0.4477095,-0.809837,-0.340717,0.2201593,-0.07514071
1.62179,-0.3361117,-0.6289064,-0.3249833,0.6329579,-0.01941647
1.489223,-0.204376,-0.4676879,-0.3030219,0.6848284,0.1066892
1.367736,-0.1075314,-0.3694108,-0.2759912,0.3378577,0.2182013
1.117186,-0.0262827,-0.2199648,-0.3272233,-0.03881909,0.360495
1.01546,-0.005531111,-0.2248173,-0.4705218,-0.1178973,0.4890961
1.042728,-0.07613263,-0.2837989,-0.5851338,0.0607418,0.5713756
0.9863079,-0.09211715,-0.2412142,-0.7007616,0.05202884,0.6366927
0.9683607,-0.0996848,-0.257445,-0.8021391,-0.05444517,0.564982
0.9335656,-0.1513015,-0.2686162,-0.8333772,-0.0622041,0.4040509
0.8542012,-0.1468698,-0.2322882,-0.8581537,-0.03825072,0.3498974
0.830462,-0.1372894,-0.2260264,-0.8855985,0.06581916,0.3329486
0.7784339,-0.1071639,-0.1919978,-0.9701586,0.07321836,0.3086449
0.7560427,-0.05975625,-0.1762365,-1.08592,0.004693988,0.3318661
0.7729032,-0.05712557,-0.1893609,-1.152892,0.01238312,0.3182293
0.7787575,-0.06937403,-0.1871735,-1.241778,0.006361956,0.2901639
0.820869,-0.102257,-0.2061026,-1.307233,0.0644588,0.268578
0.8261136,-0.1207371,-0.1982497,-1.251896,0.0972283,0.228093
0.7957151,-0.1356484,-0.163357,-1.147919,-0.008897158,0.2509354
0.7930857,-0.1728367,-0.1407042,-1.062175,-0.1390937,0.2611658
0.8416211,-0.2009589,-0.1236698,-0.9417158,-0.2045358,0.207009
0.9435553,-0.2379076,-0.1445194,-0.7922771,-0.1020653,0.1392011
1.004645,-0.2426096,-0.1763049,-0.7107375,0.03123893,0.04883032
1.005847,-0.2176335,-0.2001138,-0.7146901,0.1264194,0.02887914
0.9989173,-0.1985605,-0.2090409,-0.7398857,0.2725565,0.06417215
0.9914899,-0.1662305,-0.1688083,-0.7345689,0.4072625,0.06352935
0.9644696,-0.1369695,-0.1369517,-0.7647544,0.5600985,0.07867675
0.8917108,-0.1050814,-0.1316944,-0.8422873,0.6683263,0.1135499
0.7865628,-0.07665933,-0.1402383,-0.9020748,0.6984018,0.1554827
0.6695727,-0.03225511,-0.1859163,-0.9590055,0.5707765,0.2169807
0.625264,0.02748328,-0.2896768,-0.9121404,-0.3028673,0.3770059
0.7899386,0.02113329,-0.5037527,-0.7079897,-1.828424,0.7590483
1.260669,-0.05335042,-0.7523121,-0.3077514,-2.017636,1.025707
1.866671,-0.2025826,-0.9411449,0.02663714,0.5725925,0.6959069
2.009004,-0.3119256,-1.00723,-0.4892398,3.08613,0.1171604
1.652258,-0.1614848,-0.7712857,-1.25734,2.322419,-0.1389056
1.343401,0.05593021,-0.3637447,-1.132164,0.5952942,-0.1319993
1.006593,0.04206893,-0.1584354,-0.9653493,-0.09170779,-0.09092919
0.795199,-0.1075924,-0.1847639,-1.169027,-0.8562153,-0.1307637
0.9644107,-0.2204554,-0.2253896,-1.038359,-0.7184394,-0.1664487
0.9474922,-0.1963142,-0.1937193,-0.8877023,-0.1250952,-0.1193448
0.836821,-0.05042607,-0.1930626,-0.7737705,-0.4174995,-0.09871988
0.8644337,0.06856371,-0.2179072,-0.6346272,-0.2208184,-0.001528145
0.7395477,0.1180099,-0.2062451,-0.7605323,-0.3544381,0.09560644
0.7622155,0.06213469,-0.2344102,-0.742741,-0.7757162,0.06752475
0.8843905,-0.03787928,-0.2592497,-0.6523002,-0.218628,0.08677131
0.8968013,-0.05467356,-0.2474135,-0.6146022,-0.06335073,0.08871224
0.9792075,-0.07437579,-0.2483165,-0.3693701,0.06150644,0.1149923
0.9593202,-0.07155059,-0.2329973,-0.2615096,0.2980539,0.1981976
0.9241973,-0.04698434,-0.2295031,-0.2223881,0.221552,0.1767779
0.9274169,-0.07486533,-0.2093633,-0.1150898,0.4863926,0.1443287
0.8310857,-0.05314301,-0.1573096,-0.1522323,0.3735326,0.1046703
0.8256522,-0.03675303,-0.1446929,-0.1422391,0.2687556,0.0752478
0.8427611,-0.01734932,-0.1490366,-0.07958793,0.2743308,0.1093636
0.8202863,0.04267621,-0.1862453,-0.07047078,0.04536343,0.114278
0.8050486,0.02804307,-0.2416971,-0.1568681,0.2071091,0.1261454
0.7461839,0.0150324,-0.2405632,-0.3828822,0.1156461,0.1413861
0.7628932,0.01365807,-0.2150592,-0.5047022,-0.06400724,0.1416208
0.8515466,-0.0177297,-0.1795882,-0.4501733,-0.03430168,0.1314768
0.9326287,-0.03602338,-0.133091,-0.4069756,-0.05287705,0.1096054
0.9504377,-0.05051697,-0.1345757,-0.4235094,0.1803708,0.1418508
0.9194351,-0.03094844,-0.1412526,-0.4079375,0.2397529,0.1596552
0.9541386,-0.008966106,-0.07366489,-0.361413,0.2081591,0.09779911
0.9544769,0.01748198,-0.03334619,-0.3125916,0.1407128,-0.01870434
0.9071531,0.0526684,-0.06693736,-0.2036414,-0.1479193,-0.1500341
0.8737457,0.02582602,-0.1334783,-0.08874557,-0.3477422,-0.1831568
0.8216176,-0.005498955,-0.3360056,0.008521401,-0.8293108,-0.09667495
0.935216,-0.08250467,-0.6350204,0.09079972,-1.332986,-0.028421
1.292584,-0.3100724,-0.8436452,0.1827376,-1.035216,-0.09193921
1.650355,-0.5526431,-0.9126457,0.3005911,0.1356292,-0.252726
1.694512,-0.5906646,-0.8477915,0.2020852,1.072681,-0.3783671
1.475577,-0.4017491,-0.6762165,0.07540675,0.2485934,-0.3155642
1.410118,-0.2060708,-0.5317483,0.2785326,-0.7839329,-0.1053123
1.438606,-0.1491275,-0.5572578,0.4062222,-0.1058023,0.06885953
1.31023,-0.1554811,-0.586854,0.2552431,0.5012192,0.2125241
1.112099,-0.1249489,-0.4032783,0.1815885,0.4913526,0.2846241
0.8773917,-0.06141602,-0.1959794,0.2270714,0.6599003,0.3189182
0.6933533,-0.04661471,-0.115108,0.2339797,0.2270038,0.4535293
0.6031035,-0.08561372,-0.1070008,0.2329846,-0.08518215,0.4941903
0.5673965,-0.1309162,-0.1488522,0.2630938,-0.1314477,0.4346412
0.6611006,-0.1693101,-0.17566,0.229543,-0.5793439,0.3267557
0.8259286,-0.1853796,-0.2376298,0.1527777,-0.429903,0.05117953
0.9833523,-0.187802,-0.3433122,0.1153959,-0.1560032,-0.1380273
1.014804,-0.1703459,-0.3463617,0.06315885,0.03372006,-0.1833701
0.9169079,-0.1162192,-0.2715763,0.03484926,0.3414154,-0.2481187
0.9107048,-0.07298109,-0.2060508,0.0517382,0.04724839,-0.2849477
0.9323976,-0.07679804,-0.1882331,0.01889327,0.04776842,-0.3234312
0.9192769,-0.0868694,-0.1988385,-0.08398876,0.292189,-0.3451187
0.9253721,-0.07047766,-0.1874586,-0.275688,0.3369678,-0.357696
0.8610569,-0.06241801,-0.1750857,-0.4338789,0.5109583,-0.3986511
0.7491818,-0.07972524,-0.1226681,-0.3862725,0.2656155,-0.3997672
0.6577921,-0.123981,-0.06427989,-0.2222931,-0.08331259,-0.3799068
0.6405291,-0.1887243,-0.09575073,-0.04074696,-0.4361519,-0.3564311
0.6889653,-0.200728,-0.1482106,0.09178701,-0.7768453,-0.3476653
0.7609192,-0.1752266,-0.1950358,0.1573008,-0.6037598,-0.4001576
0.9095034,-0.1773638,-0.2628042,0.3121566,-0.2474899,-0.4945318
0.9851645,-0.1532266,-0.2827078,0.4392142,0.2569219,-0.5510012
0.9119696,-0.1066683,-0.2332601,0.3833538,0.4122674,-0.518719
0.8974636,-0.0826257,-0.1814931,0.3779117,0.05933735,-0.4771829
0.9275357,-0.05766209,-0.1705578,0.4411792,0.0529956,-0.4414887
0.9089084,-0.05458176,-0.1977486,0.4526573,0.1466791,-0.3648559
0.8973481,-0.06901781,-0.23389,0.522609,0.1222398,-0.2741098
0.9122129,-0.06591324,-0.2822247,0.6799133,-0.06743735,-0.0784797
1.033018,-0.06005306,-0.4299595,0.8569965,-0.8296102,0.2950249
1.355008,-0.06299804,-0.7012669,0.9428849,-1.320209,0.5959272
1.727367,-0.1109465,-0.9234512,0.8891091,-0.2431079,0.5131974
1.857642,-0.1494736,-0.8975215,0.6186498,1.666032,0.1119432
1.649649,-0.05757716,-0.6454094,0.1505999,2.226312,-0.2468787
1.302872,0.04140333,-0.3178055,-0.007328645,1.328644,-0.2882397
1.024883,-0.003367009,-0.07698224,0.09124855,0.3835119,-0.1321761
0.8906326,-0.07410207,-0.06984713,0.04700611,-0.4019916,-0.1276964
0.9097999,-0.1235241,-0.1706862,0.1739663,-0.8585127,-0.2202875
0.9108804,-0.1845211,-0.214791,0.3687141,-0.7432796,-0.241726
0.8349612,-0.1355933,-0.2563407,0.4627556,-0.6218538,-0.2820195
0.8167397,-0.03075549,-0.264546,0.6189402,-0.6780288,-0.2377465
0.7938447,0.00404777,-0.2558784,0.5864655,-0.6689966,-0.1435726
0.8046386,0.02982385,-0.284984,0.5521194,-0.6412987,-0.1143476
0.9011867,0.02680684,-0.2977765,0.5915011,-0.493642,-0.02019446
0.9390683,0.01407416,-0.3152771,0.4911953,-0.06529955,0.04090502
0.9683123,0.01656531,-0.2982018,0.4740125,0.3124265,0.06039599
0.9931715,-0.01322712,-0.2541143,0.427123,0.4683031,0.09721628
0.9274401,0.003757432,-0.2366998,0.3811332,0.4510272,0.07468554
0.8266043,0.02056672,-0.1800658,0.4199182,0.2974728,0.07796848
0.7693092,-0.00482555,-0.1610997,0.304935,0.2726321,0.06263721
0.7784935,0.0002570282,-0.1888377,0.1899478,0.2852753,0.03275425
0.7649594,-0.005045287,-0.1621864,0.1328244,0.2276548,0.04871333
0.7419968,0.005925783,-0.1525808,0.07656715,0.1572686,0.05712988
0.7397663,0.03190665,-0.1656353,-0.002609329,0.01793191,0.1310346
0.7277961,0.02396833,-0.1635595,-0.1014158,-0.06375473,0.1877109
0.7564595,0.01007355,-0.1775417,-0.05457292,-0.1712862,0.1686639
0.7873747,-0.02112925,-0.1847256,-0.01931154,-0.2247529,0.1600262
0.8515888,-0.04115293,-0.1831956,-0.01167742,-0.06972114,0.1016098
0.9221385,-0.03821582,-0.1951722,0.06065059,0.06986729,0.01135961
0.8905493,-0.0385252,-0.214947,0.01092904,0.1718386,-0.02716082
0.9104287,-0.04032402,-0.2539211,-0.05437785,0.05400478,-0.03807904
1.050852,-0.08104369,-0.347578,-0.04796433,-0.3833722,-0.1242267
1.275591,-0.1804853,-0.4951145,-0.05178524,-0.6463637,-0.2896916
1.551426,-0.3268438,-0.6495049,0.02075935,-0.2628082,-0.4273367
1.682697,-0.4206391,-0.7349748,0.1581717,0.4353128,-0.4787641
1.57165,-0.3609602,-0.6099436,0.2790627,0.4994325,-0.3918696
1.420776,-0.2622426,-0.3711818,0.4045033,0.0770061,-0.2766498
1.423906,-0.2098275,-0.3330296,0.5057337,-0.1090023,-0.2010034
1.366545,-0.143985,-0.3968505,0.5190384,-0.07653347,-0.0295775
1.176602,-0.1038754,-0.3675351,0.4928011,0.04077675,0.1260889
1.073447,-0.1092094,-0.3347567,0.4704948,0.07020342,0.1671432
0.9459655,-0.1033564,-0.2739095,0.4407181,0.08716271,0.2038815
0.8086577,-0.1102506,-0.2044873,0.3892463,0.01522493,0.2093434
0.7816171,-0.1201197,-0.1970129,0.3066209,-0.3085735,0.1738341
0.7731232,-0.1201919,-0.197133,0.2515805,-0.347212,0.1315372
0.8198232,-0.1334877,-0.2303168,0.1642376,-0.2080459,0.04221147
0.8542605,-0.1310095,-0.262033,0.01978248,-0.1627398,-0.03135489
0.8317493,-0.1229949,-0.2458258,-0.02882484,-0.01873913,-0.0234428
0.8313209,-0.1031571,-0.2270996,-0.09166043,0.03644717,-0.02746095
0.8110041,-0.06772635,-0.1888805,-0.2092846,0.03569401,-0.07192224
0.7980337,-0.06142368,-0.1366973,-0.2208573,0.01404128,-0.09063014
0.8085054,-0.06674929,-0.1182937,-0.2775455,-0.003091263,-0.1585395
0.8190871,-0.07587686,-0.1305155,-0.3678295,0.01621276,-0.2843825
0.8089051,-0.09563974,-0.1162495,-0.3210374,-0.1292152,-0.3065925
0.7708983,-0.1193604,-0.09497169,-0.2423959,-0.3315366,-0.2331381
0.7609496,-0.1381487,-0.1227745,-0.08001388,-0.5749457,-0.1568959
0.7854679,-0.1423532,-0.1612371,0.1587154,-0.6546417,-0.1312148
0.8776769,-0.1692131,-0.205378,0.2783583,-0.3968282,-0.2380382
0.9855326,-0.2206186,-0.2313876,0.3957717,-0.1599273,-0.371908
1.003931,-0.2458005,-0.2071615,0.5492589,-0.02833576,-0.3757551
0.9906913,-0.2013854,-0.1981013,0.5710504,-0.006761119,-0.3396283
0.9907309,-0.121842,-0.2061006,0.5595074,0.08937031,-0.3339919
0.9667471,-0.08582025,-0.2026353,0.5988616,0.357471,-0.2694676
0.892237,-0.07074979,-0.204019,0.5995466,0.4216465,-0.1793512
0.8356701,-0.06247128,-0.2099205,0.644203,0.2817917,-0.1246603
0.8505789,-0.05687486,-0.2475615,0.7619244,-0.1469755,0.04837145
0.9335493,-0.02026464,-0.3632419,0.8097022,-0.8311459,0.3628614
1.134559,-0.02007699,-0.541573,0.7897358,-0.9331699,0.5290876
1.449177,-0.08683176,-0.7345923,0.7095447,-0.1299068,0.4067299
1.775148,-0.1413259,-0.8599046,0.5537474,0.8479826,0.1250169
1.809061,-0.1102509,-0.765464,0.3190484,1.167588,-0.1731327
1.467166,-0.01403987,-0.5131231,0.01541506,0.7134726,-0.2508748
1.203037,0.02741791,-0.3454699,-0.1061198,0.2143643,-0.1107061
1.141445,-0.03862104,-0.2686773,-0.04393121,0.0170746,-0.121923
1.069585,-0.110649,-0.2408953,-0.05131246,-0.2778269,-0.1701742
1.015569,-0.06267989,-0.278082,-0.02661553,-0.3987296,-0.08675701
0.995505,0.001238773,-0.3008542,0.05461836,-0.1509377,-0.06451609
0.9449974,-0.02252566,-0.2848624,0.06953943,-0.1104704,0.01684141
0.8588868,-0.005437282,-0.2415721,0.07248613,-0.1919074,0.07490718
0.8050772,0.006874902,-0.199271,0.05690927,-0.1978585,0.03603326
0.804038,-0.02075103,-0.1871854,0.02865912,-0.2134756,0.1337052
0.8070381,-3.79127e-05,-0.2014109,0.06134155,-0.1797386,0.1935513
0.8212032,-0.01453417,-0.2332197,0.1199231,-0.1896366,0.2213304
0.8550003,-0.02924547,-0.2294208,0.1517111,-0.07139548,0.2891625
0.9153668,-0.01553255,-0.2220917,0.1678738,0.1917294,0.2479473
0.9370933,-0.01880538,-0.2152263,0.1223923,0.4067862,0.2515056
0.893668,0.02711251,-0.1743199,-0.01622008,0.6096346,0.2815637
0.8559415,0.06729772,-0.1630298,-0.1711317,0.7091713,0.2863657
0.7796916,0.08414682,-0.1451864,-0.3367771,0.7448576,0.3501326
0.703961,0.1039853,-0.1046316,-0.5244896,0.7139918,0.3754313
0.6911147,0.09654564,-0.0843648,-0.7127498,0.5271222,0.3899436
0.6818414,0.09656791,-0.08344675,-0.8752818,0.2336253,0.4496108
0.7388147,0.07605956,-0.1038364,-0.9517265,0.0004418803,0.5516814
0.9333609,0.0262359,-0.1082618,-0.9933888,0.1443585,0.6278273
1.145742,-0.01959213,-0.1161323,-1.054075,0.5211517,0.5478341
1.155943,-0.04084608,-0.1009312,-1.143239,0.8230009,0.4137517
0.99019,-0.03461063,-0.01286413,-1.211135,0.835442,0.2890064
0.8748244,-0.07054287,0.04830177,-1.090637,0.440656,0.1275568
0.8102046,-0.1161567,-0.01297455,-0.7921498,0.03043186,-0.009240756
0.7771571,-0.1399756,-0.2226126,-0.417237,-0.4946097,-0.1540297
0.8635448,-0.2071305,-0.4896188,-0.1042065,-1.408753,-0.317526
1.148231,-0.3715263,-0.720299,0.01507212,-1.838493,-0.3993495
1.550126,-0.5692308,-0.8713386,0.05421274,-0.8215335,-0.421639
1.643601,-0.5503655,-0.849388,-0.0753071,0.502946,-0.4458767
1.511455,-0.3973731,-0.7580298,-0.4056594,0.3032019,-0.4357674
1.597947,-0.2177345,-0.6818476,-0.6397795,-0.1633972,-0.2732787
1.624015,0.1480977,-0.5481194,-0.8883775,0.217265,0.08724729
1.469575,0.2417259,-0.5435189,-1.188526,0.3996048,0.4893871
1.337635,0.004932766,-0.6068607,-1.293562,0.8219008,0.7431088
1.121623,-0.01733537,-0.4170473,-1.289323,1.033939,0.7367381
0.9440017,-0.1460242,-0.2110019,-1.257691,0.3503963,0.599277
0.8612677,-0.3329996,-0.1631648,-1.264216,0.09105774,0.579265
0.8186927,-0.2498226,-0.1605679,-1.281707,0.06975257,0.602179
0.8585123,-0.2739698,-0.2285758,-1.191152,0.03894874,0.5710293
0.8381448,-0.2505963,-0.2388849,-1.125569,0.09514347,0.5057551
0.8402682,-0.1140875,-0.2326935,-1.054134,-0.1356623,0.3870434
0.8674279,-0.1336067,-0.2617354,-0.9705001,-0.05395505,0.3468956
0.8174092,-0.1360751,-0.2234348,-0.9188391,0.04530483,0.3529218
0.8286325,-0.1393419,-0.2278981,-0.8289154,0.02458779,0.2846838
0.8206542,-0.1375148,-0.2038815,-0.8519207,0.1524382,0.2194338
0.816597,-0.100708,-0.1706807,-0.9148084,0.06063832,0.129359
0.8671913,-0.1108191,-0.2050791,-0.9588224,0.1747218,0.03336795
0.8600131,-0.08482412,-0.1806537,-1.071617,0.3351792,-0.022163
0.8740743,-0.08541915,-0.1723025,-1.118584,0.3101988,-0.09222359
0.8600964,-0.1005795,-0.1471782,-1.151732,0.3549242,-0.121461
0.8141327,-0.09839406,-0.102133,-1.126158,0.1965023,-0.08825623
0.8157111,-0.1239102,-0.1228588,-0.9904753,0.04257753,-0.02585319
0.818129,-0.1195302,-0.1303994,-0.8840174,-0.009045443,0.01547228
0.8564091,-0.1339521,-0.1557417,-0.7474983,-0.005544228,-0.008668321
0.8813671,-0.145347,-0.1685343,-0.6785015,0.05479504,-0.03072252
0.8884275,-0.133183,-0.1526893,-0.6756708,0.02184355,-0.03603146
0.9114276,-0.1413055,-0.1419663,-0.5580053,0.1122704,-0.04422811
0.9051991,-0.1329582,-0.09868119,-0.434951,0.1521144,-0.06185834
0.9134661,-0.1560708,-0.08249341,-0.3401218,0.1109454,-0.1407178
0.9081993,-0.1984803,-0.05587933,-0.2339347,0.1781923,-0.2492693
0.8887434,-0.2029442,-0.02271005,-0.1059219,0.1592789,-0.2861444
0.8505532,-0.1745155,-0.06644628,0.02670685,0.2084256,-0.2407365
0.7597519,-0.1272479,-0.1087379,0.1077545,0.21255,-0.165092
0.8049553,-0.1164628,-0.1798817,0.3939411,-0.3608081,0.03447139
1.074525,-0.1106872,-0.3957105,0.8076886,-1.594787,0.3969339
1.382563,-0.1058544,-0.6736038,0.8985171,-2.084331,0.557868
1.599922,-0.189615,-0.8894026,0.7946019,-0.1320011,0.2578658
1.788793,-0.2502069,-1.015399,0.5065799,1.837639,-0.1209216
1.787405,-0.1028864,-0.8085554,0.05950638,0.883095,-0.1621985
1.473053,0.06457603,-0.3425615,0.04018885,-0.2343083,-0.0157708
1.277129,-0.01284206,-0.3038902,0.1062506,0.1070187,0.01555755
1.225467,-0.13794,-0.442926,-0.1079687,-0.1668044,-0.1637376
1.096369,-0.1775506,-0.2652952,0.06267525,-0.3326641,-0.4051633
0.9899292,-0.2180815,-0.2342802,0.3618813,-0.1742673,-0.4607745
0.8124647,-0.1571194,-0.237363,0.4568527,-0.5425435,-0.4398911
0.7304089,-0.07597684,-0.1319762,0.6674421,-0.4479903,-0.4766747
0.7644989,-0.04445262,-0.1928223,0.6931831,-0.6172459,-0.4450686
0.7273235,0.0242351,-0.1962669,0.6605575,-0.8573856,-0.39248
0.7951302,0.01993348,-0.220321,0.7343749,-0.3934258,-0.3173765
0.8214659,0.008120675,-0.2587435,0.6697816,-0.3017767,-0.1881579
0.8272703,0.03284059,-0.1760302,0.7249624,-0.05993551,-0.147792
0.8818745,0.002749631,-0.1647923,0.7629036,0.1754791,-0.1252197
0.8195106,0.003715434,-0.1071248,0.7094085,0.06952022,-0.0369977
0.8299483,-0.002403993,-0.06953295,0.750857,0.2166788,0.005638453
0.8324209,-0.01139248,-0.1074678,0.6820208,0.1504037,-0.01765639
0.799068,0.02009982,-0.09361407,0.5600597,0.2954798,-0.02516293
0.8301034,0.03399686,-0.1281157,0.4027662,0.4065011,0.01090827
0.8082019,0.08969457,-0.1393714,0.2777713,0.06697743,0.0459186
0.8400968,0.121803,-0.1575472,0.2127366,-0.002161363,0.08536847
0.8822594,0.07007216,-0.211351,-0.05159894,0.05758231,0.09684858
0.9261174,0.02748994,-0.2010437,-0.2765336,0.2128511,0.03360292
0.986987,0.02103042,-0.1894908,-0.3265082,0.2198201,-0.004703035
0.9445103,0.03197777,-0.1636757,-0.329019,0.07504877,0.005974991
0.9334029,0.00493424,-0.1674031,-0.2207212,0.09629886,-0.02756685
0.8903671,-0.04856591,-0.2097365,-0.05732353,-0.05555438,-0.1458142
0.7642118,-0.1009186,-0.2396769,0.1043296,-0.209814,-0.2966905
0.7521672,-0.1574155,-0.311023,0.176715,-0.5756443,-0.3975675
0.9167028,-0.200993,-0.3855252,0.2043543,-1.057689,-0.4185594
1.254582,-0.2703075,-0.5040371,0.3369032,-0.9924952,-0.3272644
1.59571,-0.3402325,-0.670347,0.4591583,-0.5949954,-0.2443877
1.766719,-0.3658357,-0.7145054,0.517436,0.03458188,-0.3259821
1.753317,-0.3352862,-0.6079199,0.5889089,0.5425733,-0.3837079
1.596281,-0.2326227,-0.4374223,0.652901,0.5874936,-0.2733468
1.386647,-0.1119179,-0.2820467,0.6838116,0.3612706,-0.1190073
1.162011,-0.007314801,-0.2155266,0.7256197,-0.01099975,0.0480859
1.022291,0.01427281,-0.237675,0.6621733,-0.08014134,0.2023733
0.9685436,-0.04592722,-0.2307986,0.453601,0.06057014,0.2635209
0.8504739,-0.0796232,-0.1938079,0.3518735,0.01124875,0.285243
0.7359094,-0.1172912,-0.197906,0.3054032,-0.1712244,0.2809127
0.7304227,-0.1434601,-0.1721014,0.2733816,-0.4413481,0.2105239
0.7766992,-0.1479178,-0.1830014,0.3227272,-0.4809475,0.1145261
0.7867001,-0.1871106,-0.2379507,0.2800839,-0.2997392,-0.002909411
0.7764172,-0.1731745,-0.2077427,0.2759323,-0.1944589,-0.1002353
0.7872715,-0.1286946,-0.1814602,0.316948,-0.07920187,-0.1429635
0.7788418,-0.1124256,-0.1627806,0.2863384,-0.01940149,-0.1800296
0.7940686,-0.08979974,-0.1297855,0.3234074,0.000432554,-0.2226049
0.8273944,-0.1037607,-0.1303412,0.2974926,0.05281189,-0.3231172
0.8316185,-0.1172126,-0.09860295,0.2685645,-0.001286274,-0.4229321
0.8645517,-0.1185836,-0.0992998,0.3873319,-0.08614231,-0.4018871
0.9038903,-0.1472195,-0.1448283,0.531857,-0.1386739,-0.3711171
0.9333889,-0.1479467,-0.1726374,0.6679441,-0.128202,-0.3903773
0.9432564,-0.1541868,-0.2093815,0.6839794,0.05093367,-0.4098537
0.9124495,-0.1711162,-0.1852553,0.6698218,0.2362331,-0.4371835
0.8907391,-0.1575407,-0.1415132,0.7610155,0.2514822,-0.4316469
0.8597775,-0.1549353,-0.149097,0.8521524,0.1799584,-0.3872448
0.8326793,-0.1338022,-0.1522515,0.9528346,0.1750213,-0.3725611
0.8394375,-0.09699455,-0.1670076,0.9647335,0.248523,-0.4023982
0.8337324,-0.0952055,-0.1671576,0.9147277,0.300169,-0.4289987
0.8034841,-0.08770699,-0.1600079,0.9818217,0.3009674,-0.3913403
0.7502107,-0.06351894,-0.197055,1.102113,0.03496447,-0.2173395
0.7746652,-0.05693169,-0.2453787,1.230417,-0.8236674,0.1413498
1.085004,-0.07442974,-0.4057676,1.280659,-1.48116,0.4132514
1.610476,-0.1110228,-0.712341,1.214307,-0.5236863,0.2173925
1.88535,-0.1353028,-0.840145,0.9781763,0.8999178,-0.1218237
1.77509,-0.06420641,-0.6016541,0.6133806,0.7580332,-0.163223
1.638461,0.07854941,-0.3754261,0.6132849,0.2859912,-0.09925703
1.502425,0.1035082,-0.4165804,0.6414172,0.424899,-0.07237827
1.307542,-0.02738946,-0.414881,0.2216032,0.2944441,-0.1987891
1.173018,-0.1424019,-0.2623579,0.09047555,0.1951173,-0.4445656
0.9855458,-0.1304382,-0.1498799,0.2166293,-0.06443751,-0.4564128
0.8426917,-0.06391,-0.1376217,0.2212523,-0.5169274,-0.3744309
0.8101019,-0.03821152,-0.1879328,0.4193982,-0.5274462,-0.30428
0.7295401,-0.01629553,-0.1897711,0.5475289,-0.6095925,-0.1513511
0.7728624,-0.01410167,-0.1992964,0.5486736,-0.5918828,-0.08825841
0.8468792,-0.03213331,-0.2446165,0.5999866,-0.4136859,-0.05267445
0.8371242,-0.009275627,-0.2044422,0.5590969,-0.4478581,-0.009530262
0.918176,-0.015095,-0.1913885,0.571585,-0.3340431,0.01217204
0.9260882,-0.02704276,-0.2104086,0.5998374,-0.2848914,0.07073424
0.9065377,-0.02284155,-0.1888506,0.5946047,-0.1887643,0.07515722
0.9141813,-0.06052034,-0.1870182,0.6036722,0.02937022,0.06253017
0.8172734,-0.06240008,-0.1443032,0.5735393,-0.01498455,0.04961669
0.7905183,-0.03715192,-0.1091955,0.6220678,-0.05660852,0.02238284
0.7797887,-0.01433955,-0.1345158,0.6510385,-0.1122646,0.04735831
0.7593591,0.02341691,-0.1530332,0.5668594,-0.1326012,0.06906235
0.8217221,0.03068438,-0.1709913,0.4256069,-0.00838859,0.07259308
0.8491476,0.0428139,-0.1575339,0.2404719,0.07161022,0.0862626
0.8777093,0.05998681,-0.1362972,0.1250368,0.1556626,0.1106645
0.8911227,0.06569216,-0.1452609,0.04212463,0.06457234,0.1215261
0.8957854,0.07458752,-0.1442259,-0.03396612,-0.07726991,0.07826939
0.9271852,0.02692903,-0.1532762,-0.03252104,-0.02187238,0.002329173
0.9172707,-0.05043499,-0.172129,0.02380962,0.06707388,-0.0940823
0.9242823,-0.07262439,-0.1673446,0.1694722,0.1583741,-0.1967325
0.8514575,-0.06541018,-0.1663205,0.3383317,0.07246521,-0.2752344
0.7067231,-0.1083239,-0.2156291,0.3728962,-0.2168536,-0.3230093
0.7162813,-0.1850946,-0.3124619,0.328368,-0.5851588,-0.3820659
0.9372003,-0.2474819,-0.4120833,0.3388582,-0.8722617,-0.4621326
1.363784,-0.3170076,-0.5062974,0.3372417,-0.4700544,-0.5073519
1.738465,-0.3334362,-0.6408189,0.2440625,0.295907,-0.633201
1.787168,-0.2564776,-0.7042504,0.1565748,0.526677,-0.8011854
1.690348,-0.1863095,-0.5264809,0.1776117,0.4870632,-0.6970411
1.623321,-0.1497202,-0.3233442,0.4003709,0.4688495,-0.4116989
1.460005,-0.08345715,-0.2839576,0.7300973,0.3558237,-0.1219269
1.221355,-0.01307752,-0.2483053,0.8286751,0.2575877,0.1565878
1.112008,-0.02152486,-0.2072097,0.6591335,0.1966303,0.2065576
1.004284,-0.04007448,-0.197327,0.4528209,0.185515,0.1902245
0.8466037,-0.01138219,-0.1799079,0.2567029,0.04177302,0.3091321
0.8244551,-0.03342627,-0.1827061,0.1510273,-0.242901,0.3085365
0.7761318,-0.08045332,-0.1609634,0.2190885,-0.3250499,0.255239
0.7250717,-0.1169535,-0.1423074,0.2191646,-0.3033222,0.2083127
0.7914757,-0.1559765,-0.1729402,0.1179287,-0.2685994,0.05758401
0.7760312,-0.1328677,-0.1805958,0.09376696,-0.1757815,-0.04500456
0.7752331,-0.1060236,-0.1674456,0.04916912,-0.08097422,-0.09895403
0.8096089,-0.08392313,-0.1559576,-0.003551539,0.00808848,-0.1613595
0.7670292,-0.03002117,-0.1396035,-0.04408181,0.01810786,-0.2132988
0.7709452,-0.04301672,-0.1211527,-0.08254109,0.03649991,-0.237429
0.7406405,-0.08478349,-0.09688145,0.02704405,-0.06513411,-0.1836061
0.6972492,-0.1168275,-0.08852748,0.1694772,-0.4306403,-0.1300375
0.7512369,-0.162679,-0.0952791,0.305896,-0.6988785,-0.1218953
0.8311977,-0.167992,-0.1307734,0.4918866,-0.6422806,-0.2028619
0.9478919,-0.1694038,-0.2211956,0.560681,-0.3043505,-0.33782
0.9830235,-0.1715736,-0.2831153,0.540097,0.08135619,-0.3456405
0.9073683,-0.1431988,-0.2373193,0.5487125,0.2403915,-0.2945388
0.870214,-0.1219056,-0.1735462,0.5944538,0.1350754,-0.288248
0.8399872,-0.1098316,-0.1768968,0.6411948,0.04594752,-0.2799868
0.8223708,-0.1164358,-0.1831805,0.7186879,0.1495291,-0.2505267
0.8505528,-0.1071392,-0.2068592,0.9408879,-0.02258207,-0.1213347
0.9661523,-0.04921223,-0.3494771,1.194575,-0.6643427,0.1880127
1.273311,-0.01771161,-0.5996962,1.253738,-1.035372,0.5173294
1.588667,-0.06234798,-0.8206986,1.074833,-0.08167732,0.4964302
1.673382,-0.11686,-0.8300359,0.6296266,1.353237,0.09686966
1.639791,-0.07279766,-0.6528189,0.06510762,1.079155,-0.1852636
1.539078,0.03107288,-0.4488871,0.003233296,-0.02277696,-0.06867197
1.368076,0.07914262,-0.3360897,0.2569391,-0.272247,0.0982996
1.354428,0.00139976,-0.4000734,0.09044174,0.1048044,0.0415502
1.331604,-0.1499115,-0.4235672,0.03373166,0.6816288,-0.05566606
1.06645,-0.1583418,-0.2593697,0.1543648,0.3003198,-0.175681
0.8668224,-0.07621494,-0.1359003,0.05487637,-0.3746909,-0.2627671
0.7566172,-0.04785978,-0.1199959,0.2109477,-0.3159766,-0.1614811
0.6556422,0.006669272,-0.1557697,0.2790011,-0.6986817,-0.119652
0.6869657,0.01426625,-0.1863378,0.1651186,-0.7613906,-0.09346933
0.7179054,-0.0105733,-0.1786769,0.253136,-0.4609904,0.002837708
0.7782918,0.01533963,-0.2174352,0.2134615,-0.681734,0.01935608
0.9006869,0.0106449,-0.2500325,0.2530984,-0.503946,0.1443366
0.9739468,0.01688146,-0.2671969,0.3592371,-0.3666586,0.2291987
1.027951,0.006412044,-0.3032814,0.327159,-0.1698881,0.1810238
1.00114,-0.03773167,-0.2817988,0.3315879,0.2897437,0.1982643
0.9835629,-0.03430763,-0.237202,0.2665207,0.1918242,0.1480556
1.010683,-0.04029831,-0.1782207,0.2884082,0.2675602,0.1302767
0.9531264,-0.05341758,-0.1382017,0.3108316,0.5629391,0.1274707
0.9022154,-0.05327473,-0.1541477,0.1888075,0.8089434,0.03403732
0.8243484,-0.03269759,-0.1207158,0.09927866,0.9647873,0.04625199
0.6988811,0.03652016,-0.07755101,-0.01558487,0.4499225,0.07519062
0.6502064,0.07693668,-0.08844914,-0.03020058,-0.08140524,0.0798058
0.70874,0.05668246,-0.1355943,-0.06320129,-0.1235183,0.09559686
0.8225818,0.03650041,-0.2083626,-0.2436422,0.05230037,0.06973649
0.8348098,0.05029416,-0.2176672,-0.2985687,0.1544013,0.07482973
0.8183509,0.04277215,-0.1833708,-0.2649478,0.05640685,0.08475024
0.8498892,-0.004220694,-0.1888429,-0.1818831,0.08631726,0.07876573
0.8098496,-0.04771825,-0.2245787,-0.03715217,0.06525373,0.01263316
0.801078,-0.1260417,-0.3258609,0.05800928,-0.2438208,-0.1281045
0.8977124,-0.2302771,-0.4508778,0.07628523,-0.8269316,-0.1848678
1.177981,-0.3447061,-0.5021007,0.1007193,-1.18939,-0.1601092
1.6374,-0.4290026,-0.6041449,0.2263483,-0.4449813,-0.1739798
1.830118,-0.3762209,-0.7320939,0.3063546,0.5259778,-0.2637634
1.672648,-0.2818968,-0.5945906,0.2827882,0.5844869,-0.339802
1.556219,-0.2160438,-0.3566791,0.2703012,0.4138692,-0.2882879
1.447797,-0.127021,-0.3044321,0.2978153,0.3388018,-0.1552578
1.208429,-0.08697725,-0.2722266,0.3135354,0.07456582,0.01483823
1.066665,-0.08837156,-0.2453188,0.2283132,0.02687722,0.1947098
1.004095,-0.06822998,-0.2552219,0.1652821,0.170379,0.2662407
0.8698709,-0.05220553,-0.191548,0.1417336,0.1044846,0.2640135
0.7904847,-0.04988208,-0.1703769,0.06902989,0.05794273,0.2961833
0.7371509,-0.08641195,-0.1625965,0.05003441,-0.01881634,0.2539235
0.7060731,-0.1451414,-0.1133865,0.04120843,-0.2157753,0.1354287
0.7506354,-0.1653115,-0.1375354,-0.004718219,-0.2300009,0.05764722
0.770844,-0.1563644,-0.1620338,-0.08808252,-0.1852645,-0.05936794
0.8174827,-0.1358574,-0.1761056,-0.1645027,-0.0858746,-0.1804062
0.8450046,-0.1140214,-0.186761,-0.1552376,0.133649,-0.2445641
0.8187053,-0.09213974,-0.1273795,-0.1933994,0.2050241,-0.3551547
0.8404323,-0.06756653,-0.08620151,-0.2636679,0.178364,-0.4354245
0.8342399,-0.07177765,-0.09170257,-0.2716314,0.1082735,-0.4029701
0.8102692,-0.09607398,-0.1101312,-0.1704709,-0.09376959,-0.3129261
0.8075519,-0.1236083,-0.1370439,0.1038881,-0.2620071,-0.2147514
0.8089515,-0.1591823,-0.1588543,0.3356565,-0.2394969,-0.218792
0.8540327,-0.1733647,-0.1761115,0.3762575,-0.09925193,-0.3018079
0.8913776,-0.177732,-0.179109,0.3835493,0.02375413,-0.3231058
0.8932109,-0.1862548,-0.1803177,0.4755564,0.07545457,-0.3088133
0.8831937,-0.1586794,-0.1600998,0.5463311,0.07688088,-0.3026548
0.8788922,-0.1266754,-0.1375556,0.536976,0.1578749,-0.2862742
0.8695188,-0.1186415,-0.1527413,0.5893957,0.3176419,-0.2408664
0.8158401,-0.09431067,-0.1565115,0.7052418,0.285989,-0.1085705
0.7927489,-0.05077324,-0.1843452,0.8148663,-0.193624,0.1400204
0.9280113,0.01679771,-0.2988821,0.8639099,-0.8821639,0.4683152
1.276045,0.03721283,-0.5279054,0.8474355,-0.7758804,0.5941588
1.685073,-0.09855358,-0.8219171,0.8028599,0.5009422,0.2620531
1.856216,-0.2226709,-0.906234,0.6015186,1.509489,-0.1506769
1.726256,-0.1191758,-0.6558776,0.3527774,1.060293,-0.2508472
1.473607,0.01043132,-0.3515813,0.2221581,0.3841255,-0.2122953
1.214427,-0.03701706,-0.2233347,0.07718457,0.5310721,-0.2333048
1.0549,-0.06674235,-0.1599903,-0.01222941,0.2742104,-0.284962
1.027157,-0.04618254,-0.1066533,0.0727717,-0.4488813,-0.2838862
0.9353238,-0.06101658,-0.1524816,0.223308,-0.6344048,-0.2103706
0.8759852,-0.02153642,-0.21911,0.3814643,-0.5782801,-0.1229843
0.9701695,-0.01661578,-0.2809861,0.4916721,-0.3415156,-0.1012179
0.9427489,-0.03791927,-0.3287999,0.4544281,-0.1838219,-0.1054386
0.875434,-0.01205896,-0.2673357,0.4240427,-0.2334979,-0.01889328
0.8442786,-0.04456547,-0.2084322,0.4816595,-0.1169336,0.06202591
0.7692369,-0.06205218,-0.1950014,0.4882809,-0.1795888,0.08628175
0.822738,-0.04723374,-0.172971,0.5634189,-0.1437118,0.1139375
0.8508756,-0.03585438,-0.1980868,0.6218278,0.00465704,0.08131387
0.8258697,0.01337298,-0.2088732,0.5130515,0.03793253,0.06285376
0.8514265,0.01904174,-0.1882316,0.4525388,0.1980188,0.08441849
0.7865263,0.006098057,-0.1860069,0.4008122,0.1035418,0.08661841
0.7728919,0.01177735,-0.1665089,0.2921234,0.07711765,0.1411898
0.8200276,0.01135421,-0.1582759,0.1618291,0.2111887,0.1774918
0.8367989,0.03293228,-0.1695338,0.009482244,0.1350876,0.1533384
0.8574298,0.04431706,-0.1802826,-0.06401666,0.04967101,0.1507325
0.8365239,0.02816514,-0.1925629,-0.1170291,-0.2172488,0.1762884
0.8650696,-0.01035797,-0.183615,-0.118408,-0.3000038,0.1890209
0.9131603,-0.03840258,-0.1649444,-0.05564798,-0.05925851,0.127798
0.93577,-0.03082511,-0.1289103,-0.03712235,0.02889501,0.04695546
0.9602615,-0.02128685,-0.09375025,0.002565127,0.02174678,0.006911291
0.9134096,0.003653724,-0.1132774,0.01846026,-0.09777317,-0.05021709
0.8802153,0.03177541,-0.1452742,0.05714208,-0.178469,-0.1541811
0.8774684,0.02606715,-0.1763026,0.1451942,-0.1651301,-0.2697506
0.9527583,-0.0124448,-0.287464,-0.1502626,-0.4362673,0.07384546
0.8320428,-0.03533035,-0.2343901,-0.1414674,-0.3054851,0.04346093
0.8160183,-0.05915671,-0.2480988,-0.1525172,-0.4858356,0.08716685
0.7308466,-0.06755686,-0.2251291,-0.04569005,-0.3909548,0.1058751
0.726538,-0.05338458,-0.1995962,0.0651586,-0.2801545,0.1686917
0.7614401,-0.05442135,-0.242491,0.1990634,-0.07353997,0.2127656
0.7134395,-0.05435331,-0.2073079,0.2466093,0.3247087,0.1836153
0.7346777,-0.03332477,-0.1877814,0.189287,0.2078043,0.1947972
0.7139814,-0.00501854,-0.1520349,0.1847607,0.2155863,0.2206651
0.7450947,0.03145895,-0.1069542,0.1062625,0.3393609,0.2721358
0.8640606,0.05790066,-0.145702,0.0132094,0.2415017,0.3453981
0.897723,0.06240409,-0.1568963,0.01010442,0.3867395,0.3507865
0.9092444,0.04419375,-0.194158,-0.071714,0.4375216,0.3374538
0.8771694,0.01554302,-0.2188518,-0.2079169,0.3000396,0.3367489
0.857049,-0.001503612,-0.2007755,-0.2594469,0.1447463,0.2924252
0.8723264,-0.0118284,-0.2362137,-0.2647014,-0.008907757,0.2074012
0.8548202,-0.01543756,-0.229814,-0.2786462,0.02875267,0.1068172
0.8571911,-0.03136643,-0.2345546,-0.1985443,0.04715368,-0.0004224728
0.8013999,-0.07293436,-0.2836568,-0.0561959,-0.1108398,-0.08403169
0.7709925,-0.1402713,-0.3222898,-0.03754314,-0.3563911,-0.1175718
0.9621276,-0.2525167,-0.4463506,-0.1341715,-0.6723057,-0.1181216
1.319119,-0.3306483,-0.5808818,-0.2123812,-0.81724,-0.1380693
1.596398,-0.3118333,-0.6412365,-0.1659299,-0.4210827,-0.2087623
1.606796,-0.2928879,-0.6666135,-0.08304997,0.2487557,-0.2627668
1.534761,-0.3066789,-0.574682,-0.03992106,0.5174011,-0.255607
1.485436,-0.2848801,-0.3728214,0.06387374,0.3449422,-0.2736354
1.336647,-0.228463,-0.2707766,0.1642146,0.05895512,-0.2924824
1.190387,-0.1500777,-0.3189354,0.2227127,-0.1660121,-0.1424874
1.110211,-0.07170274,-0.3382035,0.2382045,-0.166112,0.1202972
0.9980577,-0.05625461,-0.3012457,0.1565133,-0.02362522,0.2768501
0.8764444,-0.07106705,-0.2908176,0.06876701,-0.03801198,0.3214923
0.8129135,-0.09225885,-0.248273,-0.02807935,-0.1701543,0.3050666
0.7841126,-0.1437623,-0.1971969,-0.0764453,-0.2386937,0.2188522
0.7658733,-0.1613592,-0.2139487,-0.02946723,-0.2314716,0.1430918
0.7588546,-0.1478249,-0.2151269,-0.07100907,-0.1393846,0.09207202
0.7572562,-0.1471444,-0.199272,-0.161268,-0.06103791,0.03244407
0.7717306,-0.1278314,-0.2035337,-0.2605383,0.04226009,-0.03063959
0.7973128,-0.09001944,-0.1652086,-0.4198616,0.2275138,-0.1149355
0.8316891,-0.06512524,-0.1254598,-0.5204022,0.3150927,-0.2068311
0.8458288,-0.06743506,-0.1177122,-0.5377031,0.3331522,-0.2994869
0.8253489,-0.07619453,-0.1137418,-0.4802253,0.2465916,-0.3193576
0.8203192,-0.1063968,-0.1137293,-0.3896644,0.01146143,-0.2178904
0.8123677,-0.1667621,-0.09777448,-0.2915264,-0.220909,-0.1243314
0.8225877,-0.1832645,-0.117,-0.1038938,-0.3349425,-0.1129612
0.9043401,-0.1767302,-0.2058834,0.02731652,-0.2096725,-0.1794523
0.9726015,-0.1963048,-0.2861343,0.0178277,-0.04063951,-0.248157
0.9635035,-0.1948252,-0.274026,0.0574318,0.1071844,-0.2411174
0.9427994,-0.178492,-0.2039638,0.1721012,0.2932925,-0.2291809
0.9581574,-0.1792837,-0.1927396,0.2450188,0.3094573,-0.2102323
0.9106721,-0.1723837,-0.2063607,0.2874038,0.3028541,-0.1278628
0.7802393,-0.1483009,-0.2163627,0.4275408,0.1455622,0.002848735
0.7331565,-0.1133614,-0.274658,0.6288482,-0.4122748,0.2027955
0.8649995,-0.06005849,-0.3781582,0.6731203,-0.7658044,0.4648992
1.175333,-0.02773622,-0.589569,0.5842188,-0.3663974,0.5745232
1.527702,-0.07283119,-0.8448198,0.4338566,0.5573795,0.3343456
1.693488,-0.1207835,-0.9237071,0.1494851,1.09331,0.01574247
1.625749,-0.06752088,-0.748458,-0.01790889,0.6399748,-0.06793431
1.440788,-0.02484163,-0.4929613,0.04429015,0.06851264,-0.02868419
1.236181,-0.0931564,-0.3715618,0.01578947,0.146102,-0.04080997
1.090895,-0.1545509,-0.2894622,-0.05514209,0.03932331,-0.141967
1.062111,-0.1564196,-0.2151315,-0.02601492,-0.3991726,-0.2205047
1.013062,-0.1002359,-0.2394024,-0.02400767,-0.3547096,-0.2006255
0.8906818,0.004896944,-0.2361682,-0.01848774,-0.2754424,-0.1390462
0.822427,0.04799343,-0.2271003,0.003797626,-0.3823765,-0.03393038
0.7717403,0.0433182,-0.2449042,0.01060254,-0.4775505,0.04927232
0.7720191,0.0403514,-0.2311699,0.06997551,-0.7370405,0.09177827
0.8241821,-0.002862624,-0.2638683,0.151823,-0.6098435,0.1525751
0.8415485,-0.0526491,-0.2997185,0.1917126,-0.281047,0.1781976
0.8760754,-0.07342505,-0.2973213,0.181692,-0.1287587,0.1845246
0.8548503,-0.07064171,-0.265559,0.1735083,0.08538847,0.1766767
0.8250367,-0.06013239,-0.1970713,0.2082286,0.0165644,0.1376546
0.8600021,-0.03995431,-0.1753256,0.218968,-0.02152257,0.1167447
0.8461878,0.003098547,-0.181951,0.1750243,0.160936,0.1079053
0.8357863,0.02659292,-0.1871494,0.07274298,0.220531,0.1368559
0.8238466,0.04153102,-0.1990355,-0.1192714,0.3251265,0.2054783
0.7986095,0.08023548,-0.1856706,-0.3300822,0.2605701,0.2637594
0.8264115,0.1058423,-0.1822522,-0.4500934,0.1264978,0.2785232
0.8632591,0.09315242,-0.2050979,-0.4979475,0.1604126,0.2350487
0.9089693,0.04770475,-0.2534516,-0.5755551,0.1580961,0.1943528
0.9025453,0.001276351,-0.2975172,-0.6094033,0.193135,0.1531457
0.802558,-0.0426297,-0.2868536,-0.4596904,0.06047403,0.09693458
0.6874051,-0.1271502,-0.2898455,-0.2704034,-0.2209959,0.06624012
0.6466654,-0.2484627,-0.3656742,-0.2235286,-0.3171698,0.03034347
0.8293681,-0.3407596,-0.4766514,-0.2607093,-0.3949814,-0.02850816
1.203628,-0.3774471,-0.559087,-0.2405289,-0.4393427,-0.1233511
1.533478,-0.3780762,-0.5951854,-0.1516281,-0.1788158,-0.1983356
1.636775,-0.340847,-0.6254973,-0.1085203,0.3135643,-0.2116072
1.562754,-0.3098243,-0.6023939,-0.1141172,0.4760818,-0.2614856
1.530637,-0.293605,-0.4851979,-0.07513904,0.1239709,-0.2778991
1.458818,-0.2360821,-0.4036029,0.04651015,-0.07901649,-0.1988649
1.248061,-0.1696429,-0.4080179,0.1561642,0.07995139,-0.05680274
1.099965,-0.1130413,-0.3924635,0.1327497,0.2674295,0.1902163
0.9835573,-0.06466203,-0.3214504,0.06857871,0.3583325,0.3456681
0.8352214,-0.05745432,-0.2445325,-0.008720304,0.2362737,0.3239451
0.7678489,-0.07869036,-0.2175267,-0.1798511,-0.06715707,0.3105074
0.7511013,-0.107766,-0.230725,-0.314481,-0.2123832,0.252585
0.7560411,-0.1287422,-0.2289063,-0.3483367,-0.09992338,0.129894
0.7485748,-0.1288738,-0.2157518,-0.3968373,0.01324651,0.04969272
0.7082926,-0.1119589,-0.1936634,-0.5017461,0.1185517,-0.02713741
0.7057206,-0.09844983,-0.143655,-0.6098153,0.2475517,-0.1181674
0.7246854,-0.09591235,-0.097743,-0.6679613,0.2446081,-0.1825327
0.7491209,-0.09470938,-0.09309493,-0.6806799,0.1878141,-0.2207641
0.7676033,-0.1147581,-0.1231608,-0.6597119,0.04829455,-0.2409926
0.7811316,-0.1443045,-0.1566852,-0.6061205,-0.2441469,-0.2204574
0.8532269,-0.1659977,-0.1681405,-0.4830038,-0.4033069,-0.1757593
0.9588388,-0.1921486,-0.1917036,-0.2615114,-0.3402532,-0.1601292
1.034172,-0.223608,-0.2504836,-0.06122498,-0.18337,-0.1920719
1.042903,-0.2464076,-0.2695367,0.03696368,0.09466572,-0.2393036
0.9988886,-0.2274463,-0.2307341,0.1121498,0.3425796,-0.2094101
0.9456372,-0.2016029,-0.1994865,0.1737931,0.4013458,-0.1505284
0.8911655,-0.1943623,-0.1938811,0.1728976,0.4356898,-0.1322796
0.8475136,-0.1541018,-0.2175806,0.1950336,0.348191,-0.06702804
0.7938493,-0.08205082,-0.2873825,0.3199091,-0.1104108,0.06287965
0.7925338,-0.03062222,-0.3872841,0.428849,-0.5756527,0.3286289
0.9768964,-0.0547632,-0.4894381,0.4075482,-0.4887894,0.6448853
1.335184,-0.1013934,-0.5899303,0.3223833,-0.04100029,0.6775268
1.682462,-0.1034837,-0.6095367,0.2455904,0.4122988,0.4661034
1.72629,-0.08062937,-0.5460435,0.150932,0.8344391,0.2190892
1.56063,0.03553752,-0.5474122,-0.001440022,0.7274241,0.0686226
1.505087,0.160256,-0.5374173,-0.2391166,0.439669,0.1054849
1.411445,0.09300212,-0.4680084,-0.4353035,0.6295519,0.1025859
1.192651,-0.06667277,-0.375027,-0.4041205,0.2843634,-0.02275837
0.9934156,-0.1695563,-0.1822914,-0.2859986,-0.4487092,-0.08929803
0.8805559,-0.1735595,-0.1530684,-0.1526325,-0.6011995,-0.1200232
0.8748322,-0.09602551,-0.2829036,0.05615944,-0.5685241,-0.07316409
0.8117616,-0.05322086,-0.258658,0.08364975,-0.4806263,0.04610876
0.7869777,-0.01535176,-0.2667664,-0.02223177,-0.4993271,0.06205134
0.8445118,0.04903084,-0.2877434,-0.031205,-0.5195578,0.08991677
0.8024833,0.04062911,-0.241097,-0.06773304,-0.3238576,0.1654644
0.8494664,0.01249482,-0.2754675,-0.1040867,-0.2439547,0.1745093
0.884769,-0.002482872,-0.2480179,-0.1039351,0.0401406,0.2256936
0.8622747,-0.03158386,-0.1971286,-0.1190607,0.3539355,0.2675777
0.9471687,-0.02356136,-0.1727288,-0.1077197,0.4999631,0.2438535
0.895864,-0.007590318,-0.1176988,-0.154269,0.6663819,0.2567076
0.806251,0.01706404,-0.1299975,-0.2746031,0.6504017,0.2698028
0.7636976,0.05430902,-0.1168582,-0.4179267,0.7656337,0.2877714
0.7031261,0.05536447,-0.08660914,-0.570411,0.7358586,0.3127471
0.7308312,0.06547011,-0.08860453,-0.7588017,0.3995003,0.3211973
0.7392509,0.06887172,-0.06282482,-1.012588,0.2702349,0.3631332
0.8332531,0.04790732,-0.08483975,-1.119224,0.2017492,0.3874467
0.9416716,0.05178956,-0.1258887,-1.054782,0.1945251,0.327062
0.8877356,0.03514809,-0.1885868,-1.028006,0.08301949,0.2038892
0.8553957,-0.01374163,-0.276358,-0.9460933,-0.09697265,0.0798286
0.8006453,-0.05752767,-0.3250458,-0.7950071,-0.1635792,0.01711519
0.8145235,-0.1259003,-0.4542519,-0.7628571,-0.6227662,0.04743991
1.038559,-0.2456812,-0.6238819,-0.7762128,-0.9550194,0.1525576
1.347586,-0.3798053,-0.7074657,-0.6894581,-0.3703532,0.2250112
1.55513,-0.432242,-0.7349252,-0.5908153,0.5269602,0.1509051
1.472099,-0.3616278,-0.6109146,-0.5854886,0.6874301,-0.003268493
1.411,-0.2215997,-0.36266,-0.6263252,0.1100449,-0.04531044
1.50154,-0.0841983,-0.2892456,-0.6301842,-0.1728912,0.02671197
1.494639,-0.06647323,-0.4252319,-0.6464003,0.1615675,0.1433441
1.521816,-0.1371836,-0.4956831,-0.8099608,0.6441074,0.283101
1.418676,-0.1192759,-0.4087315,-1.014393,0.796207,0.3518714
1.088273,-0.07318747,-0.294062,-1.107904,0.5144271,0.4708799
0.8747986,-0.0457327,-0.2300296,-1.236003,0.1475325,0.6668225
0.7384343,0.009217581,-0.2235188,-1.440747,-0.1106557,0.7116957
0.6679182,-0.01307104,-0.2371086,-1.546834,-0.1365371,0.7258374
0.6947807,-0.04829599,-0.2097454,-1.556764,-0.002729114,0.7632403
0.6624591,-0.05790192,-0.1727289,-1.583649,0.1165708,0.6902442
0.6311726,-0.1192246,-0.1474078,-1.583666,0.1240003,0.6365321
0.6146048,-0.1382404,-0.1152478,-1.552189,-0.05681042,0.598705
0.623885,-0.1515426,-0.1216443,-1.541756,-0.1705271,0.5238441
0.7116826,-0.1916729,-0.1278108,-1.438914,-0.1620166,0.4524142
0.7801816,-0.2018932,-0.1301669,-1.272046,-0.1509455,0.3166915
0.8056221,-0.2208428,-0.175565,-1.185363,-0.2354845,0.2171925
0.8112504,-0.2225954,-0.1761594,-1.115725,-0.4680873,0.2272683
0.878641,-0.2361641,-0.1738931,-0.950192,-0.5515497,0.2596296
1.000235,-0.256954,-0.2306467,-0.7275876,-0.335961,0.2940514
1.024855,-0.232799,-0.2675719,-0.6528153,0.09319593,0.2849017
1.00084,-0.2243171,-0.2562814,-0.7148335,0.465045,0.2655283
0.9640352,-0.2121807,-0.1908048,-0.7120352,0.6330786,0.2558784
0.8726131,-0.1844315,-0.1433528,-0.690839,0.664191,0.2116597
0.7756255,-0.1263672,-0.1780183,-0.6493029,0.3713547,0.2291033
0.7285529,-0.02066295,-0.2943339,-0.4864613,-0.3006068,0.3768432
0.8761254,-0.01609559,-0.5121079,-0.3063725,-1.071022,0.6656814
1.279682,-0.1608961,-0.7960089,-0.1240544,-1.035542,0.9168054
1.644744,-0.3130348,-1.020351,0.05209079,0.1713138,0.8068819
1.666656,-0.3428574,-0.9642246,-0.1146064,1.124656,0.3815683
1.574029,-0.2638898,-0.7232374,-0.5504451,0.9723622,-0.07872342
1.607808,-0.1247099,-0.5939781,-0.7177095,0.6475462,-0.2539469
1.451017,0.0504554,-0.5100838,-0.7649933,0.6700687,-0.1070121
1.132712,0.05872826,-0.4064418,-0.9776783,0.298998,-0.09050368
1.014647,-0.05847017,-0.2453059,-1.035833,-0.3417093,-0.1388744
0.9691638,-0.05230178,-0.1126503,-0.8244612,-0.6570659,-0.01062022
0.8956113,-0.06701608,-0.2548108,-0.5743342,-0.8831681,0.008630431
0.8589454,-0.08828543,-0.3481683,-0.4731357,-0.6108802,0.01939606
0.8233339,-0.008569623,-0.2667879,-0.4923554,-0.3063409,0.06217961
0.8152754,-0.002194587,-0.3018484,-0.5097988,-0.5599461,-0.002733836
0.8237211,-0.0005917082,-0.3063068,-0.5252767,-0.370887,0.02713872
0.8350275,-0.01301434,-0.2818578,-0.4671716,-0.1096915,0.01251372
0.8405606,-0.08598693,-0.294002,-0.3505313,-0.08243993,-0.04014773
0.8567404,-0.07825867,-0.2507667,-0.2273193,0.06218914,-0.002830884
0.914577,-0.0825764,-0.253237,-0.05387731,0.1184623,-0.04349844
0.9265657,-0.07526555,-0.245948,0.03454796,0.4784233,-0.05134979
0.9044095,-0.02819539,-0.1996661,0.02389513,0.7049636,-0.04561252
0.8775686,-0.03439769,-0.1749081,0.03566945,0.6603244,-0.06016659
0.8207553,-0.0007526401,-0.1439732,-0.0006265538,0.7902938,0.007182127
0.7947156,0.05236026,-0.1438064,-0.09513616,0.6797053,0.068069
0.7971078,0.09613178,-0.1512172,-0.1639847,0.5532464,0.1480868
0.8146782,0.1178314,-0.1524049,-0.3053468,0.424133,0.2083023
0.8663841,0.07217017,-0.1453041,-0.5377444,0.2045947,0.2247201
0.9268478,0.03388396,-0.1296461,-0.6169871,0.1910376,0.2221456
0.9616213,-0.01668964,-0.1621239,-0.5626853,0.1572904,0.1521558
0.959722,-0.07928611,-0.2024305,-0.542044,0.254707,0.07726169
0.9145439,-0.1025925,-0.2068795,-0.4794933,0.4289087,-0.04762755
0.7871995,-0.1134097,-0.16177,-0.3562141,0.3702285,-0.1572885
0.6609424,-0.1302162,-0.1301551,-0.08737672,0.1402932,-0.2037775
0.6787395,-0.1587253,-0.2650457,0.2867872,-0.3578242,-0.273369
0.8364256,-0.1948074,-0.5187689,0.3590496,-0.9544022,-0.1785761
1.128069,-0.2671994,-0.7192868,0.2356517,-1.273585,-0.02185603
1.516933,-0.3383794,-0.8659766,0.2002299,-0.9288127,-0.03981543
1.726053,-0.347545,-0.9727971,0.02134327,-0.0537652,-0.08870385
1.596926,-0.2941934,-0.8275401,-0.1435988,0.4068559,-0.09309132
1.446553,-0.1956402,-0.5063463,-0.02717004,0.1879262,0.01172423
1.440966,-0.1811306,-0.4249291,0.09172598,-0.0971804,0.1679143
1.354958,-0.2241762,-0.4359706,0.1435272,-0.04874118,0.1594723
1.199916,-0.2175284,-0.3219816,0.1615884,0.1413501,0.1160749
1.09889,-0.2302307,-0.3192642,0.1017384,0.2769829,0.1583901
1.019958,-0.1976055,-0.3152846,0.1128612,0.3307695,0.1929997
0.8678352,-0.1117701,-0.1887046,0.1095163,0.132997,0.2398598
0.6930294,-0.09794155,-0.1613746,0.05213863,-0.07874271,0.2599974
0.7351956,-0.1128322,-0.1974882,0.03746678,-0.1841029,0.2072383
0.7679722,-0.1152254,-0.193486,-0.08539923,-0.2134885,0.1660491
0.6545671,-0.1076303,-0.2034519,-0.2359125,-0.08256835,0.09948499
0.7035552,-0.1003112,-0.2163228,-0.3032263,-0.1272535,-0.007433338
0.7418924,-0.1073796,-0.1892161,-0.3434547,-0.08540288,-0.1006531
0.7601538,-0.1107163,-0.1501241,-0.3164187,0.1436095,-0.2556981
0.8510777,-0.1306438,-0.1312398,-0.3437632,0.1912456,-0.4271973
0.7853009,-0.1450399,-0.1061085,-0.3970402,0.2392084,-0.5024838
0.7617204,-0.1432471,-0.0740082,-0.352426,0.01898435,-0.5051875
0.7840674,-0.1551892,-0.06861144,-0.2321978,-0.3751902,-0.4414793
0.7555874,-0.1607907,-0.1186198,0.01692066,-0.4940825,-0.3487741
0.8443534,-0.1680837,-0.2046809,0.2049872,-0.4453873,-0.3248872
0.9379579,-0.187297,-0.2563989,0.2946204,-0.2228849,-0.3967714
1.01977,-0.2204672,-0.258388,0.5117043,0.005499422,-0.4592161
1.036329,-0.2469665,-0.2290654,0.6822451,0.2031264,-0.427211
0.9514776,-0.22026,-0.1909831,0.6853679,0.2933792,-0.3810453
0.9198573,-0.1770107,-0.1808975,0.6651367,0.2420759,-0.3473714
0.8653317,-0.1203972,-0.2216031,0.7067406,0.2283976,-0.2918947
0.8345293,-0.0418647,-0.3131567,0.8479036,-0.226233,-0.1760055
0.9117471,-0.02505955,-0.4352388,0.9792958,-0.8777339,0.1083168
1.117917,-0.05129174,-0.6263049,0.9424701,-0.796012,0.3681686
1.483372,-0.07927308,-0.8790268,0.7917954,0.1416389,0.2784909
1.686821,-0.1344977,-0.9584975,0.6338312,1.116905,-0.007235675
1.605898,-0.1226279,-0.721942,0.3976386,1.025029,-0.2271901
1.494663,-0.02548054,-0.4416378,0.201137,0.424208,-0.2918104
1.358597,0.0186735,-0.3709535,0.1978778,0.2864836,-0.1793823
1.140794,-0.01832616,-0.3649727,0.1706673,0.178696,-0.1497203
0.9763694,-0.08570856,-0.273473,0.1502069,-0.182014,-0.2606633
0.8715874,-0.1250509,-0.207778,0.3268468,-0.7136569,-0.293812
0.7879764,-0.1308803,-0.2552237,0.5950721,-0.9963621,-0.3163792
0.8019311,-0.127329,-0.312696,0.8215188,-0.7611892,-0.3281284
0.8198981,-0.08618586,-0.3293594,0.879074,-0.6626997,-0.308787
0.8067169,-0.05271753,-0.3513733,0.8009701,-0.5001505,-0.307523
0.8392233,-0.03151783,-0.3082779,0.7195712,0.07372025,-0.2262945
0.8375398,-0.003596504,-0.2059899,0.6583493,0.4315042,-0.1409126
0.814081,-0.001942619,-0.1383249,0.6514103,0.5752965,-0.0548529
0.7835282,0.02900079,-0.1101275,0.6584235,0.5706698,0.06688809
0.7149279,0.05287239,-0.14564,0.6265676,0.4469898,0.1101292
0.6556207,0.03361404,-0.16826,0.5247658,0.4826148,0.1167322
0.6313919,0.03443462,-0.1318066,0.341092,0.372896,0.09293076
0.7017013,0.02717444,-0.1197336,0.1869915,0.1744083,0.07887238
0.8173192,0.02005489,-0.1183795,0.06941415,0.04986371,0.1294018
0.8885103,0.04394886,-0.1681856,-0.1474673,-0.01003833,0.1557199
0.9141894,0.06316034,-0.2415066,-0.4093416,0.1008073,0.1365217
0.8845402,0.031264,-0.2159815,-0.502008,0.01437209,0.05082495
0.8677319,-0.04032893,-0.1737312,-0.4106249,-0.1360443,-0.04969293
0.8648369,-0.08304313,-0.1792924,-0.2242944,-0.1792082,-0.09805429
0.8498472,-0.1165085,-0.2492279,-0.006004413,-0.3137053,-0.1599393
0.885423,-0.1779615,-0.4311265,0.06378605,-0.4342421,-0.2447337
1.020011,-0.2461396,-0.585542,0.002620844,-0.8835828,-0.2592319
1.36423,-0.2996885,-0.6229669,0.07048799,-1.182153,-0.1494584
1.701218,-0.3345088,-0.6716221,0.2238021,-0.4154361,-0.07296789
1.639765,-0.3383478,-0.6643355,0.2614816,0.5472567,-0.1444887
1.479694,-0.280805,-0.4621084,0.2737185,0.6435667,-0.2208646
1.496227,-0.2220082,-0.2834916,0.367386,0.1186884,-0.2144817
1.399856,-0.1935784,-0.3040784,0.4825608,-0.1669327,-0.1812394
1.267691,-0.157456,-0.3765205,0.529565,0.03661793,-0.1036864
1.201768,-0.1379767,-0.3725133,0.4566318,0.2708388,0.05867731
1.007326,-0.1036092,-0.300124,0.3632337,0.364072,0.1809872
0.8406377,-0.04239602,-0.2109285,0.26399,0.2285034,0.2175368
0.762715,-0.01793065,-0.1590893,0.09550483,-0.07337852,0.2154555
0.6969844,-0.02447522,-0.1620822,-0.05219363,-0.1958458,0.1364991
0.7091289,-0.03981714,-0.1517727,-0.1729959,-0.1961426,0.04667533
0.7168609,-0.06814907,-0.1228359,-0.2843139,-0.192744,-0.03726883
0.731243,-0.09432498,-0.1284222,-0.3467653,-0.06844198,-0.1272885
0.758255,-0.09153712,-0.1132486,-0.4057934,0.06293289,-0.1831563
0.7692127,-0.08594415,-0.102839,-0.4512919,0.06954772,-0.2557666
0.8026822,-0.1041107,-0.1321262,-0.4227205,0.006504449,-0.294172
0.7670778,-0.1251404,-0.1508657,-0.3732062,-0.1521471,-0.2852855
0.7478478,-0.149554,-0.1709876,-0.3205845,-0.3769548,-0.2225095
0.8361504,-0.1677819,-0.1796872,-0.1265774,-0.4759897,-0.08508331
0.9295504,-0.1925276,-0.2077838,0.1622374,-0.267396,-0.06708898
0.9556584,-0.2419301,-0.2443657,0.3175246,0.1354599,-0.1386285
0.8638852,-0.2611222,-0.2014607,0.3092668,0.4281583,-0.1785532
0.7618878,-0.2159065,-0.16241,0.2528424,0.5037899,-0.227612
0.7236734,-0.1113814,-0.1864518,0.2444391,0.3188251,-0.1861757
0.7249722,0.006213514,-0.236462,0.3031455,-0.1578816,-0.01135017
0.8351674,0.08116883,-0.3491166,0.3876889,-0.9087066,0.3109172
1.048548,0.1010989,-0.5238721,0.4664929,-1.296094,0.6985534
1.435163,-0.01669352,-0.7590898,0.516745,-0.4664701,0.7850447
1.9248,-0.2365366,-1.003439,0.4489101,0.8771417,0.4694199
1.964927,-0.2651232,-0.9306545,0.2019178,1.480697,0.06210185
1.578364,-0.05247682,-0.5438325,-0.08571313,1.158069,-0.1313278
1.37216,0.08981706,-0.3270283,-0.3318273,0.753086,-0.1063212
1.243182,0.03077541,-0.3052862,-0.5145608,0.8281917,-0.09149335
1.046,-0.04638854,-0.239696,-0.5844326,0.3939234,-0.128903
0.8499429,-0.05863219,-0.07527429,-0.568383,-0.552836,-0.1137021
0.6325758,-0.1000326,0.03733398,-0.3296516,-0.9893319,-0.03000612
0.7560488,-0.09580068,-0.1205768,0.06627448,-1.036465,0.09472775
0.9279063,-0.023788,-0.2663106,0.2478533,-0.7040804,0.1661004
0.8748057,-0.01854885,-0.2979525,0.2160106,-0.2532698,0.1703542
0.9491021,-0.01056466,-0.3246994,0.1603814,0.1014814,0.2110541
0.8600773,0.002292263,-0.2165084,0.1173886,0.379754,0.2547058
0.7681455,-0.01475627,-0.1645309,0.09854595,0.1928807,0.2971897
0.8298739,0.002962022,-0.1122159,0.1077386,0.2110025,0.3974203
0.7659854,-0.001892897,-0.049181,0.07379996,0.4425737,0.4216629
0.8370551,0.02315003,-0.1204066,-0.07514699,0.518722,0.3511032
0.8271912,0.08783087,-0.05652169,-0.3231751,0.7392359,0.3470607
0.7372758,0.1309957,-0.01533689,-0.6020945,0.4209649,0.4204029
0.7993415,0.1706449,-0.03416137,-0.7746855,-0.01056657,0.5061479
0.8903616,0.1310713,0.005554548,-0.8366358,0.1596623,0.4979748
1.136777,0.08258422,-0.09945999,-0.9279241,0.4799479,0.3411907
1.15045,0.08081386,-0.168809,-1.096604,0.8145353,0.1378856
0.8888033,0.05949639,-0.1641356,-1.194397,0.61119,-0.008580353
0.6937599,0.0194771,-0.1738424,-0.8912995,-0.08595555,-0.01168837
0.469873,-0.09698246,-0.2322907,-0.3022814,-0.8180978,0.1044407
0.4749366,-0.220324,-0.5001982,0.01488486,-1.59027,0.2249617
0.7019315,-0.3004588,-0.7802892,-0.05667678,-1.572847,0.217867
1.121857,-0.4435177,-0.9005028,-0.2515028,-0.479538,-0.05684817
1.693082,-0.5464288,-0.9186665,-0.5765135,0.6226082,-0.3979208
1.774596,-0.4275319,-0.8702717,-1.013973,0.6436717,-0.4197769
1.545969,-0.1458004,-0.7358053,-1.127087,0.04994907,-0.09721994
1.523314,0.07635825,-0.6051967,-1.083582,0.03854578,0.3021849
1.506783,0.09911494,-0.6275502,-1.241838,0.1383586,0.5994588
1.384251,-0.03809009,-0.5932025,-1.223155,0.3142829,0.833068
1.226029,-0.1533766,-0.4700939,-1.191187,0.8810852,1.02759
1.049506,-0.165383,-0.3892091,-1.302859,0.8838363,1.098284
0.8825625,-0.1608384,-0.2664878,-1.264462,0.6715947,1.038475
0.7380352,-0.1459229,-0.2169674,-1.3149,0.5346586,0.9433435
0.6407058,-0.1469981,-0.2319103,-1.369353,0.07722418,0.8199787
0.6174313,-0.1745188,-0.2130942,-1.308966,0.02060114,0.6666222
0.643903,-0.1947482,-0.2142854,-1.305225,0.2072975,0.5316778
0.6610125,-0.2372119,-0.1836823,-1.205448,0.22116,0.3438784
0.6663273,-0.2384042,-0.1443225,-1.077119,0.3489825,0.1669175
0.6903827,-0.2138796,-0.1150899,-1.010861,0.3912757,0.04883992
0.7366029,-0.1946589,-0.07785458,-0.9693468,0.3287792,-0.1449294
0.7749684,-0.1481462,-0.08585891,-0.924244,0.2391108,-0.2782434
0.7833488,-0.1437882,-0.1032718,-0.7841515,0.04748083,-0.2677897
0.797492,-0.1491894,-0.1072782,-0.6259925,-0.03827332,-0.2443295
0.8462915,-0.1554828,-0.1136808,-0.4552644,0.06680879,-0.2391945
0.8994325,-0.1811356,-0.1210066,-0.3024816,0.1292642,-0.2688051
0.941013,-0.1659561,-0.150486,-0.2369747,0.1346109,-0.3121438
0.9880233,-0.1620611,-0.1740698,-0.1633975,0.263509,-0.3648516
0.9851263,-0.1771246,-0.1624885,-0.07009237,0.4042123,-0.3877839
0.8939143,-0.1772492,-0.1575244,-0.01406866,0.458422,-0.3362825
0.7970206,-0.1670004,-0.1775847,-0.03409053,0.4451372,-0.274886
0.7470392,-0.1194978,-0.2038158,-0.0003482696,0.3767955,-0.1943644
0.7441101,-0.05164735,-0.2690742,0.2065519,-0.03493679,-0.07397106
0.8577378,-0.01530705,-0.4263624,0.4237521,-1.217218,0.1526652
1.2304,-0.07923049,-0.6662941,0.5300096,-1.828731,0.4449827
1.746145,-0.2679477,-0.8804118,0.5193043,-0.08821227,0.4283227
1.912795,-0.4116845,-0.8768491,0.3671385,1.770335,0.001308198
1.662462,-0.2283709,-0.5874994,0.1407113,0.897912,-0.3246712
1.490757,0.1287867,-0.3337227,0.1079607,-0.4785942,-0.1619352
1.467953,0.1728418,-0.4371352,0.1859958,-0.5099887,0.04446158
1.358035,-0.05251191,-0.5462823,0.008676352,-0.07886619,-0.09739187
1.174462,-0.2416257,-0.3627935,-0.09829857,0.7415346,-0.2725
0.8694317,-0.2826862,-0.2098911,0.1153223,0.4440744,-0.4875953
0.5632802,-0.17581,-0.09952233,0.3659482,-0.5936394,-0.6563601
0.5217469,-0.1070207,-0.01773727,0.6218357,-0.5514402,-0.4442238
0.5594246,-0.06519521,-0.1350081,0.8723344,-1.015289,-0.2893076
0.5613069,-0.01664401,-0.1654396,1.016385,-1.127478,-0.2901842
0.6707782,-0.05501985,-0.1623365,0.9774737,-0.3348201,-0.2418667
0.8023157,-0.03427445,-0.2503446,0.9266027,-0.1363294,-0.3013147
0.838593,0.002310181,-0.1703848,1.009188,0.4418012,-0.2409347
0.8102638,0.003547028,-0.0991451,0.9574535,0.5283206,-0.1379633
0.8042176,0.06489467,-0.1123601,0.8608659,0.290705,-0.1033769
0.7924438,0.07907686,-0.09011285,0.7446954,0.6867548,0.001449723
0.76727,0.07598136,-0.09109683,0.4584185,0.4453417,-0.06231465
0.8150226,0.08145734,-0.05306661,0.2391629,0.3723932,-0.1484523
0.8465508,0.06473256,-0.03013768,0.02649657,0.2618916,-0.1775876
0.861955,0.08599045,-0.08053439,-0.167089,-0.0929789,-0.234978
0.898465,0.08642722,-0.1550675,-0.2209194,0.1391658,-0.1856699
0.8763075,0.05872935,-0.2153531,-0.2238801,0.0178265,-0.2551023
0.8203436,-0.00878613,-0.2459382,0.01097851,-0.1249541,-0.3811344
0.7602351,-0.1407101,-0.3428816,0.3147968,-0.3639546,-0.395581
0.870468,-0.2773359,-0.4535698,0.3558649,-1.043309,-0.3911794
1.284401,-0.400389,-0.4941325,0.357975,-1.255524,-0.3259565
1.755705,-0.4201399,-0.5711287,0.4996981,-0.8458911,-0.3176668
1.91193,-0.3317389,-0.6683601,0.5865222,0.1443213,-0.3483061
1.727698,-0.2770459,-0.5572494,0.5035713,0.6458255,-0.3553254
1.588896,-0.2544086,-0.2972564,0.5020526,0.1145142,-0.38516
1.465586,-0.1988604,-0.2344022,0.636833,-0.2911176,-0.3357306
1.265454,-0.1515825,-0.2995214,0.7093293,-0.1256136,-0.2305708
1.173359,-0.1396315,-0.2937387,0.6935824,0.3469146,-0.0633932
0.9327545,-0.09212633,-0.2345504,0.5967587,0.6032969,0.08961789
0.6760697,-0.02431251,-0.1224017,0.4959511,0.3214786,0.1266469
0.6032607,-0.00141187,-0.06346961,0.3808411,-0.3552402,0.1485929
0.4983208,-0.006522254,-0.08821559,0.2214564,-0.8010343,0.07752071
0.6211435,-0.05625378,-0.1442154,0.1132684,-0.6872712,-0.04551619
0.7438578,-0.1069403,-0.1894298,0.02035596,-0.3749897,-0.1484808
0.6301836,-0.1100188,-0.1295114,-0.04395421,0.1233321,-0.338704
0.6520494,-0.1352105,-0.05559191,-0.0768044,0.2526859,-0.4805883
0.6054088,-0.1666341,-0.04064048,-0.04795769,-0.2015461,-0.4919972
0.5466264,-0.1898552,-0.02970446,0.1271108,-0.6101071,-0.4471426
0.7194576,-0.2307147,-0.03716769,0.435507,-0.8555017,-0.4302025
0.896308,-0.230241,-0.1025781,0.91224,-0.6997134,-0.5226543
0.9969747,-0.1997239,-0.2333562,1.208314,-0.3573408,-0.5882861
0.9653445,-0.1782896,-0.3155468,1.12651,0.02666942,-0.5215362
0.900989,-0.1391904,-0.2627261,1.128919,0.5023868,-0.4107241
0.8347594,-0.08786384,-0.2157319,1.214651,0.4637922,-0.310599
0.7346834,-0.02921119,-0.2830707,1.159249,0.07762845,-0.1434991
0.8786569,0.03863034,-0.3703333,1.107086,-0.5880328,0.1792666
1.273737,0.05914503,-0.4973422,1.058704,-1.236362,0.5317783
1.754768,-0.03022317,-0.6713851,0.8989776,-0.6546186,0.59509
2.025061,-0.1325678,-0.6791004,0.5768403,0.5649353,0.302337
1.924483,-0.07706383,-0.5575633,0.2921956,1.094995,0.09142685
1.817395,0.04852131,-0.4837386,0.2646722,0.9311139,0.1445988
1.666217,0.07890647,-0.4666337,0.1547588,0.6658768,0.1242979
1.315673,-0.02007205,-0.396437,-0.1067035,0.6913322,-0.07528873
0.9606951,-0.2418704,-0.1569562,-0.07133363,0.3134287,-0.3497277
0.6773102,-0.3890213,-0.001875915,0.2171418,-0.5703993,-0.5666958
0.6047606,-0.3730781,-0.07913956,0.7161056,-0.993191,-0.5788273
0.6109751,-0.2979931,-0.1299212,1.344878,-1.108295,-0.4819788
0.577238,-0.1324512,-0.155119,1.587718,-1.050473,-0.4082874
0.7048275,0.004549429,-0.233472,1.595529,-0.6526308,-0.3596957
0.73563,0.0509937,-0.2499842,1.616713,-0.1459158,-0.3197936
0.6188945,0.1071458,-0.2134653,1.438886,0.3331639,-0.2420298
0.5734435,0.1099842,-0.1830088,1.167431,0.2275572,-0.1078615
0.5372495,0.09953283,-0.1302271,0.9456166,-0.1775944,0.03484506
0.6649485,0.09175313,-0.09766977,0.8685118,-0.2998498,0.1038446
0.8607566,0.04903211,-0.1340185,0.8052673,-0.3112267,0.03133839
0.8946198,0.04777915,-0.1576729,0.5156979,0.07072008,-0.1019546
0.8188598,0.05630659,-0.1575279,0.2380148,0.3256444,-0.1807884
0.6737049,0.05565431,-0.1699241,0.1441815,-0.09428992,-0.2137673
0.6389151,0.03791466,-0.1870847,0.2364926,-0.5233364,-0.1821827
0.6787507,-0.04291206,-0.2540024,0.4529391,-0.6018301,-0.1314436
0.6885183,-0.1313523,-0.3453551,0.559487,-0.4034674,-0.1355409
0.8845175,-0.1913087,-0.4362241,0.412507,-0.376793,-0.1449913
1.434037,-0.3053826,-0.5701126,0.1962546,-0.6433123,-0.2355929
1.980622,-0.4304086,-0.6467841,0.3069275,-0.6708395,-0.4249228
1.936165,-0.3866245,-0.6573033,0.4580061,-0.01506483,-0.5097258
1.800259,-0.3348734,-0.7081759,0.3922665,0.9805001,-0.3770788
1.830974,-0.3459019,-0.5665723,0.5105224,0.992762,-0.1380517
1.40261,-0.2058441,-0.2466496,0.675836,0.1482776,0.002267833
1.159841,-0.1218973,-0.2006565,0.7525315,-0.2233553,0.03689045
1.25496,-0.1559602,-0.2855049,0.7376482,0.0182701,0.03462429
1.00549,-0.1286625,-0.2376504,0.5066634,0.2975753,0.009537254
0.8709913,-0.1384684,-0.212522,0.3694119,0.1159703,0.004079516
0.7753298,-0.1247019,-0.1699081,0.3221045,-0.20025,-0.009572479
0.5974411,-0.09398006,-0.1341925,0.3028655,-0.3812041,-0.0228956
0.6620158,-0.1267784,-0.1827708,0.3071474,-0.5163071,-0.05870858
0.6214193,-0.1146573,-0.1941245,0.1840231,-0.2715291,-0.161061
0.6341119,-0.08976066,-0.1729526,0.1221229,-0.08169498,-0.2840918
0.7153905,-0.06100885,-0.1524221,-0.005991012,0.008988014,-0.3894859
0.6378277,-0.03999843,-0.1261765,-0.1792647,0.2076917,-0.4068218
0.661113,-0.05501677,-0.08439749,-0.1943846,0.02336353,-0.4181386
0.6427999,-0.05860242,-0.04324222,-0.1906555,-0.1756827,-0.4516259
0.6385799,-0.1161301,-0.05422477,0.00554119,-0.4948086,-0.3790762
0.7426428,-0.1771322,-0.0775729,0.3031614,-0.8618948,-0.3311716
0.8476736,-0.1828235,-0.1482059,0.5076722,-0.5518674,-0.3724424
1.026811,-0.207478,-0.2644688,0.6771204,-0.0955842,-0.3756967
1.011667,-0.2169522,-0.2826221,0.7136508,0.4506716,-0.2974637
0.8311588,-0.1815801,-0.2529287,0.7084895,0.783034,-0.18424
0.7088534,-0.1242706,-0.2490447,0.7094583,0.1303527,-0.1155922
0.6790144,-0.06158187,-0.233938,0.7411817,-0.7759367,0.01845617
1.010547,0.0004837665,-0.3797832,0.800294,-1.489204,0.3007343
1.593807,0.02154316,-0.7268246,0.7277145,-1.302075,0.4557034
1.963465,-0.08938638,-0.8980303,0.4819256,0.7733478,0.2411654
1.925539,-0.1846966,-0.728774,0.1373969,2.469135,-0.04684671
1.678941,-0.03058988,-0.4602052,0.05322513,1.130008,-0.04986518
1.462368,0.1204414,-0.3223451,0.1925846,-0.5376887,0.03200987
1.24398,-0.02456431,-0.3633072,0.1676167,0.1610158,0.01412101
1.110375,-0.1709607,-0.4073823,0.05698495,0.3568128,-0.09677096
1.031589,-0.1527126,-0.2976854,0.0008729866,-0.3824679,-0.3057421
0.8267474,-0.1426296,-0.182229,0.1882992,-0.1822426,-0.3611236
0.6463226,-0.0947418,-0.168761,0.5384925,-0.5769041,-0.2313305
0.6169935,-0.04356178,-0.1778598,0.7069271,-1.001816,-0.158238
0.6999629,-0.06061399,-0.224493,0.8209869,-0.7074327,-0.1520402
0.7568424,-0.06081835,-0.2665649,0.8928173,-0.5821135,-0.1730277
0.7402384,-0.06184397,-0.2466282,0.8162296,0.2586948,-0.1766871
0.7522554,-0.02855185,-0.193194,0.7630208,0.7181687,-0.133946
0.7037508,0.03914176,-0.1078769,0.7087628,0.4504399,-0.06971711
0.6340978,0.07377026,-0.09477528,0.5713694,0.521396,0.0143538
0.6199738,0.1037413,-0.1139849,0.4163257,0.2391138,0.06636463
0.6253797,0.1002295,-0.08772485,0.2294407,0.1953273,0.08955031
0.7202384,0.08329089,-0.1076991,0.02303763,0.3379474,0.1152909
0.8116923,0.09209384,-0.1133852,-0.09344932,0.2551153,0.1395273
0.8367125,0.07890452,-0.129153,-0.1391732,0.3544574,0.1414326
0.7977428,0.02694391,-0.2068228,-0.1684239,0.002707028,0.04175288
0.7325168,-0.07812404,-0.2628194,-0.06933034,-0.3337326,-0.1077031
0.7719539,-0.1946324,-0.3360802,0.1826874,-0.2639557,-0.1699407
0.8568694,-0.274018,-0.428932,0.3357007,-0.3987495,-0.1772756
1.063946,-0.3236704,-0.5111045,0.2329646,-0.8154911,-0.2088644
1.559584,-0.308752,-0.620169,0.1403948,-1.053969,-0.263669
2.076233,-0.274458,-0.760291,0.2177114,-0.2972285,-0.3695821
2.056439,-0.2798836,-0.7759158,0.2478266,0.8539935,-0.4487376
1.667874,-0.2415536,-0.5429723,0.2673467,1.032568,-0.3179227
1.491429,-0.1590581,-0.2552663,0.3882058,0.3320211,-0.1287542
1.264541,-0.1217112,-0.1112608,0.4686721,-0.1307105,-0.05952876
1.136205,-0.1372145,-0.2017169,0.4800485,0.07227687,0.05591017
1.208823,-0.1544415,-0.3321969,0.3838583,0.2923376,0.1780999
0.9250747,-0.1158105,-0.2449872,0.2245222,0.2988863,0.1854061
0.7903762,-0.05529197,-0.1895171,0.1272488,0.1136595,0.2039344
0.7308262,-0.01783852,-0.1721071,-0.009285747,-0.2473194,0.2058809
0.5181387,-0.01934106,-0.1164351,-0.1233585,-0.324116,0.1317918
0.6619925,-0.06644411,-0.1873089,-0.1727121,-0.1990698,0.04366129
0.6068174,-0.07660067,-0.1678912,-0.2722585,-0.1579622,-0.07847612
0.550227,-0.07004701,-0.1184699,-0.334689,-0.01740384,-0.1744882
0.7137151,-0.08128007,-0.1269566,-0.339407,0.05678535,-0.215346
0.7043729,-0.09785826,-0.1326502,-0.2731045,0.3782339,0.2622455
0.6591155,-0.09513469,-0.1086956,-0.2243759,0.41122,0.2264335
0.682648,-0.03408565,-0.1132439,-0.3045776,0.3558935,0.2451667
0.668778,0.04264263,-0.1275955,-0.327443,0.3359979,0.2686657
0.7504274,0.08753164,-0.1707531,-0.3219064,0.07421398,0.2998608
0.8279916,0.0931586,-0.2068874,-0.4073644,0.2782218,0.3249897
0.8649027,0.04631002,-0.2641001,-0.5892007,0.4454746,0.2587477
0.8990737,0.01555662,-0.2519423,-0.7223251,0.3871196,0.1723893
0.8175389,0.003298041,-0.2370292,-0.6813481,0.3404482,0.1399649
0.7312555,-0.0195908,-0.2808105,-0.5925635,0.06013956,0.1229499
0.6738923,-0.07520899,-0.3085962,-0.4684895,-0.1081606,0.1100553
0.7238394,-0.1734103,-0.4113925,-0.3679902,-0.3368811,0.07613767
0.9588276,-0.2805096,-0.5430615,-0.4032443,-0.6258636,-0.02426401
1.325959,-0.3637657,-0.6113172,-0.3691188,-0.6095554,-0.1537385
1.711759,-0.3620032,-0.6799527,-0.2162007,-0.3266312,-0.2333412
1.778789,-0.3542191,-0.7295882,-0.1283324,0.2409595,-0.2683753
1.624137,-0.3654106,-0.6165281,-0.08513784,0.5698761,-0.2841745
1.506606,-0.2557412,-0.3760223,0.009698906,0.3712658,-0.2129869
1.293697,-0.109219,-0.2907599,0.1040678,-0.005492008,-0.05224995
1.131877,-0.03739716,-0.3410054,0.1126933,-0.2716617,0.1189047
1.088589,-0.02936341,-0.3364553,0.01518631,-0.03736185,0.2848742
0.9403557,-0.05429061,-0.3082401,-0.1570997,0.3243401,0.4121525
0.7809675,-0.05603893,-0.2582993,-0.278596,0.1683877,0.4689174
0.7166259,-0.07549088,-0.1977007,-0.3100179,-0.07469163,0.4632489
0.6842702,-0.1236782,-0.1803994,-0.3461829,-0.1968786,0.3958881
0.6763491,-0.1653117,-0.185928,-0.3817182,-0.3240509,0.2988559
0.7044693,-0.1690921,-0.183434,-0.4331503,-0.07423127,0.1821026
0.7657499,-0.1216454,-0.1815633,-0.5455099,0.3094714,0.05153285
0.7960611,-0.09839562,-0.1744349,-0.6657502,0.5218306,-0.05317456
0.7567933,-0.07564999,-0.1202471,-0.7700557,0.6458981,-0.1275555
0.7071472,-0.05628154,-0.07277586,-0.7935723,0.3987561,-0.1757519
0.6952957,-0.1115816,-0.07081808,-0.6980516,0.03766927,-0.1687678
0.7572926,-0.1873371,-0.09578601,-0.5432662,-0.119457,-0.11163
0.8508374,-0.2396357,-0.1531124,-0.3151171,-0.071536,-0.08257153
0.8591979,-0.2384661,-0.2142876,-0.1123364,0.2021041,-0.09769134
0.8085209,-0.217288,-0.254682,-0.08237035,0.3456823,-0.1060843
0.7617087,-0.2171646,-0.2113755,-0.07368689,0.4597755,-0.08599502
0.6998695,-0.1914293,-0.1510983,0.04936944,0.5941319,-0.008282396
0.6765923,-0.1729129,-0.2089541,0.1334166,0.3756731,0.1368006
0.7277814,-0.09284639,-0.3396674,0.1243123,-0.4180893,0.327668
0.9277099,0.08572306,-0.5969584,0.1115194,-1.257933,0.5270257
1.438684,0.1110872,-0.9192266,0.04166617,-0.3226771,0.5606166
1.901472,-0.08102653,-1.00078,-0.06840632,1.964903,0.1534684
1.775125,-0.2015341,-0.7711435,-0.1497189,2.722108,-0.390928
1.400577,-0.06469879,-0.3701947,-0.2268754,1.037663,-0.3739852
1.242182,0.1072935,-0.09932923,-0.1751646,-1.071978,-0.03979404
1.212777,0.08919456,-0.1893798,-0.07862234,-0.99155,0.08997265
1.269503,0.0457709,-0.3952912,-0.2502158,-0.007038828,0.1437789
1.239148,0.04662572,-0.4454929,-0.5120224,-0.01209111,0.1135053
1.044281,0.01813404,-0.3448516,-0.5774145,0.2391101,0.0831117
0.8569182,0.03716775,-0.1858528,-0.5183603,0.01327372,0.1769548
0.6539558,0.04752474,-0.1500316,-0.4417187,-0.7119143,0.2234213
0.6060568,0.001508844,-0.2006271,-0.3961025,-0.6381396,0.3087225
0.662697,-0.03423518,-0.1809368,-0.2886161,-0.7647346,0.3547599
0.6381478,-0.07075229,-0.1988683,-0.1332965,-0.5674038,0.3041273
0.7316184,-0.0692972,-0.2161392,-0.09057199,0.01812683,0.3368805
0.7897719,-0.04660974,-0.1781191,-0.06189702,0.2505794,0.3151158
0.7612195,-0.02142162,-0.1822649,-0.04651931,0.6443085,0.3053402
0.7877351,0.05839308,-0.1355855,-0.1268276,0.5991289,0.3574442
0.7838097,0.1085655,-0.1055625,-0.223819,0.5029736,0.3339007
0.8384617,0.09486647,-0.1495401,-0.3237309,0.6853434,0.3232117
0.882851,0.075163,-0.1575055,-0.3888935,0.6564651,0.2256139
0.8440085,0.05299515,-0.211453,-0.4204372,0.7646371,0.05299757
0.7331616,0.01957221,-0.2685919,-0.3927131,0.4675243,-0.02607395
0.5364253,-0.04599944,-0.2697075,-0.1998595,-0.1379867,-0.02474465
0.5008543,-0.1559227,-0.3193189,0.07000731,-0.5232007,0.04788328
0.7588346,-0.305806,-0.4465624,0.1493266,-0.7976365,0.08046695
1.345537,-0.4416584,-0.6161255,-0.05413424,-0.7384466,0.03203872
1.955572,-0.4818847,-0.7173928,-0.2384312,-0.4684632,-0.09663987
1.965247,-0.3961111,-0.6922967,-0.2799176,0.1385206,-0.3122411
1.590615,-0.2304239,-0.5222918,-0.270039,0.7798623,-0.3724056
1.349396,-0.08690187,-0.2725513,-0.1867693,0.6550192,-0.1210039
1.149226,-0.03192849,-0.184173,-0.07612984,0.02321706,0.2320618
1.053096,-0.07382431,-0.2410624,0.05774884,-0.4143873,0.3514807
1.07818,-0.11884,-0.2403857,0.002116896,-0.1752982,0.290605
0.9445112,-0.1128293,-0.2171221,-0.2307606,0.1308434,0.2991538
0.8589446,-0.1213554,-0.2087063,-0.2565902,-0.1036862,0.3143536
0.84181,-0.1145742,-0.165474,-0.2450123,-0.1516991,0.2989928
0.7075506,-0.1115194,-0.1637027,-0.3108801,-0.06438197,0.2770779
0.6551598,-0.1339105,-0.183615,-0.399211,-0.1829533,0.18822
0.6360297,-0.1084547,-0.1511526,-0.572319,-0.04571464,0.06247134
0.6664454,-0.07871562,-0.1316608,-0.6739665,0.1169911,-0.06043482
0.7308007,-0.04878901,-0.08820367,-0.7424435,0.1221578,-0.1764615
0.7047382,-0.04606179,-0.04974733,-0.7049061,0.08609569,-0.2641634
0.7472859,-0.1176567,-0.08587889,-0.550027,-0.1496178,-0.25778
0.7738834,-0.1901211,-0.0816121,-0.444892,-0.2464879,-0.1783332
0.8253057,-0.2507444,-0.07888546,-0.1813628,-0.1906937,-0.1396159
0.9291655,-0.2388745,-0.1516683,0.0684298,-0.1346346,-0.1294107
0.9511732,-0.2001928,-0.2513509,0.07613426,0.2190919,-0.06310717
0.9710979,-0.2184543,-0.3207158,0.05696962,0.63444,0.07696872
0.8574625,-0.1576617,-0.2779947,0.07538805,0.6206968,0.2014891
0.7384142,-0.07446466,-0.2612642,0.09680891,-0.0929257,0.3494522
0.7833197,-0.02187366,-0.3980723,-0.003904321,-0.9802465,0.6601157
0.9817262,0.03714079,-0.6134196,-0.1329865,-1.081987,0.9184918
1.432832,-0.02430888,-0.8561016,-0.09379845,-0.5033333,0.8930464
1.71019,-0.1550802,-0.9247317,-0.08247469,0.3740847,0.6441117
1.647938,-0.2410303,-0.7221623,-0.2375618,1.323511,0.2370829
1.523396,-0.1971568,-0.4805772,-0.480886,1.524851,-0.09390872
1.288753,-0.04767447,-0.2872278,-0.6330657,0.7119528,-0.1005571
1.036803,0.00166509,-0.126257,-0.5945755,-0.2044378,0.0360213
0.9445253,0.02144395,-0.1219876,-0.5382259,-0.6923837,0.1358488
0.9729499,0.01907682,-0.25211,-0.5467457,-0.7320982,0.2476952
0.9628701,-0.07265554,-0.3196095,-0.4855671,-0.3665135,0.2615649
0.8824235,-0.0777062,-0.2960829,-0.384632,-0.1648038,0.1825754
0.7755901,-0.05782888,-0.2378546,-0.3564139,-0.2279134,0.1953092
0.6354212,-0.05114725,-0.1635441,-0.2700614,-0.3232618,0.2466109
0.6174244,-0.02045572,-0.1552903,-0.1374015,-0.4470795,0.3251002
0.6790362,-0.04784278,-0.1866607,-0.06636512,-0.2735833,0.410912
0.7189481,-0.04193606,-0.2076478,-0.04348043,0.2039998,0.3754519
0.7650839,-0.02061079,-0.2396566,-0.1832199,0.7204171,0.3233402
0.6968641,0.005467163,-0.1983684,-0.4340258,0.7675966,0.3123642
0.6249007,0.09357556,-0.1087238,-0.7045272,0.2319559,0.3508871
0.6829155,0.1415624,-0.08377215,-0.877508,-0.05407063,0.4352171
0.7822352,0.1461886,-0.1078271,-0.7967276,-0.01053884,0.3963639
0.8643971,0.0905501,-0.1925454,-0.7787486,0.1156202,0.2866583
0.8288976,0.0001966862,-0.317485,-0.8838207,0.2287788,0.2323594
0.7366189,-0.04634297,-0.386556,-0.8666434,-0.009527668,0.2484788
0.7779184,-0.139243,-0.4734196,-0.8648859,-0.44058,0.3037717
1.047401,-0.2998858,-0.6298234,-0.8411742,-0.7333902,0.261524
1.530951,-0.444695,-0.7031821,-0.6590184,-0.3724811,0.1717492
1.855188,-0.4926985,-0.7146904,-0.5031064,0.4690389,0.063259
1.762949,-0.4646828,-0.7012863,-0.5294534,0.7690868,-0.04343357
1.593106,-0.3910546,-0.5201885,-0.588123,0.5356305,0.04975424
1.450508,-0.2252359,-0.3260848,-0.5272864,0.1979679,0.2084222
1.228243,-0.09940799,-0.3196688,-0.5563731,0.02572534,0.3647053
1.088669,-0.07222186,-0.3601645,-0.7318832,0.1388781,0.6191645
0.9515126,-0.05191911,-0.3239987,-0.8826943,0.1890531,0.7482596
0.8164339,-0.08295676,-0.268627,-1.007054,0.1254877,0.7371544
0.804781,-0.1389674,-0.2593429,-1.053974,0.03905365,0.7283875
0.7564822,-0.1581575,-0.25691,-1.060987,0.004786373,0.7053601
0.7161393,-0.1664209,-0.2527629,-1.080493,0.1069846,0.6714746
0.6981335,-0.1546605,-0.2414177,-1.101396,0.2353085,0.6146813
0.6542874,-0.1366959,-0.1796417,-1.201148,0.303077,0.5761838
0.6728259,-0.1195041,-0.1233931,-1.236762,0.290323,0.5581219
0.6658854,-0.09280485,-0.08720298,-1.226977,0.3253961,0.5445402
0.6755238,-0.07496725,-0.08264729,-1.303345,0.3133118,0.509623
0.7107307,-0.06885428,-0.1077608,-1.343143,0.2013572,0.4096022
0.6864588,-0.1062735,-0.1188184,-1.373812,0.09779191,0.3845343
0.7023695,-0.1840438,-0.1672824,-1.368587,-0.1399015,0.4246081
0.7329903,-0.2309537,-0.195654,-1.257207,-0.2408451,0.4219256
0.8067244,-0.2413599,-0.2050113,-1.116999,0.008708372,0.4141866
0.9387809,-0.260367,-0.2933142,-1.051225,0.3988184,0.3987387
0.9502222,-0.2756008,-0.333324,-1.135974,0.8072287,0.4023146
0.8638839,-0.24426,-0.2614065,-1.165772,1.031385,0.3815825
0.7878055,-0.2025403,-0.2046063,-1.023503,0.9097767,0.2803015
0.7441301,-0.1733963,-0.246539,-0.7924582,0.07955506,0.274191
0.8315476,-0.1651798,-0.4010324,-0.4633578,-1.195518,0.5995279
1.230397,-0.2705226,-0.7037511,-0.1303939,-1.127237,0.9459897
1.803451,-0.4317706,-1.079142,-0.07218052,0.9647857,0.6296265
1.957716,-0.4403154,-1.169149,-0.681257,2.561044,-0.01500016
1.630095,-0.1867081,-0.794119,-1.480299,1.450669,-0.2148165
1.409842,0.1494895,-0.3758531,-1.484863,-0.1442067,-0.03703431
1.325692,0.2032812,-0.3663013,-1.331416,0.000806533,0.2219086
1.187096,0.04733501,-0.4825862,-1.644319,0.1068078,0.2856162
1.138845,-0.02664063,-0.3888838,-1.614896,-0.219874,0.2232002
1.027889,-0.0954553,-0.3466268,-1.363741,-0.07778598,0.2602513
0.8550826,-0.1625474,-0.329347,-1.243247,-0.2611601,0.1851611
0.8018279,-0.1214969,-0.2345432,-0.9787853,-0.4175102,0.126918
0.7003291,-0.08032788,-0.2658798,-0.9161398,-0.5686569,0.1668465
0.6423673,-0.07484158,-0.2762174,-0.8603372,-0.9057234,0.1299741
0.73353,-0.07816897,-0.250737,-0.5854709,-0.5058793,0.1175985
0.8174469,-0.1064528,-0.2825666,-0.5106666,0.01030443,0.05810206
0.8522227,-0.1020042,-0.2291363,-0.3865218,0.5421668,0.003769972
0.8101441,-0.07741428,-0.1715777,-0.246798,1.072368,0.02621784
0.7590543,-0.04702094,-0.1202178,-0.2757386,0.9940136,0.08441686
0.7469724,0.02680234,-0.06496324,-0.2221935,1.075663,0.2454652
0.7876193,0.06231654,-0.09071857,-0.2090349,1.252128,0.2976351
0.8802309,0.05787823,-0.09647083,-0.266335,1.413139,0.2324547
0.8716054,0.05744598,-0.08239102,-0.4850269,1.61655,0.1945357
0.7920401,0.03082909,-0.082376,-0.866264,1.191973,0.1282711
0.7332915,0.04512822,-0.04928342,-0.9254039,0.4502921,0.05512007
0.710326,0.06109279,-0.0326281,-0.7248178,-0.2993297,-0.07210516
0.7331525,-0.0108332,-0.128534,-0.5597735,-0.6507397,-0.2164552
0.6989206,-0.1116999,-0.3220106,-0.2784698,-0.5580183,-0.2669931
0.6760305,-0.2372099,-0.4846782,0.02815509,-0.9297759,-0.2290054
0.8355583,-0.372725,-0.6022409,0.06305291,-1.488842,-0.1189689
1.251758,-0.4722511,-0.6883269,-0.003745871,-1.531831,-0.06231114
1.786665,-0.5121031,-0.7609879,0.02031387,-0.7344663,-0.2554961
1.949423,-0.4781503,-0.8212907,0.01680118,0.4818365,-0.5734029
1.706259,-0.4254242,-0.6540976,0.03708197,0.6702335,-0.6015062
1.517878,-0.3326445,-0.3554612,0.1781898,-0.07342542,-0.3807858
1.367176,-0.2417701,-0.2875963,0.3776238,-0.3896065,-0.1881106
1.180542,-0.2112504,-0.3164388,0.4587825,-0.03869792,-0.03108073
1.053922,-0.08270383,-0.2365485,0.3568164,0.230842,0.03441628
0.8814678,0.05600223,-0.1825264,0.2685329,0.06724265,0.09539026
0.7784131,0.01129469,-0.1942223,0.1549566,0.02471467,0.1785308
0.7272553,-0.05992476,-0.1892266,-0.04403901,0.06221673,0.1360055
0.5936455,-0.08426184,-0.1595819,-0.1489233,-0.1105936,0.09501558
0.6132995,-0.1223506,-0.1387391,-0.2079897,-0.03573115,0.02251944
0.6432136,-0.1170393,-0.1201572,-0.2668196,0.06371247,-0.1344263
0.5962309,-0.08328403,-0.08278403,-0.3099628,0.0623115,-0.2484931
0.6790861,-0.0626998,-0.05173059,-0.4484773,0.3637623,-0.4171202
0.6710351,-0.04918895,-0.03736059,-0.5614353,0.5377009,-0.5844469
0.6233775,-0.06831408,-0.0370693,-0.5346325,0.3899066,-0.6274844
0.6426882,-0.09590861,-0.0256001,-0.4622809,0.1296335,-0.622482
0.6170334,-0.1257502,-0.01410731,-0.2491636,-0.2693899,-0.5657555
0.7291931,-0.1838066,-0.08272448,0.1277597,-0.4596835,-0.4602963
0.9232177,-0.247864,-0.2228889,0.4091084,-0.167853,-0.3466519
0.9983824,-0.2802713,-0.3472049,0.4834591,0.3668515,-0.2381437
0.8476501,-0.2179148,-0.3631694,0.4593715,0.6293164,-0.08322935
0.5808672,-0.1094008,-0.3744021,0.4906297,-0.03335882,0.1687787
0.61648,-0.02012315,-0.5037854,0.643849,-1.485535,0.4344567
1.048848,0.02886462,-0.6403984,0.8062563,-1.97107,0.5760206
1.675911,-0.08980766,-0.8618395,0.7978773,-0.2674127,0.4217979
1.963429,-0.2641749,-1.014146,0.5355659,1.592666,0.04556844
1.703215,-0.2661407,-0.7089816,0.2626175,1.266626,-0.213953
1.484739,-0.11927,-0.2994159,0.2840271,0.06143902,-0.2026911
1.259496,0.03227678,-0.2044177,0.318234,-0.3767657,-0.1072993
0.9587358,0.008146844,-0.2686167,0.09008536,-0.543551,-0.1819922
0.9669982,-0.08670118,-0.2659997,-0.0356022,-0.4447158,-0.2437398
0.9192378,-0.09553432,-0.1785774,0.1131275,-0.4322876,-0.2119411
0.7569214,-0.1225361,-0.1515964,0.3466461,-0.7824466,-0.2619366
0.7513112,-0.103422,-0.1569845,0.5814763,-0.6152324,-0.1916376
0.716437,-0.05230355,-0.1542481,0.7151686,-0.4457627,-0.1148439
0.7333477,-0.06680676,-0.1890203,0.7200893,-0.2419677,-0.1644486
0.7477592,-0.03769065,-0.1888184,0.6296792,0.3208826,-0.1207733
0.6665125,-0.008032002,-0.1554594,0.4410217,0.4256939,-0.1002418
0.6340448,0.01259548,-0.09180351,0.2450279,0.4582889,-0.0712086
0.5768101,0.08319826,-0.05405775,0.1322803,0.1797023,-0.02147074
0.6022441,0.1265285,-0.1049632,0.08454815,-0.4687419,-0.04579848
0.714448,0.1462648,-0.1668027,0.03431841,-0.5385727,-0.06081431
0.7529821,0.1049138,-0.2860204,0.02828644,-0.3882556,-0.1696135
0.7131082,0.001898177,-0.4093542,0.05322181,-0.286688,-0.2004518
0.5854005,-0.08529881,-0.4321272,-0.001310238,-0.3744926,-0.001710305
0.6398211,-0.2101143,-0.493119,-0.06743566,-0.6032818,0.1456208
1.057566,-0.365849,-0.6179742,-0.09183942,-0.7505093,0.03945901
1.664245,-0.4925662,-0.688672,-0.04765646,-0.7766327,-0.2887846
1.976179,-0.5218005,-0.7315805,0.04285596,-0.01666386,-0.5254261
1.733646,-0.4146111,-0.758088,0.09674453,0.7069426,-0.4612103
1.514754,-0.2803818,-0.5780903,0.3072224,0.2998515,-0.1955599
1.366637,-0.1816525,-0.3044892,0.6416299,-0.2605441,0.05196521
1.139432,-0.1560515,-0.2972632,0.6940328,-0.3037328,0.1491859
1.157142,-0.1779143,-0.367525,0.5150028,-0.1015033,0.1763934
1.019768,-0.1278246,-0.3045081,0.3729141,0.0987833,0.1973349
0.773835,-0.08032819,-0.2735527,0.2205757,0.05303772,0.2328107
0.7681974,-0.08535729,-0.2234717,0.1073066,-0.1019972,0.1833126
0.6621499,-0.07621773,-0.1548749,0.04882733,-0.02127911,0.08078959
0.6261499,-0.07553343,-0.1729538,-0.1406941,0.1059205,0.03213371
0.6476628,-0.0643496,-0.1499721,-0.3161651,0.2633444,-0.0644657
0.5465541,-0.05108527,-0.09015509,-0.4122851,0.4423042,-0.09807852
0.5533794,-0.06332854,-0.07918741,-0.5229822,0.237036,-0.1062817
0.5168192,-0.07074575,-0.0694704,-0.5038722,-0.08923331,-0.1598484
0.5315286,-0.1029278,-0.08077127,-0.4623618,-0.4552642,-0.1244154
0.7268407,-0.1708519,-0.1359633,-0.3591336,-0.6463894,-0.1453833
0.8773108,-0.2646477,-0.2353302,-0.02422507,-0.3076089,-0.1716805
0.8983264,-0.312439,-0.3434605,0.1982153,-0.04132216,-0.106811
0.766443,-0.2698352,-0.3609298,0.2074126,0.3094914,-0.00277728
0.7243697,-0.2705797,-0.3365621,0.2984801,0.476434,0.1841771
0.7774064,-0.2567703,-0.3724977,0.4601226,-0.3297127,0.3613003
0.8295111,-0.08824319,-0.512958,0.4329695,-1.183567,0.6064607
1.180998,0.03825042,-0.7415163,0.3529339,-1.16349,0.8250872
1.707226,-0.07580758,-0.8614755,0.3775758,0.03545375,0.6741925
1.973021,-0.2290857,-0.8080482,0.1130528,1.550634,0.2865611
1.870067,-0.163062,-0.7045657,-0.3712459,1.682038,-0.08636457
1.67916,-0.03214833,-0.4856828,-0.6765103,0.8348146,-0.1929258
1.471527,0.03465153,-0.2160125,-0.7558937,0.176962,0.02195724
1.210477,0.06794771,-0.1678946,-0.6271767,-0.2660789,0.1090114
1.236086,-0.01080184,-0.2587449,-0.5015572,-0.445755,0.09033906
1.249074,-0.07074913,-0.3154821,-0.3588559,-0.2384549,0.1682218
1.035883,-0.08478158,-0.3690323,-0.1455701,0.03147813,0.127025
0.9606813,-0.1134884,-0.3375078,-0.05882159,0.1367709,0.1129501
0.7636785,-0.07203651,-0.2231481,0.03917331,0.06875309,0.1491215
0.5437058,-0.103487,-0.1450154,0.1760572,-0.06607744,0.09951119
0.5573524,-0.1282288,-0.06631807,0.2932839,0.06675958,0.1239435
0.5244282,-0.05554137,-0.02096546,0.3827156,0.2783163,0.09806396
0.556621,-0.001413527,-0.04238719,0.2947554,0.3658488,0.06565358
0.6405372,0.1409985,-0.06064788,0.08902144,0.5419967,0.1413561
0.657211,0.2387539,-0.112288,-0.2598563,0.5531602,0.230724
0.7032137,0.2263689,-0.1569665,-0.6668642,0.4308383,0.4217056
0.7282899,0.2237043,-0.1340018,-0.8740495,0.3899877,0.5130718
0.8204641,0.162737,-0.1127404,-1.011177,0.3619698,0.4182349
0.8956128,0.1247301,-0.100697,-1.086443,0.4088632,0.3398466
0.834458,0.104782,-0.1371754,-0.9786676,0.3317762,0.2256492
0.765499,0.03073988,-0.2386155,-0.7641543,0.07905974,0.1618452
0.6264281,-0.08235014,-0.3649842,-0.4761006,-0.3633713,0.2778817
0.5619652,-0.260477,-0.593079,-0.3072965,-1.005892,0.3850821
0.9168641,-0.4552614,-0.8417663,-0.4118225,-1.109311,0.2484271
1.537956,-0.6124857,-0.9517091,-0.6093706,-0.1429013,-0.1151686
1.83982,-0.5739374,-0.9543659,-0.8503019,0.8186801,-0.4188626
1.655187,-0.2943813,-0.804959,-1.066935,0.2978138,-0.2994738
1.557947,-0.007898018,-0.6013198,-0.9465519,-0.474863,0.1017433
1.669105,0.05009748,-0.6229062,-0.7433582,-0.1317193,0.3189439
1.584599,-0.1410468,-0.6531146,-0.8261552,0.2202952,0.487852
1.450004,-0.2371967,-0.5092491,-0.9114342,0.7325482,0.6674519
1.295818,-0.1597748,-0.4426311,-0.9814609,1.277001,0.7302656
0.9700515,-0.1277043,-0.3507613,-1.022226,0.9611722,0.8398382
0.7488933,-0.09149812,-0.2163335,-0.9276139,0.7367374,0.8286766
0.5947549,-0.09911254,-0.2055169,-0.97115,0.3502879,0.7626836
0.4826482,-0.1781043,-0.1361891,-0.9306037,-0.1411697,0.7271754
0.561464,-0.2169973,-0.1038088,-0.7915435,0.04717853,0.532128
0.6155779,-0.2341285,-0.158656,-0.8380081,0.05868637,0.3918999
0.6863192,-0.2061393,-0.1419666,-0.8468697,0.1914637,0.2566207
0.745088,-0.1600003,-0.164095,-0.9059742,0.4735396,0.09615689
0.6829282,-0.1012885,-0.1465308,-1.020856,0.4188673,0.01132066
0.7134218,-0.02355323,-0.0945937,-1.063777,0.5087538,-0.1132517
0.724311,-0.0418405,-0.1061991,-1.109607,0.3254645,-0.1255847
0.7335628,-0.08125567,-0.05490504,-1.038572,0.06465228,-0.1183644
0.8419088,-0.0906039,-0.02503556,-0.9388875,0.1178842,-0.1877082
0.8706159,-0.1513894,-0.07281069,-0.849187,0.1657842,-0.2283385
0.8976141,-0.1955496,-0.1095461,-0.8033516,0.2998144,-0.3149492
0.9118833,-0.2098834,-0.1109709,-0.7775825,0.3441928,-0.3386773
0.8704643,-0.2308272,-0.1010596,-0.5296663,0.4021286,-0.28985
0.8162074,-0.2274123,-0.1429131,-0.4021633,0.4793731,-0.2461278
0.6482387,-0.212636,-0.1971475,-0.4479113,0.4310505,-0.1829348
0.5040005,-0.1509448,-0.2693107,-0.2910365,0.3232306,-0.1078704
0.5525986,-0.01803394,-0.416553,-0.1219394,-0.6076621,0.09454033
0.9011508,0.03782568,-0.6528698,0.06623359,-2.102514,0.4381625
1.552715,-0.1307876,-0.9552218,0.6181752,-2.022582,0.6409681
1.958773,-0.4449322,-1.088822,1.145292,0.5838763,0.3706778
1.821334,-0.595063,-0.852173,0.7593419,2.762642,-0.199725
1.587737,-0.3360908,-0.4246439,0.1158274,1.397533,-0.5960241
1.423606,0.07481904,-0.1973741,0.2850483,-0.6257656,-0.6346524
1.263018,0.183889,-0.2657666,0.3578411,-0.4176433,-0.3780471
1.242884,0.09017557,-0.3539505,0.1190517,-0.193305,-0.2261711
1.116202,0.05505494,-0.3254669,0.1925368,-0.1909676,-0.3026899
0.80965,-0.0534965,-0.2216618,0.1667254,0.1909611,-0.3590716
0.6573226,-0.2105972,-0.06906044,0.2838054,-0.3471781,-0.4447461
0.585906,-0.1534449,-0.01287621,0.6304508,-0.8732534,-0.440425
0.5902967,-0.01048204,-0.1084943,0.8094506,-1.009119,-0.3243366
0.6790144,-0.01275813,-0.1595997,0.932083,-0.9772179,-0.2726865
0.6852254,-0.01422503,-0.1637202,0.8673786,-0.2194799,-0.2180312
0.7024177,0.003112886,-0.1956504,0.8499608,0.3422205,-0.2328887
0.6536191,-0.03017047,-0.1456386,0.8840487,0.5907871,-0.2430575
0.5561911,0.01685564,-0.08042492,0.7277586,0.4333982,-0.1901453
0.5818083,0.07173736,-0.05628575,0.6762565,0.0480049,-0.1647923
0.679737,0.1202624,-0.06096976,0.5186578,0.2338671,-0.04985519
0.8379692,0.1802468,-0.1643334,0.2608403,0.2051421,-0.007728459
0.8702613,0.1404183,-0.258536,0.1052125,0.208576,-0.114759
0.7791813,0.1220068,-0.2692773,-0.0293391,0.01551483,-0.2049908
0.7765489,0.08986411,-0.2629292,0.06373122,-0.7328068,-0.3096564
0.7382238,-0.05555626,-0.3462193,0.2027822,-0.845299,-0.3593696
0.7367368,-0.2513374,-0.5349125,0.2358718,-0.9598677,-0.3560155
1.029511,-0.4525759,-0.6397058,0.3332624,-1.149195,-0.3893609
1.575825,-0.5040066,-0.649087,0.531071,-0.6653666,-0.4316306
1.964001,-0.4197732,-0.7019945,0.7575232,0.0004834269,-0.5036599
1.903924,-0.2966688,-0.7360112,0.7258775,0.4491605,-0.5226235
1.684901,-0.1804252,-0.5716291,0.6944493,0.3473443,-0.3394218
1.469004,-0.1456979,-0.3297756,0.9389906,-0.006901387,-0.05256735
1.260903,-0.1350245,-0.2882368,0.985903,-0.2364412,0.08928861
1.159475,-0.1447981,-0.3068056,0.8503348,0.002532455,0.1094486
0.9758808,-0.1286259,-0.2596244,0.7268607,0.4310986,0.1386207
0.7409397,-0.06493106,-0.2249622,0.4718653,0.0672991,0.1014735
0.6583744,-0.0481849,-0.1437229,0.347086,-0.3122337,0.02952738
0.6303339,-0.0525963,-0.09066262,0.3864648,-0.3731775,-0.03618855
0.6300975,-0.09573419,-0.1311659,0.3174894,-0.4865343,-0.1322073
0.6428402,-0.1294958,-0.1476468,0.2248045,-0.2384876,-0.220171
0.6299466,-0.1103998,-0.1343032,0.1347765,-0.08670305,-0.3732994
0.6516063,-0.1114506,-0.1261012,0.06113186,0.009427089,-0.54475
0.6876106,-0.1108099,-0.07597007,0.116543,0.1253589,-0.6307979
0.7238584,-0.1342435,-0.03384857,0.2970016,-0.2354858,-0.6846618
0.7407801,-0.1688743,-0.09683603,0.5113409,-0.5805776,-0.6466609
0.7886916,-0.1754383,-0.1652892,0.6755099,-0.6516608,-0.5817652
0.9354942,-0.1957171,-0.1804302,1.028596,-0.3471283,-0.5905376
0.9903727,-0.2228573,-0.257449,1.401871,0.2264659,-0.5631543
0.8987354,-0.2323529,-0.331579,1.25422,0.5230064,-0.5398411
0.7951765,-0.1826832,-0.2746873,1.119573,0.59972,-0.5237913
0.6703837,-0.1056099,-0.2362814,1.287077,0.3318119,-0.3864716
0.6810729,-0.03758699,-0.3632891,1.18961,-0.3626675,-0.1366251
1.12195,0.01911364,-0.5986202,1.102259,-1.263264,0.1783874
1.758884,0.01007373,-0.8867842,1.028755,-1.468706,0.3551546
1.925324,-0.003222384,-0.982076,0.6558083,0.4004208,0.2170362
1.651634,0.008969987,-0.6566454,0.472495,2.187374,-0.01222664
1.443174,-0.009938116,-0.290498,0.3325545,0.9831599,-0.1541153
1.206359,-0.0403896,-0.2373128,0.09725028,-0.5416634,-0.2124902
1.019584,-0.08792002,-0.2778753,0.1436122,-0.2647158,-0.1983709
1.067238,-0.1295724,-0.2507785,0.1685967,-0.3179106,-0.2746247
0.9378109,-0.1118933,-0.2398085,0.1311158,-0.3741512,-0.3535825
0.7542064,-0.08067193,-0.2125683,0.2573872,0.1019822,-0.2621824
0.7558543,-0.07234594,-0.1549493,0.443217,-0.335845,-0.2039882
0.6805276,-0.03698277,-0.1447446,0.6664936,-0.6710884,-0.1624646
0.6471145,0.001004849,-0.1325905,0.8033675,-0.5907955,-0.07264644
0.7156777,-0.0282911,-0.1459178,0.8224495,-0.5144568,-0.07696683
0.7889957,-0.05435915,-0.2120147,0.773648,0.1872536,-0.1020249
0.8266848,-0.02546019,-0.1919401,0.639613,0.5123651,-0.1281697
0.7229345,0.006485609,-0.1409497,0.5065187,0.3981815,-0.1392323
0.6429036,0.04766741,-0.1085405,0.3702826,0.3010532,-0.08919537
0.6298164,0.09187183,-0.05310891,0.3117165,0.007240588,-0.0827802
0.6893672,0.0786576,-0.07171059,0.3570509,0.05851764,-0.1292946
0.8308307,0.04049032,-0.1286973,0.3357955,0.1375689,-0.2413282
0.8203695,0.02487575,-0.1966199,0.3505661,0.06953863,-0.3471892
0.7043662,-0.004263374,-0.2993607,0.481355,-0.2491169,-0.3318125
0.6227186,-0.06318996,-0.3607367,0.5733931,-0.9782235,-0.2787164
0.7481015,-0.197751,-0.4579105,0.5818205,-1.338329,-0.2525253
1.214396,-0.39272,-0.6025091,0.5802422,-1.227685,-0.3140722
1.745992,-0.470047,-0.7279151,0.6223355,-0.3753603,-0.4724594
1.948136,-0.4046653,-0.8216751,0.5955363,0.8466603,-0.5677695
1.677651,-0.2915591,-0.6593954,0.5700197,0.7917902,-0.4548396
1.355561,-0.1395852,-0.3089212,0.7929326,-0.1498422,-0.2293528
1.222017,-0.05365369,-0.1898621,1.050893,-0.6065438,-0.1342898
1.161948,-0.1114087,-0.2682226,1.072427,-0.4957379,-0.1437324
1.195892,-0.1469093,-0.3109936,0.9629241,-0.06513791,-0.1151342
1.02563,-0.1098428,-0.3085533,0.84938,0.2444971,-0.04287885
0.7873884,-0.09905766,-0.2508164,0.729303,0.08253464,0.03173141
0.7284853,-0.05497469,-0.1607901,0.6209326,-0.1301964,0.05474241
0.5782005,-0.03037656,-0.1418219,0.5328209,-0.2620418,0.06023387
0.5604061,-0.07062583,-0.1731715,0.3471852,-0.3875948,0.03577558
0.6363049,-0.04657688,-0.1433037,0.1802289,-0.1966648,-0.05987979
0.6279139,-0.03054078,-0.09394189,0.1230892,0.1234951,-0.194456
0.7002072,-0.03819356,-0.06549226,0.005365732,0.3039362,-0.3712733
0.6524905,-0.04278059,-0.01522875,-0.03990684,0.285834,-0.5012884
0.5908068,-0.1203114,-0.009338922,0.03153241,-0.02443337,-0.511574
0.614921,-0.1679238,-0.03540704,0.1440411,-0.3394627,-0.4252724
0.6321809,-0.1895384,-0.0641593,0.4402175,-0.4254963,-0.2711532
0.7531199,-0.2234428,-0.1642999,0.716425,-0.3094365,-0.1595837
0.7858841,-0.2058593,-0.3088391,0.7734219,-0.08887466,-0.1166791
0.7262098,-0.1817173,-0.450353,0.9764628,-0.1707302,0.02037634
0.7969591,-0.136097,-0.583312,1.338189,-1.18387,0.3634253
1.186641,-0.1022978,-0.7852429,1.26832,-1.890123,0.6118142
1.80622,-0.1468062,-1.013853,0.8900585,0.3353635,0.3698371
1.953311,-0.1481306,-0.9868494,0.4072697,3.036037,-0.1429997
1.58616,-0.002317387,-0.6013357,-0.2964367,2.120867,-0.3959525
1.286003,0.1414584,-0.105751,-0.3257038,0.3569583,-0.1736834
1.137688,0.07631032,0.03239117,0.2140425,-0.3594982,0.1661705
1.183266,-0.05633877,-0.2025604,0.2435388,-1.255393,0.1327987
1.280385,-0.114454,-0.3444723,0.1373111,-0.616285,-0.1265734
1.102869,-0.1639739,-0.3759049,0.08088118,0.1249036,-0.3422915
0.8435195,-0.1222604,-0.2862063,0.0733102,-0.5990993,-0.4239027
0.6321925,-0.07140445,-0.06247873,0.3188417,-0.5695176,-0.2918005
0.5520012,-0.1183957,-0.09583539,0.4758896,-0.8878876,-0.2101284
0.7363124,-0.1005592,-0.1821585,0.6878573,-1.278467,-0.1783108
0.7900855,-0.05491162,-0.1338312,0.8081761,-0.3316242,-0.1129968
0.7043512,-0.01364144,-0.2136843,0.7279616,0.2966419,-0.1937001
0.6811106,0.07254756,-0.2052436,0.6972092,0.68049,-0.1744026
0.5419859,0.1120583,-0.1237731,0.4746101,0.4544383,-0.06589895
0.5180968,0.1414089,-0.1377166,0.385657,-0.1048906,0.007572631
0.7037199,0.1414268,-0.1195663,0.3404797,0.2774954,0.1130723
0.871405,0.09614893,-0.158876,-0.01548621,0.4443537,0.0002013672
0.864273,0.09807125,-0.1934641,-0.21949,0.5402305,-0.132697
0.6034035,0.05689527,-0.224703,-0.2201252,0.1652967,-0.1215301
0.4158703,-0.03483294,-0.3428069,-0.01955835,-1.053543,-0.1010377
0.4780478,-0.1119453,-0.3808035,0.2396114,-1.453282,0.01074946
0.7286049,-0.2415979,-0.4654231,0.3272903,-1.587731,0.01928734
1.230438,-0.4560789,-0.6868924,0.5342943,-1.434163,-0.08487808
1.799482,-0.5880218,-0.8821491,0.7094386,-0.03768492,-0.2376569
1.94992,-0.4650371,-0.9571065,0.6244832,1.291147,-0.4001151
1.632222,-0.3166391,-0.732822,0.5929381,1.128082,-0.24763
1.40788,-0.2255747,-0.3202195,0.8353038,0.009566308,-0.06132893
1.285564,-0.09599489,-0.1715205,1.010838,-0.3561765,-0.1199278
1.129894,-0.1314017,-0.2813126,0.862729,-0.163184,-0.1329138
1.130339,-0.1896648,-0.3028896,0.7254139,-0.05174243,-0.1095912
1.027597,-0.1517399,-0.2735026,0.710358,0.1532648,-0.1107363
0.8448617,-0.1782037,-0.2669199,0.7075423,-0.07868593,-0.04295822
0.7304102,-0.1391605,-0.1902741,0.6677224,-0.2374319,-0.007390876
0.6107934,-0.09008591,-0.1626862,0.5230711,-0.1785789,-0.08705373
0.637375,-0.07096465,-0.1657155,0.3665339,-0.2724898,-0.216326
0.6867915,-0.01503594,-0.1229931,0.2467627,-0.07295674,-0.3411711
0.6988287,-0.04963404,-0.1342631,0.1522029,0.0567366,-0.4137869
0.6989132,-0.07745872,-0.1347848,0.09550522,0.04494981,-0.3994947
0.9720823,-0.2764234,-0.159659,-0.6725585,-0.1011493,-0.194116
1.074534,-0.341198,-0.146283,-0.6197753,-0.2410377,-0.1301669
1.369661,-0.3627367,-0.07731111,-0.3818643,-0.6182307,-0.1645358
1.880475,-0.5240979,-0.05761049,-0.07131209,-0.5399069,-0.316984
2.109117,-0.6305408,-0.06615296,0.0991683,-0.06287804,-0.510707
1.853869,-0.4858081,-0.00193987,0.226486,0.3114859,-0.4736029
1.600419,-0.2859116,0.09733239,0.5345989,0.04548604,-0.1707669
1.445554,-0.1592736,0.1511919,0.5528267,-0.3083816,0.1298374
1.326182,-0.1455165,0.07391865,0.4117088,-0.03046681,0.2774893
1.215183,-0.1461921,-0.0332149,0.3761851,0.1825775,0.2082407
0.9475445,-0.03072233,-0.03036773,0.06940506,0.2391186,0.2045286
0.8231415,-0.02527102,-0.003954219,-0.1894121,0.2754748,0.3402076
0.6924694,-0.05845864,0.03546031,-0.2232811,-0.03682675,0.3411973
0.3971098,-0.009905518,0.05910423,-0.2861147,-0.1850665,0.3498019
0.4763333,-0.1019364,0.04172608,-0.2433125,-0.1023284,0.3202967
0.5443394,-0.1415855,0.05908915,-0.1866356,-0.02996617,0.1432719
0.4787722,-0.09579156,0.07609075,-0.1777084,0.2078164,-0.002273671
0.6396122,-0.1162655,0.1015514,-0.1831224,0.2380017,-0.1707182
0.6095669,-0.06302535,0.1215111,-0.3042423,-0.01968206,-0.2429409
0.6080857,-0.0638031,0.1079574,-0.4115067,-0.3467214,-0.1900912
0.7456034,-0.1209393,0.1169732,-0.3968978,-0.546477,-0.1843383
0.8110803,-0.162998,0.115555,-0.147337,-0.3402132,-0.1580402
1.051136,-0.2846142,0.1097431,0.2985724,-0.1084716,-0.232409
1.16852,-0.3414107,0.1080869,0.5921013,0.01220789,-0.3390963
1.095619,-0.2962567,0.09014247,0.7555397,0.1565541,-0.2535663
1.033979,-0.2158996,0.09668477,0.9557492,0.2034836,-0.1078192
0.9667319,-0.1606575,0.08991117,0.9683736,0.2909405,-0.008983915
0.9721142,-0.159599,0.04639346,0.7620693,0.3491329,-0.05756358
0.9032169,-0.136191,0.01003802,0.6466358,0.289791,-0.1082766
0.8613645,-0.1333427,-0.0007391144,0.6344491,-0.04550784,0.2036985
1.039843,-0.1089974,-0.01902225,0.6412674,-0.7258187,0.6991126
1.442782,-0.08653392,-0.1199371,0.5985581,-0.6946918,0.8358086
1.895257,-0.2012451,-0.2573894,0.252163,0.6281488,0.3282573
1.942327,-0.2927806,-0.2591189,-0.1190229,1.684018,-0.3603584
1.667603,-0.1895039,-0.05076357,-0.09301337,0.9604092,-0.4792002
1.406154,-0.03629882,0.1634956,-0.05594822,-0.1113531,-0.2479163
1.201622,-0.03226564,0.1604658,-0.2208713,-0.00965288,-0.1817424
1.076735,-0.07079305,0.1095447,-0.1657694,-0.1583824,-0.1147765
0.9662542,-0.05978567,0.1487014,0.01584615,-0.7592131,0.01887391
0.8558255,-0.07377812,0.1007742,0.05220233,-0.8224848,0.1326727
0.8297164,-0.0680485,-0.002043176,0.2007446,-0.9114573,0.2916431
0.8761875,-0.07193684,-0.0358631,0.318497,-0.8056252,0.3651223
0.9052043,-0.08966828,-0.0676579,0.2685938,-0.4203846,0.2767216
0.9033659,-0.08079854,-0.06964589,0.3143515,-0.03142381,0.154166
0.8612161,-0.08386961,-0.01404134,0.3366643,0.5302705,0.0639518
0.7565793,-0.05290535,0.04085787,0.355631,0.6327218,0.01748045
0.6980836,-0.02528522,0.06812813,0.358352,0.6186762,0.0125128
0.6898836,-0.007339996,0.04153969,0.2252761,0.7530724,-0.00568821
0.6830907,0.05396757,0.03690213,0.1243355,0.7362522,-0.06570754
0.7134912,0.1060883,0.09162682,-0.05517165,0.9068259,-0.1317103
0.7464893,0.1547313,0.1496655,-0.2851612,0.7425875,-0.1901641
0.7591308,0.1730031,0.1959723,-0.4375402,0.3233928,-0.1904133
0.7849342,0.1436278,0.1659115,-0.6000756,0.04264707,-0.1249522
0.8466658,0.1005528,0.06689332,-0.7540964,-0.2088393,-0.0819317
0.86623,0.009183173,-0.04375126,-0.8733811,-0.1622936,-0.07063905
0.7919787,-0.1080042,-0.1254911,-0.8115987,-0.3371077,-0.08892317
0.7530694,-0.2123594,-0.1394775,-0.7125919,-0.6317317,-0.1275879
0.8562835,-0.3298878,-0.1587873,-0.7672146,-0.5369725,-0.1504644
1.176302,-0.4684705,-0.1017318,-0.6247848,-0.476327,-0.1588879
1.667722,-0.5305749,0.04519192,-0.1426647,-0.3785841,-0.1971484
1.947668,-0.4535423,0.05466925,0.2823634,-0.2006819,-0.3203921
1.836693,-0.346752,0.03385098,0.1387366,-0.1281002,-0.3988055
1.680053,-0.2447297,0.09864233,-0.1235153,-0.1369597,-0.2916591
1.570514,-0.1382675,0.1081331,0.1498702,-0.1519652,0.01566617
1.363827,-0.09718006,0.05433483,0.2289775,0.03924683,0.3817126
1.204021,-0.07910695,0.001670833,-0.0156745,0.3611883,0.3954216
1.003469,-0.03853192,0.04895336,-0.1072478,0.5452548,0.1882743
0.7386501,-0.02258293,0.1415526,-0.3893668,0.2671013,0.222487
0.6951891,-0.05060283,0.1401996,-0.5264957,-0.1997925,0.2806783
0.717048,-0.1179596,0.1302247,-0.3740516,-0.2344737,0.252454
0.7025304,-0.1667866,0.12708,-0.3366537,-0.08675184,0.1768764
0.7437559,-0.1763114,0.1155943,-0.2139605,0.02545852,-0.1233595
0.7397684,-0.1899579,0.1231643,-0.2040922,0.1073266,-0.3782501
0.7165832,-0.1474717,0.1098882,-0.276232,-0.002219581,-0.4181242
0.6755876,-0.06723652,0.1200072,-0.1597555,-0.2026055,-0.3213782
0.6663475,-0.07858691,0.1264445,-0.1039923,-0.3900029,-0.1151756
0.740422,-0.1245082,0.1008602,-0.001076485,-0.3376632,-0.04818655
0.8182584,-0.1442119,0.08558918,0.1139219,-0.1403321,-0.1129753
0.9225315,-0.1831762,0.05086508,0.09198875,-0.1478485,-0.1981707
0.9489966,-0.1845825,0.04226388,0.1059305,-0.1136498,-0.2526151
0.912897,-0.1603888,0.0708071,0.1602343,0.03895206,-0.1273738
0.9339198,-0.1732723,0.0861122,0.2414371,0.1879666,-0.01658156
0.9140108,-0.1674894,0.08974665,0.3037488,0.2267863,-0.03632964
0.9162601,-0.1612553,0.07841505,0.3866174,-0.03771798,0.08445563
1.033522,-0.1603662,0.05292106,0.5162596,-0.2009699,0.4383021
1.223855,-0.1310224,-0.05298031,0.4495251,-0.0535949,0.6719629
1.429251,-0.1319418,-0.2122946,0.1082687,0.1287607,0.5861091
1.611134,-0.1512329,-0.2527045,-0.2496819,0.3590955,0.4584625
1.770071,-0.184087,-0.1686221,-0.2345443,0.5452587,0.2701191
1.773745,-0.227082,-0.07242381,-0.03775265,0.5732582,-0.07287204
1.613169,-0.2092151,0.01627376,-0.0868786,0.5846029,-0.3212553
1.357246,-0.1736804,0.1013037,-0.09871332,0.5542075,-0.3892895
1.00149,-0.1292209,0.1580498,-0.03620384,0.253281,-0.3013394
0.7876123,-0.04050758,0.2085927,-0.05980065,-0.3115695,-0.1593861
0.7511647,0.01199081,0.2040385,0.03184116,-0.9461486,-0.01544672
0.7257836,0.01168626,0.09689618,0.07769656,-1.321998,0.2659662
0.8012542,0.01377286,-0.01829262,0.0630595,-1.129,0.4934461
0.9077652,0.01020545,-0.1025701,0.04513298,-0.7841051,0.4573824
0.9504265,-0.01554257,-0.1075279,-0.08359462,-0.3922147,0.3436333
0.9792936,-0.03347764,-0.03606346,-0.06360657,0.3330483,0.21452
0.9101909,-0.01081289,0.02590329,-0.0347627,0.7885078,0.1054929
0.7827916,0.03044649,0.1019647,-0.174769,0.7685125,0.1112866
0.708454,0.06276723,0.1336337,-0.2916272,0.6393345,0.08985916
0.6930797,0.1194533,0.1248719,-0.4418047,0.5367739,0.03958263
0.743319,0.1874868,0.1384225,-0.5904861,0.5031486,0.01944073
0.7841727,0.1947751,0.1070844,-0.8192777,0.35898,-0.01403478
0.7770969,0.1610641,0.07546022,-1.146136,0.1977322,0.00569031
0.7919934,0.1235386,0.05122624,-1.316688,0.1036842,0.009206548
0.8326902,0.07189537,0.02728541,-1.392701,0.09783521,-0.04087764
0.8525716,0.0264568,0.04644069,-1.381558,0.175813,-0.07504079
0.846064,-0.01354458,0.02076967,-1.330977,0.08533465,-0.1109334
0.853279,-0.09989656,-0.07306745,-1.351381,0.06486813,-0.06752641
0.9090537,-0.2354664,-0.1850548,-1.343346,0.04282484,0.0789511
1.055278,-0.3258924,-0.2006384,-1.475705,-0.2282951,0.1877391
1.424251,-0.4291791,-0.08632393,-1.623279,-0.3769296,0.09216663
1.870669,-0.643363,-0.01587612,-1.32811,-0.2554387,-0.1475436
1.887113,-0.6920039,0.00552634,-0.7732032,0.1072284,-0.3451705
1.677076,-0.508413,0.05306388,-0.3698811,0.3100562,-0.5108144
1.703009,-0.3322393,0.1106522,-0.2685705,0.1109047,-0.3884033
1.585161,-0.1426378,0.124986,-0.4058382,0.01909363,0.06657356
1.391102,-0.08829932,0.06044585,-0.5422513,0.2081278,0.3527226
1.353027,-0.1290202,0.03957508,-0.7242464,0.4268115,0.4146978
1.074135,-0.01441076,0.05435916,-1.061193,0.4108754,0.3474662
0.8327781,-0.01813074,0.03404455,-1.307362,0.2316331,0.2874139
0.8325354,-0.07168803,0.04054744,-1.367313,0.06998004,0.3633515
0.7891245,-0.05916346,0.02730235,-1.32757,-0.01105443,0.3000411
0.7384749,-0.1670687,0.007647695,-1.270797,0.1183482,0.2093364
0.7040685,-0.1494416,0.02516149,-1.265816,0.203938,0.17234
0.7465433,-0.1183852,0.04854542,-1.181372,0.2288929,0.1205871
0.7279108,-0.1546458,0.09656709,-1.099195,0.3204706,0.1831818
0.6899108,-0.06351543,0.1198781,-1.132036,0.2903735,0.1201629
0.7769359,-0.08040062,0.1091141,-1.137714,0.2801221,0.02260826
0.7376626,-0.104397,0.1102965,-1.222075,0.209012,0.01427526
0.7314939,-0.09088666,0.1149359,-1.34307,-0.03381259,-0.02663756
0.7491579,-0.1988082,0.1289245,-1.308769,-0.1223058,0.08309726
0.7402183,-0.247787,0.1393708,-1.208422,0.0650859,0.132023
0.8742133,-0.2595791,0.1303851,-1.115172,0.341982,0.007225575
0.8978924,-0.2495212,0.1289179,-1.100156,0.4841141,-0.1304353
0.8942895,-0.2066675,0.1864793,-1.084235,0.5555921,-0.2505391
0.8622662,-0.1749785,0.2480798,-0.9898906,0.4810572,-0.2237652
0.7314877,-0.09403359,0.2006513,-0.9934785,0.05785865,-0.1944637
0.7677491,-0.07550058,0.06593307,-1.029112,-0.546998,-0.03287682
0.9454825,-0.119542,-0.1288741,-0.9953302,-0.9675548,0.4848301
1.350046,-0.1937675,-0.3511422,-0.9761653,-0.6287735,0.9782852
1.790919,-0.3811754,-0.5176527,-0.9484758,0.2985176,1.078347
1.867189,-0.5750224,-0.540306,-0.9055937,1.049086,0.5360423
1.760165,-0.6077975,-0.2965179,-0.7929545,1.249683,-0.2819144
1.685408,-0.4065433,-0.01029122,-0.6440109,0.6962217,-0.6568443
1.589219,-0.145424,-0.03787628,-0.758343,0.2747254,-0.7319238
1.365952,-0.03065465,-0.1300336,-1.065243,0.3974806,-0.6641507
1.158934,0.006467844,-0.06985913,-1.235274,-0.01113572,-0.370871
1.06539,0.003209254,-0.06586887,-1.251674,-0.5422383,-0.1631462
0.9803707,-0.07886532,-0.06268005,-1.155214,-0.5011711,-0.01995975
0.9505227,-0.1701924,-0.02325604,-0.995478,-0.356401,0.1095582
0.8907504,-0.187868,-0.0415288,-0.7804573,-0.2671694,0.06697535
0.8159388,-0.1419281,-0.01537891,-0.5825738,-0.2996669,0.0571464
0.833973,-0.1022704,-0.01794408,-0.6027168,-0.2866871,0.02520788
0.8198883,-0.09707697,-0.06325877,-0.6176009,-0.09627791,-0.08153267
0.7956896,-0.1140191,-0.03446287,-0.5166063,0.07664849,-0.06465885
0.7929273,-0.1298455,-0.02301635,-0.42462,0.1961786,-0.06178766
0.8052462,-0.1159895,-0.008671985,-0.1780184,0.2642722,-0.09165188
0.8512504,-0.08209971,0.01350909,0.05874191,0.5099736,-0.1610564
0.8452125,-0.04152967,0.005322997,0.09339128,0.8384354,-0.3189997
0.8038166,0.01585228,0.06080869,0.05076153,0.9267275,-0.3924235
0.7604283,0.06417353,0.1205833,-0.03600804,0.9385192,-0.4058217
0.743082,0.09516685,0.1449519,-0.1239908,0.9467685,-0.4198941
0.7651416,0.1305412,0.1556502,-0.2507858,0.8624128,-0.42472
0.7731665,0.1531612,0.1380501,-0.4101821,0.6896993,-0.4291339
0.8325318,0.1571107,0.1404097,-0.5503879,0.4873755,-0.4423508
0.9180396,0.1394402,0.1185858,-0.6463669,0.2036555,-0.505103
0.905047,0.08878511,0.04666376,-0.6660508,-0.1783486,-0.5343287
0.8296269,-0.04486245,-0.1069802,-0.7581393,-0.407663,-0.4653625
0.7805778,-0.2681077,-0.3512041,-0.8084366,-0.6336794,-0.3104011
0.9008453,-0.3989947,-0.3829997,-0.6868269,-0.9006544,-0.1578523
1.357828,-0.492465,-0.1326357,-0.4331591,-0.6818128,-0.1479889
1.845913,-0.6887647,0.01853426,0.09772386,-0.2331655,-0.2700366
1.809851,-0.6460584,-0.03201284,0.4737786,-0.06365257,-0.4639901
1.632238,-0.3527516,-0.04003819,0.3413594,-0.03768126,-0.5744425
1.799574,-0.1743971,0.08308126,0.2763125,-0.3361759,-0.4108154
1.779945,-0.08549696,0.1599983,0.4136403,-0.6374796,-0.1777019
1.595711,-0.1286364,0.09093077,0.4310391,-0.1080506,-0.1284298
1.49365,-0.1940797,0.04006593,0.5053541,0.5263261,-0.04671808
1.206254,-0.09808811,0.07449104,0.5917338,0.482773,0.1276151
1.056815,-0.05587078,0.0698355,0.329081,0.3775266,0.2124103
0.835886,0.05523624,0.02326237,-0.1240806,0.2832588,0.3161453
0.4378838,0.1555063,-0.0009781959,-0.5590377,-0.1084438,0.3639692
0.5155633,0.02296941,-0.003656717,-0.7705574,-0.3342537,0.2912538
0.5379293,-0.02809812,0.0251466,-0.5012371,-0.1988288,0.2578708
0.454267,-0.08153654,0.06306415,-0.2488739,0.01104353,0.09393726
0.6724198,-0.1554634,0.07273698,-0.2982661,0.3217553,-0.1964325
0.637428,-0.09274655,0.09491444,-0.2888691,0.51722,-0.3980745
0.5798405,-0.09472557,0.1415476,-0.2212507,0.1833925,-0.4496683
0.6175786,-0.08200405,0.1622032,-0.1220249,-0.3688723,-0.2840534
0.5322076,-0.08618191,0.1410097,0.04419759,-0.7213054,-0.03574588
0.697695,-0.185373,0.1037446,0.2847799,-0.6975408,0.108224
0.9278905,-0.2438775,0.07214024,0.6965513,-0.2946017,0.02910305
1.007779,-0.316107,0.04565789,0.9989838,-0.006895462,-0.1516422
0.965024,-0.3271903,0.04668151,1.064182,-0.009308361,-0.1392274
0.8686273,-0.2476168,0.04340761,1.165204,-0.07069115,-0.06982734
0.9104073,-0.1635923,-0.03448738,1.170011,-0.1995833,0.06517142
0.9423995,-0.07795447,-0.1237116,1.034884,-0.415632,0.494314
1.164619,-0.05073828,-0.1698869,0.9576551,-0.5459382,0.9569694
1.649974,-0.07920847,-0.2450306,0.668776,-0.2466749,0.9671159
1.87061,-0.1945887,-0.3028813,0.3364504,0.5204037,0.360475
1.805077,-0.3083169,-0.1370846,0.4286639,1.110342,-0.2628747
1.707829,-0.2216445,0.1366371,0.6168102,0.7413967,-0.3782734
1.606586,-0.06474492,0.1685411,0.6353908,0.07259133,-0.2803355
1.451483,0.001440361,0.06601345,0.4446444,0.2259573,-0.2388352
1.259646,0.0144935,0.05955282,0.09975614,0.2447529,-0.200775
1.068151,0.0001552294,0.09131931,0.04686156,-0.2667002,-0.09320485
0.878415,-0.027747,0.1108019,0.1714366,-0.5947949,0.03032492
0.8099913,-0.05738998,0.08140847,0.2063181,-1.00635,0.1868482
0.7995398,-0.08180504,0.03669236,0.3804089,-1.033177,0.3604839
0.7513068,-0.09256489,0.0022357,0.5133455,-0.8230317,0.3864283
0.7524084,-0.104737,-0.06170375,0.470262,-0.8125295,0.3480526
0.757254,-0.1044465,-0.050196,0.5317125,-0.26958,0.2659625
0.7410573,-0.08795027,0.01431365,0.6049585,0.1611179,0.1894944
0.7304183,-0.07209806,0.03830308,0.6023657,0.2561595,0.1881178
0.7392586,-0.01573576,0.06650683,0.6363433,0.4207099,0.1237139
0.7674152,0.04860967,0.04792103,0.5579593,0.3421022,0.06849679
0.7770191,0.08375903,0.01899489,0.3664869,0.4745066,-0.02563743
0.799359,0.1358214,0.07514316,0.2190036,0.6052798,-0.1460845
0.8103584,0.1591414,0.1260895,0.0527712,0.4536881,-0.211628
0.8010804,0.1453032,0.1375656,-0.09366071,0.2764396,-0.3247972
0.8018234,0.1270333,0.1200948,-0.1556983,-0.201225,-0.3273452
0.7858216,0.06484849,0.06291842,-0.2324641,-0.5109279,-0.2665006
0.7817307,-0.03230241,-0.03732306,-0.27808,-0.3683011,-0.2091111
0.8260648,-0.1459704,-0.1896133,-0.2686475,-0.1419132,-0.0811872
1.028461,-0.2836449,-0.2079594,-0.3441244,-0.0058156,0.002941759
1.457796,-0.443449,-0.06885548,-0.3975261,-0.3039073,0.08661595
1.810317,-0.555131,-0.02909775,-0.1715769,-0.6210456,0.02395068
1.79801,-0.5404832,-0.0469272,0.1398711,-0.2512954,-0.174429
1.636308,-0.4478461,0.01094423,0.2015881,0.2277785,-0.1935198
1.538011,-0.328853,0.1196573,0.30861,0.1454013,-0.1289641
1.406513,-0.2457829,0.1760232,0.6260014,-0.2467729,-0.03864277
1.310483,-0.2413681,0.06247644,0.7121196,-0.493596,0.09937967
1.237712,-0.22303,-0.02775499,0.6578233,-0.100663,0.1999769
1.040231,-0.1606857,0.03781839,0.6952275,0.4342535,0.2585241
0.8897887,-0.09828473,0.08906503,0.6154273,0.1526169,0.2818334
0.8393907,-0.06907499,0.1047605,0.5879501,-0.127801,0.3432392
0.7820535,-0.08132531,0.1074839,0.6034793,-0.112779,0.3495278
0.7295675,-0.0715513,0.08402791,0.4477094,-0.3408722,0.260618
0.7004142,-0.06007391,0.08309578,0.3753695,-0.1594391,0.1970802
0.7342792,-0.07608065,0.08730664,0.3373111,0.07695732,0.06165988
0.7332614,-0.06552644,0.08885161,0.2498264,-0.0004087967,-0.1029942
0.713224,-0.04887427,0.1216543,0.228058,0.1499407,-0.2327768
0.7595026,-0.0311195,0.1600646,0.1430238,0.06875737,-0.3246843
0.7489902,-0.01823607,0.1618396,0.08191917,-0.1892097,-0.2381536
0.7518794,-0.06684875,0.1409811,0.07301322,-0.2686571,-0.1268531
0.8045463,-0.1524577,0.1248174,0.08044733,-0.2823373,-0.07118608
0.8596386,-0.2296679,0.1080944,0.2241573,-0.09264416,-0.01415591
0.9259599,-0.2533012,0.08540175,0.3742983,0.02961738,-0.1026187
0.8407137,-0.2222903,0.06304283,0.5079377,0.1096561,-0.1743332
0.6968701,-0.1934704,0.04172261,0.6125436,0.1813226,-0.06834627
0.6798784,-0.1269947,-0.00558132,0.5041324,-0.2073686,0.1040765
0.8267704,-0.03058297,-0.09623925,0.3102781,-0.7050466,0.438121
1.260075,-0.0135198,-0.2044598,0.2249433,-0.6918993,0.9385143
1.790975,-0.1043184,-0.3335972,0.126474,-0.01128519,1.12098
2.029488,-0.2910277,-0.3708426,0.02188865,1.111952,0.5651473
1.933844,-0.4015217,-0.1086233,0.157007,1.746342,-0.1229359
