accx,accy,accz,gyrox,gyroy,gyroz
0.9546698,0.2414149,0.2290136,0.05373942,-0.04120399,0.1262042
0.9525576,0.2394359,0.2283518,0.04779883,-0.05398629,0.128073
0.9503212,0.2389561,0.2265508,0.04491789,-0.0488103,0.1272426
0.9543866,0.2397388,0.229722,0.04121509,-0.04570531,0.1367032
0.9585887,0.2426475,0.2292429,0.03838057,-0.04531503,0.1402718
0.9604191,0.244326,0.2280428,0.04551175,-0.04189251,0.137762
0.9600492,0.2457161,0.226175,0.05023173,-0.05465451,0.1344202
0.9580172,0.2495622,0.2210944,0.04583018,-0.05654959,0.1336459
0.9586173,0.2489507,0.2195415,0.04188297,-0.04982823,0.1380574
0.9595115,0.2448971,0.2188484,0.03881855,-0.042636,0.1412089
0.9605477,0.2434279,0.2211269,0.03305696,-0.03642978,0.1436426
0.9617272,0.2421007,0.2260024,0.02625569,-0.04871069,0.1426358
0.9598417,0.2412034,0.2264726,0.02493071,-0.06002573,0.1355072
0.9593566,0.2429099,0.2270217,0.02636276,-0.06563921,0.1254449
0.9599853,0.2448126,0.2284157,0.0267421,-0.06202199,0.1210837
0.9595219,0.2466373,0.2304555,0.02747437,-0.04684632,0.1242674
0.9598876,0.2496306,0.2334274,0.02717266,-0.03971834,0.1254571
0.9596291,0.2499925,0.2332622,0.03045321,-0.04067259,0.1324079
0.9596997,0.2458017,0.2330597,0.03895722,-0.0479767,0.1403956
0.9598586,0.24151,0.2321125,0.04778056,-0.0528827,0.1369944
0.9595272,0.2408346,0.2309625,0.0472163,-0.05698116,0.1375681
0.9598956,0.2421905,0.2316379,0.03935499,-0.05641117,0.1392025
0.959637,0.2413483,0.2268637,0.03840132,-0.0463655,0.1325626
0.9596949,0.239506,0.2243438,0.03762084,-0.05632389,0.1286906
0.9598393,0.2387327,0.2326693,0.03665776,-0.06358312,0.1278684
0.9588574,0.2390168,0.2384269,0.03841407,-0.05236771,0.1277209
0.9562728,0.2419352,0.2345412,0.03414177,-0.05329385,0.1289236
0.9530224,0.2440616,0.2314351,0.03347136,-0.05693799,0.1279228
0.9542455,0.2439395,0.2343506,0.03764129,-0.05998243,0.1270301
0.9577693,0.2441363,0.2356377,0.04028361,-0.06066065,0.1274422
0.9586304,0.242121,0.2355345,0.04129311,-0.05867551,0.1249683
0.9585788,0.237443,0.2355886,0.03840014,-0.06526629,0.1223496
0.9581343,0.2356793,0.2306776,0.0379521,-0.06343217,0.1234028
0.9582156,0.2407952,0.2268118,0.0378371,-0.05717345,0.125867
0.9586535,0.246125,0.2260946,0.03629225,-0.05512525,0.1275363
0.9580578,0.2455747,0.2258872,0.03474083,-0.05276683,0.1250988
0.9589341,0.245875,0.2265352,0.02826428,-0.05210136,0.120978
0.9611664,0.2491283,0.2234212,0.02398553,-0.04444541,0.1201221
0.9627005,0.2500224,0.2213358,0.02540794,-0.03965856,0.1196796
0.9612596,0.247149,0.2238961,0.02779899,-0.04012877,0.1191548
0.9584621,0.24274,0.2268184,0.0284687,-0.03758048,0.1187407
0.9597504,0.2413492,0.2295626,0.03117176,-0.04216054,0.1163402
0.9604327,0.2425327,0.2298627,0.03802315,-0.04979818,0.1113937
0.95898,0.2442829,0.2305503,0.04093722,-0.05816369,0.1068816
0.9600727,0.2475474,0.2323798,0.04499489,-0.06116382,0.1090795
0.9598286,0.247851,0.230277,0.04958718,-0.05309743,0.1113214
0.9593335,0.2451745,0.2282083,0.04881137,-0.04772017,0.1068565
0.9601451,0.2440629,0.2286672,0.04991082,-0.04113959,0.104305
0.9591014,0.2424324,0.2269114,0.04424632,-0.03840699,0.1041712
0.9579649,0.2417145,0.2240157,0.03353114,-0.04387005,0.1041155
0.9565663,0.2421007,0.2255987,0.0330932,-0.04128201,0.1046876
0.9568303,0.2411406,0.2275236,0.03404034,-0.03808704,0.1004129
0.9593763,0.2418364,0.225881,0.03084822,-0.03561265,0.09875405
0.9595876,0.2415689,0.2269652,0.02976367,-0.03155715,0.1018708
0.9580506,0.239409,0.2304148,0.02942066,-0.0349944,0.09771549
0.9563354,0.2392773,0.2324228,0.03248995,-0.04190233,0.09650776
0.9565704,0.241568,0.2308121,0.04306737,-0.05150804,0.1037848
0.9576479,0.2459448,0.2249987,0.04881669,-0.0552841,0.1071165
0.9566928,0.2467945,0.2227293,0.04043518,-0.05295076,0.1068439
0.9577934,0.2450305,0.22546,0.03115729,-0.05109872,0.103643
0.9582758,0.246146,0.2268819,0.0277143,-0.03793796,0.09901505
0.9544171,0.2459461,0.2247331,0.01720706,-0.02676223,0.09544125
0.9522994,0.245496,0.2233553,0.004095935,-0.0263078,0.09505595
0.9551078,0.246192,0.2282965,0.008713427,-0.02528525,0.1028588
0.9584421,0.2454163,0.2321782,0.02058339,-0.03153717,0.1062861
0.9573844,0.2450014,0.2296071,0.02129752,-0.04222054,0.1018857
0.9574409,0.2444465,0.2282425,0.01580227,-0.04605209,0.1002494
0.9596877,0.2452243,0.2293269,0.009513401,-0.04034883,0.1014914
0.9577661,0.2473968,0.2284919,0.01163236,-0.02891863,0.1046585
0.9573776,0.2473741,0.2273105,0.01700853,-0.02252715,0.1037622
0.9569178,0.247109,0.2289372,0.01420055,-0.02474058,0.1000368
0.9541879,0.2467573,0.2306256,0.01971561,-0.03075014,0.09805625
0.9568903,0.2446505,0.2305658,0.02556537,-0.03277651,0.09635717
0.9578228,0.243028,0.2306847,0.01818537,-0.03830391,0.09531901
0.9560527,0.2436234,0.2302555,0.01530238,-0.04832533,0.09025257
0.9574906,0.2451378,0.2292919,0.01439176,-0.04453236,0.08794215
0.9564944,0.2476983,0.2270829,0.01222137,-0.03314725,0.08928624
0.9548779,0.2504308,0.2244561,0.01779446,-0.02477087,0.08658156
0.9544357,0.2459287,0.2239859,0.02427484,-0.02412115,0.08698575
0.9555003,0.239559,0.2236834,0.02303389,-0.0341398,0.08642417
0.9591988,0.2419984,0.2242783,0.01897059,-0.03881316,0.08425242
0.9595341,0.244436,0.2261005,0.0208974,-0.03697114,0.08662308
0.959028,0.2440462,0.2276199,0.02029044,-0.03382964,0.08766198
0.9585652,0.2450973,0.229775,0.01690391,-0.03042127,0.0871907
0.9559283,0.2442893,0.229705,0.01916729,-0.03510638,0.08320949
0.9568199,0.2456937,0.2289756,0.01948001,-0.04158923,0.07806598
0.9581423,0.2492913,0.2321429,0.0204717,-0.04270256,0.07892464
0.9590313,0.2500615,0.2355877,0.02053497,-0.03537417,0.0788704
0.9619941,0.2484101,0.2382562,0.01554997,-0.02670641,0.07665709
0.960632,0.245315,0.2378705,0.01566673,-0.03160293,0.07695145
0.9585574,0.2454127,0.2297246,0.01947217,-0.03710796,0.07587012
0.9601885,0.2457838,0.2261117,0.02593648,-0.03653132,0.0724132
0.9597248,0.2417605,0.2309332,0.02927106,-0.03834393,0.06931437
0.9582079,0.2400659,0.2290909,0.02211034,-0.03578275,0.06662793
0.9575278,0.2441065,0.2254155,0.01880278,-0.03255754,0.0644746
0.9564458,0.2501125,0.2243475,0.02375827,-0.03271424,0.06299064
0.95694,0.2506326,0.2197504,0.02587677,-0.02565309,0.05981004
0.9572643,0.2462567,0.2213681,0.01945877,-0.01646441,0.05448308
0.9566073,0.2444014,0.2273849,0.01272868,-0.01628444,0.05312134
0.9567522,0.2442203,0.2297507,0.01523489,-0.01899601,0.05641387
0.9552025,0.245446,0.2302799,0.01761188,-0.02054517,0.05720968
0.9537982,0.2464063,0.2280883,0.01725141,-0.02690203,0.05660617
0.9559406,0.2460058,0.228831,0.017374,-0.03022806,0.05604655
0.9575983,0.2486492,0.2283105,0.01224032,-0.02170454,0.05382711
0.9557214,0.2506898,0.2248457,0.008738551,-0.01173361,0.05399823
0.9530748,0.2492437,0.2290523,0.01228932,-0.009063792,0.05773929
0.9529749,0.2477801,0.2347322,0.01659424,-0.01642199,0.06375886
0.955799,0.2475218,0.2374256,0.02058421,-0.02490293,0.06709521
0.9596399,0.2463279,0.2324008,0.02243973,-0.02079572,0.06612389
0.960614,0.2441232,0.2231582,0.02036218,-0.01780097,0.06756345
0.9584705,0.2444107,0.2267084,0.01826895,-0.02151568,0.06757535
0.9558019,0.2453507,0.2324923,0.01327868,-0.01998525,0.06588187
0.9515984,0.2477087,0.2377285,0.005782001,-0.02044053,0.06738619
0.9507698,0.2514077,0.2444177,0.007153792,-0.02105504,0.06622594
0.9558067,0.2505962,0.2329055,0.0101654,-0.01653209,0.0644338
0.9580109,0.2509373,0.2207971,0.007134171,-0.01450197,0.06446466
0.9568761,0.2537546,0.2272782,0.009757144,-0.01254737,0.06255725
0.9565089,0.2518045,0.2306059,0.01285275,-0.01292466,0.06092584
0.9561173,0.2495785,0.2295572,0.01212921,-0.01458477,0.05991139
0.955465,0.2497738,0.2333106,0.01406839,-0.01395611,0.06036501
0.9553915,0.2482055,0.2321382,0.01493663,-0.02267371,0.06123509
0.9569303,0.246751,0.2298356,0.0195579,-0.03064205,0.05989675
0.9581154,0.2480577,0.2313076,0.02258173,-0.02285776,0.06073708
0.9584343,0.2491827,0.2305059,0.01234068,-0.01610919,0.06132399
0.9578692,0.2483541,0.2321543,0.001654959,-0.01910292,0.05693169
0.9544328,0.2475036,0.2334287,-0.0003863956,-0.01778465,0.05319007
0.9518287,0.2471629,0.227519,0.003290368,-0.01263592,0.05424171
0.9526466,0.2468754,0.2233239,0.008402338,-0.0153044,0.05482543
0.9543982,0.2464537,0.2251456,0.0119835,-0.01965997,0.05065109
0.9552089,0.2457733,0.2291652,0.01160543,-0.0218492,0.04797215
0.9559721,0.2464817,0.2323124,0.006620794,-0.02235776,0.0491205
0.9576801,0.2478294,0.2340481,0.005683285,-0.01470777,0.0499655
0.9583552,0.2473706,0.23343,0.006778777,-0.01001712,0.0511417
0.9575362,0.2478004,0.2306792,0.006811686,-0.01414747,0.05143591
0.9552532,0.2490416,0.2304944,0.009636192,-0.01664415,0.05100461
0.9532096,0.2476613,0.2305228,0.01031617,-0.01748984,0.05142774
0.9527201,0.2466994,0.230861,0.01309539,-0.01884144,0.04976512
0.9525312,0.2473898,0.2337284,0.01630581,-0.01909656,0.04726988
0.9540004,0.2472798,0.2352401,0.01190492,-0.01652146,0.04687246
0.9545251,0.2473057,0.2361233,0.008368773,-0.01445168,0.04695543
0.9538487,0.2481574,0.2359566,0.008397156,-0.01442707,0.04632511
0.954796,0.2485374,0.2360616,0.00887739,-0.01545508,0.04497477
0.9559618,0.246908,0.2365248,0.009535814,-0.01823855,0.04151226
0.9582009,0.2450834,0.2343042,0.009151596,-0.01392331,0.03870146
0.9581115,0.2459235,0.2302203,0.005561246,-0.008197247,0.04051031
0.9560749,0.2471488,0.2252274,-0.0001271057,-0.0103623,0.0418519
0.9571005,0.2475565,0.2293518,0.0006892945,-0.01079585,0.04110393
0.9572004,0.2491337,0.2371858,0.004991726,-0.01066915,0.04175335
0.9566154,0.2505117,0.2331594,0.005348064,-0.01112947,0.04098575
0.9571673,0.2499356,0.2286999,0.004752607,-0.01020534,0.04130007
0.9570397,0.2481255,0.2295884,0.003978857,-0.01218827,0.04331746
0.9578221,0.2448762,0.2318281,0.004607063,-0.01322927,0.04149752
0.9583094,0.2419308,0.2354583,0.006864015,-0.01304106,0.04042921
0.9565874,0.2432306,0.23502,0.008599179,-0.01504755,0.04043793
0.9548565,0.2465563,0.2350768,0.01214789,-0.01656679,0.03951445
0.9554056,0.2477732,0.2397756,0.01270273,-0.01241966,0.03877588
0.9562147,0.2479533,0.2437296,0.008331182,-0.008651172,0.03350544
0.9554064,0.246926,0.2426378,0.00694164,-0.01787606,0.03078027
0.9538329,0.2452775,0.2355862,0.003487373,-0.02501642,0.03262382
0.9515204,0.2456992,0.2298286,-0.004943634,-0.01370261,0.03062201
0.9524962,0.24649,0.2298616,-0.01260207,-0.0041525,0.02615251
0.955786,0.2478166,0.2329558,-0.01711945,-0.009912031,0.01893867
0.9555001,0.2511203,0.2368271,-0.003019706,-0.01663008,0.0164882
0.9556635,0.2531048,0.2381827,0.02335774,-0.01998305,0.01927317
0.9568011,0.2524527,0.2314797,0.02806949,-0.0255095,0.01517387
0.9561928,0.2508777,0.2220158,0.009467426,-0.03817237,0.00646654
0.9547164,0.2501003,0.2257953,-0.0128011,-0.06659463,-0.002904151
0.9522667,0.2527597,0.2362769,-0.02006508,-0.08313726,-0.000622344
0.9556656,0.2571818,0.2380569,-0.005391377,-0.05610638,0.01859062
0.9624253,0.2549978,0.2295645,0.005162835,-0.01011504,0.03596444
0.9626049,0.242955,0.215895,-0.007579741,0.02294622,0.03827377
0.9590159,0.233117,0.2153956,-0.02763028,0.01327712,0.02070951
0.9538481,0.2412035,0.2201241,-0.03730094,-0.03721274,0.0004436504
0.9518132,0.2587605,0.2138559,-0.03278964,-0.06243388,-0.002316742
0.9559535,0.2657676,0.2148156,-0.02798521,-0.03673689,0.007991802
0.957963,0.2649855,0.219003,-0.04062417,0.0005611027,0.02501144
0.9565305,0.2602951,0.2230518,-0.0487356,0.008431982,0.03482282
0.9548049,0.2505754,0.2364641,-0.03221146,-0.004443363,0.03307214
0.9538177,0.2420581,0.2401825,-0.01712087,-0.007095617,0.03228966
0.9542604,0.235045,0.237411,-0.01651969,-0.01495594,0.03390294
0.9551624,0.2360399,0.2429116,-0.01659952,-0.0200884,0.03519666
0.9558896,0.2400616,0.2476387,-0.004095838,-0.01163033,0.03211525
0.9553375,0.2360915,0.2464926,0.01706274,-0.01007288,0.03095019
0.9547123,0.2371978,0.2444338,0.03300829,0.001347944,0.0399696
0.9547789,0.237446,0.2458046,0.05403886,0.01606383,0.04538735
0.9545066,0.2289007,0.2426517,0.08021155,0.01169215,0.0343564
0.9526869,0.2262614,0.2370945,0.1029567,-0.01604735,0.01799967
0.9484988,0.2361261,0.2350985,0.1331277,-0.0728203,0.01918584
0.9482051,0.2638183,0.2242975,0.155833,-0.1223923,0.03621845
0.9582299,0.293789,0.2023154,0.1571254,-0.1228171,0.05243533
0.9721153,0.3011133,0.1785909,0.1433733,-0.07043674,0.05702927
0.9743023,0.2917214,0.1731545,0.09566786,-0.01205282,0.04506702
0.9654949,0.277941,0.1833457,0.01470601,-0.006749233,0.03109674
0.9611693,0.2650396,0.180129,-0.05600005,-0.0306382,0.01896486
0.9620518,0.2628546,0.1806983,-0.1013337,-0.02699772,0.009984237
0.9670078,0.2736015,0.1967107,-0.1279232,0.01283719,0.01241846
0.9721472,0.2730595,0.2073596,-0.1235596,0.06946084,0.01486334
0.9636631,0.2476958,0.2198792,-0.09765859,0.08886931,0.02436708
0.9514312,0.2198349,0.2392187,-0.06318445,0.02805542,0.03179385
0.9506038,0.2142684,0.2543587,-0.01704416,-0.04599689,0.009588832
0.9559496,0.2316187,0.2491409,0.01316255,-0.05765416,-0.0115897
0.9610187,0.2463527,0.2300876,0.02639358,-0.02806727,-0.005363561
0.9619962,0.2550674,0.2190518,0.04004502,0.007040547,0.009743662
0.9595947,0.2589841,0.2079615,0.0415805,0.02086933,0.0164294
0.9557468,0.2481544,0.2084046,0.04143666,0.0001413211,0.01137821
0.9518581,0.2443706,0.2142271,0.02664558,-0.02535987,0.001804137
0.9550194,0.2445551,0.2062467,-0.0131734,-0.02482645,-0.003693177
0.9608535,0.2452118,0.2131498,-0.04001012,-0.009246521,-0.002251247
0.9596383,0.2557252,0.220993,-0.04396919,-0.001468809,-0.0003200267
0.9566956,0.2526251,0.2242989,-0.02358734,0.001145053,0.003052058
0.9543381,0.2485612,0.23726,0.005067527,-0.007939604,0.01473807
0.952176,0.2487062,0.2357514,0.02138387,-0.01691443,0.02625092
0.9568986,0.2412956,0.2357321,0.03256857,-0.0003684942,0.02604404
0.9628449,0.2434344,0.2331092,0.0280684,0.02308089,0.01934732
0.9628131,0.2456545,0.2167955,0.0149054,0.04827161,0.01771422
0.9609088,0.2493182,0.215619,0.006132052,0.06314661,0.01432694
0.9580514,0.2575199,0.2196913,0.009247227,0.04513542,0.01109714
0.9561094,0.255624,0.2205823,0.02182884,0.03131538,0.01685643
0.9570817,0.2535368,0.2163258,0.01429808,0.04382376,0.01868712
0.9585188,0.2487389,0.209162,-0.000380378,0.04909174,0.01631662
0.9602443,0.2410127,0.2141302,-0.01305659,0.03422347,0.01271178
0.9616625,0.2425764,0.2180175,-0.02313432,0.02018296,0.002460164
0.9609557,0.2473833,0.2207987,-0.01574203,0.01374696,-0.005642285
0.9588962,0.2522121,0.2247486,-0.01426481,0.01693591,-0.002134911
0.9578126,0.2568461,0.2241722,-0.01294862,0.01996667,0.00380842
0.9569991,0.254495,0.2260885,-0.01203533,-0.002255705,-0.002991281
0.9548086,0.24877,0.225699,-0.02350469,-0.02473609,-0.006077601
0.9526946,0.2502558,0.228311,-0.01824576,-0.02313761,0.003420012
0.9535702,0.2526119,0.2328678,-0.01170506,-0.01635244,0.008558166
0.9598962,0.2513854,0.2281339,-0.01031478,-0.008802664,0.0131231
0.9670786,0.2492856,0.2247396,-0.005841023,0.001599282,0.01366998
0.9671115,0.2444264,0.2243882,-0.01743778,0.002842354,0.004766269
0.960818,0.2482816,0.2270036,-0.02162763,-0.01307478,-0.002360177
0.9555833,0.2553934,0.2324215,-0.01015702,-0.0239449,-4.19797e-05
0.9549909,0.2536463,0.2272617,0.002225307,-0.01531322,0.01163331
0.9566198,0.2533675,0.2195601,0.01023696,-0.004733846,0.01578152
0.9576617,0.2518617,0.2197923,0.005443281,0.0004638942,0.009193202
0.9582158,0.2476285,0.2226905,0.004835617,-0.004378897,0.002238206
0.9610894,0.245353,0.226063,0.007054263,-0.01090557,-0.0006060724
0.9630371,0.2448826,0.2228798,0.006506362,-0.006259223,0.00409318
0.9587958,0.248036,0.2155053,0.01214599,-0.003263501,0.004260224
0.9555641,0.2485798,0.2128738,0.007579996,-0.003457432,-0.002227351
0.9578868,0.2501985,0.2117267,-0.005485005,-0.002003492,-0.005707809
0.9594007,0.2538022,0.2130869,-0.01389805,-0.0009939917,-0.001789291
0.9587091,0.2523901,0.2157892,-0.01556551,0.004950013,0.005175653
0.9588861,0.2523985,0.2174414,-0.01246915,0.015877,0.002253264
0.9582269,0.2513451,0.2211879,-0.01865756,0.02300089,0.002082498
0.9559426,0.2490945,0.2239729,-0.02435873,0.01893084,0.007553823
0.9555192,0.2511889,0.2265293,-0.01820441,0.008969495,0.004724885
0.9563795,0.2516087,0.2299031,-0.0133099,0.004368663,0.004919212
0.9575461,0.2503851,0.2328263,-0.006046598,0.005411515,0.008126001
0.9590697,0.249707,0.2335889,0.007824748,0.005745,0.008220547
0.9595987,0.249482,0.2279333,0.01724638,-0.0008395596,0.007763242
0.9592822,0.2486022,0.222357,0.0188212,-0.01101334,0.0040165
0.9579577,0.2465294,0.2194006,0.01531818,-0.01375993,0.002442782
0.9589424,0.2481812,0.2162295,0.008684985,-0.01199946,0.005545788
0.9606839,0.2506803,0.2162731,0.00218594,-0.01065461,0.007788058
0.9592734,0.2516982,0.2182145,0.002652732,-0.004204459,0.004500871
0.9592895,0.2532262,0.2234429,0.005423422,0.004773886,0.0003267625
0.9583171,0.251884,0.230885,0.002491785,0.006576446,0.001481145
0.95596,0.2497629,0.2310507,0.002775374,0.001583773,-0.002039617
0.9570412,0.2501073,0.2234957,0.003516363,0.001270756,-0.00746119
0.9578008,0.2514975,0.2168912,-0.002568694,0.005439121,-0.002860258
0.9593099,0.2542965,0.2160348,-0.00497186,0.006450627,0.002763158
0.9620802,0.2565135,0.2185916,-0.001443806,0.005674534,0.002282454
0.9614158,0.2552955,0.2213036,0.001336151,0.003818203,-0.00251459
0.9604534,0.2525258,0.2223472,-0.003572271,0.004950759,-0.007853169
0.9616204,0.2484991,0.2203241,-0.01456429,0.006759576,-0.007565887
0.9621274,0.2432153,0.2151058,-0.01989971,0.007064585,-0.007913182
0.9618856,0.2419947,0.2159308,-0.02048568,0.01542112,-0.01271681
0.9598623,0.2427499,0.2252271,-0.02137739,0.01884282,-0.01514949
0.9554553,0.2385532,0.2277265,-0.02270788,-0.0008942707,-0.02612942
0.9532047,0.2370035,0.2259673,-0.02435979,-0.02781519,-0.05078948
0.949125,0.2495999,0.2267181,-0.02152718,-0.03608619,-0.05863977
0.9420345,0.2665038,0.2258633,-0.0040627,-0.02966472,-0.02996662
0.9446862,0.2671389,0.2262851,0.01684449,-0.01114361,0.004761243
0.9526829,0.2568844,0.223718,0.0096151,0.02774641,0.007346873
0.9549506,0.2522056,0.2208963,-0.0005087295,0.04033845,-0.004962859
0.9547667,0.2496315,0.2228359,0.01453363,0.00460622,-0.003397079
0.9537902,0.2465249,0.2231094,0.01650566,-0.02234879,-0.001448486
0.9548651,0.2441124,0.2237999,0.006164075,-0.01960906,-0.0007489177
0.9565488,0.2441939,0.2227716,0.0006514328,-0.00159818,0.004990006
0.9542789,0.2509491,0.2178231,-0.007729472,0.0155975,0.006792952
0.9519797,0.2544023,0.21406,-0.004780988,0.0140511,0.01068898
0.9496797,0.2524805,0.2141791,-0.003953452,0.005855096,0.01219584
0.9509872,0.2526791,0.2157118,-0.01244911,0.00222967,0.005405046
0.9561857,0.2535987,0.2134754,-0.01154512,0.002219079,0.003535938
0.9576772,0.2574408,0.2150671,-0.01151379,0.006443554,0.006523172
0.9601826,0.2604928,0.2184114,-0.01092488,0.008207577,0.008913348
0.9609551,0.257354,0.2162901,-0.006364326,0.003278035,0.008448457
0.9583006,0.2541209,0.2195491,-0.003800574,-0.003308786,0.005826971
0.9601421,0.2549802,0.2268395,0.002508904,-0.004618507,0.005479702
0.9590074,0.2537236,0.2306476,0.006288886,-0.003845377,0.004630513
0.9564703,0.245908,0.229941,0.005288328,-0.0007016564,0.002664855
0.9582891,0.2417514,0.2274082,0.004932442,0.005681919,-0.0002873304
0.9582997,0.2436773,0.2278876,0.007542464,0.007353217,-0.002169495
0.9582666,0.2464124,0.224569,0.0135413,0.005635763,5.46684e-05
0.9575407,0.250802,0.2200196,0.01771835,-0.004474349,0.0001570004
0.9566672,0.2524773,0.2197227,0.02030895,-0.01583004,-0.0004345717
0.959066,0.2522806,0.2195027,0.01994939,-0.007400305,0.0007419566
0.9601821,0.2539383,0.2207071,0.0138262,0.002935909,-0.0002557391
0.959851,0.2555237,0.2167881,0.004687061,0.002252937,-0.001968207
0.9595018,0.255533,0.2114594,0.001589578,0.002682204,-0.00837056
0.959686,0.2534871,0.2142946,0.005672532,-0.003031025,-0.02031854
0.9598372,0.2527205,0.2147711,0.002994706,-0.01097859,-0.02654191
0.9577694,0.2552909,0.2157377,-0.001178028,-0.006456075,-0.02222114
0.954676,0.2607838,0.2249762,-0.002593463,-0.002461276,-0.01459624
0.9521735,0.2637835,0.2308103,-0.005630411,-0.005438322,-0.009444737
0.9553394,0.2599891,0.2231373,-0.005079462,-0.0004870735,-0.004667057
0.9605957,0.2552744,0.2093518,-0.01056272,0.01063249,0.002336995
0.959904,0.2514053,0.2033465,-0.01671599,0.01583639,0.01066258
0.9589697,0.2485061,0.2045263,-0.01535208,0.01296735,0.01088515
0.9582984,0.2481227,0.2141452,-0.01631146,0.007614949,0.006242509
0.9561404,0.247597,0.2271461,-0.01377403,0.00684967,0.009704572
0.9570365,0.2484516,0.2250331,-0.01213501,0.005378301,0.008075114
0.958259,0.2512508,0.2201838,-0.01185809,0.002420263,0.00306593
0.9582923,0.2521011,0.221666,-0.002899376,0.004778194,0.005390154
0.9586946,0.2527285,0.2171355,0.00611002,0.007696193,0.003155181
0.9591046,0.2545722,0.2175095,0.008607496,0.01087585,0.00403731
0.9599796,0.2549395,0.2216938,0.001097743,0.01170686,0.005345923
0.9599329,0.2557224,0.2190201,-0.003890344,0.006410103,-0.001057481
0.9595872,0.2560365,0.2217463,0.003871055,0.003346719,-0.0008531342
0.960946,0.2550882,0.2254765,0.007372045,0.003500953,0.0005929107
0.9623331,0.2567968,0.2229541,0.004742222,0.006709542,0.002279502
0.9621774,0.256795,0.2236231,0.003004094,0.01298826,0.004950152
0.9598704,0.2537469,0.2249486,0.001854799,0.01700084,0.0007630234
0.9573534,0.2508332,0.2248722,0.0003876645,0.01871844,-0.0027572
0.9581078,0.2478884,0.2253536,-0.00104633,0.0173278,-0.00673858
0.9589918,0.2469943,0.2239859,0.001925445,0.009213966,-0.00938302
0.9580831,0.246919,0.2213243,0.003428962,-0.002320702,-0.01099856
0.9590486,0.2484312,0.2174274,0.0008290765,-0.002803855,-0.0178345
0.9593899,0.2528742,0.2163822,-0.001552298,0.005028223,-0.01789691
0.9578377,0.2566711,0.2180745,-0.004049896,0.006605059,-0.01538275
0.9580266,0.2565973,0.2171726,-0.003805986,0.009856733,-0.01775927
0.9577638,0.2533612,0.2171535,0.00133184,0.01260488,-0.01664446
0.9564516,0.2514106,0.2179053,0.00709933,0.00894703,-0.01715331
0.9568785,0.2481386,0.2181148,0.003829903,0.005714529,-0.02228285
0.956873,0.2483993,0.2198937,-0.0003859043,-0.0007922675,-0.02541445
0.9545963,0.2551458,0.2203611,0.006124288,-0.003840469,-0.02272375
0.9518569,0.256248,0.2212695,0.009067278,-0.001695534,-0.0165089
0.9509158,0.2567111,0.2228625,0.007408449,-0.0004270353,-0.01234807
0.9525312,0.2571189,0.2206788,0.00812546,0.003937586,-0.008681409
0.9545849,0.254022,0.2194465,0.00497914,0.003958563,-0.009393594
0.9560576,0.2561297,0.2192082,0.00251649,0.002773022,-0.0162058
0.9578217,0.2559346,0.2138164,0.002833062,0.005682653,-0.01830693
0.9589559,0.2546493,0.2115998,0.001713657,0.005752208,-0.01747266
0.959622,0.2564804,0.21794,0.0003578594,0.005389845,-0.01877795
0.9593242,0.2553472,0.2230306,-0.001064807,0.004188998,-0.01987434
0.9576726,0.2573992,0.2236702,-0.001791544,0.004403797,-0.02004385
0.9580191,0.2592534,0.2234618,-0.001766785,0.007719086,-0.01801477
0.9578129,0.2579637,0.2234781,-0.001184293,0.008895994,-0.01616172
0.9552934,0.2586315,0.2225137,0.0008660243,0.006393861,-0.01411511
0.9555105,0.2591336,0.2199258,0.0003409475,0.001684723,-0.01292922
0.9570807,0.2600692,0.2194736,-0.00649144,0.001974035,-0.01292074
0.9587687,0.259678,0.2228726,-0.01123706,0.003588721,-0.008224351
0.9601848,0.2586282,0.2279382,-0.008085289,0.00366829,-0.005934316
0.9578695,0.2593245,0.2296867,-0.006153511,0.007364644,-0.007161074
0.9560509,0.2596711,0.2268124,-0.006954806,0.008377478,-0.006013425
0.9570948,0.2593509,0.2255144,-0.00629752,0.008717653,-0.005077165
0.9571774,0.2557839,0.2251472,-0.005689464,0.009322924,-0.002314787
0.9570876,0.2520439,0.2244048,-0.002193016,0.006148129,-0.001421874
0.958767,0.2524289,0.2252267,0.002409422,0.00373644,-0.003549188
0.9603654,0.2535151,0.224137,0.002722491,-0.0007124968,-0.003644202
0.9596444,0.25453,0.2226484,0.002295317,-0.003085016,-0.000350734
0.9584526,0.2555362,0.2220862,0.002962455,0.001462646,0.004871963
0.9584966,0.2541839,0.2204727,7.481097e-05,0.005822969,0.003052492
0.9590968,0.2517882,0.221387,-0.004084952,0.008227674,0.0005526939
0.9600677,0.2531474,0.2225169,-0.002782523,0.007240938,0.001811555
0.9595332,0.2561952,0.2193405,-0.001932737,0.006080141,-0.003366145
0.9575882,0.2571361,0.2168171,-0.004330967,0.007748743,-0.006657899
0.9566241,0.2572614,0.2171787,-0.003341552,0.008662976,-0.004183541
0.9570851,0.2556833,0.2175308,-0.003401972,0.01006091,-0.003113561
0.9584552,0.2551314,0.2201883,-0.004914101,0.007649074,-0.003137763
0.9577503,0.2559747,0.2253108,-0.00327375,0.001609789,-0.001716948
0.9554668,0.2554148,0.2249951,-0.002841494,0.001378464,0.001652483
0.9558226,0.2565762,0.218771,-0.003417938,0.006134444,0.0007677676
0.9561035,0.25768,0.215949,-0.004264541,0.01143799,-0.001253289
0.9547831,0.2585542,0.2199116,-0.006091326,0.01310041,-0.0004211643
0.9547867,0.2603903,0.2240821,-0.00591067,0.01081082,-0.002023503
0.9545578,0.2594459,0.2227406,-0.005084312,0.008730229,-0.001787174
0.9554238,0.2574359,0.2230226,-0.004085652,0.005251712,0.0005413402
0.9577709,0.2555464,0.2273942,-0.002429155,0.002978368,0.0004307964
0.955832,0.2541186,0.2263373,-0.003143204,0.003358553,-0.0008076493
0.9528058,0.2543603,0.2237928,-0.005127483,0.002942703,-0.001884772
0.9527273,0.2555033,0.2229208,-0.005814938,0.00439242,-0.0002331931
0.9527479,0.258201,0.2196197,-0.006200549,0.003962498,0.001190666
0.9545168,0.2589086,0.2206817,-0.005940734,0.002192568,-0.0007802895
0.9581374,0.2562198,0.2248044,-0.004676939,0.006068201,-0.002930796
0.9597217,0.2548944,0.2242793,-0.004300077,0.008237446,-0.004309211
0.9557719,0.2533028,0.2225194,-0.005562018,0.007603912,-0.004673989
0.9505537,0.2504453,0.2232906,-0.009916085,0.009438045,-0.003837823
0.952614,0.2524234,0.2238451,-0.01284851,0.009128569,-0.00289318
0.954451,0.2570483,0.2231826,-0.005623559,0.002970091,-0.002727023
0.9536141,0.2593743,0.2229916,0.00326291,-0.005170179,-0.004312759
0.95733,0.261811,0.2220139,0.003224374,-0.004393632,-0.005703277
0.9576347,0.2612418,0.222838,0.0003185693,0.003282598,-0.004944799
0.9550526,0.2575014,0.2244833,-0.001272681,0.006457377,-0.005875639
0.9560369,0.2562159,0.2232069,-0.001437316,0.005576895,-0.00668949
0.9562953,0.2553435,0.223045,-0.001456268,0.003468282,-0.004357406
0.957103,0.2557341,0.2208628,-0.003264056,0.003479181,-0.007609409
0.9573888,0.258681,0.2164689,-0.002679324,0.004195822,-0.01112891
0.9559955,0.260135,0.2164723,-0.001619028,0.003127058,-0.007188746
0.9555102,0.258585,0.2186929,-0.002347917,0.004263771,-0.004714431
0.9538146,0.2549312,0.2206293,-0.0003743113,0.004353043,-0.001738087
0.9545577,0.253361,0.2216284,0.0007127582,0.003977654,-0.001422893
0.9562556,0.2544734,0.2220786,-0.0008769225,0.004487613,-0.005465866
0.9534012,0.2552081,0.2225228,-0.002224762,0.001291577,-0.003168467
0.9525559,0.2559203,0.2235489,-0.004392279,-0.001866491,-0.00168248
0.9556832,0.2563392,0.2244446,-0.005066328,-0.002697703,-0.001331825
0.9576286,0.2561871,0.2223015,-0.00453547,-0.0003435107,-0.0003818278
0.956331,0.2553054,0.2203064,-0.005572727,0.003071033,-0.004259564
0.9540839,0.2544868,0.2184646,-0.005886918,0.001523345,-0.00480255
0.953141,0.2549289,0.2161572,-0.003929765,-0.002122681,-0.00432417
0.9512443,0.2547666,0.21539,0.0008001967,-0.004047144,-0.00431845
0.9523402,0.2540454,0.2150009,0.004037853,0.001121297,-0.003174786
0.9557152,0.2541634,0.2183695,0.0003666569,0.009866814,-0.006286226
0.9539797,0.2560535,0.2217243,-0.00314122,0.009537473,-0.005636904
0.9539986,0.2610999,0.2246095,-0.0005105242,0.006605628,0.0007272768
0.9576875,0.2673636,0.2313493,0.001374187,0.005420307,0.004841618
0.9586668,0.2679896,0.2301901,3.74786e-05,0.001483661,-0.0002162141
0.9583013,0.2595175,0.220379,-0.001687331,0.002238971,-0.007294125
0.9562573,0.252696,0.2116734,-0.004250679,0.0059836,0.0002733523
0.9550669,0.2548956,0.21064,-0.003461171,0.006943727,0.006567533
0.9566716,0.2552206,0.2210562,-0.0004627213,0.008185852,0.002153766
0.9575479,0.2513315,0.2279623,-0.0009602181,0.005477389,0.0009029252
0.9588271,0.2528269,0.2241463,4.969875e-05,0.0003870153,-0.002943352
0.9597438,0.2560183,0.2217537,0.002089202,-0.0004142361,-0.006666641
0.9581478,0.2572055,0.2226282,0.002296693,-0.001054967,-0.004115409
0.956362,0.2601452,0.2210276,0.002863421,-0.0001900053,-0.004539241
0.9575546,0.2602397,0.2191995,0.001602124,0.005389241,-0.006145403
0.9587601,0.2589511,0.2200533,0.00297678,0.008265098,-0.006007417
0.955308,0.2602996,0.2206605,0.007052607,0.001913747,-0.005080525
0.9536441,0.2595541,0.2212567,0.005225105,-0.005397859,-0.001586819
0.9570278,0.258958,0.220402,-0.0001862733,-0.000419959,0.001374126
0.959153,0.2574932,0.2175344,-0.003966912,0.005716106,0.001535805
0.9576547,0.254652,0.216862,-0.00510915,0.004295995,0.002143258
0.9559934,0.2572725,0.217878,-0.005580373,0.00611044,0.003229766
0.9572411,0.2595146,0.2210535,-0.005855429,0.004506158,-0.001431952
0.9572676,0.258012,0.2228275,-0.003838321,-0.001920624,-0.00882836
0.9569125,0.257044,0.221174,-0.007458817,-0.006014376,-0.01408819
0.9604292,0.2532497,0.2187871,-0.02405891,-0.01073079,-0.03228595
0.9635771,0.2502379,0.2181336,-0.03848993,-0.003801369,-0.06536727
0.9619148,0.2599818,0.2276224,-0.02788793,0.002624597,-0.07581038
0.9504093,0.2741428,0.2350893,0.0001792448,-0.02032928,-0.04465526
0.9390679,0.2737128,0.2280151,0.0150498,-0.0357598,-0.009279499
0.9449985,0.267318,0.2187344,0.005872429,-0.003720291,0.002744775
0.9539408,0.2642801,0.2143423,-0.005594855,0.02524482,0.009996271
0.9554939,0.258039,0.2208799,-0.0001318889,0.005226007,0.01907991
0.960569,0.2554059,0.2297293,0.0008642534,-0.0135912,0.0152332
0.9599549,0.2546622,0.2272706,-0.008206908,-0.006100311,0.002751694
0.9543311,0.2522555,0.2252143,-0.003037809,-0.006070299,-0.004411248
0.9594553,0.2593059,0.2219723,0.004358738,0.003841689,-0.0002030155
0.9612665,0.264399,0.2147778,0.01069502,0.01934868,0.005445987
0.9567035,0.2576162,0.2200442,0.01721688,0.003665089,-0.004026735
0.9562566,0.2549126,0.2272809,0.008989636,-0.01093732,-0.01717723
0.9531888,0.2628112,0.2222382,0.001892102,-0.00786348,-0.01921654
0.9534711,0.269175,0.2197385,-0.004618203,-0.007001477,-0.01176212
0.9564392,0.2640091,0.2209841,-0.006803625,0.002014714,0.007673458
0.9577135,0.2590933,0.2216921,0.001177034,0.01802635,0.02024348
0.9637284,0.2618847,0.2264036,-0.00346143,0.02158442,0.009941589
0.9632923,0.259909,0.2232792,-0.0002798168,0.01786498,0.0005540632
0.9590576,0.2527265,0.2162767,0.009392818,0.025549,0.00330424
0.959845,0.2458272,0.2171196,0.005392412,0.03072191,0.003099564
0.9575912,0.2448468,0.2188232,0.006872581,0.008497307,-0.00434696
0.9566854,0.2532639,0.223588,0.003097441,-0.0294175,-0.0145786
0.9589772,0.2612188,0.2268155,-0.005729888,-0.04779125,-0.02485334
0.9592113,0.2694057,0.2240507,-0.006545523,-0.02657624,-0.02063031
0.9556778,0.2765983,0.22339,-0.006908154,0.002399847,0.004439642
0.9508196,0.2724556,0.2200828,-0.0008107988,0.01787261,0.03033366
0.95266,0.2631675,0.2175605,0.004537271,0.03934183,0.03742269
0.9549412,0.2519081,0.2235121,0.003209593,0.04265421,0.02203736
0.9534334,0.2422245,0.2281708,0.004396656,0.01452021,0.005481378
0.955239,0.2448095,0.2249078,0.007463715,-0.004856712,-0.003503253
0.9579048,0.25255,0.2221359,0.006074544,-0.001208235,-0.0116206
0.9594203,0.2598371,0.2262147,0.000966767,0.01575017,-0.005854305
0.9558409,0.2671573,0.2284911,0.001839597,0.02617529,0.0009603935
0.9485157,0.2695165,0.2282325,0.003946331,0.02000724,0.003701842
0.9501888,0.2711992,0.230399,0.003762433,0.01772807,0.01610156
0.9557233,0.2678357,0.2317198,0.001912058,0.02549037,0.01994711
0.9572339,0.2577014,0.2329834,-0.005030753,0.03324901,0.01619141
0.9568331,0.2557016,0.2294322,-0.009371034,0.03473199,0.009805539
0.9547015,0.253374,0.2226057,-0.01453155,0.02800187,-0.002486659
0.9563408,0.2498959,0.2218371,-0.01682901,0.01718019,-0.007682355
0.9575562,0.2563133,0.2187554,-0.01351241,0.007286501,-0.00631408
0.953456,0.2599407,0.2108911,-0.01967099,0.0003082815,-0.003232271
0.9521899,0.2638727,0.2081475,-0.02699596,-0.007164364,-0.004058914
0.9521862,0.2640837,0.2149256,-0.03499121,-0.008418357,-0.004377484
0.950201,0.2559874,0.2263851,-0.04737099,-0.003514141,-0.001765232
0.9485316,0.2606063,0.2290809,-0.04833154,-0.002623508,-0.004426561
0.9505439,0.2634323,0.2283639,-0.03674297,0.003130266,-0.001713313
0.9545861,0.260464,0.2352537,-0.02232024,0.006012307,0.0005695223
0.9527085,0.2632294,0.2391752,-0.0189787,-0.005809217,-0.0008098401
0.9519726,0.2555035,0.2415417,-0.011416,-0.01633499,0.003193126
0.9547449,0.2501609,0.2464729,0.01087646,-0.01778544,0.003938822
0.9538644,0.2543042,0.2406405,0.01385351,-0.006786688,0.006577497
0.9540495,0.2562702,0.2324977,0.01796724,0.008485091,0.008084361
0.9537128,0.2595467,0.2361714,0.03645675,0.009505716,0.004429015
0.9530995,0.2585586,0.2362602,0.02934193,0.004604146,0.004360702
0.9556921,0.2571499,0.2265129,0.02187116,-0.001022068,0.0004035638
0.9557107,0.2574941,0.2215835,0.02313901,-0.01079313,-0.001459808
0.9544236,0.2554409,0.2227073,0.006676154,-0.01344502,0.002530772
0.9540124,0.258583,0.221818,-0.0003624397,-0.008759114,0.00203109
0.9541459,0.2646958,0.2184562,0.002430058,-0.0002951503,0.001964175
0.9553778,0.2688781,0.2185583,-0.002511279,0.01130124,0.001961909
0.9556243,0.2656628,0.2204208,-0.004359529,0.01015989,-0.00100613
0.955664,0.2595426,0.2170373,-0.00451705,-6.64932e-05,-0.001713927
0.95533,0.2617112,0.2157523,-0.005177423,0.0006577891,-0.001564908
0.9545443,0.2612073,0.2190101,-0.007198843,0.006134725,-0.001646515
0.9537569,0.2576063,0.2249295,-0.006349226,0.01069064,0.001266123
0.9520805,0.2581551,0.2353925,0.004374448,0.01076898,0.006406272
0.9512988,0.2536487,0.2370898,0.01767266,0.0006254937,0.009394156
0.9522178,0.248621,0.2334011,0.02403071,-0.00395772,0.007147238
0.9545107,0.2481478,0.2352059,0.01608351,-0.003000718,0.001037777
0.9560617,0.247031,0.2330856,0.009226619,-0.008420908,-0.005002462
0.9556623,0.248252,0.2309298,0.01309479,-0.01787636,-0.007250967
0.9557992,0.249322,0.2313628,0.008889336,-0.02571849,-0.009634305
0.9569052,0.2532666,0.2297006,-0.004077293,-0.02590279,-0.01601731
0.9577635,0.2663659,0.2313293,-0.01422677,-0.02290095,-0.01458994
0.9575358,0.2738763,0.2299559,-0.006282865,-0.005132476,-0.0002245103
0.9583166,0.2694065,0.2221466,0.01102448,0.03435001,0.01955683
0.9588441,0.2617535,0.2179061,0.009878689,0.05711818,0.03098876
0.9571418,0.2534859,0.2188047,0.005108653,0.04463355,0.01804491
0.9582654,0.2481151,0.2221758,-0.006281788,0.01859639,-0.00593788
0.9587232,0.2517832,0.2282576,-0.03450168,-0.01667534,-0.02910439
0.9558764,0.2611993,0.2354052,-0.03862672,-0.05034877,-0.04333482
0.9549147,0.2685053,0.235209,-0.01636202,-0.03185343,-0.02093023
0.9540288,0.2726414,0.2304962,-0.001049123,0.02329956,0.01697969
0.9539507,0.2631031,0.2329195,-0.001121375,0.05894091,0.03315261
0.9554512,0.2423554,0.2342276,-0.01013992,0.06942815,0.02580925
0.9556824,0.2380125,0.2370994,-0.01796082,0.02866842,0.0008940814
0.9548916,0.2489623,0.2463054,-0.02240566,-0.03119551,-0.02046125
0.9518956,0.260939,0.2461889,-0.009017726,-0.04878712,-0.02829959
0.9489273,0.2681591,0.242217,0.01792827,-0.04476064,-0.01765421
0.9496356,0.2648442,0.2341282,0.02050725,-0.01451038,0.005945143
0.9507287,0.2574331,0.2224918,0.003071018,0.02715711,0.01934323
0.9500403,0.249549,0.2266652,-0.005834503,0.04300626,0.02714932
0.9524635,0.2464131,0.2330553,0.001970139,0.02532525,0.01628361
0.958253,0.2452539,0.2330494,0.01054273,-0.007105019,-0.00748248
0.9602207,0.2413027,0.2341651,0.001557625,-0.0009416777,-0.01283247
0.9561645,0.248921,0.2317635,-0.001406295,0.01137963,-0.01486612
0.9517292,0.2606262,0.2317444,0.009296999,0.0153545,-0.009055237
0.9534079,0.2673702,0.2333934,0.01251205,0.04418163,0.001906512
0.9563225,0.2698005,0.2325368,0.01275578,0.06779099,0.004685818
0.9543427,0.2613913,0.231108,0.01452039,0.07399531,0.009095215
0.9510878,0.2558308,0.2287755,0.01855779,0.02919373,-0.002322818
0.9477086,0.2559485,0.2323602,0.02088011,-0.02703919,-0.01759205
0.948547,0.2576401,0.2353403,0.01435815,-0.01651869,-0.0177724
0.9516816,0.2642278,0.2273,-0.006999274,-0.006808249,-0.01101125
0.9499638,0.2664004,0.2207435,-0.04767736,-0.01482226,-0.002534201
0.9521889,0.2681822,0.2254199,-0.06940064,-0.006747979,-0.00984233
0.9553852,0.2666813,0.2350088,-0.06520596,-0.003864542,-0.01703768
0.9501476,0.2555631,0.2436044,-0.07087635,-0.004873026,-0.01029434
0.9443656,0.2473123,0.2517228,-0.06370529,-0.01597106,0.0004450511
0.9429673,0.2407906,0.2607337,-0.02774308,-0.04227123,0.0163135
0.9481328,0.2366477,0.2653994,0.01902916,-0.05662512,0.01781087
0.953908,0.242206,0.2614404,0.05218234,-0.04550968,0.01369467
0.9514086,0.2538434,0.2565151,0.05635016,-0.03752114,0.02121393
0.9500097,0.2600562,0.2442932,0.07487315,-0.03848722,0.0227428
0.9514973,0.2555294,0.2134718,0.09698553,-0.03103424,0.03291012
0.9505426,0.2555055,0.1921835,0.07376812,-0.0471762,0.04873255
0.9568641,0.2628575,0.1949377,0.04467396,-0.08682362,0.03293128
0.9705467,0.266761,0.1930098,0.009257499,-0.09419385,-0.0004891687
0.9749922,0.2652938,0.1892527,-0.05603851,-0.04014907,-0.02087764
0.9637312,0.2595524,0.2100743,-0.0822314,0.03455143,-0.01812743
0.9511707,0.2539582,0.2390378,-0.04319726,0.04557572,-0.0008948593
0.9522115,0.2475183,0.2490319,0.008225139,0.009405157,0.003302081
0.9588158,0.2436889,0.248,0.04830034,-0.001543451,-0.005459559
0.9584339,0.2449269,0.2392555,0.06831791,-0.01012214,-0.02277367
0.9497255,0.2455045,0.2238132,0.06547579,-0.04601412,-0.04200192
0.9383347,0.251604,0.2194041,0.06285593,-0.07988987,-0.02988799
0.9410336,0.2618749,0.2136525,0.04254121,-0.07566405,-0.006827412
0.957095,0.2745784,0.1950202,-0.008605768,-0.02476413,-0.002502343
0.9657695,0.2876781,0.1861368,-0.03812374,0.04538565,0.0009035453
0.9621134,0.2767063,0.2027229,-0.03732136,0.07831828,0.0005447013
0.952442,0.2512624,0.2365768,-0.02861031,0.02584963,-0.002912162
0.949213,0.2479142,0.2492003,-0.02173495,-0.02467928,-0.003025626
0.9565072,0.259791,0.2302704,-0.03642942,0.01256091,-0.004905924
0.9613186,0.2670954,0.2200022,-0.04740641,0.03525483,-0.001752639
0.9577948,0.2683492,0.2231756,-0.03398908,0.02653485,0.002018197
0.9531499,0.2657892,0.2194182,-0.02464168,0.04422121,0.00492959
0.9558872,0.2620723,0.2142828,-0.03100882,0.03197929,0.003542191
0.9568482,0.2550306,0.2167937,-0.04417437,0.006974016,-0.00792538
0.9539015,0.2540556,0.2197542,-0.05841837,-0.0008492467,-0.01218223
0.95619,0.2623163,0.2233645,-0.06326365,-0.0129158,-0.008219574
0.9536435,0.2619088,0.2395162,-0.04166797,-0.004583933,-1.967395e-06
0.950461,0.253404,0.2510295,-0.01748844,-0.002689905,0.01100611
0.9527735,0.2389459,0.2453305,-0.01424025,-0.02080806,0.01016647
0.9549206,0.2282327,0.2402001,0.003206872,-0.02238224,0.001450536
0.9610065,0.2362104,0.2339544,0.02530071,-0.006024773,-0.01344719
0.9608979,0.242741,0.2246086,0.02366794,0.01474927,-0.03616936
0.9518505,0.2508631,0.2257056,0.02916036,0.01231694,-0.04229889
0.9457323,0.2712402,0.2278417,0.03550992,0.01900306,-0.01372099
0.9462615,0.2792276,0.2218735,0.02814597,0.06290213,0.02483565
0.9515509,0.2763978,0.2243664,0.03040152,0.08067238,0.03450477
0.9548665,0.2737322,0.2293124,0.02708638,0.07325223,0.02406378
0.9595785,0.2646697,0.2245968,0.01431728,0.06490335,0.015564
0.9600408,0.2533677,0.2256124,0.006121182,0.0282461,0.003743502
0.9500579,0.2487289,0.2266344,-0.004523043,-0.02298854,-0.002462723
0.9468528,0.2549737,0.224349,-0.00343658,-0.0384996,-0.0001406603
0.9548785,0.2636816,0.2271968,-0.007368131,-0.003400952,-0.004160206
0.9617231,0.2639586,0.2286059,-0.02168247,0.01659308,-0.005589197
0.9544759,0.2655746,0.2369341,-0.006869868,0.0004275105,0.001561922
0.9460953,0.2701274,0.2452089,0.005405134,0.005241684,0.006800499
0.9546721,0.2665809,0.2409515,-0.006972992,0.02421762,0.008760537
0.9575571,0.2626003,0.2384021,-0.01033363,0.03667686,0.008178202
0.9510153,0.2554551,0.240126,-0.00653494,0.03387484,0.007552187
0.9502996,0.2417773,0.2421395,-0.002102599,0.008445874,0.005471973
0.9500058,0.2407697,0.2413881,0.004035352,-0.004926751,-0.0003495407
0.9528007,0.2454698,0.2357573,0.00678628,0.005593558,-0.002756917
0.9553856,0.2451901,0.2301101,0.007284792,0.02680962,-0.005643767
0.953803,0.2524791,0.2281593,0.008142788,0.03704286,-0.009442698
0.9539875,0.2622576,0.2321884,0.01190252,0.02288037,-0.004968885
0.9532751,0.2647125,0.2345485,0.0150008,0.01274014,0.004035843
0.9525409,0.2637563,0.2316427,0.01350573,0.01701189,0.009700081
0.9527058,0.2626836,0.2293568,0.00524893,0.01800917,0.007938478
0.9529878,0.2618587,0.2273708,-0.004749258,0.01170941,0.006070092
0.9538479,0.2594179,0.2274714,-0.01009561,0.009119464,0.008526124
0.9535974,0.2557595,0.2307088,-0.02038206,0.004175736,0.007162429
0.9516654,0.2549122,0.234072,-0.02962129,-0.01651876,0.005849188
0.9480305,0.2567812,0.2368564,-0.02057121,-0.03948009,0.006967995
0.9484809,0.257731,0.2365188,-0.008969498,-0.05172416,0.004319179
0.9521587,0.2585207,0.2331297,-0.009149509,-0.04924619,-0.0005797135
0.9530796,0.2602683,0.2311308,-0.007666291,-0.04599978,-0.005614294
0.9531444,0.2607435,0.2302878,-0.001486134,-0.04649981,-0.006535124
0.9524402,0.2627825,0.2299547,0.007037828,-0.03501797,-0.00208059
0.9528674,0.2652029,0.2294924,0.01364844,-0.0225259,-0.0001847137
0.954112,0.2580974,0.2251347,-0.001145829,-0.004224092,-0.0002564808
0.9543086,0.2476797,0.2225119,-0.02885238,0.020448,0.003095483
0.956323,0.2454055,0.2281603,-0.0381184,0.04174793,0.004514786
0.9568077,0.2419586,0.2420797,-0.02197712,0.05544348,-0.00400913
0.9537392,0.2380889,0.2611628,0.01119862,0.02562012,-0.01345734
0.9492808,0.2481931,0.267387,0.05615744,-0.00613912,-0.006758989
0.9481783,0.2625898,0.2527587,0.1005419,0.009039635,0.00827662
0.9538212,0.2690757,0.2319335,0.1114055,0.0203161,0.01507263
0.9583376,0.2722081,0.2138008,0.076333,0.02266147,0.009513054
0.9590419,0.2719015,0.2037721,0.02030249,0.02618636,-0.008026019
0.9589105,0.2691452,0.1998903,-0.04063596,0.022919,-0.0265648
0.9551659,0.2652617,0.1983607,-0.09393996,0.0348577,-0.03545483
0.949166,0.25436,0.2121422,-0.1257124,0.04593309,-0.02897078
0.9467945,0.2410607,0.2402287,-0.1275248,0.03896512,-0.01943596
0.945955,0.2366888,0.2643823,-0.09126888,0.02021592,-0.0242386
0.9406838,0.2427326,0.2732332,-0.03264359,-0.008958629,-0.01842825
0.9378435,0.2504886,0.2687691,0.02206065,-0.02060199,0.00192455
0.9421496,0.2523586,0.2635936,0.05452669,-0.01058368,0.01674287
0.9461653,0.2514669,0.2522699,0.06321037,-0.01279942,0.03146197
0.9477145,0.2512812,0.2360205,0.06242634,-0.02802938,0.03059238
0.9492455,0.2529344,0.2314675,0.05334402,-0.04419498,0.02330635
0.9525592,0.2569877,0.2296203,0.04293991,-0.05825816,0.02872666
0.9549419,0.2566901,0.2288926,0.03252036,-0.05756135,0.02260736
0.9557138,0.2461138,0.2333938,0.009874467,-0.0516149,0.009954738
0.957322,0.2367248,0.2369962,-0.00689419,-0.05353069,-0.002091246
0.9553351,0.2520835,0.2399729,-3.831816e-05,-0.04980377,-0.01094918
0.9530424,0.2817967,0.2352479,0.02461933,-0.03045301,-0.001088572
0.954629,0.2878888,0.2291633,0.05394502,0.01325762,0.01509464
0.9554485,0.2665348,0.2233322,0.06899903,0.04995533,0.0343975
0.9564473,0.2443031,0.2089826,0.04810887,0.03771746,0.03755394
0.9576401,0.2419158,0.2030213,-0.004493493,0.0242864,0.01335892
0.957555,0.2460096,0.207563,-0.05063843,0.02916186,-0.00281905
0.957028,0.243051,0.2183765,-0.07051666,0.01134433,-0.01748082
0.9542592,0.2510827,0.2390861,-0.06442698,3.602613e-05,-0.0268142
0.9517797,0.2581666,0.2472849,-0.05319447,0.0112229,-0.01471509
0.9535906,0.2543695,0.2405591,-0.0439835,0.01612956,-0.007967624
0.9551111,0.2575514,0.2423258,-0.01823625,0.02033354,-0.002540194
0.9537401,0.257246,0.2463432,-0.004786256,0.01883912,0.00182209
0.9540434,0.2530383,0.2490491,0.002845049,0.01168865,0.0003068688
0.9545582,0.2529209,0.2611879,0.0193513,0.01258001,0.006373679
0.953799,0.2519827,0.2634382,0.01239191,0.007057674,0.005527101
0.9543407,0.2537767,0.2476247,0.0114755,-0.001966065,-0.0005686313
0.954035,0.2545593,0.236653,0.02073518,-0.008894858,-0.004460825
0.9530806,0.2555204,0.237358,0.01971233,-0.02270015,-0.006787797
0.9527299,0.2569278,0.2409557,0.02567117,-0.02702746,-0.002675856
0.9525114,0.2562978,0.2395402,0.02599447,-0.01724571,-0.001889575
0.9532093,0.2591263,0.236339,0.02581211,-0.01076469,0.0003217624
0.9536325,0.2574036,0.2327943,0.02862106,-0.007734633,-0.0007578495
0.9542705,0.2528731,0.227859,0.02066005,-0.004020787,-0.01096547
0.9545218,0.2529499,0.2300872,0.01321913,-0.002926267,-0.01133417
0.9541262,0.2533991,0.2324209,0.008826055,-0.005333793,-0.004879813
0.9561091,0.255998,0.232382,0.008979032,-0.008002441,0.002432714
0.9574333,0.258238,0.2318389,0.005823775,-0.001475356,0.00610749
0.9556378,0.2600468,0.2253355,-0.003883692,0.01107477,0.005103855
0.9531533,0.261785,0.2257725,-0.005753519,0.01648209,0.008681456
0.9513174,0.2578814,0.2302846,-0.01005277,0.017472,0.003068557
0.9511551,0.2549116,0.2351812,-0.01462582,0.01053016,-0.005614839
0.9513317,0.2551856,0.2449763,-0.007489271,0.001546319,-0.001021994
0.9508451,0.2534478,0.2416687,-0.003150743,0.01147357,0.002615663
0.9515011,0.2505569,0.233147,-0.004251571,0.02062394,0.002449813
0.9531956,0.2497901,0.2334825,-0.006041414,0.01306461,0.0008130675
0.9530696,0.2543857,0.2349075,-0.00829601,0.006458514,-0.00351348
0.9513261,0.2596171,0.2377318,-0.00238722,0.00228449,-0.003495431
0.9512807,0.2599501,0.2371969,0.005187395,0.001804498,-0.001610145
0.951167,0.2563582,0.2348422,0.002836708,0.007063459,-0.004210649
0.9492302,0.2517377,0.2357009,-0.002799304,0.007083561,-0.005639675
0.9473687,0.2509487,0.2351791,-0.005899095,0.005830779,-1.850531e-05
0.9473472,0.2533917,0.2384628,-0.004919076,0.006997371,0.004129704
0.9510611,0.2550209,0.2445588,-8.461811e-05,0.00602269,0.005211234
0.9542113,0.2551561,0.2448266,0.004405595,0.00677069,0.005496697
0.9535418,0.2551984,0.2409628,0.006287176,0.006221569,-0.0006531871
0.9526838,0.2551073,0.2370419,9.641207e-05,0.002146839,-0.00373707
0.9511221,0.2541939,0.2342464,-0.01012732,-0.001438938,-0.001214189
0.9491889,0.2578619,0.2329058,-0.01111209,-0.004377113,0.0002402947
0.9502382,0.2659652,0.2345474,-0.00633556,-0.002364334,0.005242476
0.9523007,0.2691274,0.2381258,-0.002042129,0.002839031,0.008560589
0.9527877,0.2640096,0.2395794,0.0009883181,0.005075552,0.005881642
0.9519139,0.2563369,0.2389325,-0.0006326158,0.002756492,0.0006997334
0.9500766,0.2532586,0.238598,-0.001682423,-0.003989252,-0.003729966
0.9491582,0.2525973,0.2395631,0.0004239508,-0.008894635,-0.002088437
0.9485631,0.2522316,0.2416569,0.001267996,-0.008226513,0.001589227
0.9473058,0.2534013,0.2436828,0.00206418,-0.005664193,0.00257611
0.9504452,0.2529397,0.2436978,0.002669061,-0.006715883,0.0009251795
0.9547046,0.2544444,0.243485,0.004421193,-0.006165086,-0.0006130234
0.9536745,0.2575379,0.2458242,0.01092387,0.002524412,0.0044206
0.9539882,0.2553601,0.2459391,0.01473111,0.009704761,0.008918365
0.9567363,0.248769,0.2425964,0.007030987,0.00794343,0.00282681
0.9562101,0.2430286,0.2421516,-0.00298735,-0.006750415,-0.00665346
0.9525745,0.2492044,0.2467919,-0.002026599,-0.02763081,-0.01289548
0.948605,0.263032,0.2502015,0.005013954,-0.03461424,-0.01542407
0.9502086,0.2694974,0.2417017,0.01352314,-0.02259668,-0.008405923
0.9557331,0.2700175,0.2314587,0.02401694,0.005502085,0.006249766
0.9576453,0.260342,0.234248,0.02377739,0.03792856,0.01437844
0.9563779,0.2441284,0.2361805,0.01079246,0.04278615,0.009131694
0.9521491,0.2391253,0.2375543,0.00158035,0.009533774,-0.001895275
0.9486464,0.2398053,0.2460544,0.003172075,-0.01956858,-0.01009268
0.9508557,0.24229,0.2445894,0.003984212,-0.01765234,-0.01385767
0.9522862,0.2498117,0.2399883,-0.008856637,-0.01250018,-0.0110943
0.951221,0.2528771,0.2436384,-0.02088551,-0.01486075,-0.00587705
0.9521708,0.2564692,0.2427965,-0.01826339,-0.01082733,-0.00161937
0.9532681,0.2643553,0.2411386,-0.01266053,0.002383925,0.00409999
0.9526152,0.2629201,0.2415366,-0.005938923,0.01197028,0.0004233895
0.9516096,0.2558658,0.2400091,0.0009251721,-0.001065969,-0.004935517
0.9513475,0.2530214,0.2415282,0.0007568627,-0.01521662,0.002707809
0.9512452,0.2511543,0.2439272,0.002199259,-0.002755288,0.005296675
0.9512739,0.2507019,0.2471925,0.008547168,0.005017659,0.001488255
0.9506117,0.2501386,0.2522132,0.01168015,-0.01109215,0.001433637
0.9496914,0.2490625,0.2522442,0.0124236,-0.01837343,0.0007430314
0.9509564,0.2556634,0.2387605,0.01265705,-0.01156287,0.0008252187
0.9511267,0.2625276,0.224371,0.007263493,-0.01178737,-0.0004047853
0.9475247,0.2603443,0.2354272,-0.0001344723,-0.01895543,-0.000628211
0.9437944,0.2601155,0.2483337,-0.0005914326,-0.02417918,0.003011244
0.9448544,0.2642905,0.2414307,0.004227049,-0.01714648,0.007079265
0.9505592,0.2645555,0.2406246,0.008038058,-0.002907097,0.0143444
0.9541532,0.2630044,0.2415946,0.007756451,0.006871097,0.01931224
0.9531808,0.2566508,0.2357025,0.005277226,0.01074639,0.0143909
0.9519839,0.2445419,0.2339508,0.0009193851,0.002967053,0.003022468
0.9530219,0.243785,0.2305763,-0.005464177,-0.003936227,-0.004833134
0.9531478,0.2505422,0.2343594,-0.009110099,-0.00037441,-0.006014775
0.9516722,0.2521859,0.2462548,-0.01125346,-0.003136464,-0.01043298
0.9502667,0.2602564,0.2471643,-0.01118808,-0.01436574,-0.01649829
0.9469537,0.2690737,0.2449321,-0.004852952,-0.0194884,-0.01184562
0.9469737,0.268408,0.2446746,-0.0001252241,-0.001882322,0.001665574
0.9519412,0.2668319,0.2375499,-0.001476424,0.0297811,0.01203748
0.9543596,0.2626329,0.2309959,-0.006223557,0.04084603,0.01368278
0.9546798,0.2562773,0.2329469,-0.0136967,0.03265406,0.008146144
0.9537743,0.2503915,0.2391073,-0.01577174,0.02317978,0.003111109
0.9529596,0.2439843,0.2448434,-0.01072122,0.007150161,0.001900858
0.9530695,0.2446305,0.2504674,-0.008062924,-0.003877273,-0.002650933
0.9522394,0.2490085,0.2496739,-0.007702581,0.0003964331,-0.005375928
0.9523464,0.2505822,0.2444035,-0.007136755,0.001246903,-0.005424623
0.9493751,0.2566027,0.2452919,-0.004979662,-0.0009361155,-0.007033458
0.9458267,0.2635374,0.2436115,0.0005244136,0.004446804,0.002514146
0.9485471,0.26273,0.2412397,0.004596986,0.01131188,0.01302369
0.9519425,0.2612922,0.242601,0.007207244,0.01876752,0.01245511
0.9551579,0.258037,0.2392767,0.009133974,0.02175198,0.01310889
0.9581743,0.2473563,0.240751,0.007262745,0.01351782,0.006528724
0.9564261,0.2389972,0.2431709,0.002107045,-0.002041756,-0.0106319
0.9524953,0.2389872,0.2412962,-0.00326641,-0.02596902,-0.01545752
0.9499925,0.2489379,0.2456752,0.001621784,-0.04494517,-0.005502674
0.9500963,0.2651711,0.2470084,0.01589853,-0.03540611,0.005171977
0.9513093,0.2733836,0.2400324,0.02054524,-0.002646745,0.01535918
0.9510338,0.2684968,0.2333239,0.01024071,0.02929683,0.02030763
0.9520538,0.2593006,0.2341008,-0.00123145,0.03664385,0.01691835
0.9546322,0.2494021,0.2377427,-0.0004200072,0.02435083,0.01539508
0.95409,0.2380203,0.2356242,0.002130365,0.01644749,0.009810715
0.9521854,0.23672,0.2366945,-0.001553517,-0.003185834,-0.002806365
0.9493736,0.2420881,0.2421343,0.003896134,-0.02931893,-0.009682306
0.9455429,0.2443772,0.2489105,0.007614303,-0.03031603,-0.01415173
0.9461471,0.2558837,0.2552483,0.002616733,-0.03599305,-0.0171588
0.9473994,0.2688778,0.2522176,0.004670053,-0.04492839,-0.01042881
0.9495743,0.2729815,0.2461559,0.004362765,-0.02075546,0.003158196
0.9555021,0.2737735,0.2404926,0.0006370051,0.01015718,0.01462728
0.9550921,0.2691802,0.2348739,-0.0004652354,0.02095719,0.0162709
0.9525765,0.2640446,0.2349412,-0.001836189,0.01227119,0.01176348
0.9540845,0.2559483,0.2350201,0.0007357736,0.004486974,0.007639554
0.9526983,0.2475577,0.2342153,-0.0001249543,0.00806416,0.001609838
0.9530301,0.2457574,0.2350598,-0.001175376,0.001332222,-0.001882796
0.9552552,0.2426667,0.2357426,0.001403461,-0.007384407,-0.00279163
0.9536316,0.245164,0.2402981,-0.0009256919,-0.01323766,-0.007415771
0.9530389,0.2485225,0.247184,-0.001215232,-0.02555622,-0.007080431
0.9531468,0.2493193,0.2496142,-0.001150233,-0.03141558,-0.004713309
0.9531745,0.2589577,0.2497622,1.562402e-05,-0.02375466,-0.006713495
0.9546365,0.2639617,0.2497112,0.004831426,-0.002121628,-0.003207984
0.9529793,0.2616555,0.244748,0.001427588,0.01312832,0.001451241
0.9506292,0.2564026,0.2387298,-0.003617319,0.01081267,0.00433017
0.9515728,0.2493119,0.2387899,-0.004513718,0.006216637,0.005037915
0.9531057,0.2494958,0.2427587,-0.001166757,-0.002575973,0.002020985
0.953442,0.2502391,0.2455554,0.006015398,-0.008897571,0.003735203
0.953209,0.2499825,0.2437066,0.004685294,-0.006039722,1.892905e-05
0.9544497,0.2510593,0.242008,0.003259182,-0.005074986,-0.006598475
0.9546416,0.2541897,0.2437226,0.00804808,-0.009697479,-0.003296574
0.9533396,0.2596,0.2440391,0.007564609,-0.01153832,-0.0009480888
0.9534418,0.2573082,0.2439969,0.004631215,0.001485412,0.0004434502
0.9517024,0.2530781,0.2427521,0.001735471,0.01692269,-0.001203772
0.9506229,0.252711,0.2385975,0.001415381,0.01861194,-0.006490291
0.9519198,0.2532709,0.2364318,0.00461425,0.01429094,-0.00427592
0.9512317,0.2549799,0.2361166,0.00433017,0.01398253,-0.000991988
0.9508982,0.2543736,0.2372679,0.004847618,0.01245006,0.001061141
0.9498775,0.2559794,0.2407916,0.007283323,-0.001724196,0.005012734
0.9485047,0.2597447,0.2433591,0.01006538,-0.01362874,0.007561826
0.9521468,0.2595883,0.2461273,0.01379692,-0.007233764,0.006956367
0.9552782,0.2566352,0.249685,0.01006074,0.0005490705,-0.000352023
0.9525208,0.2527738,0.248591,0.00113463,-0.001808471,-0.008147796
0.949899,0.2520535,0.2440624,-0.004558519,0.001213379,-0.006005284
0.9504163,0.2528557,0.2431982,-0.001956177,0.006227077,0.0001407517
0.9484182,0.2512874,0.2474263,0.01151447,-0.009349724,7.293637e-05
0.9464791,0.2511243,0.2507202,0.02355247,-0.02419008,-0.0009689005
0.9502497,0.2541158,0.2446386,0.02519638,-0.01923594,0.0005655556
0.9525541,0.2578383,0.2333025,0.0217898,-0.0167377,0.001093173
0.951518,0.2602563,0.2311787,0.0171591,-0.01742771,0.003623736
0.9529478,0.2595333,0.2385667,0.006669211,-0.01170187,0.004680349
0.9549041,0.2573129,0.2439965,-0.004989831,-0.006322974,0.004788901
0.9540258,0.2582839,0.2430115,-0.002623437,-0.001158188,0.00773624
0.9518489,0.2587112,0.2445925,0.004683837,0.006733854,0.006891932
0.9511361,0.2556389,0.2497086,0.008940134,0.008056852,0.006101487
0.9507414,0.2543912,0.2430174,0.01392227,0.002665977,0.006987885
0.948778,0.2539202,0.2350535,0.005146829,0.0008944042,0.005250189
0.9465438,0.2537686,0.2403344,-0.01009382,0.0005114869,0.004635465
0.94755,0.2537809,0.243611,-0.0153099,0.006999675,0.003003572
0.9524761,0.2520714,0.2439451,-0.01703343,0.01793488,-0.0008465616
0.9547115,0.2529653,0.2435284,-0.01479063,0.01553053,-0.003104116
0.9517082,0.2541043,0.2356373,-0.0143505,0.00658944,-0.003094897
0.9489139,0.2533873,0.2325799,-0.02056618,0.002037793,-0.002775894
0.9505995,0.2519425,0.2397022,-0.02652299,0.003544905,-0.003010084
0.9519214,0.2494249,0.2464085,-0.03051827,0.007086502,-0.0006753209
0.9472443,0.2523133,0.2480233,-0.02531136,0.004832491,0.002047943
0.9446929,0.2561011,0.2500378,-0.01449558,0.004261169,0.003305367
0.9476805,0.2546879,0.2539719,-0.00113032,0.006524251,0.008090683
0.9512465,0.2553505,0.2550243,0.01370646,0.006497761,0.01315987
0.9538939,0.2553673,0.2566961,0.009442596,0.006037275,0.009420035
0.9525582,0.2505601,0.2536272,0.001828926,1.099968e-05,0.001914567
0.9503447,0.2473497,0.2470315,0.008376769,-0.007800486,0.0005654815
0.949965,0.2482953,0.250149,0.004566958,-0.00915236,0.0001105193
0.9501581,0.2500634,0.248979,-0.00163519,-0.005479097,-0.000309879
0.952994,0.2518657,0.2396443,-0.001437801,-0.002988793,0.00145622
0.9551576,0.2550339,0.2361583,-0.008531271,-0.01056401,-0.002651534
0.9551299,0.2555936,0.2377954,-0.008962069,-0.01682208,-0.005463366
0.9551668,0.2556614,0.2439371,-0.001030227,-0.01042653,-0.0005371028
0.9536078,0.2594434,0.2476874,0.005396936,-0.006697587,0.001276706
0.950405,0.2575976,0.2470783,0.009906653,-0.01080457,-0.003955544
0.9494592,0.2525835,0.2468909,0.007200187,-0.009095963,-0.009234902
0.9530494,0.2528256,0.2427069,0.006168658,0.006310398,-0.007412099
0.957945,0.2527422,0.2385604,0.007824613,0.01950257,-0.0089659
0.9600244,0.2539626,0.2395367,0.009060371,0.007482553,-0.02217734
0.9553548,0.2566856,0.2448248,0.01635797,-0.01893391,-0.03002449
0.9479311,0.2564599,0.2495986,0.01555341,-0.03995522,-0.02351391
0.9458839,0.254675,0.2527183,0.005361892,-0.05613779,-0.01671051
0.9447009,0.2512727,0.2578197,-0.00418625,-0.06542144,-0.01763695
0.9463602,0.250577,0.2535153,-0.01936095,-0.05812588,-0.006715137
0.9550423,0.2505443,0.2362229,-0.03946437,-0.01571845,0.01506455
0.9579678,0.2492834,0.2221407,-0.05970495,0.02739977,0.01572263
0.95228,0.2526056,0.2272219,-0.05602963,-0.01594294,0.004569334
0.9494186,0.2543578,0.2384437,-0.018184,-0.08100632,-0.001077706
0.9559517,0.2539644,0.2323337,0.007653878,-0.06619348,-0.01175427
0.9619547,0.2548039,0.2306145,0.005931762,-0.05583617,-0.01962949
0.9551704,0.2547744,0.2343429,0.003760169,-0.06164989,-0.01637139
0.9504522,0.2578042,0.2251414,0.004413071,-0.02111513,-0.01313238
0.9566874,0.2619618,0.2255129,-0.003459639,0.01035421,-0.01436596
0.9597096,0.2645546,0.2292612,-0.01884246,0.01928464,-0.008407921
0.9577826,0.26227,0.2319712,-0.02657319,0.0248964,0.00354701
0.9552661,0.2513966,0.2462945,-0.02954195,0.03099857,0.004912391
0.9523759,0.2393318,0.2543992,-0.0272046,0.04315058,0.002060571
0.9491,0.2320022,0.2577817,-0.004779643,0.02570514,0.002394501
0.9459062,0.2335642,0.2555989,0.02094799,-0.002121769,-0.000308724
0.9469442,0.2405506,0.2460727,0.03490424,-0.01790363,-0.005696434
0.9486958,0.2470923,0.2448554,0.04038449,-0.03048022,-0.01002195
0.9493972,0.2580973,0.2421856,0.04754722,-0.0223154,-0.002532126
0.9531881,0.2681665,0.2333729,0.05659139,-0.009274784,0.01085698
0.9537415,0.2694953,0.2244571,0.05034948,0.009531702,0.01267902
0.9517648,0.2656482,0.2188422,0.03587582,0.02280485,0.01143413
0.9532122,0.2635018,0.2178465,0.0213875,-0.003399674,0.01354292
0.9538431,0.2630825,0.2191828,0.01741197,-0.0285438,0.01333108
0.9567516,0.2583663,0.2260067,0.02451013,-0.02834704,0.01213315
0.9612042,0.2566748,0.2249188,0.01943858,-0.01512265,0.009486564
0.957876,0.2576498,0.2209086,0.01812379,0.001579162,0.006183276
0.9531655,0.2545135,0.2277312,0.01623567,-0.0006493167,0.002709546
0.9523808,0.2554685,0.2302658,-0.003099105,-0.01688151,-0.004395857
0.9513128,0.2579619,0.2342273,-0.01529332,-0.02605345,-0.007810562
0.9528025,0.2601029,0.2377594,-0.02042858,-0.01054575,-0.0004083348
0.9554729,0.2620519,0.2357929,-0.02080165,0.01689269,0.006053648
0.9547793,0.2529176,0.2408675,-0.02001093,0.01724516,0.0002140769
0.954453,0.2436366,0.239255,-0.02409179,-0.00514495,-0.006211594
0.9545066,0.2485295,0.2370133,-0.01995691,-0.02367589,-0.003467663
0.9536248,0.253594,0.240908,-0.01922408,-0.0224731,-0.003058794
0.954221,0.2541671,0.2384441,-0.0188452,-0.00846788,-0.004177249
0.9534595,0.2622774,0.2424369,-0.01013761,-0.003030295,0.001420497
0.9529903,0.2652642,0.245757,0.001243029,0.006991603,0.0108489
0.9574919,0.2521545,0.2400368,0.02560607,0.02563951,0.02071687
0.9611667,0.2406278,0.2367292,0.03827491,0.03171784,0.01429144
0.9600366,0.2375271,0.2316676,0.0280984,0.0237468,-0.005288776
0.9578315,0.2393432,0.2251721,0.02460249,0.0116209,-0.01244841
0.9547289,0.2439501,0.2217845,0.0178011,0.001726929,-0.01347848
0.9501856,0.2513497,0.2218148,-0.0004891093,-0.01942694,-0.01486662
0.9510963,0.2639485,0.2244917,-0.0175517,-0.03368554,-0.01464868
0.9547199,0.2699679,0.2354804,-0.03875346,-0.006250897,-0.01408227
0.9523796,0.2666847,0.2481259,-0.05308438,0.02460828,-0.002116832
0.9536634,0.2575598,0.2408266,-0.04723104,0.02966131,0.008588628
0.9592276,0.246762,0.2343931,-0.04397713,0.02099496,-0.0007327725
0.9600046,0.2552704,0.2396199,-0.05162527,0.01644294,-0.01614034
0.9594469,0.2705341,0.2353049,-0.05553734,0.04461966,-0.02063015
0.954246,0.269254,0.235615,-0.05976816,0.07748097,-0.01417906
0.9447339,0.263821,0.2424965,-0.05800869,0.07273205,-0.001370743
0.9405832,0.2577996,0.2428117,-0.03956168,0.04194233,0.01259874
0.9462025,0.2527817,0.2418417,-0.02831462,0.01156118,0.01370109
0.9533832,0.2505513,0.2383631,-0.04088725,-0.0008328459,0.008009445
0.9519213,0.2428648,0.240745,-0.05306932,-0.002652828,0.006676769
0.9589946,0.2433488,0.2534876,-0.03778637,0.00979689,-0.00969459
0.9691325,0.2563713,0.2624114,-0.005196653,0.03196507,-0.0266147
0.9529113,0.2612054,0.2588643,0.02509335,0.02432634,-0.01255549
0.9354651,0.2478738,0.2541246,0.04250475,0.01314623,0.007725038
0.939737,0.2320357,0.266834,0.05174885,0.02088669,0.01827597
0.9431434,0.2351353,0.2752045,0.09177171,-0.001249651,0.03012261
0.9431398,0.2401028,0.2581019,0.1249767,-0.0323814,0.02284089
0.9516461,0.2414379,0.2395279,0.08467685,-0.02791177,0.001536926
0.9590742,0.2558057,0.2329922,0.0471475,-0.002308345,-0.003439562
0.9575413,0.2565095,0.2324596,0.05611108,0.02012677,-0.007179283
0.9478955,0.25209,0.2291854,0.05572747,0.005808568,-0.00630901
0.9384293,0.267463,0.2264676,0.04842604,-0.02766421,0.007424518
0.9510425,0.2725241,0.2289473,0.03955423,-0.03779279,0.005838428
0.967096,0.2707189,0.2238706,0.01848102,-0.02946321,-0.004321712
0.9577147,0.2696809,0.2230002,-0.001644312,-0.004465737,-0.0101626
0.9531265,0.2583691,0.2326691,-0.01071383,0.01150544,-0.004863752
0.9584048,0.2499149,0.2355866,-0.006745671,0.003633022,0.007338552
0.954927,0.2410723,0.23369,-0.01354782,0.005746968,-0.0005697016
0.9567368,0.2398699,0.2319921,-0.03539963,0.01782462,-0.00271281
0.9565266,0.2498035,0.238649,-0.04621258,0.02408155,0.01030439
0.9519289,0.2505571,0.2467879,-0.04792537,0.01965863,0.01215836
0.9550109,0.2500351,0.2437255,-0.04497398,0.01400632,0.01066775
0.9544981,0.2514677,0.2483377,-0.03521972,0.01627832,-0.0009579834
0.9532836,0.255459,0.2569117,-0.02198583,0.01201546,-0.01857656
0.9552174,0.2628174,0.2529778,-0.003801728,0.008415172,-0.03012479
0.955961,0.2606992,0.2447732,0.007118312,0.01372125,-0.05101643
0.9630618,0.259928,0.2362257,0.001704367,0.02503627,-0.08104142
0.9663652,0.2621825,0.234079,-0.003705741,0.03722872,-0.09199802
0.9508073,0.2581795,0.2441997,0.0005088402,0.02605662,-0.05045685
0.9299854,0.2542342,0.2521664,0.00148369,0.0005164982,0.009268184
0.9270989,0.246311,0.2488786,-0.002244784,-0.02162117,0.03434569
0.9366246,0.2393266,0.2477889,-0.003433214,-0.0391226,0.04180754
0.9425813,0.2456264,0.250385,-0.01481291,-0.02565258,0.0444691
0.9490115,0.2546527,0.243408,-0.03296142,-0.004241034,0.03923152
0.9499647,0.2576624,0.2357853,-0.0390222,-0.01355038,0.0338176
0.9486145,0.265511,0.2343448,-0.03270318,-0.009336616,0.03073551
0.9577394,0.2787626,0.2324563,-0.02122239,0.01586627,0.02821119
0.9583271,0.2804026,0.2366231,-0.01149066,0.03062809,0.0244245
0.9520914,0.2688218,0.2443646,0.003163168,0.04211799,0.02490135
0.9532697,0.2557981,0.2426021,0.01282467,0.03997988,0.02295572
0.9533395,0.2511217,0.2403708,0.0009842711,0.05689186,0.01903944
0.9580997,0.2622026,0.2477844,-0.004991382,0.1503574,0.02767743
0.9604137,0.2793716,0.2560501,-0.009211731,0.31404,0.06228632
0.9455814,0.2864404,0.2617015,-0.06024417,0.4666753,0.1352037
0.9327315,0.2852386,0.2639395,-0.1483236,0.4759777,0.1894289
0.9378738,0.2855224,0.269262,-0.1866875,0.3909882,0.1792426
0.9430072,0.2809294,0.2923914,-0.1459936,0.3309853,0.1707942
1.014838,0.04427586,0.1527152,-0.1812111,-0.1085699,-0.2335167
1.013889,0.04518211,0.1499984,-0.1866469,-0.08314718,-0.2200364
1.01949,0.04386875,0.1540397,-0.1856129,-0.0443171,-0.2248005
1.021863,0.04013241,0.1569326,-0.1802762,-0.03856128,-0.2468253
1.014618,0.04434781,0.1592888,-0.1747257,-0.03742528,-0.2613987
1.008147,0.04811151,0.1680536,-0.1855553,-0.03235486,-0.2614344
1.006458,0.05733663,0.1708276,-0.20269,-0.04209654,-0.2390182
1.013723,0.06015539,0.1632698,-0.2149571,-0.04880722,-0.2099645
1.020125,0.046952,0.1566631,-0.2136701,-0.03690829,-0.2034393
1.017146,0.03963054,0.1643521,-0.1887719,-0.0311276,-0.2127443
1.011888,0.03862075,0.1742495,-0.1661976,-0.05409917,-0.2268778
1.008513,0.04700141,0.1672895,-0.1552248,-0.07204957,-0.2309475
1.009211,0.05836363,0.1603629,-0.1493622,-0.05610148,-0.2185315
1.010055,0.05963768,0.1615299,-0.1551404,-0.03876244,-0.2005039
1.007229,0.06158088,0.1713357,-0.1647826,-0.04871004,-0.1819939
1.007376,0.06055695,0.1857213,-0.1573232,-0.06939769,-0.1677687
1.012603,0.05467857,0.1714062,-0.1470315,-0.07980401,-0.1534594
1.017429,0.04702259,0.1541247,-0.1608048,-0.0494624,-0.1396996
1.01826,0.03351004,0.1683116,-0.169047,0.01435332,-0.1437147
1.007805,0.02066144,0.1766357,-0.1628757,0.02645852,-0.1747274
0.9868163,0.01990306,0.1799156,-0.1544398,-0.02337274,-0.21244
0.9789282,0.03448015,0.1896631,-0.1303046,-0.07056626,-0.2149519
0.988175,0.04643651,0.185962,-0.1119308,-0.09403003,-0.1833092
0.9920906,0.04661624,0.1828211,-0.1080407,-0.1049337,-0.1612698
0.9922617,0.04292366,0.1793723,-0.1073772,-0.1297107,-0.1617409
0.9970554,0.04004632,0.1674504,-0.1092664,-0.1516157,-0.1732886
0.9987603,0.04255159,0.166093,-0.111013,-0.1496326,-0.1879065
1.00417,0.04408085,0.1635881,-0.1223537,-0.1392763,-0.1899275
1.017492,0.04498784,0.1533853,-0.1340383,-0.1113621,-0.1768078
1.018824,0.04608627,0.1544578,-0.1398129,-0.08623291,-0.1604546
1.01066,0.03917182,0.1524175,-0.1339683,-0.08112194,-0.1515699
1.010705,0.03369458,0.142143,-0.114349,-0.07184423,-0.1717268
1.011439,0.0369251,0.1467831,-0.1138144,-0.06382685,-0.2043147
1.010469,0.04795401,0.1554428,-0.1191383,-0.07414451,-0.2021473
1.010833,0.05807217,0.1573007,-0.1162568,-0.09605068,-0.178649
1.008941,0.05782261,0.1627721,-0.1218215,-0.101804,-0.1629206
1.009938,0.05767687,0.163659,-0.1181318,-0.09913318,-0.1549138
1.011817,0.0583039,0.1626272,-0.1085566,-0.1027707,-0.1593841
1.014309,0.05661613,0.1645694,-0.1032711,-0.08643799,-0.1629353
1.017833,0.06000172,0.1618688,-0.1039969,-0.06249396,-0.1562445
1.013122,0.06411534,0.1653913,-0.115794,-0.05829962,-0.1529322
1.005642,0.06437559,0.1713856,-0.1184689,-0.07307829,-0.1495363
1.000915,0.06524255,0.1694656,-0.1157586,-0.09798457,-0.1461339
0.99776,0.0718645,0.1646061,-0.1171571,-0.1182478,-0.1419379
1.000533,0.07904536,0.1569854,-0.1216903,-0.1214262,-0.1227011
1.009875,0.075756,0.1548779,-0.1343125,-0.09668466,-0.09766944
1.021913,0.06599663,0.153146,-0.1374423,-0.06380566,-0.09352035
1.024314,0.05692531,0.1460663,-0.1352543,-0.04823896,-0.1178007
1.015733,0.05245984,0.149552,-0.1363708,-0.05042156,-0.1338792
1.011943,0.05975706,0.1548005,-0.1303757,-0.06290771,-0.1147903
1.012743,0.06761906,0.1528964,-0.1275955,-0.06607124,-0.09122999
1.014209,0.06376906,0.1506011,-0.1264365,-0.05622736,-0.08570615
1.01987,0.05704228,0.1447677,-0.120028,-0.03844223,-0.09322285
1.022897,0.04832793,0.1427574,-0.1145176,-0.02427079,-0.1127717
1.016113,0.04339296,0.1463115,-0.1123893,-0.02720025,-0.1294163
1.003264,0.05213579,0.1490039,-0.1118716,-0.03004743,-0.1219077
0.9969551,0.05951761,0.1571637,-0.1047686,-0.03494036,-0.1057644
1.001264,0.06020192,0.1635208,-0.09724787,-0.05784398,-0.104775
1.00501,0.06090239,0.1613822,-0.09383452,-0.0913332,-0.1152579
1.009698,0.06309046,0.1630331,-0.08991577,-0.1130052,-0.1349162
1.020719,0.07062855,0.1656074,-0.09961391,-0.1064238,-0.1422689
1.023933,0.07969362,0.1588466,-0.1246626,-0.08846097,-0.1213173
1.014376,0.0931837,0.1514995,-0.1409137,-0.05695992,-0.1026359
1.007341,0.1078326,0.1510498,-0.1392211,-0.007495387,-0.0824449
1.008368,0.1090544,0.1513105,-0.1454339,0.02977172,-0.04444312
1.012321,0.1084445,0.1540871,-0.1721042,0.0479538,-0.01843967
1.017783,0.1078825,0.1626585,-0.1933519,0.0447335,-0.01711706
1.019678,0.09071188,0.1659651,-0.1984763,0.02299481,-0.02545221
1.01306,0.06606041,0.1664045,-0.1857857,-0.003622464,-0.0344325
1.006056,0.04954298,0.1704516,-0.152035,-0.02985235,-0.03729353
1.006688,0.04554516,0.16717,-0.1213227,-0.0319912,-0.02731874
1.007012,0.0471299,0.1618523,-0.1134872,-0.02645956,-0.01383234
1.003215,0.04497996,0.1615971,-0.1140733,-0.03817861,-0.01066986
1.002898,0.04318119,0.1564218,-0.1024812,-0.03696482,-0.01735964
1.002256,0.04051462,0.153672,-0.09471498,-0.0331336,-0.0288224
1.000328,0.037973,0.1633916,-0.09125845,-0.0448215,-0.02887975
1.001903,0.04300796,0.1742388,-0.06401182,-0.05630676,-0.01196665
1.001653,0.04692975,0.1737174,-0.04186567,-0.06821843,-0.000600473
1.003081,0.04653965,0.1643945,-0.04407438,-0.0719606,-0.01012092
1.010894,0.04916763,0.1576872,-0.05967589,-0.08095261,-0.02970847
1.019516,0.05307896,0.1549869,-0.08845212,-0.1022715,-0.03452721
1.022215,0.05462896,0.1486323,-0.08925434,-0.0979779,-0.02128702
1.015621,0.0543037,0.1384035,-0.06021554,-0.07742712,-0.006641971
1.010503,0.05097896,0.1329599,-0.04569609,-0.05508634,-0.004785394
1.010802,0.04612485,0.137489,-0.05112302,-0.02383167,-0.0206031
1.008571,0.05103974,0.1449119,-0.07000027,-0.009497364,-0.03651548
1.008803,0.06090363,0.1500463,-0.08859571,0.004057956,-0.03550981
1.015032,0.06486402,0.1619561,-0.09782495,0.04255911,-0.01877061
1.019221,0.07058873,0.1768901,-0.09130018,0.05306309,-0.005952484
1.015068,0.06815661,0.1753305,-0.07929282,0.004023078,-0.01162032
1.010982,0.05542126,0.1667412,-0.08428032,-0.05098253,-0.02375981
1.017235,0.05264935,0.1638022,-0.09162655,-0.06387109,-0.04531699
1.019722,0.05425221,0.1541453,-0.1007725,-0.0529842,-0.06274835
1.006687,0.05391034,0.1459041,-0.1002884,-0.02893941,-0.0367338
0.99184,0.05192304,0.1484888,-0.07536133,0.02360057,0.008233568
0.9888954,0.04435482,0.157419,-0.05348431,0.04443421,0.03986653
0.9956126,0.03717402,0.1696323,-0.03001874,-0.006885283,0.06255151
1.007108,0.03288898,0.168605,-0.01161631,-0.04337173,0.04399423
1.023513,0.03727566,0.1684614,-0.005083474,-0.03205372,-0.002459671
1.028319,0.04947707,0.1808575,-0.0009704467,-0.0462977,-0.01087585
1.014595,0.05840538,0.1764558,-0.02328263,-0.0921881,-0.001707305
1.0088,0.06008317,0.1694145,-0.04042074,-0.1076135,-0.002004059
1.011018,0.05163198,0.1669768,-0.03777765,-0.08645297,-0.001999424
1.009287,0.04217499,0.1477915,-0.06461985,-0.0613933,-0.01383899
1.016708,0.03755945,0.1409432,-0.09769638,-0.03009527,-0.0250342
1.025204,0.03805239,0.1497281,-0.08845959,0.01343204,-0.02598237
1.018368,0.0429541,0.1503143,-0.07004229,0.03733001,-0.02363204
1.004732,0.04003961,0.1561889,-0.07723959,0.01692856,-0.02108667
0.9941465,0.03799582,0.1634907,-0.06962668,-0.01811856,-0.01957379
0.9916217,0.03876536,0.1599992,-0.05952925,-0.04120979,-0.0136169
1.005281,0.03494659,0.1539107,-0.07013283,-0.04443036,-0.01872676
1.023781,0.03590598,0.1500544,-0.06084621,-0.008800634,-0.02565485
1.024299,0.03279795,0.1510716,-0.059579,0.02632011,-0.02618764
1.017477,0.03058538,0.1558047,-0.06589801,0.02578567,-0.04434005
1.013602,0.03520144,0.1629498,-0.05858489,0.01750215,-0.06001361
1.003038,0.03788051,0.1716475,-0.0629467,-0.004963531,-0.05286599
0.9969131,0.04898786,0.1727837,-0.05277066,-0.04422065,-0.03527398
1.001607,0.05330629,0.1680718,-0.04556822,-0.05644949,-0.02359219
1.00848,0.04640806,0.1656064,-0.05027624,-0.01660336,-0.02385281
1.0171,0.04720959,0.1607852,-0.04025648,0.03191949,-0.02421584
1.021058,0.04514869,0.1604884,-0.04299692,0.03224796,-0.02721596
1.01353,0.04217155,0.1701446,-0.04301733,-0.005514823,-0.03738286
1.005684,0.04297901,0.1735888,-0.03579959,-0.04618848,-0.0444261
1.0048,0.04498191,0.1698789,-0.03147291,-0.05431035,-0.04025846
1.002571,0.05079453,0.1657797,-0.01455939,-0.04429554,-0.02965282
1.002669,0.04934162,0.1625489,-0.01222457,-0.05191164,-0.02223756
1.007534,0.04812713,0.1616708,-0.02167953,-0.04111981,-0.02350943
1.009867,0.05345709,0.1592805,-0.02190072,-0.02379302,-0.03183024
1.013256,0.05301119,0.161838,-0.01557874,-0.03313344,-0.03233402
1.012821,0.05235005,0.1655519,-0.006818342,-0.03886162,-0.02845163
1.009556,0.05308382,0.1611,-0.01122517,-0.04098526,-0.02181147
1.014313,0.05127002,0.1579423,-0.0148833,-0.0350528,-0.006923442
1.018482,0.04941692,0.1554948,-0.009472157,-0.01239793,-0.002574482
1.018857,0.04423523,0.1535763,-0.01059242,-0.005068697,-0.006547965
1.014964,0.03994696,0.1573876,-0.009690788,-0.02493646,-0.01946466
1.005678,0.04159393,0.1611777,-0.006964894,-0.04562597,-0.0405862
1.003984,0.04394579,0.161604,-0.006603604,-0.03967973,-0.0383996
1.007017,0.04577538,0.1591151,0.0001191183,-0.02958184,-0.02344682
1.007979,0.04883179,0.1558256,0.01006168,-0.03353331,-0.01945636
1.010495,0.05002069,0.1543611,0.01583115,-0.03003516,-0.02226293
1.009446,0.05051709,0.1598336,0.01504455,-0.03168365,-0.02813553
1.0054,0.0544695,0.1695737,0.0109043,-0.0427816,-0.02937871
1.0037,0.05742071,0.1705965,0.008242605,-0.05294014,-0.02568397
1.006033,0.05999125,0.1642694,0.009224673,-0.06484427,-0.01943964
1.013588,0.06337094,0.1534132,0.008753545,-0.05088183,-0.01228372
1.017539,0.06319548,0.1419368,-0.003171251,-0.02248896,-0.01299356
1.010767,0.0655106,0.1444114,-0.0172467,-0.01565694,-0.01320087
1.004289,0.06667988,0.1505374,-0.02147353,-0.01574109,-0.003002903
1.008698,0.06378983,0.1477451,-0.0225799,-0.0127488,0.004885568
1.013061,0.06584975,0.1500583,-0.01780099,-0.006911417,0.003883814
1.011131,0.06626196,0.1522002,-0.007519032,-0.007137955,0.000796483
1.012674,0.06696664,0.1449257,-0.00701008,-0.02146516,0.0005748901
1.013695,0.0702936,0.1436374,-0.007258098,-0.03334877,0.007202478
1.013241,0.06396672,0.1462927,-0.0005332906,-0.03715399,0.01376395
1.015729,0.05590726,0.1471407,-0.0007335674,-0.02612171,0.009824231
1.011757,0.05539545,0.1513736,-0.001658087,-0.01080206,0.001960789
1.006827,0.06001689,0.1508796,-0.0008961878,-0.01259684,-0.001596653
1.008656,0.06431858,0.1495004,-0.002646968,-0.0173089,-0.0005021126
1.009561,0.06160383,0.1526097,0.004543101,-0.01971362,0.006756271
1.010413,0.05987554,0.1513597,0.008767518,-0.01512648,0.01421898
1.013528,0.06185895,0.1510721,-0.0005006629,0.0009371927,0.01394445
1.016135,0.06084329,0.1539217,-0.01397323,0.01115304,0.01394558
1.01583,0.05992779,0.1542858,-0.02208924,0.01307621,0.02036481
1.013892,0.05979061,0.1543992,-0.01095897,0.00895111,0.02599694
1.012251,0.05977453,0.1527662,-0.0001544206,0.005786688,0.02646253
1.006947,0.06173473,0.1477721,-0.007176593,0.006368398,0.02302276
1.004154,0.06321751,0.1446592,-0.008987351,0.005174511,0.02136542
1.008892,0.06345025,0.1524889,-0.005394883,0.007806863,0.0256996
1.011245,0.06375031,0.1635392,-0.006967174,0.006327745,0.02865577
1.011529,0.06320761,0.1606259,-0.009557289,0.00432423,0.02333673
1.014689,0.0624411,0.1582807,-0.01830199,0.009819121,0.02142559
1.015847,0.06414941,0.1641728,-0.02656014,0.01129177,0.03644475
1.013279,0.065805,0.1618049,-0.01869176,0.01304506,0.05078254
1.012535,0.06313275,0.1567019,-0.01120049,0.01698251,0.04371249
1.01713,0.05920096,0.1507839,-0.02398818,0.02231289,0.03054626
1.021074,0.05666325,0.1440735,-0.03578725,0.03337519,0.02274496
1.019121,0.05518207,0.1476655,-0.03280976,0.04717364,0.01714026
1.015899,0.05710842,0.1497215,-0.03284117,0.06014979,0.02436913
1.013728,0.05908081,0.150017,-0.03494679,0.0591231,0.03271661
1.008256,0.05606592,0.1601033,-0.02805014,0.04149294,0.0272495
1.001155,0.05259653,0.1665899,-0.01956962,0.02058189,0.02742269
1.001166,0.05159697,0.1642483,-0.01650174,0.01572266,0.03091524
1.008525,0.05111743,0.1624652,-0.0138531,0.03552935,0.02897385
1.01311,0.05122806,0.1634884,-0.009375138,0.04533118,0.02872276
1.011101,0.05065129,0.1632636,-0.01104809,0.02368031,0.01909204
1.008547,0.04991122,0.1643508,-0.01325211,-0.004085353,0.004254934
1.006468,0.05301691,0.1690229,-0.003381967,-0.01235364,0.001026373
1.003392,0.05980221,0.1664107,0.007521083,-0.001082119,0.009807586
1.00564,0.06389808,0.1590429,0.007002886,0.01396747,0.02285132
1.010443,0.0594988,0.156403,-0.00255085,0.03285549,0.02678769
1.009857,0.05273636,0.1595622,-0.01020178,0.04467892,0.01758151
1.009354,0.05261605,0.1677919,-0.004235101,0.03393889,0.001549453
1.009974,0.0559554,0.170367,0.004370944,0.02846036,-0.00520021
1.008476,0.05890651,0.1678125,0.003776605,0.03658639,0.006373985
1.008037,0.06116512,0.1645837,0.001422382,0.03910584,0.02345146
1.007057,0.06283052,0.1605189,-0.001404744,0.04016445,0.03334341
1.004842,0.06387795,0.1677072,-0.003193379,0.03371785,0.02435977
1.004239,0.05953684,0.1757401,-0.001027017,0.01900407,0.009930257
1.006595,0.0548934,0.1708869,0.001358147,0.01748767,0.01311349
1.009805,0.0565162,0.1682667,0.008982544,0.02272158,0.02039372
1.009311,0.05489373,0.170278,0.01863774,0.02084669,0.02293797
1.008702,0.05034951,0.1703268,0.01724455,0.01533498,0.02001502
1.007468,0.05246017,0.1744662,0.009971875,0.005590463,0.01264375
1.002499,0.05920886,0.1790056,0.00707099,-0.005322012,0.01543932
1.002384,0.0641125,0.173133,0.008665834,-0.01135541,0.01874
1.006274,0.06227399,0.1654945,0.0119309,-0.005791998,0.01930089
1.006881,0.05852734,0.1678266,0.01531057,0.009339681,0.02573411
1.004534,0.05954969,0.1755123,0.0200842,0.01177755,0.02455649
1.001583,0.05847942,0.1821339,0.02319876,-0.004210106,0.02491692
1.00286,0.05581458,0.1820835,0.01726872,-0.02311002,0.03072388
1.00548,0.05812675,0.1797296,0.009603287,-0.03089481,0.02564145
1.005401,0.05917684,0.181048,0.01346435,-0.02320435,0.02341576
1.005898,0.05946473,0.1736758,0.02070907,-0.005168117,0.02456719
1.005664,0.06379858,0.1640734,0.02087144,0.01116766,0.02060531
1.005963,0.06463509,0.1677149,0.0139571,-0.009384528,0.02161507
1.006971,0.05650325,0.1690989,0.005892316,-0.05353467,0.01961061
1.005941,0.04860836,0.1641496,0.01477553,-0.0589243,0.01415455
1.007131,0.05362523,0.1633285,0.03000395,-0.03868229,0.01753546
1.008304,0.06046108,0.1607998,0.02765157,-0.02364689,0.02811493
1.007265,0.05699318,0.1597489,0.02187106,-0.01646107,0.03572194
1.008104,0.05431695,0.1624658,0.0195626,-0.02412754,0.02408141
1.009309,0.05479506,0.1607247,0.01861527,-0.02926078,0.009040694
1.010805,0.0621649,0.1602008,0.02124765,-0.02940352,0.01763947
1.013446,0.07381557,0.1597148,0.01614059,-0.01625518,0.03062823
1.015753,0.06811082,0.1544027,0.009367277,0.01161488,0.0354674
1.014822,0.0574679,0.1540224,0.005755821,0.01289929,0.03515429
1.010191,0.05677648,0.1590544,0.004276867,0.004815577,0.01966193
1.006581,0.05541428,0.1651271,0.01262732,0.004499944,0.006246355
1.002257,0.05749374,0.1682223,0.02011064,-0.01209385,0.01026654
0.9998912,0.06000023,0.1644532,0.02431759,-0.02098629,0.02212931
1.003441,0.06015255,0.1625908,0.02719437,-0.01334748,0.03495351
1.005711,0.06293687,0.1640773,0.0223862,-0.01221988,0.03284068
1.009296,0.05827379,0.1648592,0.01894836,-0.01480323,0.01708104
1.013781,0.05375289,0.1672401,0.02014568,-0.01525965,0.007462179
1.011606,0.05933992,0.1657134,0.02161565,-0.01718259,0.01045197
1.007567,0.0650205,0.1578391,0.02160089,-0.01989229,0.02293953
1.004633,0.06797455,0.1536141,0.01939128,-0.01833709,0.03175174
1.005663,0.0678064,0.1614451,0.0121146,-0.01446563,0.03893345
1.011137,0.06377162,0.1695311,0.002161557,-0.008851191,0.0464156
1.013378,0.05872054,0.1614533,0.005662196,0.001103052,0.03709325
1.012228,0.05724953,0.1529807,0.01125597,0.00557115,0.02456626
1.008363,0.05984992,0.1551574,0.006865937,-0.006429589,0.02961373
1.002089,0.05988763,0.1526101,0.01163004,-0.0187798,0.03826225
1.000264,0.05853463,0.1502454,0.01899628,-0.0008155276,0.04131395
1.008477,0.05950072,0.1539279,0.01699533,0.02655857,0.04283579
1.017172,0.06435409,0.1585956,0.01132995,0.02563343,0.03458208
1.011738,0.06935502,0.1693665,0.006072011,0.006674865,0.02655702
1.006521,0.06422278,0.1705276,0.01420403,-0.02034291,0.03548693
1.011201,0.05819316,0.1587567,0.02459283,-0.0345331,0.040135
1.010062,0.0615172,0.1600704,0.01932699,-0.0171997,0.03225211
1.008504,0.06221949,0.1637964,0.01793671,-0.002718555,0.03018149
1.010868,0.06008616,0.1592464,0.02428741,-0.003074879,0.03896699
1.008644,0.06251929,0.1605609,0.02541152,-0.004375074,0.04915916
1.006919,0.06300667,0.1585873,0.02531266,-0.006460998,0.04810981
1.005283,0.06198465,0.1531784,0.02239683,-0.001438175,0.04403198
1.005504,0.06286915,0.1566059,0.01911505,0.004094038,0.04365362
1.011069,0.06306051,0.1601471,0.02139733,0.002705319,0.04074823
1.013455,0.06600096,0.1621053,0.02315393,0.00352277,0.04162629
1.012547,0.06884625,0.1637767,0.02302095,0.003031617,0.0471559
1.011073,0.06355966,0.1618932,0.01796853,-0.003703192,0.05465898
1.009827,0.05261888,0.1633046,0.009499896,-0.0091792,0.0590825
1.009844,0.04528472,0.1648274,0.009353772,-0.005790579,0.04790787
1.008447,0.04634136,0.1632617,0.01261257,0.003431125,0.02818778
1.005509,0.04700038,0.1641004,0.01287829,0.009373471,0.01953059
1.00045,0.04456824,0.1640091,0.01407637,0.006242722,0.02888822
0.9964747,0.04614694,0.1635828,0.0144596,-0.009280443,0.04025968
0.994502,0.04642576,0.1638702,0.0177146,-0.02961105,0.03728089
0.9961996,0.0467353,0.1618566,0.02532323,-0.0409447,0.03130364
1.008952,0.05766773,0.1610083,0.02940457,-0.04698461,0.03293868
1.018648,0.07492228,0.1627578,0.0316353,-0.05808501,0.04886718
1.016502,0.08644893,0.1625325,0.0267712,-0.06116525,0.08561206
1.018432,0.08595136,0.153375,0.0004151484,-0.03717288,0.1231398
1.024177,0.08067202,0.1436666,-0.03764939,-0.001786591,0.1456089
1.022164,0.06499245,0.1487381,-0.04971146,0.01132192,0.1397461
1.015407,0.02026691,0.1560202,-0.01433971,-0.0004332924,0.08894189
1.009375,-0.01698005,0.1563569,0.0329677,-0.01738642,0.02383412
0.9988398,-0.004450241,0.1619571,0.05826244,-0.03915475,0.001139139
0.9890607,0.02290158,0.167023,0.06372512,-0.06112522,0.04078363
0.990866,0.03888396,0.1626093,0.05070076,-0.07006412,0.08320929
0.9982607,0.05527818,0.153355,0.04134244,-0.09580871,0.07986732
1.004345,0.06003151,0.1443065,0.04926141,-0.150101,0.07207019
1.003475,0.05647294,0.1483249,0.06879771,-0.2075656,0.08271527
0.9988396,0.05472374,0.1616271,0.130548,-0.2990978,0.1427926
0.9976351,0.04199014,0.1632834,0.2354172,-0.4177086,0.2769875
0.9994042,0.03770131,0.1488982,0.3222524,-0.4562657,0.3949717
1.02126,0.05849711,0.1174676,0.3363932,-0.3804804,0.454363
1.057359,0.07639275,0.08009169,0.2645283,-0.2080012,0.5061361
1.064939,0.06879583,0.0594082,0.1550095,0.05616006,0.5493646
1.04404,0.05199752,0.06299881,0.06657714,0.2241164,0.5475561
1.029087,0.04093763,0.08606968,-0.01930704,0.177124,0.4940673
1.02294,0.00915377,0.1087023,-0.1110355,0.1350052,0.4018536
1.010356,-0.04360883,0.1220633,-0.1373351,0.1218511,0.2907225
0.9930601,-0.09331153,0.1273322,-0.09626468,0.004327079,0.2149464
0.9852526,-0.1246422,0.1137518,-0.03067187,-0.1054286,0.1712087
1.002635,-0.118083,0.09282119,0.03586992,-0.1634023,0.09510078
1.032362,-0.09826364,0.08379672,0.02429722,-0.1599396,0.05700559
1.05095,-0.07072914,0.07844535,-0.01500293,-0.0743602,0.1237798
1.068113,-0.03950447,0.06153037,0.007850181,0.02099693,0.1665452
1.06809,-0.05436067,0.05349654,-0.009158929,0.1450827,0.1167309
1.039547,-0.07321007,0.08654593,-0.03457061,0.1937762,0.07036947
1.015274,-0.06476661,0.128027,0.03274066,0.0942708,0.06026332
0.9838441,-0.07475584,0.1309794,0.1066857,-0.02549674,0.05632944
0.9602096,-0.0861603,0.1137084,0.141069,-0.1441056,0.05507048
0.9849015,-0.08801,0.1095951,0.1344188,-0.1859702,0.0429765
1.010836,-0.08356978,0.1137346,0.1506363,-0.1551662,0.04112803
1.014005,-0.07168109,0.1170969,0.2639837,-0.1881497,0.08349772
1.016589,-0.09561608,0.1316712,0.370118,-0.2197318,0.1396791
1.015158,-0.1256775,0.1442238,0.4067765,-0.2305167,0.1477686
1.016475,-0.1085787,0.1211707,0.3629065,-0.2664026,0.07774893
1.025368,-0.06946299,0.07459446,0.26404,-0.2667086,-0.01559316
1.035481,-0.02035434,0.04867004,0.1707165,-0.1808289,-0.06089609
1.041918,0.01548711,0.05189359,0.03399909,-0.01588786,-0.04419884
1.044998,0.01818864,0.06122197,-0.06226723,0.1039477,0.003772446
1.049151,0.004782677,0.06512715,-0.09491684,0.1116077,0.02244148
1.053294,-0.02819998,0.06307855,-0.202894,0.1131433,-0.02263629
1.05884,-0.06510308,0.05195819,-0.3148091,0.1867959,-0.1133929
1.054252,-0.1281269,0.0211727,-0.4538947,0.3326725,-0.2249133
1.04392,-0.2010492,-0.001855564,-0.6448882,0.4801241,-0.4011525
1.045961,-0.1504806,0.04080294,-0.6068479,0.5300942,-0.5691309
1.028372,-0.01444101,0.114316,-0.2887556,0.4421126,-0.4823645
0.9789222,0.08229595,0.1467246,0.1290413,0.2060606,-0.1226974
0.944711,0.1079428,0.1482139,0.4947853,-0.1105967,0.3099913
0.9554462,0.01612334,0.1178928,0.5336357,-0.2553036,0.482221
1.005548,-0.1036915,0.05230264,0.2529603,-0.06534895,0.2282253
1.053968,-0.142828,0.03361424,-0.01779643,0.1976467,-0.07028249
1.052212,-0.1293031,0.1066912,-0.1194876,0.2991817,-0.2724973
1.016183,-0.05496204,0.1954024,-0.01558217,0.2840229,-0.3809982
0.9998496,0.02905172,0.2165389,0.05601998,0.1671667,-0.2158778
1.010277,0.05329269,0.197353,-0.07625089,0.06498289,-0.1006653
1.030054,0.03553241,0.1851928,-0.1431465,0.0561186,-0.07994225
1.04619,-0.001985494,0.1500939,-0.1404086,0.09158535,0.004538628
1.029283,-0.03429798,0.1242108,-0.1407287,0.1534585,-0.07497398
0.9954923,-0.05721093,0.1419179,-0.07666631,0.121347,-0.1156761
0.9858126,-0.0468012,0.1397225,-0.03402692,0.05995369,-0.08249004
0.9883989,-0.02685766,0.1282767,0.0205973,0.05106257,-0.1036627
0.9937628,-0.02896228,0.1340757,0.04074851,0.04125574,-0.02989298
1.008738,-0.01409948,0.1319756,0.002946503,0.1069073,-0.02610424
1.024273,-0.01198235,0.136094,0.01459739,0.1345276,-0.0435268
1.023024,-0.01015976,0.1413476,0.006139724,0.08747947,-0.005105082
1.014343,-0.006056564,0.1383047,-0.01375814,0.07941313,-0.03726215
1.021322,-0.02848271,0.1397369,-0.03928402,0.07419803,-0.04210324
1.021141,-0.02357419,0.1411762,-0.07643031,0.07823346,-0.07163139
1.014259,-0.02023912,0.1431144,-0.06651512,0.02378192,-0.1039809
1.017073,-0.02194922,0.1451941,-0.07208984,-0.04265516,-0.07863874
1.011065,-0.01281925,0.1450856,-0.07155612,-0.02184922,-0.06684462
1.014015,-0.01821313,0.1438948,-0.04475283,0.001787023,-0.01121228
1.022022,-0.005752691,0.1439563,-0.03686837,0.02712878,0.02868859
1.015354,-0.00759325,0.1468753,-0.03785247,0.02417436,0.02327684
1.014054,-0.01610498,0.1460437,-0.05033013,-0.007800915,0.02317828
1.013271,-0.005120431,0.1454564,-0.04030027,-0.02713222,0.01422295
1.019092,-0.008618494,0.147171,-0.02881497,-0.04588074,0.02304856
1.034313,-0.001102425,0.1408626,-0.03864618,-0.01094331,0.02689193
1.037318,-0.001137636,0.1257491,-0.04266285,0.05504474,0.02899982
1.034361,-0.01457096,0.1164825,-0.07082756,0.1141133,0.03426761
1.025659,-0.01778095,0.1236363,-0.09706761,0.1268141,0.02455263
1.016764,-0.03244489,0.1273829,-0.1100564,0.09693606,0.03074051
1.020434,-0.03955392,0.1186437,-0.1215537,0.1281175,0.02837851
1.028666,-0.04299687,0.1175688,-0.09187953,0.1817551,0.008709378
1.033038,-0.04822241,0.1245782,-0.0532416,0.2173424,-0.01522219
1.024335,-0.039674,0.1343119,-0.04072533,0.2157538,-0.04247373
1.006628,-0.03863289,0.1460465,-0.04382054,0.163317,-0.04892082
0.9947061,-0.04352462,0.1554981,-0.05215274,0.1535503,-0.04932431
0.9928341,-0.046602,0.1691041,-0.05005967,0.1500267,-0.06591288
0.9933304,-0.04318941,0.1829192,-0.03679233,0.1250043,-0.0994768
0.9914498,-0.03168883,0.1928874,-0.01906747,0.1018244,-0.1148504
0.995572,-0.02293292,0.2029701,-0.01474335,0.03520367,-0.07432198
1.004036,-0.01212707,0.2008688,-0.0004257093,-0.007158671,-0.01662344
1.015667,-0.01005422,0.1872328,0.03769006,-0.00695802,0.01821186
1.025228,-0.01376973,0.1763083,0.03707682,0.001404747,0.02074784
1.019133,-0.007063933,0.1692893,0.01012908,0.01577355,-0.006318009
1.012256,-0.004259497,0.1655373,0.007795533,-0.009252387,-0.02351472
1.008731,-0.006992028,0.1650107,0.02423406,-0.02463207,-0.001933776
0.9993727,-0.0108003,0.1659705,0.04506756,-0.01437949,0.03954398
0.9988188,-0.02068156,0.1638574,0.03764274,-0.01428329,0.06558511
1.004702,-0.03492397,0.1612258,0.01734502,-0.009076878,0.06069608
1.010206,-0.04330717,0.1644709,0.01837942,-0.02229596,0.03308669
1.01907,-0.03639638,0.1648475,0.02380902,-0.0286004,0.01463365
1.019493,-0.02722295,0.1636226,0.03221802,0.002078244,0.02890803
1.013707,-0.02545218,0.1693142,0.02160547,0.03864055,0.04961551
1.006591,-0.03776606,0.1747435,-4.990521e-05,0.04448764,0.0579461
0.9920756,-0.06206604,0.1778369,0.009417558,0.01194201,0.06732849
0.9868687,-0.06435461,0.178308,0.01619452,-0.01854419,0.07323543
0.9970896,-0.0505934,0.1709765,0.02293321,-0.04899215,0.06265636
1.009495,-0.04494582,0.1620854,0.04478618,-0.06724384,0.04259769
1.024476,-0.03194183,0.1624012,0.05007452,-0.05089363,0.02376754
1.03555,-0.01571149,0.1659713,0.05046213,-0.03655213,0.01060535
1.040147,-0.01098056,0.1640322,0.035027,-0.01404842,0.01541866
1.043924,-0.01616458,0.1657272,0.003445429,0.02351056,0.02354131
1.03296,-0.02899225,0.1701127,0.002425715,0.0363569,0.007450909
1.009301,-0.04302339,0.1698356,0.02214783,0.007916745,-0.01088994
0.9930958,-0.04848346,0.1672499,0.03154523,-0.04166716,-0.01721329
0.9924511,-0.03694403,0.1620555,0.02134101,-0.0786517,-0.01619942
1.009398,-0.02791037,0.1629313,0.003407454,-0.08712841,-0.00149344
1.025894,-0.03446199,0.1641365,-0.001443918,-0.05742067,0.006042595
1.026826,-0.04047751,0.1535194,0.001890626,-0.02011519,-0.001988822
1.021842,-0.05194909,0.147978,0.006854621,-0.01305123,-0.01131244
1.015696,-0.06271692,0.1528272,0.01229109,-0.01894017,-0.02124162
1.011362,-0.0589799,0.1576347,0.01677906,-0.02601457,-0.02822134
1.013365,-0.05568626,0.1573593,0.02000945,-0.02737424,-0.02891167
1.016794,-0.05252322,0.1540388,0.01617555,-0.0140142,-0.02663429
1.013795,-0.04710744,0.1547017,0.01485827,-0.00320311,-0.03053614
1.008761,-0.0440372,0.1562739,0.02946598,-0.01569703,-0.03144365
1.010333,-0.04044066,0.159961,0.04902986,-0.03210941,-0.01956985
1.01754,-0.0406875,0.162813,0.05394574,-0.01750049,-0.01460879
1.026275,-0.04081878,0.1602358,0.0425685,0.003153792,-0.02159699
1.021631,-0.03631671,0.1618772,0.02189174,0.00682614,-0.03684688
1.009952,-0.03421225,0.16513,-0.00358163,-0.005001294,-0.0442746
1.012361,-0.03334021,0.1664182,-0.01063523,-0.025614,-0.02720683
1.018491,-0.03253676,0.1614095,-0.001544248,-0.009808616,-0.01288281
1.0264,-0.03448414,0.1454418,-0.01150282,0.02586287,-0.01923622
1.030776,-0.03604796,0.1367653,-0.02601732,0.04722114,-0.03756023
1.022899,-0.03777712,0.1427249,-0.02947205,0.06229198,-0.05208119
1.018488,-0.03897935,0.1482339,-0.03462051,0.04744009,-0.05394279
1.012253,-0.03992857,0.1471003,-0.03265927,0.02988355,-0.05729365
1.007348,-0.04629273,0.1500083,-0.02765958,0.0244993,-0.06567711
1.012479,-0.04860725,0.1553353,-0.02246594,0.009055552,-0.06883281
1.0156,-0.04210253,0.1524157,-0.01821936,0.0274415,-0.07017045
1.020443,-0.03519847,0.153502,-0.02725066,0.06710132,-0.07470078
1.018528,-0.03052097,0.1596493,-0.03610352,0.09076462,-0.0690666
1.008337,-0.03498609,0.163549,-0.04046807,0.09407251,-0.0613294
1.00443,-0.04123201,0.173578,-0.03443758,0.05850364,-0.06637581
0.9988563,-0.03753526,0.1845814,-0.01812168,0.01649169,-0.06194852
0.9974351,-0.03375018,0.1886674,-0.01051071,-0.01553807,-0.04567497
1.003961,-0.03205555,0.1863933,0.006739382,-0.03890331,-0.03198032
1.009216,-0.03344362,0.1798447,0.02262832,-0.03370666,-0.0298424
1.014276,-0.03778545,0.1698041,0.01456054,-0.02963024,-0.03429283
1.01138,-0.03433831,0.1596764,0.001263245,-0.03509367,-0.02110477
1.008443,-0.03194641,0.1572528,-0.0132966,-0.03280922,-0.01068953
1.016388,-0.03611912,0.1517928,-0.002562941,-0.02815367,-0.0182103
1.020741,-0.03652516,0.1445854,0.02617282,-0.006437088,-0.02766877
1.018119,-0.03592267,0.1503648,0.02274352,0.03243497,-0.0404687
1.011805,-0.0362457,0.1588853,0.006306768,0.04706867,-0.04202434
1.005202,-0.03589236,0.1648752,-0.004522492,0.02404129,-0.03559625
1.008325,-0.03618733,0.1644118,-0.004967248,0.01188422,-0.03653177
1.019043,-0.03505761,0.1572276,0.002611734,0.03126807,-0.03330814
1.027258,-0.03407214,0.1573748,-0.01115495,0.05736579,-0.0352217
1.025094,-0.03212452,0.1605697,-0.02627783,0.07786712,-0.04680293
1.015244,-0.02687987,0.1701036,-0.03188387,0.06924382,-0.05157475
1.006014,-0.0231783,0.1855021,-0.03092898,0.04391375,-0.04564042
1.000351,-0.02314518,0.1850612,-0.01953264,0.04082809,-0.03284278
1.004494,-0.02346276,0.1785524,-0.02791444,0.04455167,-0.02190366
1.013544,-0.02366879,0.1781524,-0.03243039,0.04846352,-0.01601294
1.015684,-0.02811642,0.177103,-0.01878324,0.05431535,-0.01700724
1.013069,-0.03587992,0.1791219,-0.007995104,0.05141486,-0.02245218
1.008833,-0.04013677,0.178411,0.01030047,0.05082559,-0.02186514
1.009327,-0.0353734,0.1732651,0.006319637,0.04891614,-0.02388027
1.014042,-0.02709842,0.1736153,-0.01026486,0.04752007,-0.02826241
1.014675,-0.02754511,0.1743145,-0.008271736,0.04815108,-0.02639685
1.016017,-0.0320086,0.1759369,-0.01281697,0.03140531,-0.03271534
1.016448,-0.03567481,0.1801769,-0.01071024,0.01087517,-0.0468977
1.013869,-0.03770422,0.1796615,0.002505354,0.005554074,-0.05211456
1.005771,-0.02884713,0.1822084,0.02223305,0.01384677,-0.03855419
0.9897936,-0.01996349,0.1919545,0.04245515,0.01333968,-0.01768909
0.9887682,-0.02171691,0.1969779,0.02284357,-0.01723869,-0.01194122
1.003487,-0.02412598,0.1894951,-0.0006579333,-0.03549807,-0.01298114
1.015116,-0.0266565,0.1803581,0.005743089,0.0009209772,-0.01506057
1.020246,-0.03204466,0.1835183,0.008120075,0.03967021,-0.02433255
1.011382,-0.03225314,0.1861977,0.009918494,0.02034995,-0.03413349
1.000016,-0.02443281,0.1846914,0.01142027,-0.0002855306,-0.04703928
0.9992233,-0.01939055,0.1876098,0.004176705,0.007659728,-0.05044424
1.001048,-0.0220381,0.1843702,0.0004814104,-0.01094714,-0.02823758
1.007049,-0.02842687,0.1780275,0.0003771781,-0.01864432,-0.01042729
1.013423,-0.03410274,0.1737201,0.009103638,-0.002359108,-0.02426132
1.012934,-0.03108709,0.1710927,0.01804032,-0.002343291,-0.04363703
1.010124,-0.02317863,0.1756942,0.01000675,0.00731397,-0.04372797
1.009057,-0.01865122,0.1781177,0.0005090212,0.009697439,-0.03911041
1.010183,-0.01954721,0.1808738,0.0004411894,0.004343808,-0.03099849
1.010478,-0.02692529,0.1881111,0.002632685,0.009688547,-0.02059198
1.010448,-0.03190599,0.1905117,0.004169898,-0.00355518,-0.02891646
1.011802,-0.02943453,0.1855201,0.004814539,-0.0179407,-0.04108813
1.016185,-0.02237767,0.1695651,0.008704578,-0.02584001,-0.04148839
1.021625,-0.01461845,0.1564148,0.01374856,-0.02053736,-0.03850141
1.019309,-0.0139231,0.1572684,0.00763771,0.01096943,-0.02897694
1.014229,-0.01756291,0.1657588,-0.006076499,0.03525089,-0.02004966
1.009308,-0.02191441,0.1763437,-0.01126356,0.0437914,-0.01990532
1.000315,-0.02918649,0.1774019,-0.004040598,0.02762448,-0.01795271
0.9990164,-0.03082956,0.1786582,0.009427569,0.0029031,-0.01440212
1.006834,-0.02551249,0.1849919,0.01894612,0.004315442,-0.02133417
1.01435,-0.02316001,0.1820293,0.02021986,0.01228037,-0.02880761
1.018292,-0.02167921,0.1815192,0.01917733,0.02778598,-0.02263125
1.012307,-0.01890425,0.1884854,0.01905307,0.04152204,-0.01817215
1.001502,-0.01619177,0.1916363,0.01967102,0.02863659,-0.01992176
0.9966299,-0.01233776,0.1905592,0.01924853,-0.007598257,-0.01869641
0.9989399,-0.01202637,0.1884344,0.01861315,-0.059465,-0.01970768
1.005361,-0.00810127,0.1853044,0.01898291,-0.07151844,-0.0193765
1.008264,0.0001380916,0.180288,0.01817772,-0.04089178,-0.01224249
1.008074,-0.004500408,0.1799726,0.01582952,-0.03442757,0.0007819271
1.009282,-0.01219902,0.1819197,0.005053245,-0.0382323,0.009585308
1.010497,-0.01535115,0.1798556,-0.01129631,-0.02922284,-0.0009036839
1.012654,-0.02163244,0.1818646,-0.01559927,-0.02390162,-0.009602501
1.014922,-0.02041819,0.1855215,-0.01214204,-0.01933124,0.002368288
1.016916,-0.01792292,0.1854638,-0.01679469,-0.007019865,0.009511488
1.017848,-0.0236587,0.1860671,-0.02182808,0.009364474,0.0009697144
1.014485,-0.02505788,0.1867702,-0.01400277,0.006214906,-0.01029477
1.009623,-0.02281305,0.1884704,-0.005157876,-0.01443087,-0.01794315
1.006402,-0.01847663,0.1901963,-0.005204445,-0.0292805,-0.01005193
1.003594,-0.01298605,0.190296,-0.003682184,-0.03958809,0.005214489
1.001888,-0.01620296,0.1906651,0.001139877,-0.0388733,0.00396275
1.00495,-0.02188844,0.1895153,0.006888328,-0.03752032,-0.0008171526
1.00771,-0.02418774,0.1887118,0.01156699,-0.04750747,0.0001577962
1.006506,-0.02441972,0.1871605,0.003494977,-0.05149653,-0.002984923
1.007154,-0.02155852,0.1833606,-0.00876289,-0.05591262,-0.001057067
1.007053,-0.02133013,0.1813411,-0.007309647,-0.05756457,0.004630321
1.006723,-0.02221056,0.1814367,-0.00543741,-0.0566861,0.006706607
1.008707,-0.02278494,0.1834115,-0.0071355,-0.06282286,0.00716447
1.009996,-0.02553565,0.1816233,0.0002027088,-0.04809119,0.004838215
1.01224,-0.02467823,0.1757281,0.003542633,-0.02496048,0.00288036
1.013263,-0.02248414,0.1725502,0.005372384,-0.0197029,-0.00405543
1.014815,-0.01954524,0.1730767,0.01277807,-0.01718495,-0.01043217
1.017306,-0.01372592,0.1765611,0.00752051,-0.004925143,-0.0003465217
1.014902,-0.013181,0.1775789,0.002145811,0.01846921,0.009863027
1.009362,-0.02209026,0.180319,0.006399726,0.02237907,0.004837935
1.002791,-0.03680423,0.1843475,0.004691939,-0.001650196,-0.003345894
1.004341,-0.04137995,0.1778898,0.004527835,-0.01196922,-0.005547726
1.015259,-0.03045075,0.1727091,0.01071154,0.009369012,-0.00293873
1.020869,-0.02217737,0.1769563,0.01416589,0.04104574,0.001357747
1.018142,-0.02125876,0.1830083,0.008458222,0.03906041,-0.0005626405
1.007896,-0.02198748,0.1896476,-0.003732788,-0.003207154,-0.006562781
1.000209,-0.02097111,0.1932925,-0.005391665,-0.03374199,-0.006883873
1.00687,-0.01831261,0.1904858,0.009014622,-0.01384745,-0.00638923
1.012366,-0.01947271,0.1859985,0.02063118,0.01992713,-0.005037901
1.006961,-0.02056017,0.184344,0.009619513,0.02082274,-0.003295753
1.002605,-0.02151494,0.1808738,-0.006065921,0.0240447,-0.00446363
1.002864,-0.02493441,0.1782749,-0.003172395,0.02706133,-0.005297665
1.004177,-0.0248231,0.1824796,-0.0005635382,0.007754637,-0.0119216
1.011285,-0.02444042,0.1863674,-0.0009199496,0.01188273,-0.01308115
1.020806,-0.02567799,0.1879436,0.005430316,0.02257457,-0.007585109
1.020419,-0.02507271,0.18934,0.004925541,0.02387901,-0.01119755
1.014887,-0.02662213,0.1915614,0.002393241,0.02556073,-0.01063019
1.009243,-0.02852289,0.1952399,0.002530899,0.007864404,-0.007309732
1.00254,-0.02660191,0.1969691,0.0005352614,-0.001823615,-0.002434522
1.002795,-0.02437604,0.1936736,0.0007841214,-0.008764669,0.006562737
1.004931,-0.02225275,0.1880061,0.001539348,-0.02483876,-0.003241417
1.001795,-0.02016242,0.1897635,0.006544474,-0.03016395,-0.01352153
1.003361,-0.02147292,0.1920804,0.01253149,-0.03593712,-0.005273916
1.009237,-0.023094,0.1884669,0.01045717,-0.03236972,-0.002960791
1.01084,-0.02198696,0.18884,0.009177883,-0.02652967,-0.005535576
1.006558,-0.02195743,0.1876003,0.01033331,-0.02530062,-0.001176421
1.000501,-0.02261343,0.186215,0.008526933,-0.02534766,0.0034226
1.003683,-0.02233991,0.1888125,0.00634393,-0.04166604,0.005037353
1.010054,-0.02400928,0.1869328,0.005724069,-0.0464875,0.004765401
1.009419,-0.02500404,0.1872059,0.006436704,-0.03620246,0.003782972
1.009941,-0.02142608,0.1893806,0.007512009,-0.02221774,0.005926697
1.009185,-0.01808092,0.1920207,0.007598044,-0.009580194,0.0133924
1.007783,-0.01955614,0.1976098,0.008216336,-0.02563783,0.02035023
1.008898,-0.02206304,0.1936,0.01276932,-0.04238747,0.01922523
1.00523,-0.02225644,0.1855305,0.01578081,-0.03984757,0.01346786
1.005946,-0.02236058,0.1838436,0.01051003,-0.03893326,0.01231973
1.012793,-0.02314729,0.1817873,0.0004341617,-0.03654032,0.01272545
1.016525,-0.02678907,0.1755859,-0.006375635,-0.02377304,0.008617172
1.016272,-0.03261328,0.1693168,-0.003504371,0.000733741,0.001177177
1.012493,-0.03288915,0.1765558,-0.0001690216,0.01376139,-0.008952899
1.008359,-0.03084062,0.1926549,-0.004533514,-0.006055103,-0.01701604
1.001761,-0.03123119,0.2005772,-0.005544416,-0.040991,-0.0201825
1.001758,-0.02845211,0.2022536,-0.001688368,-0.05436063,-0.01847321
1.011493,-0.02255355,0.1922163,0.003695633,-0.03217326,-0.01360184
1.013538,-0.01691303,0.1772825,0.0102422,-0.01048585,-0.01085564
1.012609,-0.01589161,0.1784364,0.00613873,-0.0130716,-0.00851766
1.013563,-0.02171446,0.1805037,0.0001795577,-0.01480178,-0.009712018
1.013471,-0.0270832,0.1750113,0.007327765,-0.009074343,-0.01433472
1.014311,-0.02809828,0.1750015,0.01191061,-0.009524045,-0.01712908
1.010544,-0.02509791,0.1772083,0.008574621,0.0007203822,-0.02327472
1.008975,-0.02126854,0.1801757,0.001575685,0.0137147,-0.02624937
1.011078,-0.02274564,0.183955,-0.005472151,0.0007196497,-0.01829359
1.010836,-0.02638661,0.1876937,0.007203649,-0.01192849,-0.01000426
1.01072,-0.02728889,0.1902099,0.02554991,-0.01128616,-0.01300939
1.009167,-0.02306817,0.1847422,0.01994406,-0.01392497,-0.01708962
1.010535,-0.01703857,0.1825342,0.004646393,-0.01726128,-0.009831294
1.011695,-0.01933355,0.1851986,-0.003676455,-0.02061442,-0.007840206
1.008628,-0.02291327,0.1814242,-0.001932864,-0.01611579,-0.01103179
1.008311,-0.0202504,0.1855833,0.003461325,-0.01009204,-0.008159495
1.008998,-0.0163981,0.1929565,-0.00293095,-0.01810891,-0.004913243
1.01034,-0.01258983,0.1887072,-0.009471526,-0.02409743,0.004066729
1.01092,-0.01998544,0.1870763,-0.008643122,-0.02133277,0.01146918
1.010504,-0.03095614,0.1848547,-0.006329648,-0.02045348,0.009200888
1.009873,-0.02420476,0.1772114,0.001678416,-0.01850342,0.001714452
1.003464,-0.0188171,0.1767632,0.001230142,-0.01728005,-0.00802998
0.9988514,-0.02290175,0.1797418,-0.005097927,-0.03047891,-0.003092608
1.001566,-0.02286201,0.18389,-0.003162843,-0.0476894,0.008901505
1.007109,-0.02550094,0.1878532,-0.002421679,-0.04529979,0.01075856
1.012451,-0.02585965,0.1808316,0.001368272,-0.02963751,0.007672443
1.013319,-0.02167464,0.1710355,0.004822542,-0.01779283,0.0003554312
1.012226,-0.0224991,0.1736476,0.003071716,-0.0140793,-0.00105078
1.012343,-0.02214887,0.1799633,0.001505309,-0.01357476,0.002899766
1.012675,-0.02187054,0.180857,-0.002834099,-0.01236556,0.002749677
1.012181,-0.02359326,0.1820481,0.006592019,-0.01548798,0.006007967
1.010486,-0.02517588,0.1817997,0.01799746,-0.01871905,0.004948124
1.010142,-0.02772514,0.1806466,0.00739152,-0.0168016,-0.0006532658
1.013142,-0.02120149,0.1802587,0.001146315,-0.01304857,-1.013329e-05
1.0176,-0.01356462,0.1770009,0.005496251,-0.006817208,0.002582069
1.016498,-0.0185146,0.1778411,0.004469873,-0.006694688,0.005433571
1.010415,-0.02147626,0.1814662,0.003243418,-0.01618958,0.0007576032
1.005402,-0.01879388,0.1798828,0.003724858,-0.02653761,-0.005581288
1.002748,-0.0210904,0.1737852,0.003374202,-0.03408435,0.002276799
1.005208,-0.02342676,0.1687596,0.005505293,-0.03162517,0.01177634
1.007244,-0.02188091,0.1704782,0.009044703,-0.02610946,0.0157278
1.007347,-0.02213602,0.1709667,0.007009906,-0.02512001,0.01585851
1.010827,-0.02354249,0.1684081,0.003977469,-0.01769093,0.01061285
1.010999,-0.02358655,0.1695366,0.004533295,-0.01084028,0.006535022
1.012873,-0.02361163,0.1700069,0.003294975,-0.008561856,0.003997081
1.020749,-0.02262188,0.1699731,-3.378958e-06,0.001663304,0.00288831
1.021116,-0.02221315,0.172486,-0.006892728,0.01479556,-0.001669558
1.014196,-0.0241222,0.1781494,-0.01080615,0.01515385,-0.008626562
1.00828,-0.02553944,0.1866087,-0.002959399,0.002637571,-0.001936467
1.007212,-0.02539112,0.1895843,0.006518897,-0.01041801,0.004515567
1.010019,-0.02547907,0.1843511,0.01158393,-0.01834409,-0.001513459
1.01003,-0.02665699,0.1779622,0.01041586,-0.007079767,-0.003802074
1.009315,-0.02575658,0.1728205,-0.004192875,0.01100068,-0.003367887
1.010052,-0.02473102,0.1741584,-0.01643149,-0.0002369579,-0.0001726213
1.009907,-0.02830819,0.185835,-0.001787295,-0.0180254,0.005311951
1.011506,-0.03193154,0.1917383,0.0166846,-0.02483202,-0.002047329
1.013004,-0.03087624,0.1826,0.01054552,-0.02635681,-0.009330826
1.011629,-0.02377948,0.1740538,0.007316029,-0.01791868,-0.0006909327
1.010761,-0.0174571,0.1772681,0.01480986,-0.02398504,0.01304006
1.012208,-0.02236464,0.179617,0.0133248,-0.02780293,0.01921175
1.013929,-0.02764501,0.1732282,0.01373261,-0.01248617,0.005129056
1.014034,-0.02263689,0.1718989,0.009715917,-0.007315305,-0.01236758
1.01383,-0.01789023,0.172924,-0.000185432,-0.0008928121,-0.002178254
1.013923,-0.01695993,0.1724129,0.004003431,0.009661612,0.01012296
1.013111,-0.01839213,0.1793425,0.008214012,0.01465462,0.005363625
1.00986,-0.02298308,0.1834608,0.00797307,0.01152947,0.003700437
1.004515,-0.02389569,0.1812935,0.009554212,-0.001165312,-0.000471564
1.004507,-0.02445211,0.1797497,0.005246052,0.0001156038,-0.002476053
1.0128,-0.02646831,0.1802843,0.004032963,0.005424111,0.0006717305
1.018693,-0.02405932,0.1818741,0.00601316,0.007552437,-0.007211387
1.014206,-0.02447424,0.1815198,0.005107687,0.01167245,-0.009119574
1.008331,-0.02418391,0.1836549,0.005989552,0.00396565,-0.006550208
1.009691,-0.02112783,0.1823488,0.00516459,0.00105346,-0.007228508
1.010586,-0.02530839,0.1775816,0.002021378,0.002538086,-0.002218816
1.01038,-0.02643452,0.1759943,-0.001657495,0.004462756,-0.00925293
1.014526,-0.01948049,0.170762,-0.004209163,0.0181918,-0.01572984
1.01584,-0.01392921,0.1714331,-0.003194668,0.03010854,-0.00455471
1.012892,-0.01473756,0.1774485,-0.005369653,0.03186049,0.002230865
1.010128,-0.01978707,0.1792444,-0.01163246,0.01410928,-0.0003727688
1.00894,-0.02146338,0.1845431,-0.0123697,-0.004165614,-0.003645031
1.010409,-0.0222579,0.1869118,-0.001066516,0.001604224,-0.00114805
1.011613,-0.02104342,0.1854655,0.01017086,0.005318763,0.003911595
1.01273,-0.01823957,0.18591,0.001270782,0.004718374,0.004809914
1.012859,-0.02225407,0.1824765,-0.01102205,0.01204667,-0.0001924029
1.010803,-0.02582774,0.18027,-0.007176105,0.01373935,-0.008476249
1.010199,-0.02613869,0.182829,-0.004751865,0.01391328,-0.004504274
1.009517,-0.02429953,0.186069,-0.00540024,0.02547777,0.0005524279
1.009417,-0.02060436,0.1882546,-0.002430104,0.03523334,-0.005350181
1.010392,-0.02230657,0.1877823,-0.001190241,0.02596508,-0.007491138
1.010099,-0.0226503,0.1884895,0.003473271,0.01238339,-0.01329964
1.010528,-0.01940844,0.1933324,0.004597178,0.00671387,-0.01597281
1.009417,-0.01847853,0.193814,0.002211786,-0.002807232,-0.001064735
1.007658,-0.01771601,0.1859795,0.005738596,-0.007548256,0.009097777
1.00876,-0.01899833,0.1851898,0.005158062,0.001028722,0.004846109
1.009883,-0.02006498,0.1912072,0.004194188,0.001625341,-0.001069007
1.010139,-0.019097,0.1893416,0.004375218,-0.008757618,-0.0008428371
1.009485,-0.02025985,0.1893765,0.001424583,-0.01781022,0.002038236
1.009697,-0.02306062,0.1908438,0.004089678,-0.02193754,0.003712031
1.011066,-0.0257985,0.1860322,0.004675236,-0.01726466,0.004989924
1.010659,-0.02467295,0.1854856,0.002668037,-0.01461769,0.003041134
1.00933,-0.02202268,0.1840282,0.003970376,-0.01468684,0.003094009
1.006726,-0.0222108,0.1830947,0.002195183,-0.01193803,0.003990389
1.005302,-0.02063989,0.1907125,-0.00019196,-0.01576694,0.001098085
1.007023,-0.02001169,0.193029,-0.002954995,-0.01579496,-0.0007893367
1.010559,-0.02187592,0.1850152,-0.003010711,-0.01186888,-0.006641275
1.01468,-0.02123389,0.1754481,0.0003717206,-0.01134636,-0.01120111
1.010349,-0.02062032,0.1755232,0.0004439408,-0.00717892,-0.006540305
1.004078,-0.0176411,0.179576,0.002077333,-0.01224686,-0.001589277
1.009158,-0.01375517,0.1774926,0.002710174,-0.02212471,0.001284865
1.014249,-0.01713185,0.1792155,0.002365156,-0.02116801,0.003953202
1.015044,-0.0189647,0.1783807,0.005086409,-0.0179338,0.004462757
1.014515,-0.01470501,0.1748534,0.001546089,-0.01416066,0.002538741
1.011091,-0.01375049,0.1799832,-0.003425834,-0.01270502,0.004645165
1.012297,-0.01854596,0.1820655,-0.003586864,-0.01495501,0.01301141
1.013254,-0.02620351,0.1822634,-0.002566049,-0.01358451,0.01674371
1.009657,-0.02862717,0.1831146,0.002859507,-0.008451298,0.004937391
1.010147,-0.02137629,0.179716,0.005822157,0.006021211,-0.009403497
1.012432,-0.01367327,0.1803401,-0.003584816,0.02360502,0.0002979491
1.014131,-0.01467868,0.1830744,-0.01615783,0.02183208,0.01194431
1.01286,-0.02436557,0.1841228,-0.01553841,0.0005549192,0.00378296
1.009497,-0.03132865,0.186136,-0.0003957528,-0.01720008,0.0001082
1.011422,-0.02512774,0.1880725,0.01514647,-0.01529208,-0.001062562
1.011044,-0.01714467,0.18764,0.01688086,-0.007503179,0.00429963
1.00663,-0.01934464,0.1850319,0.003713982,-0.007421743,0.01742179
1.005108,-0.0211868,0.1842684,-0.007673248,-0.004367198,0.007186994
1.005315,-0.0211246,0.1838324,-0.008299805,-0.003663249,-0.00526847
1.007753,-0.02583378,0.1830112,-0.005959974,-0.007558749,-0.003617872
1.008023,-0.02529894,0.1832618,-0.004535494,-0.001116825,-0.007257517
1.006298,-0.02093204,0.18238,-0.006402537,0.00596246,-0.006768843
1.007483,-0.02011593,0.181546,-0.01404265,0.009279809,-0.00209328
1.009087,-0.01974068,0.1809478,-0.0200575,0.01005708,0.003773102
1.012347,-0.02218749,0.1798593,-0.009876855,0.0052282,0.008804659
1.015182,-0.0230583,0.1778317,0.004328166,0.007075292,-0.001375991
1.014696,-0.02139538,0.1755727,-0.001312348,0.003167169,-0.008886138
1.01194,-0.02304274,0.1770648,-0.005658617,-0.00853922,0.001046563
1.008337,-0.02434044,0.1813565,0.001351693,-0.008279726,0.01129454
1.009378,-0.02702363,0.1833536,0.002018895,-0.00578352,0.01097218
1.009837,-0.02827125,0.1784768,0.003659912,-0.002116255,0.001920697
1.004534,-0.02325625,0.1732102,-0.001483389,0.0001669146,-0.005084465
1.001888,-0.01933033,0.1790198,-0.01206223,-0.008643916,-0.0009044078
1.004895,-0.01932479,0.1866961,-0.003348268,-0.01380669,0.005735138
1.009369,-0.02238876,0.1865087,0.006127019,-0.007125859,0.005254303
1.010731,-0.0246785,0.185514,0.003817172,0.0001314004,0.006068127
1.010784,-0.02347026,0.1841247,0.003121881,-0.005054407,0.008986288
1.014088,-0.02333484,0.1807993,0.0007196414,-0.009475723,0.006513784
1.016125,-0.02349309,0.1800026,-0.0002735864,-0.005629053,0.004621248
1.014198,-0.02175636,0.180301,0.001063267,-0.009941839,0.003755193
1.011959,-0.02061222,0.1789147,0.0007067067,-0.01482057,0.004788293
1.010584,-0.02243205,0.1769617,0.006004862,-0.01731342,0.007877159
1.00935,-0.02460362,0.1762387,0.01073529,-0.01924324,0.003190423
1.009533,-0.02301592,0.1749241,0.006676911,-0.01235829,-0.002363437
1.011294,-0.02048764,0.1731361,0.0007826739,-0.008148469,-0.00222339
1.012091,-0.01852847,0.1762373,-0.001573351,-0.007743699,-0.0001679391
1.012685,-0.0167943,0.1795948,5.764512e-05,-0.002481279,0.002298457
1.012604,-0.01805613,0.1787321,0.002664282,0.001203974,0.0002947131
1.010461,-0.02178461,0.1780521,0.003452575,-0.006671115,-0.002401896
1.00752,-0.02449005,0.1756905,0.002556034,-0.02061584,-0.002065547
1.005119,-0.02430931,0.1727401,-0.000447494,-0.01987379,-0.001451089
1.008633,-0.02378719,0.1724252,-0.004296754,-0.004328624,7.988578e-06
1.013264,-0.02304802,0.1735558,-0.004467769,0.008122862,-0.0003346261
1.010684,-0.02135692,0.1785252,0.0008940028,0.002279281,-0.001339821
1.009371,-0.02254739,0.1823127,0.005374691,-0.01684826,-0.001513409
1.010898,-0.02339487,0.1802137,0.005002486,-0.02640249,-0.002196117
1.012035,-0.02253379,0.1790736,0.005452583,-0.02268931,0.002097906
1.015551,-0.02320384,0.1799561,0.007648974,-0.008975953,0.006601955
1.015064,-0.02261547,0.1815711,0.005387432,0.003428394,0.0005283099
1.011783,-0.02174572,0.1842475,-0.001718235,0.0009879402,-0.008347927
1.012552,-0.01993246,0.1828558,-0.006411116,-0.005058553,-0.007403138
1.013255,-0.01602159,0.1780685,-0.00265564,-0.007484309,0.004597566
1.015046,-0.01509502,0.1754722,0.00186209,0.0002531652,0.0148994
1.018653,-0.01836064,0.1759291,-0.001548359,0.01782848,0.007743899
1.017791,-0.02335329,0.1775814,-0.002826251,0.02928862,-0.002936894
1.013952,-0.02460462,0.1789381,-0.000236172,0.02999682,-0.002830874
1.011286,-0.0228866,0.180816,-0.001750737,0.01871292,-0.008118767
1.010332,-0.02212039,0.1795988,-0.001363687,0.007577078,-0.01125061
1.009848,-0.01846478,0.1735189,-0.0001610016,0.008967857,-0.003650239
1.009226,-0.01603086,0.1720628,-0.001602488,0.0149233,-0.005312912
1.009941,-0.02018222,0.1782358,-0.003653495,0.01603507,-0.009448011
1.009934,-0.0238916,0.1850919,-0.006814921,0.003211904,-0.00989486
1.009306,-0.0217814,0.1865228,-0.002721324,-0.01221117,-0.008637488
1.01022,-0.01860404,0.1853796,0.003994033,-0.01033956,0.004796494
1.010919,-0.01852462,0.1871506,0.002672782,-0.0004431567,0.01512694
1.013867,-0.02029628,0.1827483,0.0006516079,0.003917563,0.01172128
1.019313,-0.02342531,0.175416,-0.002346791,0.004651935,0.002143974
1.020703,-0.02337053,0.1776438,-0.006608005,0.00171682,-0.004937203
1.014714,-0.02126773,0.1783444,-0.005126926,-0.00411127,0.0008426832
1.007419,-0.02294277,0.1741626,-0.003785594,-0.00738337,0.006013486
1.007912,-0.02393744,0.1735116,-0.005888864,-0.009890779,0.003513323
1.008984,-0.02462395,0.1751942,-0.005212605,-0.009122246,0.002464747
1.006575,-0.02545213,0.1768815,-0.001906919,-0.003783633,-0.001909208
1.010173,-0.02371028,0.174795,-0.0004440634,0.001311793,-0.008037206
1.014111,-0.0204646,0.1723854,-0.003784854,0.006640254,-0.008692433
1.016472,-0.01484115,0.1734127,-0.008631871,0.005800364,-0.007582723
1.020607,-0.014343,0.1712058,-0.007915966,0.009140453,-0.005296168
1.018969,-0.01847338,0.1689153,-0.007540725,0.03022463,0.001753699
1.015186,-0.01898153,0.17316,-0.01073822,0.04118149,0.005994424
1.010774,-0.01994814,0.1787894,-0.008219414,0.01976285,0.003039794
1.006491,-0.02053598,0.1829469,-0.004127308,-0.00753707,-0.007261252
1.010674,-0.02004924,0.1860627,-0.003461898,-0.00382016,-0.0182537
1.01442,-0.01876483,0.1810484,-0.003991704,0.01915422,-0.005798602
1.013238,-0.01592374,0.1751632,-0.005765633,0.03309909,0.009987417
1.012433,-0.0190718,0.1867835,-0.003200193,0.03127867,-0.0009433722
1.010412,-0.02169922,0.1969901,-0.0002153836,0.005585192,-0.006578572
1.011307,-0.01575137,0.1852799,-0.0007218196,-0.01315613,0.0001901321
1.014524,-0.01123572,0.1762586,0.0043241,0.007061101,0.003587582
1.015558,-0.01276126,0.1785337,0.01372698,0.03183876,0.01230771
1.015718,-0.01635766,0.1753698,0.01652198,0.03789532,0.01102894
1.014873,-0.02004067,0.1724287,0.001958161,0.04311549,-0.000189882
1.014882,-0.02253551,0.1761494,-0.0140102,0.05583831,-0.002298036
1.013001,-0.02185549,0.1824711,-0.005406525,0.05896663,-0.006142734
1.007031,-0.02056576,0.1901094,0.00126763,0.04823833,-0.01064868
1.004759,-0.02038546,0.190975,-0.0125832,0.04316867,-0.01130013
1.008173,-0.01636949,0.1879969,-0.01657311,0.04437024,-0.01409109
1.010921,-0.01277972,0.1897297,-0.009652723,0.04175491,-0.01305806
1.008172,-0.01463832,0.1876217,-0.007648461,0.03126956,-0.009747632
1.003659,-0.01680702,0.1876974,-0.007700098,0.01727919,-0.007929299
1.002848,-0.0178078,0.1928297,-0.009520236,0.01028627,-0.01171163
1.005042,-0.01507014,0.1905279,-0.01092806,0.0128826,-0.01520346
1.008175,-0.01067462,0.1911236,-0.01252224,0.02447654,-0.0008788803
1.008073,-0.01448943,0.1933571,-0.009877361,0.03408671,0.0140818
1.009745,-0.02428969,0.1911722,0.004325642,0.0318067,0.008065477
1.016221,-0.03155087,0.1939255,0.01709161,0.02309821,-0.009313923
1.016133,-0.02979777,0.1921965,0.01579269,0.01136315,-0.02316253
1.014161,-0.02251877,0.1845054,0.00100154,0.0002190392,-0.01904332
1.015996,-0.02156414,0.1761983,-0.01172562,0.001819811,0.003534384
1.014912,-0.02258668,0.172159,-0.008285092,0.0121735,0.01670186
1.012926,-0.02174973,0.183983,0.002781462,0.01265881,-0.001815604
1.007749,-0.02278314,0.194952,0.009998204,0.0115967,-0.02507178
1.001251,-0.0208233,0.1936247,0.006745622,0.009082665,-0.01928346
1.001162,-0.01619698,0.1920729,0.0004063866,-0.005404521,-0.002751384
1.000863,-0.01010394,0.1913045,0.0005605816,-0.008711473,0.003458745
1.001477,-0.007965098,0.1907634,-0.000173539,-0.001427627,0.002577542
1.008437,-0.01289521,0.1933864,-0.001530399,0.002410959,-0.001829501
1.011518,-0.01298311,0.1981824,-0.001082108,0.005374037,0.0002464587
1.008972,-0.01202962,0.2008475,0.001877429,-0.002523647,0.001969876
1.008779,-0.01460016,0.2022832,0.007895257,-0.0150542,-0.003167602
1.009362,-0.0162984,0.2013779,0.006928963,-0.02355253,-0.001475241
1.009793,-0.01815659,0.1947149,0.003328216,-0.02685775,0.0007729347
1.011199,-0.01293025,0.1904685,0.004093235,-0.01673009,0.006193871
1.011995,-0.007866597,0.185214,0.00308454,-0.007386484,0.01522376
1.011977,-0.01351132,0.1813946,0.001107148,-0.01335768,0.00839231
1.008163,-0.01687211,0.1910322,-0.00323429,-0.02328565,-0.003052133
1.004344,-0.01320261,0.1992646,-0.006922244,-0.02626176,-0.007470978
1.008023,-0.01127239,0.2002379,-0.0008108417,-0.02340252,0.001640831
1.010773,-0.01365552,0.197729,0.009563412,-0.01697381,0.01747606
1.005831,-0.01654126,0.1914301,0.01249077,-0.01355111,0.01113844
1.003195,-0.01964589,0.1905235,-0.003075136,-0.01535232,-0.0004520221
1.008343,-0.02167549,0.1903915,-0.01891949,-0.01374776,-0.002172793
1.013153,-0.02094322,0.1901586,-0.003099601,-0.0107748,-0.00416665
1.012731,-0.02176182,0.1915237,0.01238267,-0.00492015,-0.0008373338
1.011195,-0.02033342,0.1880582,-0.001211948,0.003913255,-0.001868661
1.011322,-0.01629674,0.186174,-0.009176434,0.003489989,-0.004236369
1.012883,-0.01521515,0.187494,-0.006099629,0.0005286428,-0.001172227
1.013421,-0.01549985,0.1955066,-0.001256978,-0.0004726091,-0.005544985
1.008018,-0.01652143,0.2030072,0.01211208,-0.007882435,-0.006246573
0.9998948,-0.01254542,0.1964201,0.01325184,-0.01791075,-0.0004841705
0.999759,-0.008126594,0.1930856,0.006176797,-0.02057048,0.001550402
1.008042,-0.01429773,0.1906547,0.0060443,-0.009242169,-0.0008654033
1.016055,-0.02072324,0.1842249,0.0005713958,0.004095806,-0.008674829
1.017119,-0.02114883,0.1886092,0.003254389,-0.0004139037,-0.009958247
1.009922,-0.01838181,0.1897932,0.01028834,-0.01641172,-0.004507632
1.004854,-0.01346704,0.189171,0.001782928,-0.02530651,0.002768737
1.00893,-0.01158941,0.1924985,-0.002616151,-0.02043086,0.01148023
1.012729,-0.01348551,0.1848761,-5.308209e-05,-0.005952512,0.007739199
1.013489,-0.01826544,0.1797478,-0.0001061249,0.004020655,-0.001553654
1.015004,-0.02178949,0.184962,0.001783332,0.002316534,-0.00517614
1.011497,-0.01803683,0.1902699,0.002077284,-0.0068683,-0.004588685
1.006262,-0.01212383,0.192256,0.0004302182,-0.01501519,0.004638817
1.009933,-0.01080446,0.1879863,-0.006101563,-0.009212702,0.01397462
1.015769,-0.01141717,0.1854823,-0.01311897,0.003772933,0.01353724
1.016709,-0.01083062,0.1905466,-0.008210661,0.01743016,0.008182994
1.015285,-0.01029594,0.1950527,-0.0070304,0.03624412,0.005313742
1.011062,-0.006823106,0.1932485,-0.02522644,0.04243952,0.007090141
1.007398,-0.004261503,0.1914613,-0.03941598,0.0288942,0.01547715
1.005135,-0.0139283,0.1924504,-0.02537998,0.01132602,0.02382053
1.004734,-0.02706485,0.1902508,-0.006733998,0.002631091,0.01353157
1.008657,-0.02741975,0.1904985,-0.003887098,0.004237748,0.001100108
1.009634,-0.01962041,0.1929221,0.00196659,0.00486153,0.007367937
1.00907,-0.01651301,0.1943699,0.003450192,0.001008306,0.009727278
1.008514,-0.0181081,0.1983251,-0.00447657,-0.01164513,0.005885325
1.004789,-0.01746249,0.194426,-0.0009401929,-0.02617906,0.007581231
1.005313,-0.01247387,0.1871153,-0.001435753,-0.02058883,0.005984705
1.006721,-0.008817227,0.1876581,-0.004922032,-0.01007447,0.007877167
1.007574,-0.01383477,0.1898806,0.006593152,-0.00986657,0.01184951
1.010655,-0.0191396,0.1944512,0.01073588,-0.006061816,0.003805289
1.007734,-0.01612178,0.1975912,0.002688511,-0.006228193,-0.00140569
1.003846,-0.01386228,0.1962344,-0.0027209,-0.0126099,0.00635957
1.005491,-0.01446747,0.1958955,0.0007073268,-0.01049783,0.01096527
1.011241,-0.01481418,0.1904939,0.005609508,-0.006022728,0.004459377
1.016906,-0.01834907,0.1835075,-0.00150367,-0.001638586,-0.0007360204
