accx,accy,accz,gyrox,gyroy,gyroz
0.9142877,0.3483151,0.2355408,-0.0565385,0.01316154,0.1344741
0.9164314,0.3481543,0.2399723,-0.05704997,0.01644993,0.1354202
0.9184754,0.3499312,0.2384024,-0.05746588,0.01644231,0.1338421
0.9184786,0.3549566,0.2336693,-0.05975791,0.01559195,0.1334251
0.9216449,0.3547841,0.2377159,-0.06175419,0.0203199,0.1383037
0.92033,0.3549822,0.2422264,-0.06042484,0.02559351,0.1410489
0.9123931,0.3566929,0.2476125,-0.05820232,0.02937783,0.1449271
0.9083631,0.3539706,0.2516228,-0.06519253,0.02529063,0.1497014
0.9099899,0.3510117,0.2429365,-0.07165148,0.01662968,0.1511864
0.9131822,0.3481993,0.2378896,-0.06808802,0.01190061,0.1478771
0.9156343,0.3492025,0.2426521,-0.06542877,0.01208568,0.1421523
0.9179461,0.3531757,0.2440982,-0.06483058,0.01198037,0.1418631
0.9166829,0.3500342,0.2422656,-0.0631515,0.006194491,0.1415453
0.910794,0.3478979,0.2400198,-0.06110294,0.002594272,0.1401631
0.9118666,0.3494254,0.2384739,-0.05785177,0.002285832,0.1426305
0.9132971,0.3481556,0.2384806,-0.05516469,0.001711239,0.1436428
0.9102982,0.3496478,0.2392551,-0.05357722,0.00476034,0.1447409
0.9134987,0.3506262,0.2393478,-0.05175313,0.005667047,0.1449303
0.9139673,0.349682,0.2402309,-0.05127407,0.004352251,0.1438434
0.9129844,0.3512219,0.2419295,-0.05282051,0.004916156,0.1458901
0.915395,0.3515169,0.2381662,-0.05158766,0.003697494,0.1449088
0.9149617,0.3514416,0.2347564,-0.04914711,0.003099071,0.1432859
0.9172282,0.3514028,0.2382627,-0.04902453,0.002619159,0.1435041
0.9170617,0.3511914,0.240671,-0.04898466,0.000160258,0.1396417
0.9137212,0.3520483,0.2399628,-0.05109787,-0.002446656,0.1378334
0.914685,0.3529307,0.2403714,-0.05334754,-0.003697286,0.1394521
0.9163621,0.3544195,0.241039,-0.05289406,3.64544e-05,0.1390125
0.9198321,0.3525519,0.2396564,-0.05278624,0.003095271,0.1377029
0.919874,0.3492734,0.2383532,-0.05270407,-0.0004573382,0.1362923
0.9156576,0.350337,0.2359448,-0.05238934,-0.003264421,0.1358384
0.9152282,0.3520226,0.2310436,-0.05295054,-0.0003354621,0.1353598
0.9158971,0.352917,0.2283973,-0.05481224,0.005519299,0.1339117
0.9170968,0.3522506,0.2255468,-0.05520147,0.01042876,0.1334362
0.9170285,0.3508025,0.2265114,-0.0533018,0.01155104,0.1325244
0.9154043,0.3523987,0.2348107,-0.05277534,0.01124573,0.131666
0.9143687,0.3531829,0.2398675,-0.05049768,0.01289563,0.1325496
0.9108528,0.3516135,0.2415013,-0.04551885,0.01155566,0.1335264
0.9112842,0.3513012,0.2398934,-0.04479544,0.009304536,0.1339671
0.9146849,0.3522773,0.2370682,-0.05087713,0.01198995,0.1340342
0.9137328,0.3531577,0.2367575,-0.05653281,0.01432464,0.1332469
0.9137569,0.3526604,0.2347939,-0.05313156,0.01705995,0.1309034
0.9145304,0.3525136,0.2358143,-0.04782712,0.0179992,0.1289098
0.915352,0.3556122,0.2337288,-0.04990486,0.01550254,0.1311706
0.9174647,0.3586527,0.2308905,-0.05225127,0.01727927,0.1350139
0.916772,0.3571433,0.2402989,-0.05080863,0.01740172,0.1359751
0.9158468,0.3547632,0.2453246,-0.04958693,0.01526597,0.1365379
0.9152414,0.354964,0.2413555,-0.04843812,0.01267904,0.1362916
0.9135942,0.3536786,0.2386289,-0.04671568,0.006575485,0.1341229
0.9153752,0.351799,0.2384107,-0.04614211,0.007727384,0.1333277
0.9175962,0.3513542,0.2411589,-0.04728914,0.01176971,0.129124
0.9156787,0.3499715,0.2397967,-0.04708427,0.01087757,0.1219034
0.9145307,0.3501376,0.2360705,-0.04532924,0.01188337,0.1219487
0.9156443,0.3510701,0.2345418,-0.04472413,0.01204359,0.1239497
0.9153103,0.3512966,0.2357628,-0.04452852,0.01193115,0.1200007
0.9150469,0.3518816,0.2389775,-0.04497091,0.01311153,0.1179582
0.9155125,0.350993,0.2370073,-0.04489025,0.01259832,0.1199169
0.9153277,0.3513812,0.234966,-0.04422936,0.01334385,0.1193537
0.9159932,0.351414,0.235068,-0.04441077,0.01392478,0.1212215
0.9156013,0.3490907,0.2341407,-0.04331842,0.01467016,0.1272728
0.9123114,0.3487935,0.2373462,-0.04213583,0.01523264,0.1270716
0.9104309,0.350287,0.2427259,-0.0402986,0.01062484,0.1202858
0.9128463,0.3530299,0.2460917,-0.03829582,0.00689601,0.113415
0.914981,0.3534317,0.2407064,-0.03892214,0.008872727,0.1136253
0.9136938,0.352031,0.2324786,-0.03973309,0.01047975,0.1196169
0.9142127,0.353205,0.2361524,-0.04189139,0.009708046,0.1197309
0.9179342,0.3520593,0.2383478,-0.04311861,0.01179805,0.1184998
0.9204623,0.3488916,0.2364566,-0.04110784,0.015011,0.1181336
0.9205638,0.3463832,0.2421022,-0.04084998,0.01230346,0.1130765
0.9195767,0.3459043,0.2437169,-0.03913013,0.006829211,0.1108532
0.9194648,0.3485152,0.2412826,-0.03707565,0.003639746,0.1100632
0.9192586,0.3501282,0.2391916,-0.03977401,0.005216207,0.1049829
0.9181977,0.3529964,0.2333282,-0.04046149,0.008702822,0.09976854
0.9166228,0.354584,0.2330451,-0.03975572,0.006284408,0.09918981
0.913433,0.3502587,0.2359046,-0.03986237,0.005744433,0.1023135
0.9117506,0.3481304,0.2367317,-0.03609694,0.01123869,0.1040129
0.9126758,0.3519644,0.2395264,-0.03363145,0.0140415,0.1060367
0.9136043,0.3558993,0.2365218,-0.03290154,0.01426861,0.1067053
0.915011,0.3539944,0.2320345,-0.03171487,0.01205009,0.1049721
0.9183231,0.351238,0.2350284,-0.03372964,0.01062048,0.1046431
0.9216082,0.3518155,0.2381924,-0.03590333,0.01242705,0.1022319
0.9187669,0.350916,0.2402226,-0.03844728,0.01204897,0.1015574
0.9147143,0.3512219,0.2410323,-0.03735396,0.01115268,0.1014969
0.9169561,0.3509901,0.2400594,-0.03092845,0.01010195,0.09850756
0.9176026,0.3492284,0.2421761,-0.03026963,0.008599991,0.09895179
0.9163321,0.3516215,0.2427838,-0.03423335,0.007951398,0.09761951
0.9167993,0.3535878,0.2375335,-0.03817149,0.006270242,0.09622746
0.9138463,0.3544019,0.2334907,-0.0376174,0.004649694,0.09760226
0.9119183,0.3539189,0.2368721,-0.03294,0.002483731,0.09465736
0.9130436,0.350663,0.2407725,-0.03322218,0.002384743,0.09210751
0.9122096,0.3509202,0.2374769,-0.03256122,0.003823696,0.09090359
0.9125783,0.3523885,0.2356581,-0.03008324,0.00309429,0.088206
0.9139427,0.3509761,0.2378521,-0.02884982,0.006132214,0.08364317
0.9146575,0.3505257,0.2381942,-0.02704534,0.008616818,0.08030458
0.9157008,0.3520698,0.2389513,-0.0293407,0.006624118,0.08208454
0.9143082,0.3513939,0.2373554,-0.0287677,0.007784397,0.08223934
0.9132977,0.3497383,0.2354841,-0.02695407,0.007849066,0.08284632
0.914197,0.3504155,0.2391235,-0.02907799,0.003792399,0.0839025
0.9139984,0.3497205,0.2413042,-0.02726253,0.001665026,0.08092621
0.9149043,0.3498217,0.2407689,-0.02748462,0.001626957,0.08002526
0.916552,0.350569,0.2426325,-0.02952403,0.001720922,0.07681078
0.9169249,0.3499085,0.2445157,-0.02891823,0.001952244,0.07407335
0.916852,0.3530302,0.240281,-0.02932906,0.002011065,0.08144465
0.9173839,0.3550598,0.2343206,-0.02727027,0.002053726,0.08727458
0.9179536,0.3538875,0.2358181,-0.02621139,0.003588833,0.08076042
0.9150888,0.3530127,0.237179,-0.02711149,0.007344609,0.07016863
0.9113426,0.3511454,0.2356071,-0.02707328,0.009890519,0.06865482
0.9122863,0.3498388,0.2378226,-0.02854492,0.007318353,0.07259251
0.9147518,0.3499465,0.2378635,-0.0277764,0.004210326,0.07170462
0.9141569,0.352846,0.2353437,-0.0266419,0.005739729,0.06927317
0.9127349,0.3547159,0.2358691,-0.02722499,0.007538308,0.06972335
0.9117379,0.3536214,0.236722,-0.02640997,0.009102368,0.06955195
0.9098748,0.3544932,0.2373875,-0.02612438,0.0121708,0.06743549
0.9110784,0.3538715,0.2406685,-0.02538502,0.01146752,0.0663754
0.9139765,0.3520106,0.2442488,-0.02353996,0.009834113,0.06375655
0.9141063,0.3512959,0.2431968,-0.02246021,0.01073466,0.06192066
0.9154569,0.3510324,0.2400433,-0.02355694,0.009050208,0.06659262
0.9156061,0.3527795,0.2381665,-0.02526661,0.007596768,0.06887254
0.9131041,0.3529884,0.2361807,-0.02331585,0.006830263,0.06354883
0.9138805,0.3523592,0.2363543,-0.02120693,0.004172641,0.05874866
0.9152235,0.3521678,0.2376613,-0.02083172,0.004865416,0.06119861
0.9152744,0.3508589,0.2373914,-0.02043343,0.006153164,0.06452201
0.915444,0.3514057,0.2384996,-0.02112035,0.005618516,0.06293659
0.9149351,0.3516602,0.2393866,-0.02031647,0.005905725,0.06354318
0.9144478,0.3512525,0.238259,-0.01898063,0.005183216,0.06415053
0.9136568,0.3524991,0.2373422,-0.01873639,0.006026552,0.06319236
0.9136828,0.3529745,0.2365493,-0.01805049,0.007402062,0.06346059
0.9142038,0.3526611,0.2375622,-0.01877445,0.00620328,0.06110775
0.913708,0.3517933,0.2394563,-0.01975826,0.005499598,0.06005467
0.9138817,0.3514421,0.2400588,-0.01904189,0.004425955,0.05825712
0.914015,0.3532143,0.2402109,-0.01654925,0.002937584,0.05466109
0.9137454,0.354755,0.2369207,-0.0151737,0.002286352,0.05578326
0.9139783,0.3540131,0.2358254,-0.01764154,0.00186262,0.05691193
0.9138754,0.3519423,0.2431207,-0.01810063,0.002561579,0.05638334
0.9138453,0.3512344,0.2473436,-0.01662867,0.003419223,0.05339132
0.9139531,0.3523651,0.2431194,-0.01690384,0.00531021,0.04915397
0.9138375,0.3542353,0.2391025,-0.01641276,0.008643394,0.05093748
0.9140879,0.3555101,0.2399039,-0.01653355,0.008850801,0.05484631
0.9146143,0.3548261,0.2401661,-0.01617486,0.005006731,0.05718333
0.9146278,0.3521267,0.2379673,-0.01452851,0.001308307,0.05656483
0.9137551,0.3493854,0.2392939,-0.01480372,-0.00041362,0.05286461
0.913374,0.3521312,0.2413804,-0.01508025,-0.0004230766,0.05018487
0.9134892,0.3560486,0.2424669,-0.01483035,0.002105743,0.04605058
0.9130703,0.3538753,0.2439559,-0.01500009,0.005136066,0.04526657
0.914234,0.3534435,0.2423276,-0.01581215,0.008104707,0.05103461
0.9162299,0.3543173,0.2410316,-0.0172339,0.01021303,0.05222125
0.9163939,0.3501165,0.2402884,-0.01723841,0.007135769,0.0473172
0.9151566,0.34822,0.2395388,-0.01695688,0.003917042,0.04267083
0.9139164,0.3522688,0.2409574,-0.01599758,0.003964213,0.04302228
0.917077,0.3565827,0.2399477,-0.01211405,0.005708469,0.04597031
0.9209321,0.3559396,0.2390215,-0.008936816,0.009353114,0.04629479
0.9170828,0.3537076,0.2391972,-0.009759623,0.00845729,0.04604648
0.9125648,0.354446,0.2388457,-0.01179746,0.006223751,0.04109792
0.9124698,0.3541207,0.2412324,-0.01175374,0.005865327,0.03801937
0.9135237,0.3539013,0.2401644,-0.01146178,0.002250321,0.04442251
0.9162096,0.3544272,0.2354622,-0.01266821,0.002867958,0.0467601
0.9173181,0.3528992,0.235248,-0.01282324,0.007672165,0.04746974
0.9164213,0.3531727,0.2364701,-0.0121159,0.009638176,0.04833379
0.9166748,0.3554918,0.2343049,-0.0124983,0.00913626,0.04280316
0.9167035,0.3567653,0.2323491,-0.01331397,0.006978177,0.04104762
0.9164677,0.3530214,0.2342654,-0.01356451,0.007675343,0.04405173
0.915797,0.3477723,0.2372051,-0.01118962,0.007228107,0.04757714
0.9149528,0.3504319,0.239369,-0.008559313,0.00277572,0.04818387
0.9152478,0.3540803,0.2387393,-0.009911513,0.001035347,0.04475688
0.9154141,0.3551678,0.2362883,-0.01069127,0.001167416,0.04294347
0.9152093,0.3582895,0.2375405,-0.009236575,0.002217747,0.04012343
0.9152556,0.3581144,0.2371763,-0.009266563,0.0025492,0.04179227
0.9153315,0.3550449,0.2352349,-0.009220414,0.004044116,0.04584545
0.9154322,0.3518536,0.238132,-0.008560389,0.007806335,0.04175453
0.9159657,0.3500396,0.2413041,-0.008499983,0.004406137,0.03909725
0.9161052,0.3510917,0.2433123,-0.008749744,-0.0005146869,0.03615272
0.9150581,0.3498622,0.2436384,-0.009851792,-0.0008098262,0.03085856
0.9151595,0.349524,0.2429893,-0.01110354,-0.0005967662,0.03425898
0.9165075,0.3518434,0.243727,-0.01162043,0.003534756,0.03782146
0.9164658,0.352319,0.2422219,-0.01062864,0.009358879,0.03478344
0.9145316,0.3539934,0.2409052,-0.006942501,0.01242963,0.03346962
0.9118861,0.3543597,0.2395098,-0.004795105,0.01141341,0.03407245
0.9124649,0.3519325,0.238072,-0.009212851,0.00978202,0.03158595
0.9164903,0.3510881,0.241843,-0.0137772,0.01163512,0.02513771
0.9175884,0.3518433,0.2450436,-0.01201899,0.01067447,0.01894609
0.916175,0.3552653,0.2446042,-0.01020694,0.009490521,0.01970494
0.9166521,0.3580338,0.2384117,-0.0120178,0.009298587,0.02203599
0.916387,0.3570792,0.2300377,-0.0164543,0.003557024,0.0196363
0.9137418,0.3564881,0.2334713,-0.02278936,-0.007394856,0.01933005
0.9116146,0.3553312,0.2391972,-0.0229243,-0.02559356,0.01851203
0.9113118,0.3481732,0.2393213,-0.0183458,-0.03649185,0.01687572
0.911718,0.3402542,0.24178,-0.01486742,-0.02764517,0.02034959
0.9125887,0.3444143,0.2429312,-0.005291921,-0.01533743,0.02181721
0.9148139,0.3540594,0.2441422,0.001000979,-0.001371913,0.02374573
0.9164975,0.3560284,0.2431948,-0.004346919,0.00994393,0.02759325
0.9182721,0.3526435,0.23619,-0.006395001,0.003525672,0.02592174
0.9202194,0.3464836,0.2338465,-0.006413967,-0.0002851565,0.0220837
0.9172311,0.3442008,0.2332309,-0.008010646,0.004491022,0.0136988
0.9135034,0.3467782,0.2322292,-0.006056441,-0.00189503,0.004752571
0.9129692,0.3467434,0.2384399,-0.004138641,-0.009829374,0.01019116
0.9124124,0.3508524,0.2437321,0.003532663,-0.013366,0.02184193
0.9150153,0.3563381,0.2421402,0.01132692,-0.01199041,0.02482075
0.919718,0.3536125,0.2401205,0.006783454,-0.003168987,0.02131485
0.9204785,0.3496146,0.2403829,0.004634859,-0.004083874,0.01660744
0.9143438,0.3481328,0.2394811,0.008260237,-0.009498061,0.01526628
0.90583,0.3485677,0.2414013,0.008777854,-0.0104524,0.01733885
0.905729,0.3508606,0.2460584,0.01448328,-0.01334745,0.01989258
0.9082643,0.3539761,0.2392245,0.02479504,-0.01344463,0.02528007
0.9063481,0.362124,0.2247048,0.02506335,-0.01424089,0.02835769
0.9080772,0.3699057,0.2195604,0.00718094,-0.009848619,0.02889767
0.9142099,0.3612312,0.2346601,-0.01378811,-0.002581135,0.02943417
0.9207788,0.3441024,0.2555545,-0.01278616,-0.009102705,0.02041329
0.9226642,0.3404725,0.2480981,-0.002883364,-0.01401054,0.008450004
0.9196891,0.3437212,0.2256559,-0.007404613,-0.01027837,0.0001819309
0.9207558,0.3422988,0.2146139,-0.01828607,-0.001428622,-0.004607929
0.9202306,0.3421028,0.2146097,-0.02562044,0.007743657,-0.0004924766
0.9128175,0.3466999,0.2270292,-0.01392261,-0.006898811,0.001049402
0.9083377,0.3547516,0.2347966,0.009846743,-0.03340679,0.0008497927
0.9119976,0.3601965,0.2361413,0.009473103,-0.03700948,0.007801589
0.9206886,0.3610539,0.2379298,0.0003224682,-0.01399424,0.01299523
0.9249393,0.3587166,0.2325284,-0.00344366,0.01678706,0.01542598
0.9226531,0.3523416,0.2357301,-0.0176712,0.02727677,0.01055393
0.9189789,0.3471981,0.2414208,-0.02258362,0.0170874,0.001236527
0.9145728,0.3434214,0.2411325,-0.01408151,0.01423423,0.001647995
0.9121229,0.3434399,0.2436756,-0.005937963,0.01504202,0.004149486
0.9084112,0.3479011,0.2421288,0.001759017,0.002553998,0.005842039
0.9058441,0.3477237,0.244999,0.002805715,-0.0075553,0.009442122
0.9122303,0.3494813,0.2448564,0.001886352,-0.00356513,0.008135314
0.9166826,0.3529843,0.2368795,0.002169772,0.002970057,0.007646804
0.9153301,0.3509311,0.236088,0.002642795,0.005684653,0.0110245
0.9159287,0.3515271,0.2343873,0.005386428,0.006966423,0.01118457
0.9170523,0.3536058,0.2329872,0.007286508,0.002597838,0.006863057
0.9164906,0.35466,0.2304393,0.0107982,-0.008889644,0.002461183
0.9145565,0.3564725,0.2297889,0.01357008,-0.0142279,0.004622741
0.9134664,0.3563664,0.2359365,0.01243759,-0.01024133,0.008875221
0.9143604,0.3545309,0.2318614,0.00856554,-0.003611535,0.009067221
0.9168688,0.3508435,0.2272321,0.001267718,0.001954843,0.01013708
0.9198169,0.3505626,0.2260228,-0.003376441,-0.000705003,0.009737714
0.9198667,0.3522432,0.2242271,0.0008949407,-0.007166629,0.006767132
0.9185274,0.3499203,0.2294846,0.007043725,-0.0106477,0.00614083
0.916872,0.3498764,0.2305705,0.003690416,-0.01193581,0.005166851
0.9145359,0.3515862,0.2296292,-0.0009115606,-0.007481293,0.003905177
0.9152117,0.35311,0.229754,-0.001343387,-0.00139467,0.001410772
0.9175465,0.3547499,0.2280377,-0.004315018,0.0004502525,-0.002321219
0.9177897,0.3522338,0.229415,-0.00471127,0.00205006,-0.001583283
0.9178611,0.3504974,0.2291956,-0.004736332,0.004434253,-0.000880947
0.9176943,0.3512542,0.2293439,-0.005160139,0.004684186,-0.00184248
0.914506,0.3497275,0.2301519,-0.001899045,0.003749079,1.39694e-06
0.9120148,0.3479476,0.230668,0.0007283256,0.003229552,0.001223384
0.913434,0.3483848,0.2320971,0.005347671,0.003316602,0.001463375
0.9144047,0.3491159,0.2314911,0.008999172,0.006035198,0.005367151
0.9130036,0.3483456,0.2327564,0.01069366,0.008305526,0.01100675
0.9102627,0.3488567,0.2342457,0.01169789,0.002991817,0.01072566
0.907714,0.3507392,0.2374639,0.00798686,-0.004699878,0.005510694
0.9110311,0.351777,0.2406494,0.007953436,-0.00252381,0.001468097
0.9196744,0.3528325,0.2380071,0.007711728,0.01146132,-0.002610215
0.9231404,0.3535919,0.2372683,-0.0002007914,0.02728136,-0.005350508
0.9171099,0.3545325,0.2347873,-0.005161133,0.02978283,-0.001691918
0.9112909,0.3540433,0.230011,-0.002387242,0.01989382,0.004029946
0.9137126,0.3513325,0.2301328,0.001694824,0.01188903,0.002969084
0.9153909,0.3485498,0.2296384,6.006199e-05,0.006318418,-0.001524351
0.9134033,0.346315,0.2278133,-0.002632055,0.006178236,-0.005763839
0.9176551,0.3483174,0.2265164,-0.006793886,0.01013952,-0.01220354
0.9211825,0.35147,0.2271788,-0.01412473,0.006086269,-0.01446523
0.9194952,0.3513381,0.23194,-0.01471218,0.004320942,-0.01631474
0.9219305,0.3516236,0.236407,-0.01602609,0.004285229,-0.020645
0.9236619,0.3513106,0.2366985,-0.01853929,0.0008905925,-0.01623382
0.9183687,0.3515247,0.2369067,-0.01520152,0.007226113,-0.01005998
0.9131396,0.3535724,0.2400835,-0.01548926,0.01045081,-0.007141547
0.914661,0.353118,0.23982,-0.0149516,0.009786747,-0.005653171
0.9156782,0.3482533,0.2403985,-0.009884562,0.01467112,-0.009046311
0.9113426,0.3422446,0.2448466,-0.002440425,0.009152186,-0.008365546
0.910371,0.3436123,0.2431097,0.006790093,0.002151641,-0.006854483
0.9099822,0.3475387,0.2423731,0.007765524,0.002765854,-0.009453176
0.9092646,0.3497318,0.2458936,0.007852446,0.002565104,-0.007572585
0.9134359,0.3569043,0.2458436,0.01189851,0.003856132,-0.005955417
0.9152177,0.356747,0.2447492,0.01079693,0.001957474,-0.004782477
0.9147281,0.3496224,0.2386956,0.01099862,-0.002068009,-0.002240998
0.9147076,0.350018,0.2292524,0.01174512,-0.003510658,-0.006147445
0.914935,0.3499598,0.2266098,0.009843231,-0.005702998,-0.009777766
0.9162492,0.3497819,0.2278978,0.01075866,-0.006483109,-0.00563417
0.9153377,0.3525887,0.2271938,0.00925584,-0.00568887,-0.003300647
0.9150046,0.3557045,0.2262318,0.005256201,-0.002572916,-0.00702456
0.9140543,0.3619326,0.2291401,0.002274686,-0.0003624356,-0.01035838
0.9127939,0.3618573,0.2317262,-0.001232011,-0.003292842,-0.01160156
0.9148112,0.3570776,0.2304382,-0.004268046,-0.004791357,-0.007803412
0.9133759,0.3541524,0.2305666,-0.005890153,-0.005157459,0.0003369717
0.9115553,0.3496621,0.2327991,-0.002740571,-0.006304512,0.003195508
0.9117431,0.3510931,0.2347181,0.0007217532,-0.005535181,0.0008225411
0.912043,0.3536839,0.2353078,0.0008671885,-0.004429389,-0.002610307
0.9154108,0.351948,0.2353763,0.004420621,-0.003242726,-0.004440317
0.9159229,0.3526572,0.236574,0.00931383,-0.000723679,0.0003070098
0.916574,0.3488288,0.2377455,0.01315609,0.004402644,0.004934631
0.9196083,0.340104,0.2401468,0.01422449,0.011787,-0.002062232
0.9184298,0.3361192,0.243278,0.01123102,0.02318205,-0.0135405
0.9157974,0.3411961,0.2444968,0.009970899,0.03686581,-0.01559361
0.9106343,0.3529827,0.2443943,0.009065401,0.02939274,-0.01043135
0.9068773,0.3615914,0.2355418,0.01366939,-0.02076734,-0.00633918
0.9099046,0.3639761,0.2146843,0.02598187,-0.07233283,-0.006019585
0.9187468,0.360163,0.2023568,0.02508922,-0.05728319,-0.005734248
0.9304197,0.3521107,0.2076349,0.003215208,-0.0103351,-0.004918794
0.9253294,0.3460135,0.2150535,-0.01658908,-0.0006482251,-0.009725176
0.9074494,0.345171,0.2259301,-0.01120691,-0.01503482,-0.0135188
0.9026107,0.3523333,0.2398624,-0.0004370406,-0.04220155,-0.01268584
0.91414,0.3590381,0.2364629,-0.00488572,-0.05592888,-0.01455151
0.9322993,0.3612328,0.224751,-0.003538918,-0.02326554,-0.01592601
0.9330311,0.3642724,0.2231069,-0.006269562,0.01293647,-0.01553476
0.9203981,0.3616729,0.2264109,-0.02025072,0.03163163,-0.01585144
0.9169321,0.3555873,0.2382095,-0.01971281,0.0341452,-0.0161942
0.9125023,0.3517076,0.2497759,-0.01780321,0.02326465,-0.01584531
0.9143984,0.3499209,0.2444852,-0.01501164,0.02283811,-0.01653805
0.9195174,0.3517942,0.2377572,-0.004889455,0.01789783,-0.02397344
0.9129901,0.3489936,0.237887,-0.003437253,0.007039733,-0.03223642
0.9134634,0.3427467,0.2396541,0.003949372,0.002901072,-0.03249076
0.9144856,0.3414209,0.2416986,0.01129687,0.00385693,-0.02990839
0.9107121,0.3454802,0.2357178,0.002761013,0.008644429,-0.02975702
0.9107958,0.3560973,0.2292528,-0.001974673,0.002482716,-0.02590286
0.9085747,0.3648966,0.2340526,0.000688343,-3.782442e-05,-0.01448526
0.9100255,0.3666404,0.2411867,-1.966697e-06,0.002705976,-0.005413519
0.9103284,0.3660491,0.2440342,-0.003202335,-0.0006529335,-0.003792495
0.9086352,0.3626788,0.2435733,-0.002655506,0.002536999,-0.003580831
0.9107347,0.3572422,0.241325,-0.001382989,0.002033264,0.0009589384
0.9091925,0.3519504,0.2414784,-0.002079379,0.001169774,0.005038592
0.9096386,0.3491042,0.2414263,0.001471592,0.003816127,0.002885177
0.9109965,0.3504273,0.2376052,0.005414858,0.002158469,0.003222838
0.9125527,0.3525096,0.2352561,0.008157014,0.00375848,0.004039701
0.9166269,0.3524818,0.235984,0.01124101,0.002668055,-0.000123751
0.9136392,0.353653,0.2374527,0.01154755,0.0020732,-0.002730841
0.9106627,0.356949,0.2374363,0.01143509,0.002759181,-0.004615419
0.9114707,0.3572253,0.2350298,0.01237608,-0.001372332,-0.004914621
0.9101751,0.3569115,0.2330066,0.01435604,-0.002295879,-0.003211707
0.9110595,0.3581203,0.2336128,0.01480778,-0.00166691,-0.001150733
0.9126894,0.358265,0.2388795,0.01305159,0.001738734,-5.264801e-05
0.9122009,0.359036,0.2414091,0.01255852,0.003404473,-0.002855344
0.9116304,0.3599151,0.2357323,0.01015561,-0.004274625,-0.002366488
0.9113269,0.3613268,0.2315641,0.006062858,-0.009735251,-0.0008026309
0.9129624,0.3606775,0.2315133,0.004834686,-0.007139574,-0.00145625
0.9163469,0.3575095,0.2330389,0.004528071,-0.003871724,0.000785372
0.9164882,0.3575167,0.2367786,0.002665183,-0.006035457,0.001116797
0.914591,0.3569029,0.2407763,0.001484547,-0.005660438,0.002795619
0.9154337,0.3565965,0.2408403,0.00257456,-0.000971539,0.00466144
0.9164729,0.3581346,0.2362441,0.002720511,-3.966221e-06,0.00137266
0.9166848,0.3564139,0.2336463,0.0009840292,0.001605033,-0.0007817923
0.91688,0.3551383,0.2328839,-0.0001753484,0.002403478,-0.003504794
0.9164631,0.3555965,0.2320409,0.0005865202,0.001550588,-0.003457253
0.9165466,0.3565654,0.2323211,0.003567973,0.001993847,-0.002714645
0.9160309,0.3564937,0.231989,0.005666811,0.00199457,-0.006352496
0.9155827,0.3522382,0.2338451,0.00512899,0.004211795,-0.002550249
0.9158771,0.3490654,0.2328217,0.00541889,0.004195888,0.0009641505
0.914374,0.3513095,0.2275381,0.007475968,0.000828611,-0.001903549
0.9131861,0.3545612,0.228482,0.007426774,-0.001681187,-0.002066831
0.9141044,0.3548339,0.230374,0.005356195,-0.002066919,-0.004195946
0.9140911,0.3570749,0.2285633,0.005636665,2.163688e-05,-0.004476136
0.9135705,0.3596232,0.2292152,0.006817437,0.0008089516,0.002735002
0.9144413,0.3557587,0.2308803,0.006808315,0.004863156,0.008890315
0.915683,0.3537192,0.2326063,0.007933278,0.008205453,0.006254026
0.9163422,0.3545293,0.2358351,0.007448379,0.004368875,0.0009660087
0.9134991,0.3539078,0.2366813,0.004488115,0.001677377,0.002280977
0.9101911,0.3553911,0.2346601,0.005228837,-0.0009209839,0.002561104
0.9144759,0.3557729,0.2335708,0.007144067,2.025836e-05,0.003894397
0.9184009,0.3552488,0.2334787,0.006205264,0.005983499,0.008226729
0.9145349,0.3548512,0.2350175,0.007342855,0.00901037,0.002956467
0.9126631,0.3536238,0.2369189,0.008166983,0.01190683,-0.003145214
0.9144291,0.3542996,0.2362846,0.007035399,0.008775655,-0.003679742
0.9139695,0.3542893,0.236653,0.008618948,0.0007398935,-0.004302202
0.9135773,0.3539513,0.2380683,0.007552287,-0.002099242,-0.002259859
0.9143119,0.3545586,0.2373351,0.002173796,-0.00512717,0.002051415
0.9148926,0.3548972,0.2363377,-0.003287543,-0.003117486,0.007830952
0.9167251,0.3559131,0.2356894,-0.006688069,0.007371105,0.009580718
0.9186042,0.3556665,0.2341903,-0.005657598,0.01751501,0.00663873
0.9180039,0.3552649,0.2330666,-0.00569286,0.02635234,0.006623946
0.9159017,0.3552519,0.2340428,-0.005278994,0.027281,0.003605562
0.9144284,0.3522514,0.2349455,-0.001947732,0.01923924,-0.002514442
0.9134675,0.3476846,0.2323924,-0.002196908,0.007315612,-0.004821014
0.9118102,0.3454482,0.2278831,-0.001841407,-0.006703744,-0.00767579
0.9108867,0.3473926,0.2248669,-0.001978017,-0.00844878,-0.01071687
0.9124748,0.3516861,0.226042,-0.003452455,0.0003583627,-0.007573714
0.9157688,0.3555182,0.2312494,-0.0004503594,0.008567859,-0.002760092
0.9184673,0.3555516,0.2342249,0.002308007,0.02023423,-0.00500534
0.9181969,0.350404,0.2348753,0.007330071,0.02342652,-0.007923442
0.9162562,0.3462918,0.2381388,0.01171524,0.01411017,-0.00717803
0.913354,0.3469673,0.2376651,0.009294078,0.003708807,-0.009057724
0.9089105,0.3488587,0.2345101,0.007441095,-0.007040939,-0.009546171
0.908003,0.350179,0.2365573,0.003128169,-0.005973003,-0.008942855
0.9125859,0.353165,0.2370168,-0.002150074,-0.0003945361,-0.01012776
0.9169626,0.3568307,0.2373624,-0.003672189,-0.007800029,-0.009010165
0.9169941,0.3566382,0.2415211,-0.005717887,-0.009043505,-0.00927392
0.9143996,0.3547676,0.2399458,-0.002691162,-0.005795222,-0.009728737
0.9133773,0.3546059,0.2351733,0.003465016,-0.007738365,-0.007811856
0.9142749,0.3543456,0.2339747,0.007021979,-0.001352933,-0.00432768
0.9156396,0.354791,0.2343097,0.0107396,0.003505648,0.001199155
0.9164369,0.3558407,0.2334116,0.0105909,0.002846907,0.001643455
0.9160509,0.3545954,0.2312229,0.00810235,0.004486019,0.0007103096
0.9165158,0.3521335,0.232969,0.006702979,0.004756244,0.002372041
0.9171387,0.3499351,0.2361219,0.002369369,0.006789699,-0.001334391
0.9164022,0.3482654,0.2361638,0.0006158544,0.008698639,-0.005627504
0.9165893,0.3500044,0.2363012,0.003696798,0.009938275,-0.006036121
0.916933,0.3526154,0.2351018,0.005315606,0.01138551,-0.003828565
0.9162502,0.3512632,0.2315138,0.007099489,0.008376059,-0.001353165
0.9160303,0.350836,0.2281127,0.004220222,0.005675917,-0.006448743
0.9156293,0.3520023,0.2293961,-0.005254729,0.005152283,-0.01139032
0.9145156,0.3514389,0.2358965,-0.008809808,0.005200187,-0.007857417
0.9120285,0.3536514,0.2402828,-0.007895544,0.0054293,-0.004877559
0.9099719,0.3573224,0.2429718,-0.007980484,0.00539084,-0.003633769
0.9111622,0.3572598,0.2459227,-0.007139621,0.006692777,-0.001152141
0.9106914,0.3545819,0.2469294,-0.006416844,0.006513356,0.0001523425
0.9088246,0.3514988,0.2452756,-0.003557758,0.003163972,0.001018889
0.9099827,0.3476905,0.242041,-0.0004450255,-0.0003141024,0.0009088287
0.9099455,0.3442856,0.2436773,0.0006827807,-0.0009112912,-1.992986e-05
0.9100393,0.3461793,0.2442219,0.003140087,-0.0004945636,5.02915e-06
0.9138023,0.3497706,0.2384683,0.005057251,-0.0008013057,-0.001205181
0.9171155,0.3509819,0.2374969,0.00438848,-0.0002262263,-0.00307374
0.917509,0.3532712,0.2385837,0.004014079,-0.0007371578,-0.002519188
0.9171661,0.3536672,0.2402585,0.006281571,-0.002866115,-0.00047347
0.9192417,0.353067,0.2431151,0.005463518,-0.00476814,0.001197377
0.9202293,0.3531869,0.2342983,0.001062432,-0.005346772,0.002013143
0.9183306,0.3525962,0.2263498,0.002577745,-0.005681827,0.001360884
0.9169195,0.3558221,0.2345277,0.004824962,-0.005098876,-0.001940261
0.9148352,0.3576302,0.2407564,0.001925024,-0.002212013,-0.005603257
0.91549,0.3545051,0.2367837,0.001174381,-0.001301524,-0.005953443
0.917894,0.3518409,0.2356232,0.0001236778,0.00175927,-0.005645425
0.9161153,0.3506029,0.2385182,-0.00456269,0.006779663,-0.006262042
0.9154203,0.3516435,0.2399024,-0.006787506,0.004511482,-0.005069039
0.9154463,0.3516349,0.2423895,-0.005404441,0.00158286,-0.003880111
0.9137889,0.3509231,0.242132,-0.001597002,0.001984928,-0.003790361
0.9139955,0.3518064,0.2389884,0.0002079522,0.002187987,-0.002276904
0.9138084,0.3513592,0.2410097,-0.002993625,0.003523716,-0.001195476
0.9144782,0.3522432,0.2432179,-0.003209172,0.003998924,-0.001735084
0.9177668,0.3532747,0.243936,-0.0008200358,0.005869435,-0.001503596
0.92004,0.3522348,0.2436119,0.000275205,0.008815205,-0.001668516
0.9186112,0.3512043,0.2392446,0.002957911,0.004820765,-0.003692969
0.9143143,0.3503374,0.2364181,0.002818446,7.001552e-05,-0.005654778
0.9129897,0.3518085,0.2355441,0.001156228,0.001711894,-0.005263365
0.9133006,0.3537337,0.236051,0.003505921,-0.0001761815,-0.004296572
0.9119214,0.3545634,0.2362995,0.006047409,-0.005146928,-0.005593653
0.911609,0.3564943,0.2337264,0.007047662,-0.003987982,-0.006965806
0.9109858,0.3581242,0.2330993,0.005350684,-0.003160719,-0.008591049
0.9111941,0.3582271,0.2333824,0.003377966,-0.004400878,-0.01084432
0.9132612,0.3556191,0.2342626,0.0036884,-0.0009661315,-0.01106675
0.9141983,0.3530644,0.2352568,0.0002819325,0.002308537,-0.009185213
0.9141495,0.3541621,0.2343984,-0.0008446038,0.0007633157,-0.006170776
0.913753,0.3541181,0.2352132,0.002515405,-0.002587959,-0.006789596
0.914817,0.3510944,0.2365407,0.00027588,-0.004435482,-0.008661242
0.9157948,0.3492777,0.2382243,-0.002383264,-0.004511027,-0.006867552
0.9157635,0.3498065,0.2397686,-0.003018882,-0.0053021,-0.008099198
0.9188716,0.350438,0.2401426,-0.001557774,-0.005673897,-0.008819128
0.9216453,0.3499901,0.2408622,0.002700364,-0.005396501,-0.004785919
0.9184672,0.350759,0.241002,-0.0001022301,-0.005993745,-0.003065909
0.9123315,0.3519407,0.2454788,-0.002645627,-0.003962819,-0.004226635
0.9098439,0.3512809,0.2493194,-0.0002403521,-0.001773375,-0.006704614
0.9112122,0.3508652,0.2412425,-0.001488266,-0.005087672,-0.007107927
0.9114866,0.3498239,0.2325377,-0.001213944,-0.009773362,-0.006084893
0.9112221,0.3488102,0.2341868,0.001026478,-0.01124667,-0.006737827
0.9132325,0.3529032,0.237365,0.002640099,-0.01045679,-0.004685725
0.9163661,0.3572017,0.2374338,0.004690904,-0.01027057,-0.003442647
0.9173366,0.35491,0.238645,0.003643763,-0.01168819,-0.004528722
0.9164233,0.352847,0.2360314,0.001029309,-0.01082925,-0.002318109
0.9162314,0.3547601,0.2312401,6.84972e-05,-0.004629359,0.0003747133
0.9150365,0.3547402,0.2334493,0.00155151,0.0009135946,0.0007361245
0.9132444,0.3551839,0.2342993,0.002265747,-0.003137814,-0.0008971755
0.913878,0.3571,0.2323275,0.0002146896,-0.008229017,-0.004242489
0.9152104,0.3540818,0.2338362,-0.001009157,-0.003266091,-0.007083485
0.9151567,0.3486053,0.23303,-0.001500927,0.00034578,-0.00615054
0.9142263,0.3454049,0.2307992,-0.0009088753,-0.0009507872,-0.003584566
0.9127574,0.3486606,0.2290304,-0.0001100519,0.0002007451,-0.004399818
0.9125525,0.355621,0.2288542,-0.0006666362,-0.0002888726,-0.004770241
0.9153755,0.3545989,0.2335331,-0.0005221703,-0.0002375996,-0.004656946
0.9173983,0.3512923,0.2367319,-0.001736061,0.000623,-0.008082303
0.9156941,0.3499398,0.2393531,-0.001804483,-0.001902678,-0.009245307
0.9138642,0.346573,0.245028,0.002006402,-0.001805832,-0.005716561
0.9149787,0.3511788,0.2454099,0.003432947,0.0004224118,-0.002242176
0.9175275,0.3568898,0.237539,0.002669351,0.002038787,-0.002244924
0.9185818,0.3532818,0.2307975,0.003857276,0.001658224,-0.003772051
0.9179101,0.3516249,0.2338629,0.004718668,-0.002562358,-0.004112798
0.9169172,0.3517454,0.2384631,0.003712969,-0.003621022,-0.004531397
0.9163384,0.3507008,0.236716,0.003228453,-2.718316e-06,-0.002589147
0.9155715,0.3518091,0.2386785,0.003212836,0.002887671,-0.0008394433
0.9143092,0.3517881,0.2434413,0.002757829,0.002751363,-0.003325565
0.9144494,0.3530119,0.2428635,0.003128335,0.001968935,-0.006338102
0.9155889,0.3559731,0.2402708,0.002980471,0.00229657,-0.007579109
0.9155023,0.3553092,0.2379925,0.001392568,-2.250745e-05,-0.003535393
0.9149866,0.3525454,0.2385692,0.0003787773,-0.001502786,-0.001625519
0.9153531,0.3507368,0.2389847,0.000230665,0.0002256467,-0.005559888
0.9152432,0.3510531,0.2347174,-0.001273358,0.0005904799,-0.003012023
0.9141702,0.3521325,0.2323524,-0.003348782,0.0004959958,-0.0006590225
0.9139282,0.3522201,0.2330217,-0.003373198,0.0004529444,-0.002007255
0.9146899,0.3539567,0.2333568,-0.00337505,0.0007361205,-0.002568934
0.9156231,0.3557999,0.2337752,-0.00316834,0.0009297113,-0.007237553
0.9156338,0.354895,0.233289,-0.002653432,0.0005802527,-0.006506808
0.916154,0.3529621,0.2293684,-0.003775342,0.002138254,-0.00331283
0.9186148,0.3509902,0.2269675,-0.003334694,0.003705504,-0.004385908
0.9183186,0.3526453,0.2344954,-0.001521768,0.003862119,-0.0009341855
0.9159224,0.3555805,0.2397502,-0.0002447834,0.001688731,-0.0004936715
0.9160395,0.3535645,0.2339774,7.310847e-05,-0.001060462,-0.0008035474
0.9153655,0.3518346,0.2300546,9.454818e-05,-0.0002772599,0.001888395
0.9131367,0.3515396,0.2309143,0.002362909,-0.001095629,-0.002082971
0.9137404,0.3509296,0.2335426,0.002661659,-0.00382602,-0.004122781
0.9156133,0.3527345,0.236505,0.00150099,-0.003673849,-0.002176527
0.9160821,0.3530921,0.2364962,0.002878533,-0.004563699,0.0009832352
0.9169526,0.3522868,0.235455,0.003413254,-0.006110824,0.004492902
0.9171208,0.3521672,0.2344857,0.003934667,-0.004763291,-0.0009539634
0.9168955,0.3509216,0.2338732,0.003918058,-0.003939629,-0.007288213
0.9179366,0.3515004,0.2346357,0.002704668,-0.003666479,-0.008636622
0.9172168,0.3527931,0.2350429,0.003355845,-0.0004467181,-0.004513364
0.9168534,0.3536155,0.2332355,0.002809379,0.001961849,0.003917332
0.9171656,0.354373,0.2314296,0.001668764,-0.001296249,0.0015621
0.9154933,0.3522629,0.2319327,0.001510567,-0.006596442,-0.001679187
0.9142082,0.3509904,0.2333647,-0.001328596,-0.007549165,-0.0002219285
0.912497,0.3532577,0.2352866,-0.004076261,-0.005140387,-0.005165413
0.9143324,0.3545618,0.2360785,-0.002723054,-0.003567006,-0.003646364
0.9185568,0.3524512,0.2366151,-0.0008728125,-0.00162775,-0.001049094
0.9165169,0.3502277,0.2392261,-0.001599846,0.001506085,-0.004416155
0.9154193,0.3505972,0.239268,-0.001021895,0.0028777,-0.001052478
0.915862,0.3501405,0.2355558,0.002046723,0.001343205,0.001039901
0.9128273,0.349451,0.2339734,0.003543545,0.0005894206,0.0005986121
0.9138074,0.3502393,0.2358344,0.00231172,0.001791724,0.001677675
0.9157855,0.3490514,0.2365714,0.0006083736,0.001719878,-2.918852e-05
0.9157573,0.348103,0.2354083,0.0006387185,0.003947636,-0.000533083
0.9172909,0.3490036,0.2339694,-0.0007828471,0.007431031,-0.001973715
0.9167216,0.3500238,0.2338032,-0.002693105,0.006134352,-0.002126559
0.9162136,0.3528956,0.2366484,-0.00208362,0.004944308,0.0007373943
0.9169547,0.3548044,0.2359622,-0.002926681,0.004346017,-0.0004484202
0.9155317,0.3524274,0.2297708,-0.001184413,0.002704022,-0.001139507
0.9147988,0.3505564,0.2266281,0.001977851,0.003397485,-0.0002582355
0.9144835,0.3523773,0.2294202,0.0004918633,0.003736126,-0.0006433713
0.9135795,0.3534883,0.2356833,-0.0008562312,0.004202464,-0.0003879659
0.9138486,0.3526274,0.239909,-0.002275087,0.005550562,0.0007415425
0.9138356,0.3536128,0.2392802,-0.001765067,0.004391974,0.003246024
0.9127581,0.3546828,0.2379901,0.001731391,0.003456499,0.002789503
0.911323,0.3540371,0.2372361,0.003273878,0.004423551,0.000125506
0.9109334,0.3535466,0.2357792,0.004288461,0.005002445,0.0004113848
0.9121138,0.3515973,0.2356251,0.003991176,0.004986138,0.001151788
0.9128351,0.3491247,0.2366373,0.003289297,0.00387004,0.0009819396
0.9128716,0.3496876,0.2360046,0.003233288,0.001841797,8.018039e-05
0.9141258,0.3506313,0.2358141,0.002336722,0.002329774,-0.001370773
0.9159271,0.3496939,0.2365367,0.001807108,0.003705841,-0.002041637
0.9151566,0.3500415,0.2358335,0.0009516771,0.002426553,-0.001137498
0.9129681,0.3510778,0.236648,0.001299342,0.001964612,0.0009813522
0.9122718,0.3506375,0.2393797,0.002024507,0.0003927538,0.002757855
0.9128475,0.3508176,0.2425648,0.0009396067,-0.001707034,0.003674999
0.9153464,0.3516586,0.2439891,0.0002778439,0.002250203,0.003958015
0.9171976,0.3524514,0.2413188,0.001239056,0.002736707,0.004646353
0.914967,0.3533617,0.2392195,0.002046951,-0.002415519,0.003824175
0.9129355,0.3545165,0.2378821,0.0008568761,-0.001671898,0.001618028
0.9139157,0.3561038,0.236558,0.0005967008,0.002443115,0.001861192
0.9143277,0.3555949,0.2366707,-0.0001086573,0.00468917,0.002054839
0.9135299,0.3542069,0.2340956,-0.0009891154,0.0001758074,0.001225747
0.9141098,0.354012,0.232877,0.003058185,-0.006999028,0.0006772629
0.915177,0.3531315,0.2365783,0.005178091,-0.004324053,-0.0007372563
0.9161615,0.3523928,0.2392645,0.003873107,-0.0015028,-0.001547279
0.9172209,0.3518596,0.2394687,0.003253214,-0.0008619551,-0.001085426
0.9160372,0.3511536,0.2394237,0.0008285782,0.004069274,-0.0003290262
0.9137256,0.3513352,0.2400302,0.0009343977,0.0007422815,0.001462483
0.9122121,0.3523797,0.237964,0.002907276,-0.003504241,0.004365561
0.9128376,0.3558362,0.2347663,0.00300342,0.0002406725,0.004130232
0.9148226,0.3591173,0.2351927,0.00372321,0.0004973629,0.002917708
0.9138194,0.3558731,0.232318,0.0002246772,0.001303729,0.005714046
0.9133509,0.3505271,0.2275679,-0.003989963,0.002609339,0.00580412
0.9145214,0.3509812,0.2315126,0.000445541,-0.0007407014,0.004307186
0.9135344,0.3518969,0.2381399,0.004096516,-0.0008550706,0.006685168
0.914213,0.3499765,0.2398453,0.001205199,0.002869921,0.006967641
0.915989,0.3495533,0.2397579,0.0003950756,0.005410149,0.004360901
0.9166436,0.3484206,0.2387682,0.0009941604,0.001785687,0.001949134
0.9162688,0.3472812,0.2360849,-0.001933963,-0.003774022,0.001320337
0.9145118,0.3481791,0.2338579,-0.004253223,-0.003194561,0.002175263
0.9154353,0.3481294,0.2342123,-0.003202313,-0.00419008,0.001201832
0.9166924,0.3484863,0.2343571,-0.001732658,-0.005908297,0.000513763
0.9163728,0.3489981,0.2318024,0.0001826606,-0.004289288,-0.0009908022
0.91708,0.3483813,0.2322953,0.003600811,-0.007172252,-0.005172822
0.9166679,0.348767,0.2369828,0.004687213,-0.008691958,-0.004826332
0.9173929,0.3496579,0.2399155,0.002756866,-0.005480917,-0.001719195
0.9181699,0.3499629,0.2387468,0.002843301,-0.004424909,-0.00295705
0.9151191,0.349246,0.2342983,0.003629516,-0.003006352,-0.005096181
0.9130431,0.3481849,0.2317327,0.002010612,-0.0008432909,-0.005672482
0.9138996,0.348882,0.2329694,0.001133414,-0.0005451332,-0.006006488
0.9154084,0.3506971,0.2357639,0.001439495,-0.001566985,-0.005650613
0.9161056,0.3515448,0.2384648,0.002269509,-0.00190992,-0.004850581
0.9157586,0.3505381,0.2370206,0.003464302,-0.001621606,-0.00394478
0.9143848,0.3482091,0.2331773,0.00250358,-0.002706463,-0.003564615
0.9131347,0.3464665,0.2299722,0.0009892207,-0.001286443,-0.003053039
0.9141558,0.3461199,0.2283379,-0.0002008456,0.0004138089,-0.001365664
0.9141244,0.3483522,0.2312837,-0.002355411,-0.0007578161,-0.0003941328
0.9134292,0.3520925,0.2391764,-0.002715605,7.471819e-05,-0.0007183565
0.9142784,0.3519157,0.2472301,-0.001179645,0.0002945727,-0.002895773
0.9135625,0.350089,0.2457727,-0.0003205289,-0.001101895,-0.006539217
0.9128851,0.3491616,0.2418687,0.00126273,-0.002736517,-0.007113414
0.9124982,0.3463913,0.2447659,0.003863132,-0.005096617,-0.006743976
0.9124604,0.3473218,0.243182,0.003829786,-0.003207564,-0.007860464
0.9148619,0.3517957,0.2411292,0.003104039,0.002125751,-0.006979083
0.9167604,0.3532893,0.2417846,0.004236725,0.005659948,-0.008019854
0.9178964,0.3529834,0.2371047,0.002552145,0.003849422,-0.00955161
0.9181412,0.3514991,0.2364684,0.0008417427,0.0002649061,-0.005631087
0.9168079,0.3510227,0.2368703,0.001897845,0.002253221,-0.003120977
0.9154401,0.3517477,0.2332885,0.0005534358,0.003512284,-0.004601597
0.9141225,0.3514765,0.2323694,0.0005675975,0.002004697,-0.005277678
0.9147675,0.3532724,0.2290941,0.002935337,0.002540252,-0.003900431
0.9165488,0.35482,0.2288482,0.003180283,0.001410603,-0.0006778289
0.9169589,0.353769,0.232516,0.002959946,0.001162516,0.002264653
0.9166728,0.3522438,0.2321117,0.0006171274,0.002089094,0.002123914
0.9164698,0.3508656,0.2350096,-0.002455234,0.0006830667,-0.0005848939
0.9168324,0.3512762,0.2358042,-0.003091778,0.001068087,-0.001124752
0.9166589,0.3517075,0.2315316,-0.003420507,0.001064252,-0.0006047992
0.9165243,0.3511727,0.2318784,-0.002706863,0.0004513474,-0.002133465
0.9168665,0.3517946,0.2326502,-0.002210592,0.002336676,-0.002353674
0.9165153,0.3532261,0.2344789,-0.002930366,0.002978378,-0.001056268
0.9167056,0.3546456,0.2385779,-0.002970314,0.003780608,0.0002254539
0.9167426,0.3544208,0.2386863,-0.002326697,0.005634533,-0.00120956
0.916167,0.3535581,0.2362788,-0.001259311,0.004959198,-0.003624146
0.915022,0.353663,0.2340316,-0.001201374,0.002702927,-0.002130236
0.9132591,0.3532897,0.2354852,-0.0006071612,0.0005887279,-0.002120134
0.9140334,0.3534049,0.239436,0.0008538653,0.0001086977,-0.003254197
0.9161623,0.3531881,0.2408111,0.0004696154,0.0008571746,-0.00236176
0.9163664,0.3505576,0.241577,0.000776497,-0.0009658524,-0.002098284
0.914214,0.3487386,0.2392167,0.001790462,-0.002274345,0.0008520567
0.9118026,0.3498037,0.235258,0.0004179457,0.0006057288,0.004621711
0.9141408,0.3512173,0.2370477,-0.001716507,0.001735053,0.003918711
0.9175435,0.3523975,0.2391869,-0.002203052,0.001949347,0.001051245
0.9166144,0.3545521,0.2380952,-0.001323987,0.00267534,-0.0007003167
0.9163511,0.3537031,0.2354496,-0.0005909559,-0.0005292728,-0.0009992012
0.9170516,0.3497856,0.2321199,-0.0003182188,-0.001631561,-0.0009832652
0.9167549,0.3498155,0.2334613,-0.000115097,-0.0004356858,-0.001432248
0.91853,0.3512941,0.2376579,0.0003283127,-0.001292745,-0.003885204
0.9195499,0.3512712,0.2413156,0.00104995,-0.001810624,-0.006149957
0.9167924,0.3521501,0.244458,0.001120367,-0.00269095,-0.004879773
0.9142244,0.3528761,0.2423489,0.001174773,-0.0004810171,-0.00226962
0.9150568,0.354661,0.2376423,0.001733822,0.002405887,-0.0006705051
0.9159884,0.3547444,0.23551,0.0002402445,0.0001912842,-0.001924879
0.9142826,0.3532933,0.2354153,-0.002230566,-0.003089711,-0.006153384
0.9125599,0.3546864,0.236621,-0.001838881,-0.005360346,-0.008519521
0.9113921,0.3542066,0.2352394,-0.0009811333,-0.003067697,-0.004179909
0.913928,0.3533634,0.2340241,-0.001617093,0.001383401,0.001043056
0.9186291,0.3529296,0.2365462,-0.0008940139,-0.000439384,-0.001202078
0.9168128,0.3506368,0.2380477,-0.0001948733,-0.004622966,-0.003039649
0.9154746,0.3523374,0.2392903,-0.001460582,-0.005107882,-0.0009926247
0.9173718,0.3545416,0.2391526,-0.00167972,-0.002622985,-0.001359063
0.9145101,0.3543706,0.2367387,-0.00129267,4.10634e-06,-0.0002310054
0.9130536,0.3560873,0.2351905,-0.001720037,0.001497646,0.001475564
0.9146367,0.3565371,0.2331191,-0.0007693845,0.001210067,0.002357976
0.9155462,0.3526418,0.2338065,-0.0001495126,-0.000629767,0.004175841
0.9172631,0.3483527,0.235601,-0.001072323,-0.001654257,0.0007717919
0.9163357,0.3496963,0.2369983,-0.003365452,-0.002659547,-0.002287987
0.9135096,0.3521298,0.2422056,-0.006252183,-0.002732096,-0.0007347196
0.9123831,0.3508742,0.2440648,-0.003234235,-0.001606875,0.0007302855
0.9142287,0.3514656,0.2449917,0.001642329,-0.002286079,0.002289648
0.9181463,0.3517669,0.2476642,0.001357194,-0.001795435,0.001100962
0.9184785,0.3508234,0.2417095,0.0005844238,0.0001540912,0.001773321
0.9165372,0.3518156,0.2350243,-0.00246479,0.001342794,0.003178316
0.9158721,0.3511115,0.234681,-0.005044741,0.001289347,0.001373586
0.9157749,0.3502771,0.2336486,-0.001971852,-0.001671813,0.003364381
0.9169606,0.3499291,0.2343366,-0.001240616,-0.003088166,0.003054665
0.9169988,0.3488323,0.2365105,-0.0001690645,-0.001297491,0.002782599
0.916198,0.3496094,0.2327806,0.001731646,0.001765959,0.005468015
0.9169258,0.3502885,0.2286328,-0.0007347446,0.005347045,0.003669543
0.9166943,0.3509601,0.2307402,1.190875e-05,0.004343925,0.003968338
0.9164565,0.3517243,0.2313381,-0.0004871987,0.002177359,0.002786606
0.9169026,0.3519708,0.2297388,-0.003749065,0.003159391,0.0001270196
0.9165221,0.3550182,0.2319988,-0.002525083,0.002430825,0.002850641
0.9166796,0.356946,0.2360192,-0.002569725,0.0004680398,0.004556837
0.9167578,0.3519666,0.2401536,-0.001583772,-0.0008471598,0.005373182
0.916535,0.3464443,0.2393856,0.0005545257,-0.000764186,0.003583981
0.9164187,0.349284,0.2347221,-0.0007311305,0.0004126697,4.378602e-06
0.9148326,0.3532588,0.2345506,-0.0004632302,-0.0002318788,-0.0001723652
0.9136808,0.3527744,0.2338899,-0.0002144269,0.0002648682,0.000156226
0.9155265,0.3533475,0.2299773,-0.0001874038,0.002106112,0.001479546
0.9177307,0.3495138,0.2276158,0.001125436,0.001752653,0.003291454
0.9176258,0.3456305,0.2303876,0.001100489,0.0009572179,0.00387812
0.9176303,0.3494718,0.2355912,-0.001021904,0.0004005595,0.003582519
0.9176909,0.3506774,0.2341878,-0.004470576,0.001321265,0.004076799
0.9157475,0.3511044,0.2354324,-0.003909369,0.002653128,0.004393819
0.9143089,0.3512911,0.2410338,-0.001178004,-1.556794e-05,0.0005947406
0.9121188,0.3478405,0.2367886,-0.0004084069,-0.003328959,-0.002007633
0.9102569,0.3489821,0.2329591,0.001061024,-0.003937682,-0.002978818
0.913577,0.3509818,0.2322856,0.0002331679,-0.002934854,-0.002781539
0.9166197,0.3522203,0.2266822,-0.001931766,-0.001186178,0.001839095
0.9168086,0.3532943,0.2259712,-0.001422576,-0.0005496233,0.0007849555
0.9167246,0.3494716,0.2310539,-0.001894698,-0.0004799904,-0.002607623
0.9152824,0.3481302,0.2356715,-0.001935487,0.0004534041,-0.0008371036
0.9142123,0.3509106,0.2370694,0.0005612601,0.0007683827,-0.001848301
0.9136766,0.353744,0.2347457,0.001561611,-0.003083593,0.001277708
0.9138587,0.3548798,0.234295,0.001280111,-0.006931375,0.007522144
0.9151625,0.3528121,0.2350046,0.001023135,-0.001452204,0.005363379
0.9152914,0.3526638,0.2346144,0.0008771375,0.004283491,0.004482046
0.9153902,0.353873,0.2347424,0.001079814,0.0009684706,0.004999362
0.9154559,0.3542618,0.2361529,0.0004232768,-0.0003621951,0.002539938
0.916346,0.3541172,0.2418628,-0.0004331545,0.001168519,0.004048177
0.9188086,0.3519964,0.2467793,-0.002121325,-0.0005849985,0.004114595
0.9190155,0.3510166,0.24041,-0.002637155,-0.0001384793,0.002568155
0.9178113,0.3512896,0.2325731,0.0006872896,0.0008225111,0.003786356
0.9175939,0.3515015,0.2361446,0.002580045,-0.001099486,0.003831907
0.9173998,0.3515062,0.2391751,0.001425179,-0.002789237,0.004601568
0.9164503,0.3511088,0.2407083,0.0003701884,-0.004748923,0.003669168
0.9162963,0.3516328,0.2473642,0.0005220194,-0.002631543,0.0005205025
0.9171293,0.3511544,0.2426864,0.0008586872,0.001999298,0.0002872648
0.9161245,0.3501631,0.2350216,0.0003574513,0.0006159441,-0.0003107572
0.9147188,0.349285,0.2402991,0.0007111196,0.0006250776,-0.000660314
0.9138782,0.3488701,0.2413328,0.0007453691,0.005270373,0.0004891613
0.9142343,0.3505014,0.238835,0.0005814632,0.005933032,0.0006692588
0.9161212,0.3504287,0.2393162,0.001107657,0.003023603,0.0006937609
0.9159593,0.3501968,0.2365466,-0.0003030019,0.0008226112,-0.0006362696
0.9178043,0.3513351,0.2372266,-0.002261423,0.000731583,-0.001442153
0.9198359,0.3502598,0.2379841,-0.002298626,0.001265584,-0.0003622803
0.9157556,0.349439,0.2349412,-0.0005472561,0.0009761624,-0.0008424379
0.9146128,0.3485281,0.2338454,-0.0008277548,0.0007526361,-0.001304596
0.9163091,0.3470328,0.2316838,-0.002419516,0.0002696626,-0.001033738
0.915029,0.3474185,0.2317584,-6.544044e-05,-0.0005693355,-0.001428019
0.9160684,0.3475259,0.235918,0.0006438808,-0.001116485,-0.0009850668
0.9157554,0.3488065,0.2370387,-0.001332568,-0.002032327,-0.001041515
0.9149433,0.351234,0.2353654,-0.002476232,-0.004519649,-0.001394679
0.9212764,0.3519275,0.23449,-0.004633469,-0.005004413,0.0004767343
0.923106,0.3538414,0.2349741,-0.002149668,-0.002475472,0.002318858
0.9180292,0.3546634,0.2361762,0.001763889,-0.003206508,0.001128941
0.9166887,0.351898,0.2360198,0.0005605668,-0.005551559,-0.005139787
0.9134645,0.3508219,0.2321466,0.0006069795,-0.006439341,-0.01183685
0.9120948,0.351482,0.229646,0.0009039499,-0.006370157,-0.009510505
0.9162558,0.3514801,0.232441,-0.0001339075,-0.003422906,-0.003976245
0.916031,0.3513605,0.234234,-0.0005440494,-0.00159751,-0.003143791
0.9177355,0.3513131,0.2339997,-0.001562194,-0.001393305,-0.002455718
0.9179424,0.3511337,0.2365439,-9.898626e-05,-3.679365e-05,-0.002747488
0.9130231,0.3495595,0.2400428,0.002315624,-0.000148004,-0.00401611
0.9158827,0.3483768,0.2385069,0.003446536,0.0002984583,-0.002744135
0.9174963,0.350467,0.236446,0.002841967,0.00111868,-0.0008288586
0.9173214,0.3533165,0.2398903,-0.00165604,-0.001029715,0.001995992
0.9211445,0.35401,0.2410805,-0.003379827,-0.003069721,0.002181807
0.9184146,0.3540585,0.2398089,-0.001981835,-0.00224453,0.001137787
0.9151989,0.3539026,0.2403179,-0.002844208,-0.001473245,0.00379473
0.9137774,0.351344,0.2392878,-0.00362166,-0.003258461,0.00181455
0.913585,0.3498085,0.2382621,-0.004926544,-0.004280928,-0.002623903
0.9195091,0.3534803,0.2370971,-0.005749322,-0.00376647,-0.004173078
0.9219022,0.3567012,0.235586,-0.006020675,-0.002519358,-0.008761063
0.920814,0.3539741,0.236005,-0.007966886,0.0004844959,-0.01761061
0.9210669,0.3513422,0.2361544,-0.009751678,0.001125833,-0.03015527
0.9220275,0.3517329,0.2351695,-0.01401981,-0.001203058,-0.03629276
0.9223124,0.346076,0.2345223,-0.01792065,-0.00209786,-0.03721365
0.9171045,0.341135,0.235975,-0.01632117,-0.002772273,-0.04955156
0.9130719,0.3528621,0.2383796,-0.01501892,-0.003642512,-0.05853689
0.9120394,0.3641729,0.2391381,-0.01573342,0.002402355,-0.05044855
0.9087318,0.3564593,0.2375967,-0.01455289,0.009264838,-0.04219623
0.9058695,0.3504059,0.2342225,-0.01016499,0.0005053998,-0.03997245
0.9033547,0.3557179,0.2331086,-0.002178039,-0.01401932,-0.03285427
0.903571,0.3553527,0.2359899,0.002489848,-0.01926183,-0.01875896
0.9058099,0.3556445,0.238417,-0.002983691,-0.01958884,-0.01105884
0.9072586,0.3630852,0.2368182,-0.007957472,-0.01876933,-0.01157264
0.9107007,0.3660762,0.2356252,-0.006548546,-0.01578269,-0.006912088
0.9105999,0.3680081,0.2395564,-0.006559401,-0.01014773,-0.000843644
0.908443,0.3656017,0.2430925,-0.004715354,-0.01032903,-0.001498262
0.9108904,0.356215,0.2428972,-0.000426258,-0.01359162,0.001397854
0.9126108,0.354214,0.2400364,0.002449725,-0.009287065,0.009285951
0.9140246,0.3554029,0.2356414,0.007902921,-0.008723804,0.009220542
0.9145108,0.3528723,0.2335178,0.01049028,-0.009363857,0.00209893
0.9111756,0.3510769,0.2315814,0.007287032,-0.007458873,-0.005041672
0.9114695,0.3527029,0.2277891,0.002043262,-0.01404317,-0.009139312
0.9149833,0.3575781,0.2268106,-0.004715422,-0.01520995,-0.009540528
0.9168628,0.3610754,0.2322714,-0.004523238,-0.003457515,-0.01053321
0.914786,0.3642889,0.2386461,-0.0006678926,0.006631237,-0.009738545
0.9106361,0.3624361,0.236293,-0.001760561,0.003318808,-0.006881831
0.9125288,0.3560957,0.2327667,0.000120936,-0.003549602,-0.003559716
0.9134152,0.3575318,0.2348824,0.001003853,0.0008461362,0.002432959
0.909724,0.3577302,0.2348864,-0.002253106,0.001049505,0.004416305
0.9078564,0.355746,0.2353923,-0.001119989,-0.001360756,0.002446633
0.9046529,0.3592242,0.2358232,-0.0006145518,0.0005290121,-0.001570415
0.9061767,0.360156,0.2303008,-2.560037e-05,-0.004494798,-0.006248469
0.911314,0.3616484,0.2265984,0.003659746,-0.004312886,-0.001198826
0.9114674,0.3636982,0.2296369,0.005099014,-0.003383562,0.005416802
0.9130773,0.3634244,0.2352247,0.006042254,-0.006888739,0.002941115
0.9144882,0.3643199,0.2381749,0.006231198,-0.003766241,-0.002652025
0.9136868,0.3617468,0.2391258,0.007536547,-0.005133307,-0.007514679
0.9136812,0.3606072,0.2395346,0.009516895,-0.007100249,-0.00763013
0.9117208,0.3634084,0.2381794,0.007650453,-0.006498564,-0.003953509
0.9098212,0.3638005,0.2383353,0.006942965,-0.009377564,-9.023904e-05
0.9099787,0.3624426,0.2357602,0.00568448,-0.008980683,0.004448726
0.9135607,0.3605429,0.2315281,0.003931862,-0.009553477,0.00458504
0.9175805,0.362683,0.2334733,0.005408873,-0.008931185,0.002786157
0.9167423,0.3652451,0.2340053,0.004544912,-0.007388778,0.004462654
0.9153359,0.3628314,0.232659,0.002637631,-0.01063633,0.002506214
0.9152131,0.3610834,0.2336794,0.001328478,-0.009134606,-0.004039034
0.9146436,0.359469,0.2327592,0.0002450614,-0.005212182,-0.009260965
0.9127424,0.3599183,0.2305345,-0.0003868629,-0.003198585,-0.008742525
0.9103711,0.3618968,0.2284956,-0.004343487,-0.0002114031,-0.005396189
0.911715,0.3590306,0.2289099,-0.006794715,0.0009856052,-0.007908356
0.9134239,0.3579594,0.2311151,-0.004891093,0.001360912,-0.00835336
0.9115227,0.361362,0.2322613,-0.002637805,-0.0002816232,-0.005656154
0.9086714,0.3633274,0.2342458,-0.0004491516,-0.006040455,-0.008074742
0.9062359,0.3627315,0.2354681,-0.0002062506,-0.009278885,-0.007038132
0.9066512,0.3621004,0.2351255,-0.001044649,-0.0036045,-0.003755332
0.9095445,0.3636957,0.2320726,-0.0003715726,0.004076343,-0.0007596319
0.9102181,0.3634009,0.2265131,4.868767e-05,0.005040009,0.00504345
0.9104588,0.3589656,0.2268712,4.281365e-05,0.006290195,0.006556381
0.9115486,0.3550232,0.2298598,0.001334856,0.008478592,0.005149651
0.9104955,0.3557638,0.2309604,0.004481556,0.005050151,0.004485568
0.9083234,0.3590012,0.2362837,0.00932678,0.002266475,0.002974229
0.9066534,0.3585327,0.2384386,0.01183691,0.001147891,-0.002307733
0.908239,0.357766,0.2350316,0.006960992,0.001972252,-0.009088991
0.9110254,0.3596095,0.2329403,0.0007290354,0.006236505,-0.009014442
0.9095661,0.3616056,0.2279827,-0.001143375,0.004661666,-0.006220435
0.9091568,0.3651124,0.226005,-0.005041977,0.002848347,-0.003928093
0.9109127,0.3655214,0.2286683,-0.007605702,0.005070708,-0.0009595295
0.9120414,0.3641416,0.2261634,-0.002159764,0.003332178,-0.0002791599
0.9138058,0.3648473,0.225335,0.0006138345,0.002979166,0.0007467712
0.9098188,0.3616889,0.2288277,-0.003244121,0.001574577,0.002699218
0.9039309,0.3599814,0.233186,-0.004280099,-0.003391176,0.004526466
0.9067006,0.3618034,0.2392549,-0.0005594039,-0.005726599,0.006849595
0.9108978,0.3609075,0.2379431,0.002543931,-0.008623972,0.008752925
0.9112985,0.3606385,0.2341552,0.001580847,-0.00756846,0.009299403
0.9108435,0.3595901,0.2387236,0.002418186,-0.003617713,0.008489459
0.9081946,0.3580372,0.2393823,0.008349128,-0.00416624,0.007964447
0.9067731,0.361194,0.2342674,0.01055029,-0.004039844,0.00690083
0.9104935,0.3654229,0.232442,0.006925128,-0.004599034,0.005403494
0.9139134,0.3687164,0.2314408,0.004216247,-0.004584588,0.003883729
0.9129287,0.3711812,0.2326298,0.004803427,0.001238997,0.002674658
0.9125209,0.3688657,0.2355641,0.003450404,0.005599464,0.00337604
0.914522,0.3647822,0.2357793,-0.000456686,0.004593474,0.004503976
0.9130115,0.3653028,0.2311996,0.0002356559,0.003335166,0.005671811
0.9108111,0.3643037,0.2243142,0.0001451115,0.004398916,0.00262748
0.9120591,0.3605196,0.225575,-0.003639682,0.003021724,-0.00310161
0.9119593,0.360995,0.2297634,-0.0030108,-9.754237e-05,-0.001527011
0.9117269,0.3604086,0.2287402,-0.002523691,0.0006888977,0.001138459
0.9127474,0.3614243,0.2304762,-0.004682311,0.002759518,0.0006219959
0.9124131,0.3670065,0.2326731,-0.004275496,0.006478778,0.004810665
0.9115465,0.3673418,0.2314664,-0.001008945,0.01077497,0.008875519
0.9109505,0.366962,0.2319313,0.002502849,0.01088552,0.006230656
0.9119896,0.3655457,0.2316296,4.900302e-05,0.009456455,0.003209432
0.9128029,0.361098,0.2279404,-0.003478853,0.007527683,-0.000204463
0.911487,0.3649366,0.2258267,-0.001784348,0.007142099,-0.00921587
0.9107761,0.368896,0.2284333,-0.003401624,0.009138181,-0.01278578
0.9110712,0.366836,0.2328906,-0.005960788,0.01046318,-0.008304718
0.9113007,0.3680531,0.2342605,-0.004195653,0.01167308,-0.00719522
0.9108302,0.3676707,0.2331339,-0.004788453,0.009686071,-0.00597978
0.9097962,0.3620682,0.2341635,-0.007197319,0.001906282,-0.005811145
0.9078379,0.3592014,0.2354141,-0.00938066,-0.008405131,-0.008731463
0.9068312,0.3638683,0.2361889,-0.01173497,-0.01162768,-0.007100072
0.9105964,0.3698796,0.239923,-0.01315782,-0.002061656,-0.009006442
0.9139394,0.3681275,0.2430742,-0.01621466,0.01158561,-0.01933287
0.9114892,0.3648317,0.2422547,-0.01650212,0.0244791,-0.02742274
0.9059499,0.3647683,0.2391979,-0.009318659,0.02941642,-0.0236374
0.9002881,0.3632449,0.2350128,-0.001753984,0.02164227,-0.01070327
0.8990956,0.3631973,0.2323926,0.0003213269,0.01207267,-0.003083859
0.9036567,0.3618856,0.2358409,-0.00133109,0.0002407169,-0.002241121
0.9072689,0.359116,0.2391511,-0.0005563369,-0.007063753,-0.003433587
0.9080308,0.3652522,0.2357475,0.001287209,-0.001575049,-0.003677809
0.9083082,0.3741532,0.2332114,-0.002354192,-0.0004940813,-0.0003462605
0.9065125,0.376425,0.2320258,-0.00645187,-0.001322657,0.0009503184
0.9051662,0.3742488,0.2312198,-0.007048761,0.001317951,0.005972897
0.9073946,0.3700127,0.2345152,-0.00668422,-0.0008449117,0.01329761
0.9089306,0.3649783,0.2360249,-0.006022794,0.001335577,0.01044355
0.907485,0.360555,0.237513,-0.005704858,0.003202557,0.005757511
0.9062757,0.3605715,0.2402423,-0.002616698,-0.00194301,0.005043833
0.9072775,0.3623658,0.2379064,0.001817343,-0.002814868,0.005133464
0.9080912,0.363474,0.2348072,0.003046409,0.002053509,0.004348323
0.9082457,0.367297,0.2329183,0.004031276,0.007835228,0.002464178
0.9086728,0.3683541,0.2330202,0.00368407,0.005390405,0.003183307
0.9082862,0.3674316,0.2368904,-0.000653547,-0.003318463,0.003573604
0.9091723,0.3686335,0.2381362,-0.004087698,-0.00654484,0.002957866
0.9102603,0.3678563,0.2371685,-0.001978874,-0.004331573,0.003167908
0.9095311,0.3678548,0.2366722,0.004282693,0.0001347941,0.002063909
0.9096889,0.3684624,0.2360309,0.009347877,-0.0005915363,0.0008679286
0.9100142,0.3675013,0.2379676,0.009680913,-0.001955358,0.0001494114
0.9101393,0.3675286,0.2392444,0.006736356,0.0008374628,0.0003087257
0.9102316,0.3673218,0.2368893,0.003180632,-0.001231037,0.003158117
0.9105069,0.3682082,0.2344757,-0.00167658,4.044713e-05,0.006101551
0.91328,0.369501,0.2343151,-0.005992914,0.002605063,0.002671637
0.9147887,0.3690481,0.2356564,-0.007910049,3.495746e-05,-0.002043796
0.9130112,0.3687853,0.2372695,-0.008931646,0.001544579,0.0002571465
0.9114624,0.3681385,0.2397502,-0.007398894,0.002615213,0.001088142
0.9105955,0.3694967,0.2400212,-0.00751294,0.006459289,-0.0009807069
0.9105434,0.3719003,0.23788,-0.00816716,0.01393707,-0.001302245
0.9083211,0.3698442,0.2371458,-0.001910462,0.01351903,-0.003641934
0.9030361,0.3659242,0.2354413,0.002502624,0.009200299,-0.003621887
0.9021168,0.3630008,0.2340203,0.001669837,0.003636784,-0.002054336
0.9061295,0.3648911,0.2339487,0.0005167187,0.002912522,-0.004117926
0.9114329,0.3738571,0.2330221,-0.001837999,0.01809463,-0.005312779
0.915602,0.3797916,0.2327732,-0.005679705,0.03720726,-0.00642446
0.9138775,0.3766745,0.2304457,-0.01280391,0.03967623,-0.005522485
0.9106376,0.3730713,0.2267622,-0.0200436,0.03311814,0.0007439739
0.909335,0.3749179,0.2274428,-0.02199405,0.03165875,0.005281669
0.9066585,0.3739903,0.2321593,-0.015637,0.02377844,0.00568236
0.9051714,0.3687837,0.2406273,-0.00904611,0.01199273,0.005120891
0.901315,0.3663738,0.2501454,-0.01236247,0.003697004,0.006097212
0.89566,0.3634722,0.2504967,-0.01221124,-0.004151348,0.007642405
0.9000658,0.3649297,0.2441114,-0.005649412,0.002738971,0.007853354
0.9057406,0.3714967,0.243165,-0.003312364,0.01039334,0.009830163
0.9030639,0.3704442,0.2423252,-0.003472025,0.003533308,0.01104173
0.9040895,0.3667758,0.2402639,-0.003805864,0.002264764,0.007775357
0.9084657,0.3645931,0.2420981,-5.711819e-05,0.0005762512,0.002589807
0.9100855,0.3633773,0.2411757,0.003750193,-0.00453358,-0.00265181
0.9107947,0.364646,0.2417544,0.004652946,-0.002800983,-0.005235978
0.9049657,0.3624473,0.2433931,0.01035214,-0.004043036,-0.002608328
0.8990619,0.3619711,0.2422288,0.01547319,-0.006732595,0.002118623
0.9031965,0.3634071,0.2437189,0.01489017,-0.007868574,0.003485458
0.9058454,0.3632518,0.2419404,0.01320255,-0.007985017,0.003906017
0.9040056,0.3679351,0.2410307,0.01346633,-0.003766691,0.002313935
0.9066448,0.3727751,0.2434257,0.01310109,-0.002888314,-0.002605305
0.9098335,0.3756609,0.2426471,0.009396456,-0.00651266,0.0008819031
0.9092099,0.3775236,0.2438259,0.006562377,-0.00960473,0.005157633
0.9095676,0.3769439,0.2447813,0.00411484,-0.009049279,0.001211077
0.9110585,0.374832,0.245258,-0.0005310788,-0.005377785,-0.001725358
0.9098048,0.3678568,0.2429817,-0.006078177,-0.00388855,-0.009962785
0.9076554,0.3638151,0.2372418,-0.006906287,-0.0006776373,-0.01728691
0.9059287,0.3660781,0.2397741,-1.706585e-05,0.001194123,-0.01191952
0.9045231,0.3676248,0.245169,0.003337358,-0.006182756,-0.007808219
0.905527,0.3711377,0.2479845,0.000116871,-0.01208177,-0.006301987
0.9092879,0.3734068,0.2479969,-0.005041438,-0.009078764,-0.006386934
0.912909,0.372321,0.2441027,-0.0149357,-0.006593396,-0.02219946
0.984479,0.05509718,0.2536823,-0.1664565,-0.1299107,-0.4537514
0.9908175,0.05516873,0.2443983,-0.1639897,-0.1228853,-0.4505074
0.9916298,0.0537446,0.2445017,-0.1684408,-0.100643,-0.4424732
0.9956424,0.05279063,0.2484376,-0.1717572,-0.08419761,-0.4356467
0.9967803,0.0539817,0.2441992,-0.1722829,-0.07790085,-0.4283181
0.9953199,0.05597118,0.2457581,-0.1745852,-0.08072671,-0.4233256
0.9962168,0.05556646,0.2470535,-0.1781623,-0.08225599,-0.4244017
0.9977869,0.05512455,0.2444742,-0.1782985,-0.0770981,-0.4227406
0.9992248,0.05687425,0.2465783,-0.1752512,-0.07481571,-0.4149204
0.9993287,0.05872624,0.2453881,-0.1764194,-0.06347132,-0.4060559
0.9980187,0.06199666,0.2430035,-0.178268,-0.05652693,-0.4010149
0.9956177,0.06034868,0.2443579,-0.1765763,-0.05755587,-0.3987029
0.9932919,0.05447705,0.2468305,-0.1653525,-0.05172155,-0.3956718
0.9915081,0.05399131,0.2524327,-0.1492458,-0.0523337,-0.3923935
0.9895051,0.05488534,0.2560641,-0.1492847,-0.04848492,-0.3857127
0.988601,0.05588412,0.2552505,-0.1522929,-0.04493322,-0.3782757
0.9898855,0.05727776,0.2508941,-0.1486484,-0.04897917,-0.3756588
0.9920602,0.06224706,0.2469248,-0.1551814,-0.04485875,-0.3684267
0.9936823,0.07401485,0.2496977,-0.1576989,-0.04762785,-0.3553394
0.9953933,0.07707382,0.2509216,-0.1512605,-0.05165106,-0.3485163
0.9975508,0.07047751,0.2494072,-0.1507776,-0.05406048,-0.3461168
0.9999085,0.06631846,0.2500328,-0.1497121,-0.06085857,-0.341809
0.9995479,0.06401157,0.2490833,-0.149287,-0.05279309,-0.3382338
0.9929513,0.06335763,0.2479561,-0.1521273,-0.04699351,-0.3336426
0.9862717,0.06252504,0.2467627,-0.1544015,-0.05140711,-0.3263588
0.9859288,0.06221284,0.2462986,-0.1584722,-0.05128252,-0.3225456
0.9877623,0.06480329,0.2503072,-0.1560795,-0.05567342,-0.3216006
0.9885692,0.0661114,0.2550607,-0.149159,-0.06154006,-0.3203992
0.9900141,0.06700097,0.2537733,-0.1455174,-0.06528636,-0.319913
0.990438,0.06800656,0.2488348,-0.1385291,-0.07537654,-0.3163047
0.9882334,0.06539424,0.2462898,-0.1334752,-0.09288749,-0.3098138
0.9870929,0.06096598,0.2443429,-0.1363528,-0.106162,-0.3060991
0.9889251,0.0571949,0.2471886,-0.1376838,-0.1014656,-0.3062593
0.9922084,0.05284907,0.2523491,-0.1314536,-0.08525794,-0.3083113
0.994982,0.05052871,0.2493876,-0.1230484,-0.0661908,-0.3088425
0.995641,0.05271677,0.2465053,-0.1211861,-0.05348207,-0.3097535
0.9959907,0.05704434,0.244408,-0.1258444,-0.05400552,-0.3144098
0.9969283,0.0647355,0.2404595,-0.1309142,-0.05055997,-0.315802
0.996797,0.07025555,0.2424215,-0.1318494,-0.04194558,-0.3116073
0.9937875,0.06767354,0.2425348,-0.1323727,-0.03931583,-0.3089697
0.9876351,0.06696759,0.2405338,-0.1351484,-0.03558455,-0.3077724
0.9846063,0.06652051,0.2432991,-0.1330489,-0.03695918,-0.3064538
0.9877417,0.0605313,0.2446619,-0.1306208,-0.04227877,-0.3043639
0.9910505,0.05888321,0.2491685,-0.1308915,-0.03604667,-0.2971114
0.9916779,0.06233305,0.2565643,-0.1279075,-0.03174767,-0.291126
0.9901407,0.06606365,0.2544421,-0.1271752,-0.03761686,-0.2945067
0.9883823,0.06867712,0.2488651,-0.1271103,-0.04444088,-0.2976997
0.9910293,0.06900623,0.246873,-0.1259283,-0.05147289,-0.293118
0.9949956,0.06908098,0.2417309,-0.1294555,-0.0500862,-0.2865608
0.9935324,0.06692917,0.2372984,-0.1336931,-0.04127241,-0.2794914
0.9899136,0.06419104,0.2417802,-0.1364887,-0.03643031,-0.2705809
0.9895499,0.06515742,0.2467796,-0.1353663,-0.03299802,-0.2651209
0.9908,0.06582601,0.2454983,-0.130379,-0.03319905,-0.2624597
0.9901568,0.06547582,0.2432174,-0.128286,-0.03498689,-0.258353
0.9893281,0.06792305,0.2401559,-0.1275742,-0.03372108,-0.2560365
0.9907922,0.0703298,0.2381494,-0.1270968,-0.03743511,-0.2539316
0.9925199,0.06775895,0.2419435,-0.1267901,-0.04063659,-0.251181
0.9945973,0.06274449,0.2450513,-0.1242389,-0.03832831,-0.2519404
0.996456,0.06042554,0.2434375,-0.1176788,-0.03541233,-0.2515668
0.9953169,0.06249312,0.2411058,-0.1089182,-0.0284843,-0.247448
0.9919528,0.06519085,0.2387358,-0.107822,-0.02326953,-0.2397397
0.9895977,0.06380092,0.2366278,-0.1100742,-0.02735658,-0.2301289
0.9921381,0.0632088,0.2366606,-0.1077768,-0.02902991,-0.226343
0.9960834,0.06479088,0.2385232,-0.1083785,-0.01686347,-0.22455
0.9958171,0.06428083,0.2408885,-0.1076069,-0.0047352,-0.2209302
0.9932956,0.0646947,0.2417495,-0.10341,-0.007300228,-0.2202717
0.9898905,0.06502933,0.2381431,-0.103321,-0.01250188,-0.2184075
0.9880344,0.06552776,0.2348439,-0.1025019,-0.01508457,-0.2129868
0.9902364,0.06950438,0.2384705,-0.1019787,-0.01935093,-0.2066644
0.9927407,0.07148889,0.243025,-0.1029487,-0.01923405,-0.2010025
0.9933365,0.06993222,0.244501,-0.09962086,-0.01864779,-0.2011724
0.9931619,0.06797408,0.2457437,-0.09713689,-0.0201157,-0.2029178
0.9928783,0.06726422,0.2459464,-0.09666851,-0.01801595,-0.1984031
0.9930853,0.06671632,0.2447395,-0.09380343,-0.01581951,-0.1956568
0.9926377,0.06486477,0.2403443,-0.09092831,-0.01081637,-0.1968689
0.9900469,0.06749624,0.2350395,-0.09103988,-0.005020437,-0.1927655
0.9874324,0.07305715,0.2367405,-0.09436859,-0.008801455,-0.1864332
0.9887242,0.07525334,0.2418976,-0.09793587,-0.01277023,-0.1833852
0.9940384,0.07545463,0.2439366,-0.09892714,-0.0140638,-0.1823433
0.9973197,0.07429543,0.244675,-0.09674454,-0.01810653,-0.1809173
0.9955131,0.07315956,0.2437846,-0.0934424,-0.01699154,-0.177225
0.993225,0.07202979,0.2426533,-0.09085862,-0.01553634,-0.1730492
0.992055,0.07125426,0.2450389,-0.08894993,-0.01803661,-0.1673834
0.9911743,0.07108056,0.2462734,-0.08844843,-0.01728034,-0.1626586
0.9917172,0.06906962,0.2433283,-0.08721253,-0.013724,-0.1630392
0.9919304,0.07072039,0.2397081,-0.08634292,-0.01042358,-0.1623329
0.9915616,0.07298676,0.2379823,-0.08664897,-0.01329659,-0.1601594
0.9926716,0.06769421,0.2396618,-0.08548169,-0.01681148,-0.1611868
0.9934109,0.06255023,0.2428713,-0.08733942,-0.01101334,-0.1630511
0.9929794,0.06182863,0.2451365,-0.09007487,-0.006927597,-0.1623404
0.9931879,0.06293477,0.244855,-0.08836169,-0.009080267,-0.1579447
0.9939905,0.06537368,0.2422547,-0.08680577,-0.01110843,-0.1510806
0.9947059,0.06900197,0.2403262,-0.08654669,-0.01395932,-0.1450241
0.9943793,0.07227906,0.2384865,-0.08528941,-0.01494839,-0.144514
0.9931406,0.07009955,0.2401756,-0.08305658,-0.0134176,-0.1461814
0.9920315,0.06543424,0.2468471,-0.08049126,-0.01372879,-0.1451794
0.9912934,0.06330729,0.249927,-0.07785248,-0.01266422,-0.1452952
0.9913043,0.06331622,0.2475622,-0.07578955,-0.007985979,-0.1424712
0.9901106,0.06553452,0.2418197,-0.07421051,-0.004390933,-0.1356721
0.9890114,0.06571518,0.2370591,-0.07280093,-0.003092532,-0.1343543
0.9932288,0.06583681,0.2378216,-0.07254593,-0.003194178,-0.1362079
0.9974923,0.06836775,0.2362903,-0.07061235,-0.003919401,-0.1347289
0.9949574,0.06776896,0.2320931,-0.06852736,-0.002328922,-0.1310442
0.9922818,0.06576808,0.234573,-0.06867422,-0.0004431818,-0.127452
0.993001,0.06317905,0.2377051,-0.0678014,-0.0002854385,-0.1253196
0.9913587,0.0617933,0.2345559,-0.06876983,0.000311359,-0.12381
0.9897498,0.06511749,0.2331637,-0.06983561,1.566337e-05,-0.1203565
0.9923866,0.06769657,0.2349048,-0.06670931,-0.001605955,-0.1182314
0.9949033,0.06845533,0.2357633,-0.06288952,-0.001927852,-0.1212933
0.9955714,0.06787398,0.2384345,-0.05967638,0.002531997,-0.1231379
0.995574,0.06580757,0.2395707,-0.05811994,0.007834359,-0.1202497
0.9937716,0.06509815,0.2387105,-0.05822909,0.003838485,-0.1172619
0.9910235,0.06498258,0.2395891,-0.05843927,-0.001440273,-0.1154719
0.9910818,0.06551133,0.2386842,-0.0575763,0.00206818,-0.1122106
0.9931817,0.06537875,0.2370535,-0.05290024,0.006157222,-0.1079111
0.9926582,0.0647457,0.2372006,-0.04788343,0.007412798,-0.1058833
0.9924861,0.06457045,0.2385172,-0.04876953,0.008025233,-0.1028153
0.9936489,0.06254991,0.2406053,-0.05209253,0.008342117,-0.09832854
0.9918465,0.06203933,0.2411123,-0.05272892,0.009424256,-0.09822323
0.9911589,0.06286249,0.2388552,-0.05364092,0.01145813,-0.1010173
0.9920665,0.06319861,0.2381419,-0.0542907,0.01449093,-0.1024905
0.9914407,0.06702689,0.2424486,-0.05300202,0.01664991,-0.09954472
0.9918976,0.07084243,0.2438861,-0.0529163,0.02177523,-0.09549283
0.9926559,0.06988185,0.2412036,-0.05167879,0.02689122,-0.09320185
0.9924287,0.06870817,0.2399236,-0.04881033,0.02111916,-0.08840329
0.9896056,0.07073448,0.2374153,-0.04809635,0.01266898,-0.08516486
0.9851791,0.07138405,0.2351865,-0.0494111,0.007647538,-0.08359184
0.9862478,0.06981514,0.2336057,-0.05031411,0.005488603,-0.08035502
0.9905325,0.0684049,0.235803,-0.04973799,0.0100529,-0.08088715
0.9921223,0.06568785,0.2419078,-0.04882318,0.01197028,-0.08212806
0.9911715,0.06522027,0.2424852,-0.0463992,0.009357211,-0.08120152
0.9894794,0.0659512,0.2442305,-0.04476266,0.009061537,-0.08000302
0.9902579,0.06423862,0.2454659,-0.04647542,0.009450971,-0.07674127
0.989932,0.06368636,0.2394217,-0.0472063,0.01144178,-0.07411004
0.985255,0.06227273,0.2380702,-0.04454685,0.01177837,-0.07254805
0.982738,0.06280418,0.2397458,-0.04039168,0.007632099,-0.07155149
0.9859737,0.06873775,0.2412999,-0.04002762,0.003662846,-0.07042025
0.9907915,0.07173306,0.2442752,-0.0412505,0.003246724,-0.06477739
0.9909837,0.06947823,0.2421147,-0.03835213,0.006183991,-0.05993585
0.9894726,0.06680455,0.2380742,-0.03721214,0.006873616,-0.05901292
0.9907231,0.06774756,0.236529,-0.03948546,0.004055669,-0.0584411
0.990465,0.06756698,0.2416887,-0.04030324,0.0002603097,-0.0594801
0.9910106,0.06285472,0.249592,-0.03896732,-0.001801136,-0.05965182
0.993279,0.06183038,0.2465412,-0.03559329,0.00240663,-0.05776232
0.9929152,0.06222126,0.2415447,-0.03270514,0.006932939,-0.05538999
0.9921744,0.05965974,0.2409702,-0.03226468,0.008083258,-0.05311361
0.9914105,0.05866423,0.2378119,-0.03164527,0.01102291,-0.05252154
0.9916112,0.06256406,0.2383652,-0.03053846,0.01159287,-0.05094534
0.9929828,0.06916484,0.2398499,-0.02938022,0.008591124,-0.05011538
0.9930173,0.06896483,0.2369897,-0.02549777,0.008100437,-0.05152332
0.9928728,0.06677573,0.2366609,-0.02301302,0.007707868,-0.05054375
0.9912099,0.06886641,0.2373844,-0.02811033,0.006017153,-0.04883177
0.989941,0.06756489,0.2390632,-0.03391326,0.005929477,-0.04840397
0.9921189,0.06589425,0.2414912,-0.03169942,0.006227891,-0.05059629
0.9934248,0.06530483,0.2400013,-0.02858471,0.009077903,-0.05433467
0.9913692,0.06475541,0.2398717,-0.02936257,0.01377045,-0.05248058
0.989487,0.06682302,0.2410511,-0.0255185,0.01246556,-0.04911138
0.9913882,0.06695566,0.2403873,-0.02214838,0.00828536,-0.04905944
0.9933286,0.06734361,0.2399203,-0.02267283,0.008194952,-0.04800214
0.9923976,0.06865923,0.2368012,-0.01924482,0.009835019,-0.05096735
0.9903148,0.06745728,0.2348745,-0.02042973,0.01130379,-0.05537407
0.9871632,0.06628042,0.2375679,-0.02389637,0.01225095,-0.05090402
0.9871364,0.06518855,0.2406778,-0.02022097,0.01160041,-0.04648531
0.9901885,0.0666974,0.2440273,-0.01864772,0.01032839,-0.04565782
0.9916128,0.06901009,0.2443023,-0.0181582,0.009088022,-0.04191806
0.992902,0.06702281,0.243639,-0.01686057,0.009941308,-0.03850889
0.9930094,0.06615697,0.2465046,-0.01848417,0.01566691,-0.03674843
0.990878,0.06789557,0.2446055,-0.01865696,0.02054992,-0.03720218
0.9889653,0.06832933,0.2413636,-0.02026604,0.01739052,-0.03675141
0.9883488,0.06802508,0.2436486,-0.02277567,0.01343016,-0.03098529
0.9893516,0.06796154,0.2433707,-0.02110723,0.01624402,-0.02668064
0.9902369,0.06812802,0.2425626,-0.0192876,0.01981952,-0.02654433
0.9920242,0.06805948,0.2446997,-0.0171887,0.02199349,-0.02604817
0.9940089,0.06799553,0.2460721,-0.01514468,0.02318226,-0.02300386
0.9929238,0.06830293,0.249711,-0.01779753,0.02085554,-0.02107146
0.992684,0.06890803,0.2524782,-0.02007388,0.01899142,-0.02094843
0.9934905,0.06953942,0.2505019,-0.01827338,0.01618264,-0.01730265
0.9928091,0.06868786,0.2490812,-0.01621186,0.01291274,-0.01479633
0.9927117,0.06753484,0.2490927,-0.01327703,0.01480704,-0.01640876
0.9914106,0.06826004,0.2477213,-0.01277219,0.01745166,-0.0172045
0.9897277,0.06918788,0.2465102,-0.0146526,0.0217287,-0.01568177
0.9910931,0.06948879,0.2485158,-0.01146121,0.02483486,-0.01320132
0.9919497,0.06981212,0.2528226,-0.01040168,0.02162001,-0.01233423
0.9893941,0.07018935,0.2558812,-0.01354642,0.01910539,-0.01102764
0.9863426,0.07126183,0.2520547,-0.01333769,0.01482755,-0.00967926
0.9857841,0.07198355,0.2453746,-0.01125532,0.009420632,-0.00857907
0.9872769,0.07194789,0.2458704,-0.008095209,0.007423733,-0.00545334
0.9891717,0.0712593,0.2442901,-0.009370195,0.005531675,-0.004399452
0.9911011,0.06899512,0.2388989,-0.01431617,0.003525115,-0.00325783
0.9930096,0.06907072,0.2408933,-0.01525325,-0.0007615431,-0.002044976
0.9935291,0.07163266,0.2445658,-0.01468203,-0.0005293606,-0.004440491
0.992786,0.07113893,0.2480202,-0.01281271,0.00300128,-0.004096042
0.9930235,0.06970293,0.2511601,-0.01095582,2.849853e-05,0.000814615
0.9932577,0.06831152,0.2509336,-0.008149466,0.0006510576,0.005576072
0.9928501,0.06497841,0.2541867,-0.005076799,0.002273885,0.005503685
0.9926231,0.06446099,0.2574862,-0.007421606,0.0008601521,0.004555577
0.9902196,0.06601431,0.2511027,-0.009348377,0.003422938,0.006662358
0.9870703,0.06508489,0.2378135,-0.01141237,0.002636115,0.002536826
0.9870317,0.06482921,0.2320119,-0.01353796,0.001592049,-0.00207496
0.9882877,0.06481079,0.2377776,-0.01304081,0.003150141,0.001637698
0.9893861,0.06331298,0.2410464,-0.0149996,0.002438084,0.00260862
0.991887,0.06383447,0.2401722,-0.01220365,0.005167149,-0.001337944
0.9941755,0.0642641,0.2419396,-0.00773498,0.009096304,-0.002831123
0.9943816,0.06388203,0.2435139,-0.00816404,0.009444206,0.0001576033
0.9937222,0.06603015,0.2438266,-0.005690573,0.004802051,0.0034419
0.992698,0.06813566,0.2456427,-0.004918085,9.601782e-05,0.002561672
0.9929823,0.06820332,0.2456466,-0.00505095,0.005497134,0.002218994
0.9944194,0.06650561,0.2408191,-0.0009031434,0.01045537,0.004124932
0.9940652,0.06357671,0.2378571,0.0008294079,0.0072563,0.004835599
0.9927332,0.06215941,0.2408998,0.001313024,0.007017732,0.00430128
0.9913705,0.06420363,0.2483041,0.003495151,0.009234383,0.00408521
0.992111,0.06723417,0.2519794,0.005187346,0.008769385,0.005597068
0.9940084,0.06604411,0.2435622,0.004353653,0.008598413,0.005337275
0.9928163,0.0617063,0.2354183,0.0004840449,0.007832707,0.004865801
0.9927157,0.05927334,0.2379908,-0.001933485,0.005162523,0.008994881
0.993591,0.0617363,0.2379541,-0.0006519502,0.004170101,0.01128016
0.9926477,0.06564592,0.2319019,0.0003721835,0.006275152,0.009019977
0.9931854,0.06392992,0.2337207,-0.002254136,0.01003903,0.006944953
0.9928309,0.06317572,0.2381546,-0.004367168,0.01218859,0.007607857
0.9909928,0.06671397,0.2388403,-0.002248481,0.0115083,0.01026951
0.9901871,0.06662735,0.2435197,-0.0004651831,0.01248909,0.0117102
0.9907883,0.06553907,0.2442933,0.0004573988,0.01470502,0.01195304
0.9920185,0.06433425,0.2403843,0.002531799,0.01402048,0.01022382
0.9898885,0.0629182,0.238134,0.003762775,0.01314158,0.007893918
0.988776,0.06350083,0.2358093,0.003212275,0.0135483,0.005163104
0.9936342,0.06215255,0.2385821,0.0002901719,0.01327125,0.000728979
0.9973588,0.06230317,0.2408418,-0.001453013,0.01541021,0.00431101
0.9961213,0.06402463,0.2439068,0.002136617,0.01852952,0.01172722
0.9942376,0.06385665,0.249451,0.005874933,0.01667847,0.01403351
0.9927197,0.06504811,0.2437165,0.004688587,0.01520725,0.01617177
0.9892102,0.06548323,0.2382963,0.003251278,0.01743996,0.01127224
0.9880342,0.06500474,0.2385452,0.004223613,0.01877618,0.00435936
0.9883428,0.06434833,0.2352144,0.003809444,0.0215702,0.008156987
0.9857757,0.06268992,0.2353896,0.003695448,0.02375138,0.01497549
0.9875821,0.06337464,0.2384421,0.003807589,0.01799688,0.02072046
0.9903967,0.06546074,0.2412285,0.001875763,0.01008315,0.019271
0.9916625,0.06708719,0.2435155,0.0007478814,0.007242089,0.01314691
0.9970105,0.06677768,0.2435185,-0.001333244,0.004543632,0.01543546
0.9961527,0.06470369,0.2434519,-0.002005071,0.0006643952,0.01666937
0.9917104,0.06493156,0.2453082,0.0003944376,0.0003527555,0.01396676
0.9918811,0.06611423,0.2485758,0.0009436433,0.002793977,0.01494665
0.9912631,0.06653121,0.2468526,0.00411702,0.006575007,0.01645714
0.9924426,0.06669014,0.2435542,0.007395541,0.008972178,0.01848692
0.9917304,0.06498718,0.2417821,0.004898484,0.008611134,0.01946576
0.9882183,0.06380386,0.2354729,0.003176829,0.006505574,0.01749889
0.9890278,0.06474773,0.2320623,0.004077511,0.001808864,0.01501336
0.9902841,0.06366737,0.235858,0.005012832,0.002516731,0.01513112
0.9921946,0.06181291,0.2417716,0.004596775,0.006963799,0.01732515
0.9935344,0.06194566,0.2448336,0.004038863,0.005818711,0.01717367
0.9910425,0.06041339,0.2430886,0.003732707,0.004431977,0.01745006
0.9898158,0.0591444,0.2404455,0.0004535328,0.003530102,0.018421
0.9910838,0.06191336,0.2401621,-0.0006232984,0.007655293,0.0194864
0.9924707,0.06462981,0.246561,0.00405777,0.01498997,0.0227041
0.9924958,0.06574235,0.2488986,0.008099138,0.0115169,0.02340344
0.9924448,0.06743672,0.2439614,0.008187397,0.009084588,0.02259399
0.9901974,0.06842355,0.2457815,0.00775558,0.01025427,0.02172408
0.9840298,0.06770729,0.2406215,0.008714247,0.004363052,0.02028802
0.9823851,0.06603706,0.2311104,0.007433645,0.002434562,0.02145987
0.9860906,0.06382117,0.2350504,0.004021343,0.00696132,0.02218476
0.9896505,0.06342818,0.2350345,0.0008707469,0.01094985,0.02136456
0.991994,0.06424109,0.2315623,-0.001385515,0.01240818,0.02038999
0.9920776,0.06395584,0.2350991,-0.002688502,0.01297845,0.01740704
0.9923235,0.06472056,0.23776,-0.002369336,0.01481741,0.01271769
0.9934225,0.06568324,0.2417516,0.003425077,0.01324069,0.007893984
0.9933438,0.06525495,0.2440332,0.008885077,0.01069534,0.003650294
0.9937205,0.06515879,0.2430792,0.007935087,0.01088832,-0.0002799061
0.9942804,0.06498658,0.2419223,0.005147796,0.01224111,-0.001303447
0.9917589,0.06298606,0.2370203,0.004241719,0.01581502,-5.491295e-05
0.9882226,0.05920404,0.2366026,0.01093378,0.01883699,-0.00125033
0.9884916,0.05805449,0.239938,0.01832967,0.01962435,-0.0008465388
0.9898089,0.06345393,0.2425445,0.01594972,0.01766674,0.002880876
0.9903699,0.07247125,0.247918,0.01452029,0.01362981,0.003603896
0.9922064,0.07730207,0.2462805,0.0170799,0.010245,0.002164615
0.9920687,0.07526224,0.2430785,0.01676651,0.007654694,0.001005982
0.991217,0.07441822,0.24513,0.01784633,0.008990959,-0.000228685
0.9928952,0.07585713,0.2412783,0.01993374,0.0123703,0.004471923
0.9928576,0.07385363,0.2392201,0.01870307,0.0137453,0.01232948
0.990183,0.07345635,0.2421666,0.01824242,0.01187693,0.01285027
0.9878093,0.07453705,0.2441284,0.01702667,0.004419624,0.01364154
0.9867321,0.07336716,0.2481296,0.01218332,-0.001452914,0.01864913
0.9861975,0.07651487,0.2471477,0.0102018,-0.003080885,0.02177347
0.9863441,0.08007919,0.2407803,0.01116474,-0.005535806,0.02714641
0.9899004,0.07847011,0.2368881,0.01162949,-0.005802354,0.02964672
0.9929816,0.07590799,0.2368766,0.01021227,-0.003066307,0.02833069
0.9920128,0.07160156,0.2424189,0.005706355,-0.001136599,0.03074222
0.9929561,0.07006424,0.2487633,0.003590185,-0.000956216,0.03105561
0.9953514,0.07404371,0.2481603,0.006915835,0.001337056,0.0321382
0.9944217,0.07573187,0.2448094,0.01074258,0.004670016,0.03426645
0.9930127,0.07413172,0.2460999,0.009620166,0.002636761,0.03487745
0.9931154,0.0722346,0.2457662,0.008203218,0.0009337163,0.03913529
0.9926368,0.07013403,0.242107,0.01022501,0.002976036,0.03589265
0.9911961,0.06731257,0.2405271,0.007864037,0.002397761,0.02974019
0.9902656,0.06736596,0.2372908,0.004807975,0.0009171545,0.03162183
0.992056,0.07021984,0.2325632,0.005147356,0.0006503118,0.02836256
0.995829,0.07021313,0.2277206,0.004089968,0.001273325,0.02257608
0.9963211,0.07082568,0.2287909,0.00383065,0.004885051,0.02166383
0.994297,0.07113204,0.236764,0.003940941,0.008694528,0.0222798
0.9934508,0.06830751,0.2390923,0.007160619,0.009905328,0.02417695
0.9927066,0.06787156,0.2398086,0.01146403,0.00907042,0.02277487
0.9928365,0.06833869,0.2417972,0.007532616,0.007965576,0.01749968
0.9924488,0.06942489,0.2427851,0.004637219,0.00838084,0.01444871
0.9910897,0.06973497,0.2434687,0.008125987,0.008031097,0.01720102
0.9915503,0.0662391,0.2399589,0.00902698,0.006716414,0.01961785
0.9909903,0.06513017,0.2397874,0.006674972,0.006428699,0.01794003
0.9901164,0.06590583,0.2395035,0.005399694,0.00804479,0.01843689
0.9922861,0.06675806,0.2373033,0.005987923,0.01252292,0.01689772
0.9946622,0.06877652,0.2405221,0.005862858,0.01534919,0.01428054
0.9947965,0.06825828,0.2406026,0.00515621,0.01372351,0.0164666
0.9941536,0.06754538,0.2425615,0.005954698,0.01242096,0.01612012
0.9945006,0.06838286,0.2457809,0.008855432,0.01352322,0.01467258
0.99439,0.06821745,0.2446573,0.01199498,0.01373086,0.01542137
0.9933714,0.06877319,0.2484308,0.01055947,0.01283133,0.01604768
0.9927363,0.07008231,0.2494485,0.007950646,0.01311518,0.01619356
0.9920182,0.07036582,0.2478791,0.008547725,0.01227163,0.01493051
0.9915519,0.07085062,0.2491811,0.007137717,0.01040639,0.01772561
0.9915534,0.07080375,0.2469773,0.005253082,0.007805812,0.0229924
0.9919182,0.06859183,0.2424866,0.007248664,0.004562116,0.02478979
0.9926294,0.06664779,0.2371396,0.009359192,0.007386731,0.02428095
0.9926452,0.06706992,0.2390066,0.010357,0.01149775,0.02224197
0.9905949,0.07031469,0.2470531,0.01031673,0.01020912,0.02221288
0.9882126,0.07347143,0.2482005,0.0100123,0.0119036,0.02081876
0.9903622,0.07262948,0.2429513,0.01201776,0.0164451,0.01915484
0.99266,0.072367,0.2369805,0.01226333,0.01749505,0.02332687
0.9895581,0.07436384,0.240542,0.01006997,0.01675656,0.02311535
0.9875863,0.07371886,0.2461888,0.009675759,0.01303766,0.02137474
0.9874508,0.07256446,0.2418517,0.00878962,0.003464741,0.02579902
0.9856277,0.07135945,0.2424223,0.008152305,-0.004799093,0.02765523
0.9862712,0.06850838,0.2445089,0.009760261,-0.002564938,0.02759412
0.9894856,0.06913909,0.2428394,0.009593555,0.001711576,0.02842909
0.9917628,0.07070608,0.2488101,0.009010697,-0.0005066695,0.02821124
0.9921669,0.06771545,0.252508,0.009300007,0.0001460264,0.02742883
0.9912042,0.06501241,0.250398,0.008171939,0.001531428,0.02534612
0.9908676,0.0650809,0.2496491,0.007964446,-0.0003174488,0.02166319
0.9909871,0.06703516,0.2472738,0.006908369,0.00373742,0.01823192
0.9905404,0.07089717,0.2440757,0.005428786,0.005702635,0.01908252
0.9894793,0.07398947,0.2434868,0.007237867,0.00112142,0.02034354
0.9881249,0.07392831,0.2442938,0.008302098,-0.0002310281,0.0185908
0.9878081,0.07126704,0.2426541,0.008440803,-0.0004884403,0.01997411
0.9867349,0.07028152,0.2426642,0.007186455,-0.0008300002,0.02340653
0.9862169,0.07105284,0.2450273,0.005174749,-0.0004419597,0.02448421
0.9908387,0.0703982,0.2449888,0.006642619,-0.0004196818,0.01948029
0.9946484,0.06909715,0.2457507,0.007123539,0.001093487,0.01227873
0.9931619,0.06750952,0.2431003,0.007817472,0.003593968,0.01502208
0.9921857,0.06774761,0.2383451,0.008818212,0.007210802,0.01832969
0.9925521,0.06882696,0.2386838,0.007372586,0.008255715,0.0153538
0.9914945,0.06873396,0.2389983,0.008438382,0.00659307,0.01656114
0.991216,0.07064268,0.238878,0.007003453,0.007515946,0.01705556
0.9921433,0.07145444,0.2391453,0.004271543,0.006810271,0.0173703
0.9917177,0.07040416,0.2390394,0.006387703,0.004365763,0.02097966
0.9923238,0.07097659,0.2376031,0.007228773,0.004978903,0.0192279
0.9933599,0.07124744,0.2325164,0.007384566,0.005493262,0.01787245
0.9910788,0.07229599,0.2318915,0.007899846,0.004800575,0.01851217
0.9894108,0.07341187,0.2387307,0.007581056,0.004926797,0.01616286
0.9894367,0.07152511,0.2436984,0.006554175,0.005660645,0.01665506
0.9891479,0.06870303,0.2431799,0.004340399,0.007850266,0.01697553
0.9906844,0.06587893,0.2457421,0.005192245,0.01107001,0.01452961
0.9930271,0.06469696,0.2520246,0.005637607,0.0110891,0.01333287
0.992886,0.06726419,0.2490113,0.005752618,0.009000104,0.01284904
0.9918584,0.06897756,0.2445454,0.009026717,0.009759105,0.01328679
0.9932718,0.06779827,0.2470772,0.009560173,0.01217308,0.01380215
0.9936216,0.06822203,0.2441111,0.01055852,0.01484686,0.01261252
0.9924046,0.07031871,0.2415496,0.01147633,0.01656922,0.008689815
0.9929962,0.07224578,0.2454335,0.009061174,0.01700833,0.006500767
0.9912101,0.07366062,0.2478081,0.008032984,0.01766326,0.009792729
0.9879426,0.07273735,0.2518362,0.004961964,0.01366157,0.01253407
0.9860897,0.06914143,0.2538794,0.004074803,0.007752151,0.01600926
0.9845431,0.0655626,0.2503699,0.008389367,0.007450703,0.01849171
0.9870768,0.06686825,0.2486576,0.01020128,0.007948276,0.01655554
0.9901378,0.06987586,0.2465664,0.01135963,0.00651458,0.01871968
0.9877944,0.06955345,0.244523,0.01104297,0.003900561,0.01974932
0.9856793,0.07198231,0.2493381,0.009610153,-0.001681058,0.02054215
0.9871721,0.07442053,0.2549565,0.00984959,-0.007043418,0.02570988
0.9905653,0.07260149,0.2515885,0.008546856,-0.007845566,0.0234888
0.9942795,0.07207852,0.2458121,0.009228987,-0.007372066,0.02133303
0.993799,0.07054091,0.2441234,0.00989107,-0.009501585,0.02036214
0.9916775,0.07005221,0.240325,0.007489843,-0.008639489,0.01446994
0.992707,0.07198227,0.2378723,0.007096057,-0.004610207,0.01471855
0.9915174,0.07123925,0.2400171,0.0068232,-0.003463991,0.0140513
0.9899234,0.07234103,0.2403021,0.007021298,-0.005805946,0.01150064
0.9912258,0.07289555,0.238541,0.008636866,-0.01107689,0.01526717
0.9916169,0.07139954,0.2374505,0.009100232,-0.01241687,0.01474601
0.9930183,0.07269783,0.2409128,0.009012415,-0.00865288,0.01209065
0.9910813,0.07260041,0.2438835,0.006009032,-0.006537667,0.01263486
0.9870353,0.07362294,0.2384558,0.002954864,-0.002947415,0.01037783
0.9891883,0.07568232,0.2343026,0.003635853,0.002287222,0.009852257
0.989732,0.07305991,0.237926,0.003540716,0.004304753,0.01198699
0.9893049,0.0713782,0.2430828,0.002992659,0.002101868,0.01213773
0.9930463,0.07233927,0.2442386,0.004086365,-0.00090159,0.01342665
0.994311,0.07245137,0.2393834,0.004657188,-0.000382628,0.01107833
0.9929183,0.07188687,0.2347218,0.004102318,0.002778718,0.006546029
0.9893232,0.07126759,0.2390832,0.004043604,0.006618138,0.01066593
0.9862375,0.07129493,0.243984,0.005493321,0.005058645,0.01456858
0.9883933,0.07358344,0.2391492,0.006478394,0.001649218,0.01472585
0.9897975,0.07786127,0.2363065,0.005218397,0.004350022,0.01903194
0.9884971,0.0781074,0.2374205,0.004533609,0.00437397,0.02200365
0.9887714,0.07445837,0.2365848,0.005853211,0.003800507,0.02135212
0.9891976,0.07297962,0.242329,0.005795291,0.005802209,0.02065391
0.9886664,0.0727099,0.2482609,0.005719507,0.003273692,0.01919518
0.9894489,0.07040935,0.2461605,0.006184741,0.002467888,0.01644504
0.9915251,0.06688033,0.245679,0.00378433,0.003400252,0.01485537
0.9927971,0.067381,0.2470258,0.003186491,0.00266033,0.0148762
0.9916638,0.06925254,0.2417611,0.006576186,0.003466577,0.01298812
0.9900222,0.06775707,0.2347257,0.009228018,0.004338877,0.01024319
0.9902642,0.0698642,0.2354499,0.008961044,0.00555036,0.008485133
0.9894237,0.07329183,0.2375016,0.00818333,0.004532393,0.009107727
0.9881455,0.07398565,0.2379832,0.00948878,0.002190519,0.01120564
0.9884385,0.07649019,0.2431067,0.00756044,0.003296377,0.01104822
0.9881022,0.07694049,0.2459925,0.005038515,0.005266002,0.01083542
0.9892758,0.07570951,0.2430453,0.007867678,0.007596071,0.008308737
0.9912012,0.07558083,0.2387194,0.008609993,0.007895273,0.005015885
0.9916921,0.07360034,0.2361023,0.006750736,0.006239953,0.007028378
0.9917251,0.07226647,0.2416322,0.005439438,0.007952584,0.008893742
0.9895918,0.0721778,0.2488354,0.003191366,0.008086792,0.01136247
0.9880713,0.07244409,0.2461841,0.001953691,0.004794522,0.01548069
0.9881496,0.07435957,0.2431182,0.002873124,0.003112156,0.01597019
0.9872588,0.07634897,0.2427442,0.004685434,0.001623942,0.01506877
0.9873824,0.07578745,0.2373545,0.003764891,1.557524e-05,0.01397018
0.9873279,0.07080504,0.2375686,0.002701937,-0.0004750445,0.01315549
0.9856021,0.06631977,0.2409819,0.004207709,-0.001470533,0.01276724
0.9842163,0.06819826,0.238207,0.003267219,-0.005625186,0.01197769
0.9853848,0.07177773,0.2419816,0.00156919,-0.01221684,0.01335995
0.9896261,0.0724874,0.2475845,0.002204576,-0.0143589,0.01499286
0.9928027,0.07237533,0.247531,0.005034248,-0.01382132,0.01731066
0.9917672,0.07267754,0.2494442,0.008427586,-0.01506923,0.0221143
0.9890968,0.07491796,0.2492819,0.008307373,-0.01330649,0.0208682
0.9886012,0.07817882,0.2454936,0.004666506,-0.01174556,0.0151954
0.9890068,0.07715913,0.2401819,0.000980984,-0.01269109,0.01365367
0.9891145,0.0739225,0.2368274,0.001920602,-0.01150078,0.0132899
0.9908377,0.07083502,0.236518,0.00322762,-0.009913938,0.01772315
0.9923038,0.06575927,0.2350417,0.001122916,-0.006909368,0.02294513
0.9927067,0.06396323,0.2365725,0.002238758,-0.003472184,0.01667189
0.9931103,0.06622103,0.2382507,0.003754233,-0.004377655,0.01004557
0.9931396,0.06719393,0.2434191,0.003733816,-0.006256701,0.008419501
0.9934319,0.06820145,0.2534405,0.004553653,-0.006683872,0.004869226
0.9947125,0.06857621,0.2507876,0.004440432,-0.005976262,0.004873018
0.9961334,0.06809784,0.2455047,0.008180981,0.0003734234,0.01053893
0.9942744,0.07154462,0.2468255,0.01241446,0.008233287,0.0153072
0.9915911,0.07687016,0.2429423,0.01116957,0.005514623,0.01491914
0.9914585,0.07900812,0.2417437,0.009565553,0.0005279748,0.0141609
0.9906201,0.07852908,0.2441936,0.005947131,0.0005525401,0.01642889
0.9923313,0.07783355,0.2421462,-0.0007924415,-0.00393941,0.01840797
0.9959007,0.07707971,0.2401123,-0.002771715,-0.005530886,0.02195445
0.994553,0.07567437,0.2385665,-0.001749003,-0.003619859,0.02446462
0.9938013,0.07536377,0.2380156,-0.006574957,-0.005664758,0.02377112
0.9965423,0.07415919,0.2387156,-0.01105693,-0.001639045,0.02459975
0.998628,0.06820937,0.2374232,-0.007948483,0.00235592,0.02433157
0.9988741,0.06070071,0.238809,-0.006163652,0.001822399,0.02300141
0.9915881,0.05640187,0.2417569,-0.006532439,0.004642731,0.02099249
0.9825715,0.05621758,0.2410921,-0.003672607,0.004941971,0.01394092
0.9857975,0.05678457,0.2424004,-0.002174861,0.006627953,0.007428407
0.9901504,0.05822061,0.2443821,-0.002585337,0.01368045,0.00495173
0.9879044,0.06051572,0.2439836,-0.001431421,0.01652274,0.00166392
0.9895363,0.05960702,0.2444073,0.001199511,0.01334079,-0.002439764
0.991729,0.06128472,0.2421223,0.005240644,0.01094754,-0.00251363
0.9939846,0.06384458,0.2406027,0.008659248,0.01459733,-0.0001606108
0.9967085,0.06256663,0.2436659,0.008454739,0.01650666,-0.002348945
0.9910548,0.06680814,0.2451237,0.008121641,0.01200218,-0.005287224
0.9869734,0.07309065,0.2461875,0.009736701,0.007565966,-0.007374946
0.9902303,0.0738851,0.2467275,0.007595296,0.004940405,-0.01063996
0.9909301,0.07011918,0.2450919,0.003998896,0.005197646,-0.01031072
0.9898244,0.06679071,0.2465206,0.004648277,0.005663447,-0.01026365
0.9891007,0.07125589,0.2483355,0.005964461,0.004889802,-0.00618962
0.9880796,0.07558527,0.2456985,0.006106357,0.004060947,0.002286616
0.9879935,0.07468693,0.2436697,0.006617633,-0.004453141,0.0004328257
0.98909,0.07324977,0.2449217,0.007551951,-0.01693201,-0.0008925346
0.9893545,0.07154437,0.2445989,0.006963335,-0.01927637,0.001954574
0.9883534,0.0715594,0.2443768,0.003656722,-0.01365011,-0.002450576
0.9890861,0.07000606,0.2476993,0.0005048541,-0.01002627,-0.003932803
0.9890889,0.0668621,0.2492474,-0.002084019,-0.007257911,-0.00252846
0.9886516,0.06786658,0.2486627,-0.003141027,-0.004014864,-0.004268201
0.9912374,0.0685671,0.2479688,0.0004030602,-0.005013286,-0.00374917
0.995732,0.06670965,0.245769,0.004259307,-0.004918585,-0.0008637692
0.999747,0.06728774,0.2439517,0.003091416,-0.002900113,0.002583213
0.9966159,0.07166999,0.2440771,0.001161714,-0.00735409,0.002727631
0.9921818,0.07666555,0.2459177,0.001720299,-0.01135423,0.00138386
0.9946416,0.07732118,0.2455576,0.0001317313,-0.01007964,0.001546757
0.9933475,0.07434737,0.242753,-0.001136261,-0.01133079,-0.001010714
0.9903097,0.07294746,0.2414496,-0.0008817162,-0.01319604,-0.0005442789
0.9929823,0.07208815,0.241975,-0.002857403,-0.008506642,0.003115212
0.993658,0.07164015,0.2439305,-0.001264196,-0.002663559,0.003155014
0.9926361,0.0731858,0.2431489,0.001994951,-0.002321397,0.003178077
0.9932177,0.07384668,0.2423031,0.002905441,0.0004071027,0.003044528
0.9930485,0.07487706,0.2426139,0.0034673,0.00502853,0.003919545
0.9930043,0.0739539,0.2363892,0.0009810382,0.003163026,0.006530572
0.9927586,0.07083021,0.2316698,0.0002268878,0.002810996,0.005392243
0.9912157,0.07199692,0.2352156,0.0008657969,0.005130783,0.00292706
0.9897763,0.07110067,0.2393189,-0.0007818613,0.003521362,0.002293633
0.9900314,0.06829064,0.2395217,-0.0006106939,0.002789415,0.003074985
0.9907103,0.07059893,0.2391869,-0.001507225,0.003026958,0.002541122
0.9900762,0.07147556,0.2409592,-0.002191921,0.003577492,0.001059008
0.9901734,0.07064188,0.240681,-0.001815141,0.005817389,0.002515878
0.9905427,0.07182318,0.2415763,-0.002704602,0.005045385,0.003366606
0.990042,0.07197807,0.244166,-0.001240877,0.003932951,0.003557481
0.9905447,0.06962701,0.2428885,-0.0002266028,0.004322552,0.003202661
0.9912424,0.06702809,0.2427257,0.001040236,0.001957441,0.001707598
0.9917745,0.0678392,0.2434429,0.003637321,0.0006061543,0.002240666
0.991761,0.06874564,0.2428042,0.00294833,0.002742339,0.0002182481
0.9904706,0.06757544,0.2433385,0.002417197,0.003997435,-0.001469037
0.9901045,0.06881667,0.2441139,0.003186422,0.001495425,0.0004131277
0.990472,0.07189077,0.2454027,0.004146465,-0.001120326,0.0008922551
0.9913286,0.07437209,0.2450145,0.005915866,0.0005006232,0.001342839
0.9929263,0.07371365,0.242215,0.005476485,0.001372016,-0.002793725
0.9933179,0.06989677,0.2408102,0.004511348,0.0008180859,-0.009997457
0.9930162,0.06802088,0.240479,0.004957384,0.004336871,-0.009844813
0.9929832,0.06780031,0.2385076,0.004491723,0.008982921,-0.004909925
0.9930901,0.06797401,0.2369345,0.003935287,0.009611678,-0.0006540691
0.9931086,0.06894458,0.239883,0.002731828,0.004101767,-0.0008284638
0.9929542,0.0709513,0.2448338,-0.0006961084,-0.001328632,-0.003218687
0.9931363,0.07578465,0.2494937,-0.002247443,0.001204748,-0.002822545
0.9930424,0.07720239,0.2524966,-0.0001838921,0.004287126,-0.005384721
0.9929977,0.07306205,0.2490806,0.000910076,0.003127676,-0.007924814
0.9929732,0.07137769,0.2434357,-0.0009891021,0.001821002,-0.00414943
0.9917177,0.07204635,0.2414902,-0.002441728,-0.0005964904,-0.003401781
0.9896498,0.07162955,0.240603,-0.001496472,-0.001137215,-0.004568209
0.9882514,0.07062399,0.2382677,-0.0006747338,0.0005730672,-0.0006608608
0.9884668,0.07180134,0.2351698,0.0002766228,-0.001756239,0.001678821
0.9874911,0.07515061,0.2353817,0.001930452,-0.004972038,0.002097267
0.9857948,0.07711784,0.2375295,0.001682921,-0.005701161,0.004103522
0.988635,0.07830067,0.2378085,0.001237817,-0.007575127,0.006236371
0.9920148,0.07743863,0.240914,0.001714929,-0.0107867,0.006591694
0.9919681,0.07438259,0.2429303,0.00148859,-0.009738579,0.002102618
0.9930477,0.07232543,0.2399858,0.001847328,-0.004989766,-0.00228322
0.9937733,0.07153039,0.2399931,0.002431989,-0.004247859,-0.001286096
0.9921326,0.07271664,0.2406665,0.001721338,-0.004843249,0.001513248
0.9911354,0.07370976,0.2390059,-0.0002228291,-0.004444349,0.002154138
0.989194,0.07515216,0.2361059,-0.00181588,-0.005113168,-1.966733e-05
0.9883247,0.07694634,0.2313017,-0.0004142995,-0.00432707,-0.001754816
0.9912348,0.07357224,0.2304132,0.0009644658,-0.004786535,-0.001672018
0.9922401,0.07109727,0.2313937,-0.001376805,-0.005252626,-0.002462001
0.9911101,0.07356839,0.231915,-0.00324476,-0.004861409,-0.004470253
0.9902926,0.07484983,0.2363727,-0.002335775,-0.005875575,-0.002611553
0.9900547,0.07441296,0.2411603,-0.001180302,-0.00484042,0.003205007
0.9924368,0.0738385,0.243719,-0.0002920473,-0.004498884,0.005782446
0.994074,0.07279984,0.2410545,-0.0003515481,-0.003023791,0.004333793
0.9940897,0.06939706,0.2369622,-0.0009293552,0.004261504,0.002403419
0.9940619,0.06715115,0.2401828,0.0005364295,0.01406848,0.002869202
0.9925149,0.07097379,0.241369,0.004570678,0.0202196,0.001906552
0.9926214,0.07304115,0.2392845,0.008337988,0.01731788,-0.004075416
0.9924019,0.06924098,0.2414946,0.006373408,0.01520249,-0.006954736
0.9891508,0.06799058,0.2438569,0.00249805,0.01621476,-0.004693016
0.9883351,0.07346316,0.2463977,0.004051424,0.009908038,-9.511149e-06
0.9889179,0.07850114,0.2458311,0.004517549,0.003138742,0.00358294
0.9879705,0.07647844,0.2434962,0.002635403,0.00177758,0.001045241
0.9872543,0.07391667,0.2476013,0.002259078,0.002282437,-0.0008157834
0.9873279,0.07325909,0.2498533,-0.001068771,0.001044112,0.000763993
0.9877581,0.06884505,0.2479746,-0.004104058,-0.001715406,0.0007300864
0.9874148,0.06688306,0.2477246,-0.005376313,-0.0004400285,-0.0001351669
0.9875486,0.06992519,0.2468467,-0.006806369,0.0006157427,-0.001677974
0.988628,0.07170012,0.2461875,-0.005221936,-0.0002506882,-0.002678765
0.9893243,0.0734688,0.2461528,-0.004709977,-0.0001160381,0.001473075
0.9908434,0.07385,0.247336,-0.004312327,-0.002327468,0.007391625
0.9920849,0.07140704,0.2490923,-0.001106417,-0.002492402,0.00750986
0.9914625,0.07075848,0.2469221,0.001584787,-0.0005755757,0.006538804
0.989667,0.07251174,0.2437332,0.004329862,-1.861046e-06,0.008304783
0.9883404,0.0743785,0.2406271,0.002644538,0.001332327,0.007628726
0.988854,0.07415541,0.236029,-0.002479944,-0.00152349,0.00667085
0.9891245,0.07479301,0.2356101,-0.003319829,-0.004090123,0.007141369
0.9887305,0.07739178,0.2372125,-0.002597923,-0.002446949,0.007013996
0.9890947,0.07510398,0.2362012,-0.00229962,-0.005450853,0.007122337
0.9898213,0.06857384,0.2394529,-0.002289263,-0.008128493,0.006670442
0.9906945,0.06402673,0.2438594,-0.00378173,-0.006698125,0.006166653
0.9914585,0.06600598,0.2437269,-0.005526256,-0.006109915,0.006013671
0.9926419,0.07012785,0.2470849,-0.006993238,-0.00448049,0.005667744
0.9935281,0.0675706,0.2503008,-0.006925163,-0.002958475,0.006303364
0.9928024,0.06614071,0.2477931,-0.003721893,-0.004300466,0.006284696
0.99162,0.06766757,0.2464506,0.001186074,-0.005935891,0.002936997
0.9898125,0.06584276,0.2458291,0.002866403,-0.003715105,4.605516e-06
0.9885085,0.06750634,0.2453028,0.00156093,-0.001454281,0.0009025641
0.9906222,0.07079002,0.2459192,0.002143029,-0.003245891,0.0007006833
0.9926396,0.07248467,0.2452327,0.002306822,-0.003808225,5.167604e-05
0.9913568,0.07330215,0.2472772,0.00175672,-0.004209478,0.001508295
0.990603,0.07118777,0.248522,0.002725798,-0.005709777,0.0003566965
0.9910922,0.07237136,0.2419601,0.002486909,-0.006266864,-0.002476904
0.9907738,0.07274116,0.2397301,0.001366663,-0.00680414,-0.005783136
0.99027,0.07015062,0.2436471,-0.0003553967,-0.003764611,-0.008219078
0.990555,0.0703942,0.2411743,-0.001847085,0.001820378,-0.00790502
0.9932534,0.06891693,0.2406859,-0.001239059,0.005511311,-0.008022692
0.996107,0.0686123,0.2433368,-0.001697187,0.003688398,-0.005350325
0.9951101,0.06754388,0.2413647,-0.002960408,-0.001782491,-0.002091845
0.9929415,0.06387875,0.2426953,-0.002757177,-0.001969009,-0.004407733
0.9927585,0.06623757,0.2434663,-0.002408233,-0.001482601,-0.006232855
0.99325,0.06728754,0.2437839,-0.002074807,-0.001015332,-0.005234701
0.9930477,0.06425541,0.247585,-0.000996691,0.003648696,-0.005033886
0.9933049,0.06443414,0.245889,-0.0004388171,0.003186384,-0.005359653
0.9949663,0.06818478,0.2468353,-0.001735672,0.002787679,-0.004743493
0.9963079,0.07249807,0.2502699,-0.002192789,0.005668118,-0.004818935
0.9960417,0.07305331,0.2472793,-0.0009738518,0.00366736,-0.00642366
0.9954822,0.0785596,0.2448942,-0.0001885441,0.001850063,-0.007017699
0.9952389,0.08719563,0.2420668,0.0006760776,5.279439e-05,-0.007312978
0.9924092,0.08019443,0.2403695,0.001243353,0.000581985,-0.00763942
0.9889317,0.07130525,0.2409071,0.001273475,0.005287628,-0.007778577
0.9900291,0.07550984,0.2400167,0.001572305,0.005153106,-0.007310361
0.9912771,0.07530881,0.2435784,0.002133109,0.005450438,-0.003209362
0.9906245,0.0717844,0.2474196,0.0027865,0.007810733,7.735729e-05
0.9923253,0.07459315,0.2468827,0.004039864,0.007969342,-0.002339459
0.993874,0.07470602,0.2445112,0.005795872,0.007361296,-0.00471824
0.9942412,0.0745415,0.2408588,0.004229033,0.004544994,-0.003402285
0.9940688,0.07585686,0.2403345,0.0007667791,0.003689185,-0.003524477
0.9918885,0.07435763,0.2410006,-0.0009695738,0.002218953,-0.004835952
0.9901907,0.07512227,0.2415444,-0.002981375,-0.000387364,-0.001442687
0.9888421,0.07534182,0.2439079,-0.002525112,0.0008867405,0.003904401
0.9893146,0.0744569,0.2440083,2.24271e-05,0.0002235588,0.006608946
0.9931112,0.07546029,0.2459551,0.0005548949,-0.0003984659,0.006127226
0.993597,0.07444385,0.2498571,0.0004020723,-0.003743994,0.00495557
0.9925714,0.07294486,0.2467731,-0.002217846,-0.008651759,0.00568514
0.9934168,0.07106915,0.2419406,-0.004694773,-0.0008996155,0.005784313
0.9924925,0.07001522,0.240867,-0.003539509,0.005368254,0.007649127
0.9912748,0.07138357,0.2421314,-0.003314477,-0.001968383,0.01061948
0.98992,0.07022598,0.2496292,-0.002355841,-0.007554177,0.01012208
0.9897666,0.06787898,0.2547555,0.001134713,-0.006196288,0.009926607
0.9909733,0.06605347,0.2467395,0.002954904,-0.005937611,0.009532721
0.9902789,0.06551383,0.239773,0.001058585,-0.007169101,0.008833353
0.9919572,0.06735013,0.2417577,-0.002465482,-0.005893409,0.007527815
0.9940035,0.06753615,0.2425463,-0.003682648,-0.006441757,0.003826369
0.9928343,0.06741559,0.2422671,-0.004602424,-0.007419473,0.003824298
0.9929028,0.06823519,0.2416248,-0.004169764,-0.004913194,0.004589298
0.9932447,0.06810294,0.2380275,-0.0008757815,-0.00229705,0.002462744
0.9929528,0.06808004,0.2373938,-0.001259912,0.0009761421,-6.603723e-05
0.9929147,0.06794278,0.237714,-0.0009254963,0.0002637332,-0.003889289
0.9921351,0.06812849,0.2353081,0.002524859,-0.005348063,-0.004196273
0.9916146,0.06847325,0.237325,0.002846769,-0.007441213,-0.002778353
0.9924078,0.06966135,0.2399331,0.003409557,-0.003328326,-0.005455639
0.9933782,0.07122807,0.240731,0.00284745,0.00352309,-0.00686792
0.9921902,0.06913506,0.2459693,-0.0005493453,0.002222154,-0.006023108
0.9910816,0.06708211,0.2457155,-0.001578124,-0.00373678,-0.00663793
0.9916777,0.06871586,0.2418649,-0.00091708,-0.001432844,-0.007158528
0.9908598,0.07104735,0.2429597,0.0002727248,0.002101217,-0.005822642
0.9900201,0.07275894,0.2393994,0.0007625899,0.002298583,-0.003719532
0.9913637,0.07188704,0.2380497,0.0005098478,0.001793731,-0.003271959
0.9929926,0.06796628,0.2404122,-0.0001232089,-0.001563624,-0.005061657
0.9933272,0.06483431,0.2380988,-0.00323584,-0.003395275,-0.00630251
0.9925847,0.06477541,0.2411741,-0.004127175,-0.0005725707,-0.004428943
0.9912504,0.066054,0.2449223,-0.0002764586,0.001830435,-0.000529309
0.9899732,0.06704843,0.2448419,0.002602479,0.001142704,0.001187374
0.9909039,0.06906845,0.2454856,0.002052808,0.000909002,-0.002056518
0.9923857,0.07209153,0.2416612,0.001546063,0.002377298,-0.005553757
0.9912007,0.07419879,0.2390008,0.002646322,0.002368775,-0.004181702
0.9899447,0.07415604,0.2389254,0.00257889,0.0006010348,-0.003498412
0.9901189,0.07303391,0.2388953,0.002352401,-0.003031376,-0.005721353
0.9903869,0.07364312,0.2425056,0.001485193,-0.005918693,-0.004596263
0.9907367,0.07384912,0.2454161,-0.0003117189,-0.002959402,-0.002041953
0.9915279,0.07224257,0.2465176,0.002560826,0.0007801454,-0.001033039
0.9920749,0.07216463,0.246234,0.005624199,0.0006280306,-0.001364542
0.9902078,0.07242376,0.2470334,0.00423281,0.0006128541,-0.004529757
0.9882594,0.07315098,0.2497808,0.003592965,0.000957193,-0.005837584
0.9891503,0.07503427,0.2485336,0.002117585,-0.0003185087,-0.003150334
0.9904823,0.07514569,0.2475271,-0.001008801,-0.003193322,0.0004049395
0.9907806,0.07497581,0.2465536,-0.000832587,-0.005538168,0.003463961
0.9895789,0.07501313,0.2439576,-3.640879e-05,-0.004270303,0.004893341
0.9883212,0.07489598,0.2477699,-0.0009737203,-0.003960431,0.006687802
0.9876312,0.07535774,0.2513358,0.0009955118,-0.008611507,0.007165069
0.9880862,0.0757299,0.2466545,0.002791266,-0.0128069,0.005718099
0.991319,0.07654348,0.2412483,-0.0003921359,-0.01312179,0.007684952
0.991443,0.07478331,0.2393684,-0.002210745,-0.01239313,0.009604207
0.9895055,0.06988345,0.2385248,-2.763205e-05,-0.0141054,0.00900157
0.9904862,0.06669692,0.2388773,0.001259697,-0.01590646,0.008956531
0.9905126,0.06674716,0.2401741,-0.0001363312,-0.01427907,0.007744384
0.991037,0.06724351,0.2403143,-0.001466357,-0.01331758,0.005879813
0.9921048,0.06600207,0.2406984,-0.0005834082,-0.01388622,0.003789592
0.9912271,0.06608082,0.2420977,0.0002931549,-0.01233221,0.000635796
0.989854,0.06762502,0.2434296,0.0005684757,-0.009842117,-0.0006027791
0.9883275,0.06974842,0.2434771,0.0003247633,-0.007389393,-7.094646e-05
0.9892595,0.07207258,0.2425214,-0.000773714,-0.005221748,0.0004451325
0.9917986,0.07133352,0.2432282,-0.0007010115,-0.004451677,0.001753273
0.9928735,0.07380332,0.2424024,-0.00058494,-0.003990745,0.003030666
0.9926773,0.07793038,0.2381597,-0.002027977,-0.00312491,0.001833313
0.9926709,0.0741556,0.2350988,-0.002875957,-0.002570714,0.0008872067
0.9935685,0.07012943,0.2359996,-0.001991506,-0.002533613,0.004406553
0.9929462,0.06904503,0.2396956,-0.001386179,-0.003559685,0.006503932
0.9930945,0.06738115,0.2408615,-0.0008499328,-0.003540171,0.00438703
0.9953071,0.06763277,0.2401181,-6.310187e-05,0.0009469231,0.003777676
0.9957053,0.06664699,0.2402119,-0.0007414727,0.005905947,0.003953901
0.9941109,0.0647951,0.2393662,-0.0009707492,0.006565206,0.005386298
0.9912418,0.06710106,0.2398453,-0.001623676,0.005388227,0.007721028
0.9901723,0.07000086,0.2415435,-0.002874105,0.005103939,0.006124242
0.9904766,0.06942131,0.2429139,-0.002869523,0.002857908,0.004865705
0.9889514,0.06822718,0.2430957,-0.003978718,0.000528817,0.005863966
0.9887674,0.06802835,0.2409684,-0.003801549,0.00450042,0.005162648
0.9889887,0.06786005,0.2402172,-0.002625216,0.005223081,0.004004984
0.9886914,0.06838985,0.2419046,-0.002906863,-0.0002128728,0.003086415
0.9896907,0.06862103,0.2439965,-0.00238676,-0.0003848901,0.002418215
0.9917218,0.0677493,0.2440407,-0.001944231,0.002862496,0.002095223
0.9956927,0.06643838,0.2431047,-0.000557674,0.007340019,-0.0006200669
0.9968516,0.06611926,0.2434252,0.001895396,0.008444678,-0.003758823
0.9951674,0.06789131,0.2426707,0.003744522,0.007766534,-0.002617696
0.9952493,0.07019374,0.2426781,0.004683958,0.01123367,-0.0009992226
0.9922875,0.07295445,0.2415147,0.003095932,0.005296903,1.074769e-05
0.9879989,0.07311464,0.2377617,0.0008808336,-0.002357288,0.003465408
0.9884101,0.07056296,0.2360747,-0.001667398,-0.002020605,0.003138111
0.9895231,0.06995142,0.2342035,-0.00459977,-0.004301427,0.0009104624
0.9890213,0.06817908,0.2346482,-0.006991263,-0.001267557,0.001043155
0.9906722,0.06962016,0.2382625,-0.007967317,0.004017652,-0.00266237
0.9936105,0.07397395,0.2392384,-0.002281035,0.00189672,-0.004822164
0.9942158,0.07022396,0.2391475,0.002978304,0.002270479,-0.003510234
0.9944103,0.06809108,0.2390178,0.0001770841,0.004904311,-0.00455846
0.9947251,0.07128472,0.2407197,-0.001027599,0.003283543,-0.002919569
0.994008,0.07084024,0.2435045,0.0006420666,0.001202085,-0.0007067425
0.9936322,0.07059371,0.2431572,0.0006810339,0.0006535047,-0.0008050319
0.992876,0.07007902,0.2425424,0.001743471,-0.00127793,-0.0001768841
0.9922369,0.06892589,0.2412152,0.003597237,-0.001064117,-0.0006281821
0.9912769,0.06962671,0.2388959,0.003211138,0.0006440672,0.0004825783
0.990751,0.0692525,0.2396011,-0.0008361966,-0.001210015,0.00119666
0.9943856,0.06851789,0.241652,-0.0027126,-0.002729138,-0.002543886
0.9956863,0.06783907,0.2417273,-0.0003144001,-0.003100176,-0.005073416
0.9925187,0.06785639,0.2396422,-0.001168071,-0.003047373,-0.005212163
0.9926948,0.06838749,0.2393875,-0.001642125,-0.003710449,-0.005624473
0.9928149,0.0678318,0.2442203,0.002376972,-0.005531695,-0.006510886
0.9916081,0.06826622,0.2487129,0.003898634,-0.003212394,-0.007130814
0.9928196,0.06889019,0.2458194,0.00186656,-0.0004355837,-0.00532388
0.9925782,0.06882234,0.2409517,-0.0008072558,0.0001889828,-0.001368255
0.9928649,0.06947179,0.2397542,-0.0009500872,0.0019275,-8.294057e-05
0.994835,0.07200578,0.2365407,-1.399448e-05,0.002841604,-0.001058755
0.9951804,0.07430266,0.2350703,-0.002139266,0.003366748,0.001453792
0.9961692,0.07105314,0.2379049,-0.001312686,0.006213382,0.002932313
0.9957414,0.06821041,0.2374853,0.0007196204,0.008910424,0.001798232
0.9931689,0.07155578,0.2377036,-0.0007599712,0.005721834,0.0008748393
0.9911189,0.07304571,0.2392841,-0.000169055,0.002971254,-0.002112652
0.9894303,0.07062416,0.2389271,-0.0008951717,0.005227137,-0.00295078
0.9906481,0.06865558,0.2393389,-0.00282769,0.003723414,-0.004929916
0.9922325,0.0677996,0.2404148,-0.001246852,0.003353593,-0.005690379
0.9914336,0.0688321,0.2425661,-0.0007149061,0.007473449,-0.001911218
0.9911129,0.06965367,0.2428779,0.0007035007,0.007908785,-0.006217392
0.9913809,0.0675993,0.2421904,0.002202387,0.002474664,-0.007077457
0.9922805,0.06606289,0.2420186,-0.001059961,-0.003622903,9.533133e-05
0.9923789,0.06758314,0.239317,-0.002290187,0.001829373,0.002538878
0.9916522,0.06866342,0.2399462,0.001764432,0.00960031,0.00241471
0.9902276,0.06770374,0.2411912,0.005663515,0.007004536,-0.002369659
0.9879362,0.06737306,0.2396809,0.00467797,0.00650535,-0.004236799
0.9897825,0.06821986,0.2416423,0.0012988,0.006297728,-0.002365608
0.9914519,0.06886061,0.2430081,0.001156071,0.00322544,-0.004546413
0.9901333,0.06820872,0.2433622,0.0007414483,0.004832403,-0.005995328
0.9903596,0.06821995,0.2448206,-0.0005836038,0.00512799,-0.009036956
0.9886192,0.07191174,0.2445743,0.0006378874,0.003985359,-0.00703899
0.9882822,0.07467196,0.2443407,0.001381449,0.004462494,-0.003517697
0.990677,0.07277057,0.2440278,0.001853973,0.003080337,-0.007257142
0.9901326,0.07125303,0.243105,0.00216869,0.001333216,-0.006747798
0.9904335,0.07154959,0.2423998,0.001061498,0.0002671723,-0.005962961
0.9915801,0.07042655,0.2421016,0.00017034,0.0006134359,-0.006864122
0.9923091,0.06863646,0.2410366,-0.001394893,0.002487005,-0.006145102
0.9928374,0.06785556,0.2413626,-0.001199364,0.00356836,-0.007638735
0.990992,0.06870344,0.2476735,0.001895096,0.003726773,-0.007108335
0.9903069,0.07289059,0.2512408,0.004310365,0.002811375,-0.006525712
0.9896705,0.07733303,0.2461497,0.005502604,0.001989573,-0.0052916
0.9881021,0.07659946,0.2411167,0.003410154,0.002359411,-0.002545421
0.98909,0.07386803,0.239175,-0.001021194,0.001450298,-0.003793824
0.9895021,0.07334319,0.2373855,-0.003565855,-0.001035226,-0.006051238
0.9904576,0.07356058,0.2376445,-0.002696191,-0.0025999,-0.008166909
0.9933938,0.0737078,0.2406473,0.0005363812,-0.002281114,-0.00932964
0.9934611,0.07291238,0.239285,0.0006767302,-0.002090823,-0.008546022
0.9930052,0.06993449,0.2351317,0.0004283801,-0.003494557,-0.009727764
0.9950212,0.06724292,0.235015,0.002590108,-0.00274205,-0.01154233
0.9960405,0.06848861,0.2372149,0.001794645,0.003768393,-0.01137166
0.9937996,0.07086663,0.2408953,0.00167585,0.01190995,-0.01028602
0.9907589,0.07278605,0.2408768,0.002391849,0.01217256,-0.008282926
0.9918248,0.08126725,0.238299,0.000757185,0.005068278,-0.001717383
0.995842,0.08963687,0.2398427,-0.001662586,0.00201757,0.01513041
0.9973217,0.08624887,0.2413994,-0.006304869,0.003967511,0.04124018
0.9957466,0.08205634,0.2439988,-0.007008341,0.005316386,0.06269456
0.9916252,0.07925092,0.2453423,-0.003107504,0.00438325,0.06977302
0.9845258,0.07101553,0.2437519,-0.002534619,0.0009895379,0.06872992
0.9809449,0.07076901,0.2460603,-0.004201051,0.001796858,0.06836291
0.9890695,0.07661512,0.250334,-0.006572047,0.01422747,0.07628527
1.002856,0.07837318,0.2536206,-0.009413744,0.03992695,0.09108406
1.008435,0.08592453,0.2499369,-0.01653308,0.06539748,0.1029614
1.005308,0.09435355,0.2436097,-0.02688282,0.06945414,0.1094102
1.002605,0.0969582,0.2423624,-0.03042411,0.06156163,0.1116269
0.9972018,0.09921008,0.2343633,-0.03728755,0.05540467,0.1193406
0.980613,0.09473933,0.2299669,-0.06007656,0.03437913,0.1322941
0.9153844,0.4209765,0.08874726,-0.04580233,0.004636607,0.178123
0.9105421,0.4199054,0.09084927,-0.04613808,0.006771958,0.1791224
0.9069941,0.4192297,0.09343913,-0.04423394,0.009684729,0.181646
0.9091759,0.4209078,0.09564436,-0.04324118,0.009510717,0.1854985
0.9128999,0.41837,0.09198494,-0.04323205,0.0119924,0.1868343
0.9124303,0.4150308,0.09089323,-0.0453693,0.0173686,0.1801132
0.9124768,0.4114238,0.09155551,-0.04663139,0.01631716,0.1750364
0.9127397,0.4089769,0.08882431,-0.04439955,0.01463704,0.1732475
0.911923,0.4098,0.08622077,-0.04260029,0.01538657,0.1698047
0.9121438,0.4089873,0.08569524,-0.04471052,0.01424451,0.1683395
0.9114087,0.4080376,0.08959095,-0.0467327,0.01161274,0.1641953
0.9116566,0.4107103,0.09526612,-0.04438155,0.008889737,0.1587651
0.9114455,0.4140631,0.09587771,-0.04209614,0.009761044,0.1541711
0.9105543,0.4171095,0.0939576,-0.04014435,0.01323686,0.1494006
0.9124804,0.4188828,0.09801082,-0.03586169,0.01408609,0.147884
0.913513,0.4171493,0.1012555,-0.03312452,0.01238032,0.1456128
0.9161448,0.4132638,0.0959084,-0.03282878,0.01073732,0.1449272
0.9211931,0.4099867,0.09293325,-0.03288027,0.01110966,0.14485
0.9205392,0.4105426,0.09450705,-0.03160424,0.01144284,0.1414776
0.9143923,0.4120617,0.09387113,-0.02882716,0.007172665,0.1392712
0.9082529,0.4106892,0.09259888,-0.02468902,-0.002275399,0.1359869
0.9079507,0.4117743,0.09245789,-0.0207251,-0.01145179,0.134978
0.9135564,0.4168302,0.09067782,-0.02192452,-0.01002283,0.1344234
0.9166758,0.4225441,0.0841117,-0.02430885,-0.003375579,0.1312827
0.9155424,0.4257308,0.07997327,-0.02626279,-0.002147987,0.1330825
0.9157376,0.4249546,0.08192781,-0.03326791,0.004094244,0.1327966
0.9181709,0.4253989,0.08168259,-0.03840858,0.01218081,0.1310729
0.9185522,0.4219744,0.07963519,-0.03948404,0.01463177,0.1297457
0.9174221,0.4117535,0.0795792,-0.04100516,0.02010883,0.1230404
0.9173532,0.4091393,0.0796974,-0.03912937,0.02583193,0.1200797
0.9159323,0.4127227,0.08089056,-0.03593348,0.03169679,0.1181843
0.9132953,0.4151942,0.08481401,-0.03627843,0.03205208,0.1173753
0.9103455,0.4201941,0.08745418,-0.03771644,0.02655814,0.120984
0.9082476,0.4224372,0.08782369,-0.03788837,0.02681196,0.1191202
0.9084946,0.4209687,0.09066421,-0.03810628,0.02012997,0.1192819
0.9074451,0.4208828,0.09599117,-0.03638921,0.01283158,0.1215764
0.9070847,0.4184042,0.1003294,-0.03099569,0.01060846,0.1203269
0.9085339,0.4152762,0.09903289,-0.0273687,0.003809339,0.1225822
0.9079731,0.4168231,0.09592742,-0.02482013,0.007502421,0.1218869
0.9084812,0.4188428,0.0957069,-0.02305537,0.009842884,0.1184385
0.9089819,0.4203494,0.09207947,-0.02485393,0.005699715,0.1180363
0.9097455,0.4227905,0.08982544,-0.02585457,0.00833768,0.1173024
0.9131984,0.4199232,0.0899542,-0.02660532,0.005454901,0.1203227
0.913738,0.4160819,0.08633043,-0.02409755,0.005516901,0.1236441
0.9131009,0.4172007,0.08701054,-0.01794905,0.009699604,0.1206564
0.9115566,0.4154747,0.08858317,-0.01725569,0.007333733,0.1193469
0.9077591,0.4143381,0.08686894,-0.01817428,0.005997482,0.1195716
0.909295,0.4176315,0.08862223,-0.01866057,0.002517214,0.1168372
0.9135393,0.4171258,0.08922405,-0.02066924,-0.001168023,0.1177331
0.9152856,0.4163604,0.08731244,-0.02194947,-0.0003089571,0.1185783
0.9155661,0.4201988,0.08560688,-0.02591764,0.000388744,0.1152805
0.9141037,0.4234515,0.08399101,-0.02895195,-0.001208233,0.1126054
0.9135677,0.4238003,0.08473496,-0.02770217,-0.002118513,0.1079875
0.9138504,0.4213959,0.08471901,-0.02901492,-0.0002354173,0.1052939
0.9127705,0.4180499,0.08295675,-0.03375683,0.0005763996,0.104787
0.9113675,0.4165032,0.08333057,-0.03678644,0.004327865,0.1030405
0.9107018,0.4150878,0.08687133,-0.03696868,0.006145292,0.1053038
0.9113936,0.4121244,0.0941693,-0.0359272,-0.001606081,0.104389
0.912326,0.4090741,0.1008232,-0.03124788,-0.00671881,0.09824549
0.9136341,0.4074229,0.09833093,-0.02385416,-0.00423413,0.09334637
0.9153046,0.4075655,0.08967891,-0.01951569,0.0007455751,0.09187743
0.9154229,0.410399,0.08560544,-0.01622442,0.003846328,0.09474444
0.9150327,0.4148599,0.08512981,-0.01353872,0.0056716,0.09400625
0.9135359,0.4157644,0.08293002,-0.01580463,0.005536678,0.09152441
0.9090838,0.4163176,0.08080516,-0.01713534,-0.002320396,0.09042078
0.9064381,0.4219776,0.07995263,-0.01302896,-0.008390579,0.08824041
0.9112234,0.4248836,0.07957699,-0.01117209,-0.002346628,0.088003
0.9170679,0.4224223,0.08076289,-0.01471548,0.007091199,0.08549802
0.9150607,0.4201505,0.0845308,-0.01900483,0.008958754,0.08501416
0.9114915,0.4179572,0.08540446,-0.02022227,0.01077677,0.08764447
0.9114978,0.4160677,0.08217776,-0.01872582,0.01563798,0.08370077
0.9123877,0.4162361,0.08197542,-0.01857649,0.01097356,0.07975999
0.9143464,0.4175965,0.08374834,-0.01890865,0.006655463,0.07913553
0.9125661,0.4185069,0.0852198,-0.01809429,0.009980857,0.07831779
0.9099471,0.420894,0.0851917,-0.01910439,0.01070048,0.08010407
0.9133804,0.4236135,0.08394563,-0.0227105,0.0124444,0.0814509
0.9147714,0.4231562,0.08517821,-0.02647729,0.01459007,0.07806913
0.9132845,0.4220343,0.08480837,-0.0254997,0.01374392,0.0735998
0.9129366,0.4203483,0.08423609,-0.02210726,0.0139758,0.07105723
0.9112995,0.4196944,0.08529988,-0.0218826,0.01438258,0.07044853
0.9107531,0.4190572,0.08433318,-0.02017676,0.01368884,0.07444175
0.9112315,0.4153404,0.08478656,-0.01703819,0.01257968,0.0791856
0.9111235,0.416414,0.08513168,-0.01630192,0.01212046,0.07823719
0.9111209,0.419089,0.08541155,-0.01588257,0.01234702,0.07607503
0.9110287,0.4191754,0.08781276,-0.01620157,0.01277131,0.07525333
0.9112216,0.4217709,0.08839669,-0.01662197,0.01343098,0.07236398
0.9114024,0.421141,0.08762211,-0.01565144,0.01307256,0.06963646
0.9128748,0.4199434,0.08472745,-0.01309842,0.009215793,0.06954859
0.9140028,0.421781,0.08280395,-0.01072851,0.005041493,0.06951237
0.9112871,0.4214276,0.08704428,-0.0121049,0.007325291,0.07040484
0.9089526,0.4221522,0.08952109,-0.0133215,0.01021982,0.07239231
0.9118893,0.4218525,0.08443721,-0.01257074,0.009230734,0.07123084
0.9163947,0.4197547,0.08060429,-0.01346258,0.008963145,0.06994913
0.916893,0.4203613,0.08548108,-0.01646792,0.006928055,0.07106438
0.9147615,0.4202954,0.08927766,-0.01867088,0.004767555,0.07050622
0.9132801,0.4206191,0.08526851,-0.01630518,0.007267631,0.06757028
0.9136607,0.4216243,0.08354606,-0.01555871,0.009973618,0.062301
0.914422,0.4211156,0.08528532,-0.01711822,0.009184496,0.05718959
0.9135707,0.421981,0.08473861,-0.0154188,0.007272537,0.05563209
0.9139967,0.4223855,0.08393608,-0.01603802,0.008124481,0.05591545
0.9149435,0.4216911,0.08226002,-0.01659645,0.01028062,0.05861424
0.914106,0.4210528,0.07929954,-0.01624117,0.01056628,0.06166457
0.9130422,0.4199278,0.07894579,-0.01753684,0.01020961,0.06026086
0.911932,0.4206255,0.08098043,-0.01369079,0.009532866,0.05891686
0.9126793,0.4214398,0.08413367,-0.01068911,0.009590234,0.06027298
0.9138077,0.4232841,0.08697908,-0.01341602,0.01133618,0.05941597
0.9136916,0.4266052,0.08702923,-0.01506037,0.01179903,0.05796342
0.9128239,0.4263912,0.08680452,-0.014055,0.01058708,0.05752804
0.9065749,0.426304,0.08470983,-0.01301317,0.008107221,0.05405745
0.9011557,0.4267256,0.07809905,-0.01286634,0.003533029,0.05232085
0.9060291,0.4258943,0.07463479,-0.01114778,0.002593735,0.05401489
0.9118195,0.4266021,0.07516487,-0.01149685,0.01190181,0.05244557
0.9106587,0.4250545,0.07626286,-0.01503492,0.02077688,0.05216924
0.9102123,0.4225152,0.07957678,-0.01594448,0.01485149,0.05393607
0.9112331,0.4212893,0.08137846,-0.01450185,0.008666198,0.05244123
0.9089558,0.4215747,0.08056151,-0.01193008,0.01382672,0.05294984
0.9093794,0.4259493,0.08046245,-0.01098005,0.01467322,0.05575363
