accx,accy,accz,gyrox,gyroy,gyroz
0.9246082,0.2003332,0.3788117,-0.06011569,-0.07807279,0.06551238
0.9232621,0.2040641,0.3770531,-0.06225851,-0.07730245,0.0715161
0.9217182,0.2052546,0.3781237,-0.06388194,-0.07696806,0.07499897
0.9230597,0.2080004,0.378432,-0.06275778,-0.07584911,0.07226124
0.9240472,0.2097211,0.381294,-0.0640714,-0.07618795,0.06974067
0.9225591,0.2110955,0.3841283,-0.06999243,-0.07709117,0.07313396
0.9218267,0.2134198,0.381572,-0.07921267,-0.07644918,0.07628568
0.9227917,0.2106087,0.3774555,-0.09022354,-0.07607552,0.07887593
0.9250814,0.2081378,0.3764256,-0.0983342,-0.07518922,0.08442656
0.9270329,0.2084956,0.3738232,-0.09649015,-0.07414439,0.08449455
0.9265829,0.2065951,0.3699773,-0.08275282,-0.07221446,0.07595616
0.9244115,0.2075145,0.3769096,-0.06610027,-0.06836967,0.07009842
0.9216807,0.2102328,0.390417,-0.04939658,-0.06858391,0.07814555
0.9167643,0.2098567,0.3976195,-0.04026069,-0.06940664,0.08645794
0.9112178,0.2112257,0.3969963,-0.03686457,-0.06797611,0.07804052
0.9078295,0.2151266,0.3959971,-0.02402584,-0.07008941,0.07211472
0.9071948,0.2176845,0.3973762,-0.01861954,-0.07541146,0.0776616
0.9142619,0.2170213,0.3931222,-0.01940443,-0.08760317,0.07957271
0.9252839,0.2149911,0.3884506,-0.0133464,-0.1094413,0.08390032
0.9303241,0.2126207,0.3861279,-0.01747402,-0.1235205,0.08765368
0.9296623,0.2084948,0.3760987,-0.03100384,-0.1113182,0.07515765
0.9234655,0.2083657,0.3688768,-0.05284648,-0.09726198,0.06472349
0.9187181,0.209428,0.3691876,-0.06799395,-0.1086095,0.07422228
0.9277667,0.2060389,0.3657337,-0.0608553,-0.1169225,0.08073851
0.9362576,0.2083978,0.3650588,-0.06502265,-0.1141323,0.0681883
0.9263315,0.2124423,0.370803,-0.0806888,-0.1190293,0.05993469
0.9188381,0.2102159,0.3756984,-0.08239209,-0.1166687,0.06451394
0.9285884,0.2084073,0.3793697,-0.07831912,-0.1067382,0.06346275
0.933478,0.2037152,0.382965,-0.06693995,-0.1061358,0.06395587
0.9295154,0.2048111,0.3856378,-0.03553292,-0.1314997,0.08641174
0.9293544,0.2294078,0.3833168,-0.01017061,-0.1651727,0.1226625
0.9277959,0.2449641,0.3797718,-0.03436239,-0.1556406,0.1305814
0.9272232,0.203865,0.3798363,-0.07625126,-0.1409064,0.08162991
0.9330861,0.1567363,0.3760697,-0.08995509,-0.1444933,0.02382406
0.9344851,0.1744986,0.3704662,-0.09683558,-0.1082223,0.0226741
0.9337936,0.197161,0.3681164,-0.08434892,-0.06829558,0.06277554
0.9399313,0.192763,0.3702942,-0.0490738,-0.06498789,0.08434165
0.939767,0.207708,0.3759442,-0.03882916,-0.05754651,0.07139382
0.9332828,0.2108474,0.3725702,-0.04109371,-0.039231,0.06222296
0.9332957,0.2120851,0.3644784,-0.04361009,-0.03051977,0.07745664
0.9331526,0.2360075,0.361029,-0.0546907,-0.03639948,0.09181214
0.9325472,0.2329545,0.3603394,-0.06306413,-0.04565466,0.09891513
0.9314276,0.2298814,0.3678533,-0.0897512,-0.06394048,0.1029954
0.9276602,0.2362862,0.376131,-0.1351682,-0.08779685,0.09586448
0.932341,0.2194987,0.3782723,-0.1763906,-0.08520428,0.09116405
0.9423404,0.2056268,0.3759879,-0.197599,-0.06729248,0.09232799
0.9469541,0.1969349,0.3694971,-0.1908076,-0.04777676,0.1081933
0.933796,0.2005151,0.3666265,-0.1875029,-0.03592279,0.1401015
0.9107391,0.2094023,0.3594269,-0.1811459,-0.0556861,0.1404841
0.9105156,0.1990645,0.3518768,-0.1515386,-0.07777448,0.1267123
0.9217784,0.1889068,0.3592684,-0.1203681,-0.07783473,0.1325671
0.9238123,0.1670417,0.3705604,-0.08415342,-0.07443259,0.1281352
0.9241709,0.1468725,0.3803193,-0.05310115,-0.08082113,0.1136507
0.9212143,0.1520804,0.3789537,-0.04524297,-0.1063191,0.08211324
0.9199912,0.1417555,0.3672784,-0.04521611,-0.1311733,0.04158062
0.9231642,0.128847,0.3628747,-0.04208289,-0.1212894,0.04173432
0.9283284,0.1441803,0.3579058,-0.02697298,-0.09302131,0.05905893
0.9353526,0.1629488,0.3569563,-0.004500842,-0.06071666,0.0604902
0.9304322,0.1752517,0.3622521,0.02148725,-0.02190286,0.06157416
0.9226536,0.1863718,0.3648019,0.05218053,-0.02334734,0.06418977
0.9270681,0.1928826,0.3736895,0.05951015,-0.04097917,0.0643364
0.9344879,0.2033325,0.3766665,0.04623735,-0.02606144,0.05477411
0.9426791,0.2152984,0.3701167,0.04745177,-0.0466331,0.03785059
0.9429543,0.2000084,0.3617986,0.04542524,-0.07189816,0.02993856
0.9334856,0.1819382,0.3473209,0.01164521,-0.04558186,0.02047186
0.9313565,0.1959096,0.3455204,-0.0239176,-0.03602688,0.01149646
0.9303192,0.2027538,0.3531205,-0.02374305,-0.03350224,0.02646482
0.9295231,0.1971043,0.3564625,-0.002224093,-0.02559328,0.04691654
0.9355454,0.1981927,0.3682148,0.005515945,-0.03177584,0.05019148
0.9329177,0.1884173,0.3753575,0.003088994,-0.03098046,0.03915463
0.9298347,0.1811911,0.3731917,0.0002534385,-0.04408833,0.02186866
0.9345865,0.1863449,0.3749795,-0.009960272,-0.06133312,0.0180545
0.9327391,0.1910595,0.3695839,-0.01158495,-0.06022973,0.02494043
0.931058,0.1987291,0.3621088,-0.009484475,-0.05767468,0.02552438
0.9309362,0.2044012,0.3638366,-0.01731286,-0.05886844,0.02259944
0.9293985,0.2040466,0.3631275,-0.01839457,-0.05971189,0.02148533
0.9315472,0.2052331,0.3572627,-0.01815194,-0.04566016,0.03043773
0.92979,0.2068956,0.3535297,-0.02481751,-0.0331869,0.04211335
0.92734,0.2053207,0.3588355,-0.02924062,-0.04061321,0.04157638
0.9266592,0.2041676,0.3674737,-0.02270995,-0.05413128,0.03463966
0.9270485,0.2020676,0.3684967,-0.01723495,-0.06390599,0.0188447
0.9335133,0.1970298,0.3707441,-0.03270583,-0.0554843,0.0009415521
0.9351312,0.196098,0.37181,-0.04514973,-0.03421797,0.00658357
0.9299581,0.199185,0.3644333,-0.04361704,-0.01967888,0.02420704
0.9260693,0.2034652,0.361,-0.04509196,-0.01722056,0.03215098
0.9250725,0.2037,0.3617877,-0.04528645,-0.01819107,0.03815389
0.9249547,0.199424,0.365187,-0.04008299,-0.01712415,0.03944235
0.9223848,0.2001747,0.3705263,-0.03349438,-0.03246563,0.04176918
0.9254087,0.1989194,0.3698241,-0.02832785,-0.05790113,0.051919
0.9335146,0.1930862,0.3694694,-0.0197309,-0.06409511,0.04345615
0.9376116,0.189818,0.3675613,-0.0168342,-0.04878271,0.0336926
0.9321566,0.1925589,0.3616499,-0.02518351,-0.0334523,0.04425176
0.9230151,0.2022705,0.3634997,-0.03157252,-0.0286297,0.04904528
0.9304268,0.2035117,0.3653603,-0.04587338,-0.01796425,0.0487747
0.9374271,0.1962311,0.3629346,-0.06084468,-0.006146041,0.03958946
0.9303221,0.1897198,0.365044,-0.0647251,0.003706334,0.02183069
0.9319387,0.1859885,0.366334,-0.06780975,0.02071823,0.02386217
0.9349098,0.1942881,0.3658109,-0.05565137,0.0169198,0.03699298
0.9329434,0.2038093,0.3656395,-0.03961006,0.003360225,0.04585354
0.9304632,0.2078561,0.3634093,-0.04671953,-6.85094e-07,0.04893806
0.9240074,0.2097743,0.3657028,-0.05246332,-0.02032338,0.04699086
0.925749,0.2014797,0.3712262,-0.04302732,-0.0367622,0.04888089
0.9282695,0.1941799,0.3721146,-0.03711157,-0.03629533,0.04920471
0.9249059,0.1965657,0.3699738,-0.03383826,-0.03487506,0.04633799
0.9271857,0.1967147,0.3669769,-0.03679708,-0.02517446,0.043128
0.9286153,0.1922327,0.3679576,-0.04824006,-0.02360508,0.03659891
0.9290847,0.1923942,0.3723356,-0.04227083,-0.02373197,0.0339846
0.9309638,0.1953883,0.3740528,-0.02748346,-0.01675675,0.03005535
0.9300977,0.1948171,0.3763179,-0.02379457,-0.02435279,0.01991274
0.9304345,0.1963842,0.3779802,-0.02500468,-0.0325509,0.01572853
0.9284276,0.1976297,0.3788621,-0.03306882,-0.03581983,0.01666111
0.9240579,0.198313,0.3789115,-0.03426213,-0.0360131,0.02216895
0.9234333,0.2010891,0.3739098,-0.02056812,-0.02979751,0.02800485
0.9255952,0.1974214,0.3724937,-0.005531146,-0.02791416,0.01808468
0.9290758,0.1933879,0.3728651,0.001103131,-0.02131109,0.006665827
0.9300112,0.1937912,0.368788,-0.003741075,-0.02042659,0.007849397
0.9301451,0.1969381,0.3674426,-0.01028317,-0.03158176,0.005191074
0.9335168,0.201874,0.3678763,-0.02004862,-0.03156744,0.0006714025
0.9347404,0.1986709,0.3690691,-0.02069513,-0.02776032,0.0003226378
0.9329036,0.1934453,0.3717121,-0.007035477,-0.0235913,-0.008079781
0.931784,0.193495,0.3742296,-0.005746184,-0.0151644,-0.01684951
0.9308133,0.1967564,0.3745963,-0.006329777,-0.01372727,-0.01529272
0.9278889,0.2068933,0.3729946,-0.005621483,-0.01476644,-0.004692741
0.92431,0.214379,0.3769895,-0.01003323,-0.01513922,0.01272655
0.9230418,0.2128647,0.3809379,-0.008269353,-0.01992597,0.01781475
0.9237757,0.2115424,0.3800962,-0.0108067,-0.02324741,0.0141098
0.9259477,0.2113853,0.3780863,-0.01174066,-0.01723242,0.02251231
0.9279211,0.2083431,0.3713172,-0.0110981,-0.01090735,0.02753114
0.9287251,0.2058496,0.3669156,-0.01519152,-0.01359614,0.02395676
0.928437,0.2079248,0.3688109,-0.01388181,-0.01576306,0.0255094
0.9264626,0.2091905,0.3704476,-0.01565307,-0.01960094,0.03082768
0.9259843,0.207664,0.3716911,-0.01283683,-0.0266195,0.03627506
0.9266293,0.2074956,0.3740281,-0.006990473,-0.02002004,0.03695039
0.9263053,0.206514,0.3763563,-0.01315793,-0.01127158,0.03586452
0.9264161,0.2047911,0.3758563,-0.01594695,-0.01629672,0.03778198
0.9263704,0.2038469,0.3767969,-0.01377618,-0.01823669,0.03834348
0.9267466,0.2023366,0.3782469,-0.01327636,-0.01661209,0.03669995
0.928216,0.2001826,0.3770752,-0.0119223,-0.0191928,0.03127441
0.9287362,0.1987495,0.3814928,-0.01010093,-0.01416923,0.02713636
0.9250155,0.2037509,0.3852073,-0.008551023,-0.01009768,0.03265224
0.920542,0.2103458,0.3819739,-0.008918744,-0.01826448,0.03847384
0.9237005,0.2077984,0.3771029,-0.006375741,-0.02559851,0.03599805
0.9295168,0.2027043,0.3681159,-0.003338319,-0.02443674,0.03495773
0.931191,0.2008664,0.3613115,-0.002907611,-0.01683195,0.03791293
0.9309809,0.2006874,0.3628742,-0.0022567,-0.01150389,0.03644814
0.9298778,0.2024548,0.3644328,-0.003852627,-0.01426421,0.03427774
0.9296548,0.2031373,0.3669114,-0.004636452,-0.01735161,0.03347089
0.9289808,0.2039963,0.3727562,-0.005141092,-0.01904188,0.03294165
0.9269461,0.2037848,0.3720439,-0.006720363,-0.02264571,0.03429906
0.9271923,0.1999349,0.3701784,-0.007831355,-0.02244206,0.03075761
0.9278406,0.2003808,0.375377,-0.0108862,-0.01825726,0.02688858
0.9280917,0.2049276,0.3758253,-0.0101848,-0.0174545,0.02822176
0.9283949,0.2079254,0.3741887,-0.006520217,-0.01639225,0.02797405
0.927343,0.2075773,0.3763,-0.00723683,-0.01503675,0.02752825
0.9262593,0.2045596,0.3741678,-0.01014585,-0.01638689,0.02616575
0.9264075,0.2038843,0.3712877,-0.01251837,-0.01340262,0.02306452
0.9294152,0.202619,0.3702952,-0.01281047,-0.01229746,0.0220926
0.9313653,0.2016885,0.3718448,-0.01201435,-0.01695953,0.02277948
0.9292881,0.2023999,0.3779469,-0.01222882,-0.0189595,0.02621211
0.9276885,0.1979699,0.3826063,-0.01252448,-0.01734376,0.0287144
0.9266312,0.1960182,0.3809625,-0.01247455,-0.01484333,0.02633277
0.9261518,0.1978501,0.3726241,-0.01263051,-0.0177844,0.02416409
0.9269961,0.1978769,0.3670132,-0.01359724,-0.02019155,0.02474021
0.9290103,0.2017683,0.3669481,-0.01414392,-0.01545599,0.02335052
0.9314886,0.2048391,0.3647924,-0.01395817,-0.01113063,0.01793004
0.9305796,0.200981,0.365478,-0.01372142,-0.007518323,0.01428008
0.9287156,0.1969183,0.3712077,-0.01229472,-0.008222696,0.01499669
0.927505,0.199294,0.3727728,-0.008331252,-0.0109799,0.01596472
0.9263915,0.2015317,0.3686021,-0.004127325,-0.009200791,0.0147316
0.9298011,0.1986973,0.367008,-0.005458546,-0.008990358,0.01265851
0.9331782,0.198059,0.3682754,-0.008489605,-0.007891686,0.01213852
0.9298822,0.1964117,0.3704065,-0.009810336,-0.006383272,0.01344956
0.9260314,0.1945424,0.3727043,-0.01321529,-0.006437653,0.01439097
0.9264117,0.1968958,0.3686555,-0.01071524,-0.00400664,0.01345148
0.9275972,0.1969376,0.3675835,-0.005957453,-0.004899365,0.01293019
0.9288157,0.1990256,0.3694556,-0.01068472,-0.007050512,0.01310587
0.9296905,0.2020268,0.3659988,-0.01286186,-0.006528127,0.01274266
0.9289505,0.2004033,0.3660672,-0.01021928,-0.005873293,0.01390876
0.9289113,0.2006585,0.3638875,-0.01047857,-0.003810825,0.01586871
0.9284905,0.2016773,0.3640972,-0.00900673,-0.003358363,0.01680745
0.9272923,0.2016435,0.3693766,-0.008835109,-0.004562047,0.01636362
0.9281496,0.2022496,0.3668058,-0.01202087,-0.007908719,0.01612048
0.929765,0.2023524,0.3687071,-0.01281761,-0.01244289,0.0178291
0.9309166,0.2004629,0.3710615,-0.008715358,-0.009535782,0.01799925
0.9308498,0.197408,0.3688202,-0.004004605,-0.006267613,0.01634029
0.9299681,0.1980231,0.3749234,-0.00688803,-0.008552625,0.01664075
0.929647,0.1976808,0.3823609,-0.01080645,-0.008088394,0.02005102
0.9282969,0.194598,0.3855099,-0.00920371,-0.007204914,0.02363102
0.927867,0.1954565,0.3792251,-0.007986025,-0.008043452,0.02129002
0.9295621,0.1946986,0.3693698,-0.00588104,-0.006723734,0.01482048
0.9310515,0.1922452,0.3694248,-0.004837873,-0.005374915,0.01123239
0.9329951,0.1949001,0.3697899,-0.007148116,-0.006571599,0.01194033
0.9326337,0.1965152,0.3690981,-0.006468644,-0.01063124,0.01314988
0.930642,0.1937969,0.3710055,-0.006395127,-0.01108796,0.0104047
0.9315121,0.1931587,0.3716943,-0.008868655,-0.00288511,0.008335608
0.9306523,0.197609,0.3724975,-0.008146418,0.00258007,0.01057714
0.9295091,0.2020093,0.3713459,-0.005049774,-0.000962439,0.01242391
0.9304866,0.2020576,0.3698765,-0.002753406,-0.004396311,0.01454716
0.9282695,0.2023443,0.3694886,-0.005373862,-0.006516838,0.01437525
0.9269512,0.203439,0.368381,-0.009488957,-0.01316617,0.009996715
0.9268516,0.2013262,0.3694352,-0.008881913,-0.01937883,0.008714285
0.9264093,0.1996086,0.3700461,-0.01069677,-0.01826393,0.007444174
0.9286697,0.1980505,0.3691407,-0.01208471,-0.0169753,0.003685165
0.9277379,0.1943426,0.3709543,-0.005267758,-0.0190754,0.004345876
0.9263017,0.1930193,0.3740081,-0.002074215,-0.01788314,0.007568953
0.9279767,0.1934219,0.3756371,-0.001994994,-0.01513275,0.01006275
0.9285983,0.195341,0.3743894,0.004303705,-0.01312275,0.01303836
0.9309499,0.2005905,0.3694848,0.006007583,-0.00952264,0.01618838
0.9328025,0.204311,0.3642267,0.002288244,-0.005365642,0.01925257
0.9329953,0.2039871,0.3628815,0.002352066,-0.003306907,0.01925014
0.9321755,0.2003604,0.3660474,0.004436279,-0.001679652,0.01832025
0.9293992,0.1970048,0.3704058,0.009815162,0.00344812,0.02377619
0.930665,0.1967139,0.373113,0.01291561,0.00654393,0.02828768
0.9320282,0.1953502,0.3726889,0.005163413,0.006774357,0.02534241
0.9305523,0.1925645,0.3699313,-0.002114655,0.00734561,0.0217182
0.9306057,0.191604,0.3686281,0.001325799,0.001958509,0.01778427
0.9293943,0.1931623,0.3696001,0.008049528,-0.005168995,0.01126348
0.9294013,0.195321,0.3745948,0.01100042,-0.009367391,0.003096114
0.9320875,0.1946337,0.379677,0.01089088,-0.01524064,-0.001610867
0.9335481,0.1948756,0.3767843,0.008069963,-0.02207375,0.001050271
0.9320817,0.2002606,0.3726861,0.006559861,-0.02619875,0.004889201
0.9292984,0.2040286,0.3688301,0.00640208,-0.02419461,0.008577731
0.9307394,0.201159,0.3652876,0.002447252,-0.0203789,0.01027619
0.9323924,0.1969675,0.3688749,0.001143164,-0.01625766,0.008610207
0.9322983,0.1947606,0.3689809,0.004034085,-0.009198161,0.009539477
0.9339403,0.1914505,0.3666227,0.005632192,-0.004030158,0.008612488
0.932429,0.1895589,0.3685037,0.005017504,0.001991493,0.00662854
0.9315063,0.1909152,0.3651848,0.003230627,0.01134527,0.007525049
0.9342483,0.1901388,0.3638668,0.004525023,0.01706766,0.00544607
0.9350754,0.1902107,0.3708956,0.004478695,0.01446732,0.00306982
0.9338211,0.1932635,0.3769631,0.00223388,0.009790542,0.001625098
0.9287711,0.1957859,0.3758742,0.001663311,0.009558749,0.0008435487
0.9229422,0.1990546,0.3714158,-0.001473282,0.005885519,0.001751085
0.9227047,0.2010088,0.3719387,-0.004250848,-0.0008128825,0.0001668611
0.9250142,0.2016978,0.3712861,-0.005289544,-0.005079293,0.0007041667
0.9271971,0.1977844,0.3694814,-0.005115971,-0.007376309,0.003348945
0.9298188,0.1900079,0.371168,-0.003923573,-0.008298222,0.004028733
0.930007,0.1930101,0.3678069,-0.004657342,-0.01333078,0.005257366
0.9285845,0.197373,0.3664524,-0.002600003,-0.0138797,0.002641687
0.9313269,0.1938051,0.3700433,-0.0001756669,-0.00764661,-0.0002519742
0.9340947,0.1937151,0.370501,-0.0002753374,-0.00435795,0.002901098
0.934119,0.1933645,0.3727538,0.0002488698,-0.0002599445,0.004603727
0.9360927,0.191827,0.3715716,0.0002103623,0.003830363,0.003328915
0.9359344,0.1917858,0.3660723,0.00287316,0.01523355,0.003475022
0.9331067,0.191601,0.3663115,0.005913539,0.02787954,0.004529382
0.9310477,0.1952762,0.3650698,0.004969806,0.02219507,0.005466111
0.9292557,0.198503,0.361748,0.004296744,0.01871032,0.006590075
0.9273971,0.199966,0.3637624,0.003939064,0.02136747,0.006633028
0.9244673,0.2005326,0.368244,0.00100529,0.01373954,0.005498781
0.9249787,0.1985251,0.3740328,-0.004470779,0.008050849,0.005775639
0.9274965,0.1957102,0.3751716,-0.01005168,0.004544249,0.004282816
0.9278883,0.1908063,0.3718397,-0.01400751,-0.001375823,-0.0009035147
0.9291499,0.1907013,0.372601,-0.01410165,-0.00266121,-0.0044309
0.9291516,0.1939868,0.3734467,-0.008412518,-0.00446602,-0.003282092
0.9290846,0.1925934,0.377548,-0.002157892,-0.01226718,-0.0005909923
0.9296697,0.1930541,0.3822014,-0.001099846,-0.0172387,-0.0011065
0.9299717,0.1940043,0.373394,-0.003172837,-0.01109205,-0.001381285
0.9329394,0.1951475,0.36235,-0.002116986,-0.004369134,-0.0006236057
0.9339492,0.1981634,0.3611757,0.001131923,-0.001149069,-0.002703786
0.9330871,0.1955666,0.3688226,0.00272487,0.008203758,-0.003678114
0.9334205,0.1931532,0.3771307,0.003065007,0.01413766,-0.004987698
0.9326853,0.1948594,0.3739611,0.001331054,0.01207185,-0.005764235
0.9307915,0.1946311,0.3717097,0.0003624172,0.01409752,-0.002532604
0.9281018,0.194845,0.3752674,0.001359932,0.01661812,-0.002321559
0.9280601,0.1983632,0.3709688,0.00346458,0.01494827,-0.002435587
0.9292192,0.2019998,0.3679141,0.005747012,0.01326693,-0.0004528662
0.9287872,0.2019853,0.3690282,0.00329606,0.009309001,-0.002249642
0.929534,0.2007466,0.3655308,0.002209364,0.003472019,-0.004955371
0.9291598,0.201586,0.3654847,0.003396659,-0.000467315,-0.007679951
0.9290067,0.2014114,0.3686612,-0.0004835584,-0.002923423,-0.00877735
0.930324,0.1999847,0.3692314,-0.003584511,-0.002551112,-0.006225028
0.9298141,0.1987053,0.3729298,-0.003850942,-0.0002177844,-0.006458011
0.9297547,0.1960596,0.3749622,-0.002566162,0.001540071,-0.006171833
0.929808,0.1932912,0.3708586,-0.0002813322,0.006147228,-0.002118822
0.9286683,0.1918734,0.3707273,0.0009420264,0.00950795,-0.0007184738
0.927246,0.1923879,0.3740442,0.003366392,0.004545619,-2.032648e-05
0.9258918,0.1944327,0.37543,0.005043554,0.0006446698,0.000992832
0.9262823,0.1948261,0.3755573,0.006007143,0.00334523,0.001159941
0.9266675,0.1942045,0.3743433,0.007057428,0.005528427,0.002776082
0.926218,0.1943281,0.3751249,0.006858422,0.006571925,0.002712646
0.926414,0.1935812,0.3754443,0.005716837,0.007348807,0.0009195606
0.9264329,0.1927317,0.3743307,7.93955e-05,0.006840085,-3.34016e-05
0.9272427,0.193348,0.3751392,-0.005407423,0.004675164,0.0002106099
0.9308628,0.1951979,0.3729384,-0.003682555,-0.0009996592,0.001864478
0.9343486,0.1971927,0.3704929,0.0002383084,-0.004053488,0.001498617
0.9320844,0.1967604,0.3708364,0.002579689,-0.0003577412,-0.000933678
0.9289418,0.1925658,0.3708733,0.005289465,0.003711019,-0.002978132
0.9308987,0.1888208,0.3714208,0.005148921,0.00684179,-0.005266487
0.9307823,0.1899368,0.3696822,0.000722739,0.006659681,-0.005534227
0.9276394,0.1917311,0.3667344,-0.001678212,0.003460071,-0.0039241
0.925893,0.192431,0.3651002,-0.002280051,0.005227181,-0.003726509
0.9249707,0.1949938,0.3643823,0.001527816,0.006173288,-0.001363903
0.9284391,0.1943181,0.3679897,0.008228066,0.005752519,0.001192648
0.932264,0.1920849,0.3714612,0.006040304,0.01006641,-0.001378448
0.9302509,0.195221,0.3660285,0.003345747,0.01143331,-0.002075366
0.9286597,0.1964598,0.3595844,0.002623136,0.01159121,-2.053971e-05
0.9277057,0.1935382,0.3625564,-0.001866427,0.009191519,-0.0004157801
0.9255182,0.1926287,0.3650516,-6.455982e-05,0.002688051,-0.003061349
0.926631,0.1934513,0.3669842,0.002492212,0.005540976,-0.005488373
0.9289016,0.1960005,0.3754965,0.002224886,0.008192872,-0.000700544
0.9299969,0.1980086,0.3759333,0.00504528,0.003891823,0.005296224
0.929885,0.1973045,0.3712366,0.004123444,0.003126372,0.002856129
0.9269767,0.1969309,0.3724676,0.003485861,-0.001522435,-0.000227372
0.9254707,0.1973073,0.3706787,0.006557223,-0.006495275,-0.0008599812
0.9267488,0.1971719,0.3703928,0.007536742,-0.001011851,-0.0005584754
0.9264859,0.1961717,0.3745583,0.008665629,0.00297505,0.003238663
0.9261247,0.195592,0.3753367,0.009649258,-0.001174242,0.006243212
0.9266143,0.1958499,0.3746442,0.01096172,-0.00341979,0.005806887
0.9268202,0.1951294,0.3721796,0.01253796,-0.0004076033,0.005953185
0.9290569,0.1923152,0.3698388,0.01134938,0.0009313144,0.005659678
0.9314555,0.1891093,0.3708949,0.01141805,0.001980419,-0.0003660839
0.9307783,0.18987,0.3714852,0.01125284,0.005267295,-0.009149175
0.9300059,0.191541,0.3724054,0.008199856,0.005744073,-0.01084892
0.9308314,0.1924072,0.3741946,0.006127971,0.006600958,-0.006308575
0.9303121,0.1980394,0.3738729,0.005466498,0.007367869,-0.004589481
0.9284588,0.2016159,0.3738804,0.006305903,0.001000818,-0.004943612
0.9282049,0.1973637,0.3773585,0.006665827,-0.004379736,-0.006315363
0.9310731,0.1933995,0.3787992,0.005073025,-0.000753192,-0.009276525
0.9343539,0.1928147,0.3712737,0.003397273,0.002456231,-0.004591517
0.9318154,0.1938208,0.363581,0.001621304,-8.54395e-05,0.00202283
0.9281848,0.1948235,0.3671684,0.0017008,0.0002291632,-0.001272081
0.9299406,0.1933618,0.3739192,0.002957768,0.003719128,-0.004138497
0.9288276,0.1917635,0.3747406,0.003156699,0.004174849,-0.005985503
0.9241248,0.1926505,0.3717724,0.00354862,0.002433787,-0.01097189
0.9235402,0.1942218,0.3671585,0.003925094,0.001124646,-0.00829278
0.9271769,0.1946598,0.3669829,0.005007181,0.005826767,-0.003372454
0.9308261,0.1934889,0.3694939,0.006022712,0.01173955,-0.003628814
0.9302391,0.1925947,0.3669885,0.004604639,0.008796856,-0.002457029
0.9299031,0.1931669,0.3659947,0.002704975,0.005758754,-8.43483e-05
0.9314043,0.1931662,0.3663387,0.002350015,0.005424143,0.001395637
0.9298123,0.1921869,0.3677108,0.003167799,0.003394964,-0.001250063
0.928576,0.1895834,0.3728423,0.004083476,0.005352214,-0.005891821
0.9281036,0.1867394,0.3706032,0.003289213,0.008082098,-0.003349002
0.9290387,0.1891878,0.3667055,0.0002897824,0.006992381,-0.0009378916
0.9326458,0.1934937,0.3666387,-0.000648742,0.00476204,-0.003565824
0.931581,0.1933561,0.3638133,0.0009548267,0.005052762,-0.004456332
0.9277058,0.1930761,0.3660246,0.0001215055,0.01052072,-0.005703423
0.9260228,0.1945518,0.3709616,0.0002962443,0.01270417,-0.005929739
0.9266155,0.1935675,0.371611,0.00348464,0.007623398,-0.005225395
0.929349,0.1907162,0.370699,0.00605818,0.003861221,-0.007734407
0.9298832,0.1892336,0.3704924,0.007213529,0.005006396,-0.007731417
0.9297597,0.1895673,0.3725092,0.0036499,0.006724947,-0.004248668
0.9295014,0.1917911,0.373352,-0.0001542393,0.005561729,-0.0008436506
0.9282819,0.1965532,0.3745966,-0.0003955426,0.005796088,-0.001314435
0.9297646,0.1985099,0.3757587,-0.00326469,0.004973633,-0.006737342
0.9289007,0.1954723,0.3744415,-0.004396339,0.0004236571,-0.009466881
0.9270965,0.1941523,0.3752085,-0.001307811,0.0008880107,-0.008584091
0.9283952,0.1926676,0.3742353,0.0009456703,0.003142126,-0.00644766
0.9293683,0.1897772,0.3698225,0.002399448,0.003236896,-0.00505415
0.9312476,0.1901824,0.365324,0.001053207,0.004698807,-0.006859702
0.9304641,0.1904769,0.3654786,-0.002099426,0.005571833,-0.007527332
0.9280451,0.1904512,0.37445,-0.002976997,0.006263963,-0.007171586
0.927889,0.1924055,0.3809397,-0.00174201,0.006759111,-0.00752958
0.9272587,0.1948925,0.3781429,-0.0004654928,0.00726139,-0.007498933
0.9281097,0.1976973,0.3727679,0.0009595269,0.007082422,-0.006512774
0.9282793,0.1983973,0.3705311,0.003616658,0.005164694,-0.004305309
0.9290561,0.1951056,0.3717556,0.002193784,0.004844032,-0.004706515
0.931664,0.1909354,0.3724289,-0.0007838177,0.005970762,-0.006431127
0.9304316,0.1920225,0.3722456,0.001215652,0.007858404,-0.006156946
0.9301327,0.1952506,0.3711529,0.000982406,0.006480211,-0.003178377
0.9310553,0.1939276,0.370445,-0.0001715255,0.003318602,0.001287361
0.9300452,0.1922614,0.3710833,0.002206796,0.003597246,-0.00031099
0.9299564,0.1906497,0.3706716,0.002196272,0.0005059079,-0.005284641
0.9300137,0.1895447,0.3708996,0.0009970924,0.0006646014,-0.006587415
0.9314817,0.1919146,0.37126,0.0004261706,0.006532345,-0.00662711
0.932683,0.1928253,0.3722395,0.00140971,0.004725531,-0.005628443
0.9316175,0.1930523,0.3735248,0.003676,0.002501506,-0.004335989
0.931335,0.1934374,0.3719503,0.002691673,0.003477634,-0.00388092
0.9293299,0.1931427,0.3714201,0.001901516,0.002753854,-0.003803432
0.9258577,0.1959703,0.3718221,0.001346645,0.002267948,-0.004584963
0.9258763,0.1977482,0.3729717,-0.0007154056,0.0005873814,-0.004251645
0.9274785,0.1953009,0.3767716,-0.0001511794,0.002256382,-0.0043141
0.9286995,0.192706,0.3765557,0.0004633679,0.003296346,-0.004795578
0.9305127,0.1926521,0.3733933,0.00118778,-0.002345711,-0.002429348
0.9303858,0.1935395,0.3710445,0.003672001,-0.005642685,-0.001748423
0.9298834,0.1926421,0.3667492,0.002790596,-0.00291652,-0.006801931
0.9310548,0.1920844,0.367837,-0.002487561,0.002771252,-0.01188128
0.9293888,0.1922121,0.3742351,-0.00678842,0.005769953,-0.009916857
0.9273731,0.1949943,0.3753174,-0.003902651,0.005738574,-0.006239684
0.9271119,0.2024225,0.3743198,0.0006246378,0.005110493,-0.007175057
0.9263651,0.2054632,0.3733372,-0.0006680236,0.003198177,-0.006654472
0.9290701,0.2000785,0.3724469,0.000134465,0.00441252,-0.005811817
0.9317525,0.1923151,0.3718489,0.001802989,0.006580143,-0.008017869
0.9300666,0.1883156,0.3684683,-0.001568534,0.006928168,-0.007787089
0.9284402,0.1896479,0.3709168,-0.002131561,0.007344715,-0.005792309
0.9273155,0.1912173,0.3755124,-0.001203076,0.009752002,-0.003558662
0.9262695,0.1917644,0.3756689,-0.00158324,0.01351859,-0.002253961
0.9246676,0.1933022,0.3786808,0.0001778224,0.009967339,-0.00513059
0.9231698,0.195127,0.3780492,0.0005994078,0.004409733,-0.006254085
0.9253396,0.1970413,0.3748516,-0.0001195347,0.002672414,-0.003240656
0.927381,0.1970763,0.3752767,-0.0003854529,0.002151841,-0.002210585
0.9262534,0.1955196,0.3749261,0.0004938491,0.005492207,-0.0008400003
0.9260353,0.1952719,0.377112,0.002565068,0.005996214,0.0009749547
0.9272888,0.1954709,0.3793054,0.002807726,0.005477091,0.0007561272
0.9289372,0.1971103,0.3782616,0.003891138,0.002979571,0.002214911
0.9312702,0.1980601,0.3776443,0.00491988,-0.003709553,-0.001588876
0.931089,0.1946527,0.3774657,0.00415201,0.00164797,-0.006871046
0.9297498,0.1937245,0.3771956,0.003751374,0.007195163,-0.001352012
0.9307518,0.1953934,0.3729355,0.001622814,0.003840579,0.002391334
0.9294848,0.1958378,0.3674158,0.001100305,0.004728114,0.001277093
0.926629,0.1979157,0.3680564,0.004040426,0.003730678,0.003060874
0.9267119,0.1975602,0.3723703,0.004917119,0.002463182,0.002244047
0.9288789,0.1962941,0.3753694,0.00180071,0.003747383,-0.0002807003
0.9315818,0.1969277,0.3747296,-0.001110031,0.001359499,-0.001259837
0.9312741,0.1955349,0.3751713,0.002425565,0.0008230802,-0.002160663
0.9314465,0.1964587,0.3824778,0.006166104,0.00302997,-0.003457061
0.9341485,0.1982361,0.3878232,0.004266769,0.002957354,-0.004167593
0.9317003,0.1977645,0.3820014,0.005470318,-9.731901e-05,-0.003698027
0.9292159,0.1981414,0.3761408,0.006855713,-0.002792709,-0.004752127
0.9308762,0.1953269,0.3787077,-0.0008401593,-0.002319549,-0.007465286
0.9297987,0.1915778,0.3785936,-0.009532738,-0.0001216518,-0.009678621
0.9285431,0.1930217,0.3760784,-0.009538465,0.00338765,-0.009786899
0.9293456,0.1951332,0.3764256,-0.004574553,0.007805224,-0.007442571
0.9292484,0.1959799,0.3725605,0.0004658869,0.009652213,-0.004846428
0.9292349,0.1976528,0.369564,0.005400635,0.008770949,-0.00286466
0.9302714,0.1956677,0.3697114,0.005905257,0.008771012,-0.0006402637
0.9315789,0.1894694,0.3675339,0.003672499,0.008516352,0.0001911886
0.9310264,0.1867259,0.3695521,0.003403911,0.009991878,-0.001456513
0.9284076,0.189986,0.3721784,0.001415719,0.01298051,-0.0008703469
0.9274105,0.194654,0.3703738,0.004905875,0.00971363,-3.978753e-05
0.9296422,0.1961348,0.3704931,0.0119231,0.006539072,-0.002937711
0.931394,0.1969339,0.3702895,0.008678665,0.006858968,-0.003633758
0.9304873,0.1973464,0.3687205,0.005885799,0.003117288,-0.004211006
0.9296873,0.194987,0.368031,0.005468529,0.0001020409,-0.002758292
0.9281868,0.1965494,0.3653057,0.0009099065,0.001249945,0.005206171
0.9254694,0.1980615,0.3633474,0.00171048,0.001527897,0.006733536
0.9261593,0.1946048,0.3664714,0.002781484,-0.0003142509,0.003500863
0.9284245,0.194495,0.3694683,0.0001901708,-0.001929735,0.003263073
0.9294035,0.1962804,0.3683116,-0.001351368,-0.002431917,0.002281938
0.9311224,0.1971184,0.3692246,-0.002601624,-0.001484605,0.003236451
0.9309541,0.1950844,0.371983,0.001271948,-0.000439665,0.004491966
0.9298513,0.1915839,0.3720675,0.004535927,-0.002370091,0.005647182
0.9309813,0.1941099,0.3765274,0.003315847,-0.002078906,0.006275377
0.9305959,0.1952525,0.3829898,0.006374619,0.001555114,0.004192025
0.9303667,0.1928415,0.3809235,0.01018508,0.003022262,0.004437626
0.9318755,0.1934152,0.3779177,0.01068351,0.003507366,0.003099159
0.9319542,0.1947717,0.3789757,0.008120719,0.003992826,0.001645299
0.9317051,0.1962232,0.3770989,0.00395279,0.005205227,0.003219294
0.9301462,0.1947312,0.375381,0.003681317,0.001946355,0.003110415
0.9286237,0.1904995,0.3753136,0.004343762,-0.004259691,0.005106546
0.9301153,0.1879982,0.3744534,0.003216005,-0.001365706,0.005276287
0.9308576,0.18732,0.3755532,0.002332574,0.003491129,0.003595638
0.9296095,0.1904408,0.3729764,0.000554738,0.003885281,0.005525195
0.9287269,0.1937592,0.3674332,-0.002741201,-0.0002211609,0.003440992
0.9295336,0.1928458,0.3683624,-0.006011775,-0.006967357,-0.002715525
0.931206,0.1906349,0.3729917,-0.006106639,-0.002166611,-0.008102688
0.932227,0.1880749,0.375889,-0.003634584,0.004029289,-0.00867538
0.9322796,0.1872907,0.3735249,-0.00152928,0.001222087,-0.008108365
0.931575,0.1903242,0.369749,-0.0009516722,0.003992507,-0.01280783
0.9316379,0.1928961,0.3714874,-0.001968829,0.007105924,-0.009635438
0.930235,0.1931634,0.3738982,-0.002173941,0.004758903,-0.002259981
0.9273789,0.1960048,0.3753124,-0.002362812,0.004445816,-0.00198918
0.9275202,0.2012147,0.375689,-0.002695673,0.005069816,0.000250178
0.9278994,0.2015855,0.3738938,-0.001397667,0.006476928,0.0002407403
0.9267085,0.197371,0.3734288,-0.001685266,0.00658686,-0.002302347
0.9270775,0.193868,0.3720091,-0.004321877,0.00401883,-0.003321853
0.9307349,0.1909013,0.371092,-0.005712234,0.001520016,-0.007681105
0.9345367,0.1869833,0.3712894,-0.0007993578,0.0004217307,-0.006231131
0.9318312,0.1845527,0.3691039,0.007376788,0.003902526,-0.001430182
0.9281638,0.184938,0.3716496,0.008227468,0.006158466,-0.00160293
0.9297279,0.1851935,0.375415,0.006112602,0.005504715,-0.003607214
0.9285062,0.1885375,0.373922,0.006752139,0.00578224,-0.008401819
0.9249885,0.1973223,0.3767075,0.005359512,-0.001728432,-0.008863509
0.925328,0.2012845,0.3807226,0.004220363,-0.007271903,-0.005687796
0.9257263,0.1954012,0.3779415,0.003024682,0.0002593722,-0.005408961
0.9264372,0.1888555,0.374965,-0.0005883851,0.004591332,-0.001460107
0.9294463,0.1897207,0.374186,-0.000601619,0.002205676,0.001761891
0.9297768,0.1910476,0.3711948,0.0008626418,0.0003491539,-0.0002462968
0.9283939,0.1876889,0.3676569,-0.001523925,0.0002754307,-0.002326703
0.9286778,0.1874529,0.3685119,-0.00233715,0.0008763137,-0.004818898
0.9285249,0.1894907,0.371579,-0.0003288616,-1.698625e-05,-0.00719467
0.9293961,0.1909472,0.3724873,0.000321025,0.0001281308,-0.006534409
0.9315311,0.1926106,0.3722347,0.0009919832,-0.001419571,-0.003442608
0.9320656,0.1927108,0.3715948,-3.368105e-05,-0.003280418,-0.003524097
0.9321683,0.1926724,0.3718256,-0.002874425,-0.001999237,-0.003772777
0.9316634,0.1912314,0.3728699,-0.00253496,-0.002280264,-0.0007022053
0.9308668,0.1913593,0.3721928,-0.002399788,-0.002368641,-0.002285289
0.9306128,0.1932438,0.3722748,-0.00377418,-0.002490152,-0.003205631
0.9302017,0.1919828,0.3720628,-0.003921492,-0.003532366,-0.001588667
0.9307894,0.1924914,0.3701748,-0.003870063,-0.003227998,-0.002878201
0.9306392,0.1934004,0.3722541,-0.002564687,-0.001822217,-0.002195815
0.9302337,0.1928685,0.3734318,-0.001358273,0.0008944908,-0.006084214
0.9309039,0.1931249,0.3709893,-0.0004120128,0.001453699,-0.01063131
0.9300106,0.1918808,0.3715745,0.0006113033,0.002919385,-0.006447088
0.9287262,0.1915474,0.3710202,3.540998e-05,0.008356045,-0.004663938
0.9274549,0.1920025,0.3700181,0.0002771186,0.01190389,-0.00586624
0.9274627,0.1937191,0.3715679,-0.0002912517,0.01227755,-0.005486752
0.92912,0.1970473,0.3709514,-0.001220186,0.008586883,-0.004817282
0.9282746,0.1976599,0.3723574,-0.0001029835,0.002547266,-0.005074714
0.927447,0.1966786,0.374669,0.0005488794,-1.772491e-05,-0.006315779
0.9278716,0.1940082,0.3735413,0.001522005,0.001859298,-0.003814649
0.9278749,0.1905013,0.3743021,0.0006081797,0.003747244,-0.0008851597
0.9295183,0.1895823,0.3762654,-0.001044152,0.001516583,-0.001544819
0.9329024,0.1900417,0.3786714,0.001355689,0.0001891942,-0.003758052
0.9359199,0.1888375,0.3824129,0.002233077,0.0007829803,-0.00580215
0.9345359,0.1869188,0.3825529,-0.001163711,-0.000447332,-0.007097025
0.9311123,0.1895668,0.3798194,-0.005030311,8.520651e-06,-0.007334358
0.930545,0.1931998,0.3775359,-0.006203657,-6.292528e-05,-0.005411343
0.9310967,0.1934382,0.3750809,-0.004163719,-0.001248943,-0.004573408
0.9322587,0.1939919,0.3750972,-0.001106362,-0.0001954276,-0.003182071
0.9313582,0.1945832,0.3774621,0.002113418,-0.0009034726,-0.002489884
0.9297935,0.1943941,0.3773244,0.001988447,-0.002372758,-0.005081697
0.9318451,0.1934842,0.3778248,0.0002596852,-0.002098553,-0.003658446
0.9318124,0.1926622,0.3802637,0.002062586,0.0002193546,-0.003095002
0.9289644,0.1931755,0.3806159,0.001731594,0.003451483,-0.003792301
0.9273519,0.1930823,0.379886,0.0001978404,0.002034272,-0.001349301
0.9281917,0.1931647,0.3758659,0.002632583,-0.0003292451,-0.0006148792
0.9301432,0.1942072,0.3710784,0.002894186,-0.001745599,0.003295513
0.9291765,0.1955231,0.3711192,0.001723935,-0.005602639,0.007755042
0.9295912,0.1959408,0.3689283,0.001555821,-0.005530261,0.008375014
0.9316463,0.1935301,0.3638634,-0.001122413,-0.004188729,0.006145978
0.9313057,0.1906283,0.365522,-0.002272832,-0.00607949,-0.001601908
0.9329663,0.1897052,0.3730197,-0.004571081,-0.004455898,-0.008044288
0.9338806,0.190325,0.3772424,-0.01030179,-0.003212553,-0.01054689
0.9312914,0.191096,0.3750773,-0.009891835,-0.004218401,-0.006261112
0.9281969,0.1926785,0.3699406,-0.006513091,-0.002526569,0.0004030604
0.9258264,0.1955326,0.3672649,-0.004777802,-0.002637011,-0.001952196
0.929044,0.1955823,0.3692219,-0.002824494,-0.002104897,-0.001757142
0.9340325,0.1942126,0.3699662,-0.002172726,0.001377996,0.000127793
0.9333024,0.1938695,0.3690573,0.0004005642,0.001463132,-0.002573064
0.9311209,0.1919759,0.3695018,0.001016676,0.00152422,-0.003625947
0.9299187,0.1907345,0.3684572,-0.001165602,0.004635908,-0.007867629
0.9282911,0.1914908,0.3680863,0.0005198265,0.007052777,-0.00873908
0.9267161,0.1943114,0.3699139,0.0003169082,0.005559253,-0.004975855
0.9257927,0.197612,0.3713509,-0.00113573,0.001205342,-0.004023446
0.9270566,0.196936,0.3707906,-0.001088868,0.0002076533,-0.002731197
0.9293624,0.1958156,0.3688504,-0.002850965,0.0009281219,-0.00255411
0.9307963,0.1938969,0.3695807,-0.00155099,-0.0003043392,0.0006714867
0.9298576,0.1900506,0.371287,9.498288e-05,-0.0005385292,0.001999623
0.9265145,0.1900597,0.3710854,-0.00186823,0.001127625,-0.0007741281
0.9263539,0.1904404,0.370599,-0.002799731,0.002448787,0.001804573
0.9296365,0.1900556,0.3707495,-0.003950737,0.0009440548,0.0009600596
0.9322293,0.190963,0.3709348,-0.005273948,-0.0002662258,-2.354209e-05
0.9335174,0.1917451,0.3697206,-0.00497161,0.0008935404,0.00206851
0.9325982,0.1937539,0.3691691,-0.003998105,0.00217785,-0.002101434
0.9303403,0.1933598,0.36991,-0.002308533,0.005385216,-0.005213887
0.9268014,0.192353,0.3711423,-0.002013928,0.00758212,-0.003770847
0.9254822,0.1936072,0.3732437,-0.0004168401,0.004484266,-0.00164414
0.9290839,0.1928809,0.3741334,0.004013878,0.0001405982,-0.001468056
0.9309974,0.1928957,0.3751156,0.005424266,-0.002065384,-0.0001607812
0.9323117,0.1933792,0.375015,0.006823825,-0.002755818,0.002630027
0.9341708,0.1927453,0.3714349,0.01024521,-0.002050575,0.0022077
0.9326208,0.1932376,0.3683715,0.01107097,0.0002834457,0.003946159
0.9304813,0.1930346,0.3675802,0.01183374,0.0006382959,6.517456e-05
0.9284043,0.1931278,0.3693687,0.01276638,-0.00478734,-0.00680749
0.9277706,0.1941131,0.3718815,0.01157224,-0.01019541,-0.003120289
0.9286077,0.193853,0.3726388,0.008464949,-0.007114668,-0.002576358
0.9292526,0.1910653,0.373302,0.0034773,-0.002039214,-0.003508854
0.9321105,0.1879394,0.3738469,0.0002137803,-0.002204672,0.002025987
0.9325196,0.1902915,0.37406,-0.0004840928,-0.001110722,0.004918991
0.9299648,0.1929989,0.3729704,0.003280694,-0.0002391365,0.004453705
0.9291741,0.1903753,0.3717402,0.01099454,-0.001288176,0.0006281577
0.9290033,0.1895765,0.3738185,0.01129583,0.001842508,-0.002082013
0.9307761,0.1909803,0.3744725,0.006349179,0.004705718,0.000287844
0.9314164,0.1909828,0.3728497,0.005116654,0.005116621,0.00171552
0.9296934,0.1918696,0.3739409,0.004446106,0.004624753,-1.004438e-05
0.9306351,0.191964,0.3746664,0.003753883,0.002176586,-0.001785615
0.9299977,0.1918034,0.3728456,0.003190098,-0.0005114111,-0.001198989
0.9281334,0.194744,0.3683679,0.002507327,-0.003826498,-0.0004940436
0.928806,0.1973881,0.3636866,0.002474942,-0.004780085,0.002101402
0.9290021,0.1962128,0.3674085,0.001478894,-0.003394523,0.006086213
0.931734,0.1923816,0.3745289,0.001724488,-0.002891568,0.004786578
0.9347696,0.189826,0.3756174,0.001601671,-0.001428611,0.00257926
0.9327772,0.190844,0.3749435,-0.0001863809,-0.001334243,0.003126572
0.931052,0.1942135,0.3739384,0.0008697518,-0.001358495,0.003245419
0.9305373,0.1975761,0.3731458,0.004949442,0.0008193895,0.003804089
0.9295698,0.1961221,0.3741279,0.009207983,0.001401084,0.005812093
0.9287708,0.1903833,0.3743367,0.008618629,-7.952577e-06,0.008832254
0.9282429,0.1879995,0.3750646,0.005571088,-0.002035278,0.009049457
0.9307897,0.1911031,0.3740651,0.005209568,-0.00264951,0.004939028
0.9316342,0.1954475,0.3710455,0.002857203,-0.003251194,0.005041771
0.9285519,0.1962415,0.3709014,-0.0002587652,-0.004975615,0.008237805
0.9290627,0.1937905,0.3727144,-0.00112268,-0.004793261,0.005738695
0.9296889,0.1924478,0.3750105,-0.0002894668,-0.004349832,0.005548955
0.9285273,0.1929638,0.3748231,0.002583064,-0.002887796,0.00880857
0.9297839,0.1933933,0.3731463,0.003523048,-0.0009975753,0.007597657
0.9303586,0.1928901,0.3729401,0.003245216,-0.002790117,0.006408062
0.9319652,0.1918736,0.3712494,0.003154621,-0.004144281,0.002355696
0.933191,0.1879555,0.3719967,0.00279775,-0.002950848,-0.00210462
0.9323053,0.1839374,0.3750803,0.002938442,-0.001086195,-0.0001455491
0.9351756,0.1894964,0.3744376,0.0007538762,-0.0003235693,5.224074e-05
0.9356298,0.195878,0.3720235,-0.0007993146,-0.004161506,0.000306619
0.9326781,0.1909127,0.3683837,-0.0004107062,-0.007935195,0.0008925986
0.9334852,0.1847224,0.3668418,-0.0004599528,-0.005632232,-0.002489231
0.9335175,0.1840688,0.3687966,0.0008500197,-0.00338451,-0.003383465
0.9325893,0.1896381,0.3675009,0.001433847,-0.005165912,-0.002643333
0.9319282,0.2002183,0.3649277,0.001131029,-0.003936665,-0.003373225
0.9298081,0.2008857,0.3637898,0.000372192,0.001448763,-0.004713209
0.9308452,0.1921462,0.3655356,-0.001559416,0.004881892,-0.005332887
0.9338524,0.1886381,0.3733789,-0.002167618,0.003613551,-0.004812011
0.9340222,0.1892251,0.3787383,-0.003434518,0.0008443351,-0.00476109
0.929769,0.190224,0.3783985,-0.005382916,0.002368787,-0.003911764
0.924504,0.1907158,0.3815648,-0.004581023,0.003398316,-0.004977717
0.9270114,0.1918014,0.3853739,-0.002677236,0.001836949,-0.009622168
0.9314337,0.1940243,0.3787222,-0.001468914,0.003459176,-0.01181844
0.9296364,0.1927641,0.3694405,-0.0008733324,0.00434305,-0.006219335
0.9278686,0.1917533,0.3693514,-0.0007294342,0.004141394,0.001366479
0.9260022,0.1922863,0.3667086,0.001149761,0.001231572,0.0004804538
0.9254411,0.1929366,0.3624874,0.002513989,-0.004720578,-0.001188606
0.9280365,0.1946604,0.3704026,-0.0001760072,-0.003450892,0.001126232
0.9286329,0.1910424,0.3782802,-0.001616949,-0.001164736,0.0002812022
0.9308312,0.1872915,0.3784376,-0.001583794,-0.00166604,-4.615291e-05
0.9307773,0.1899646,0.3774365,-0.002209528,0.0001033297,-0.0009343578
0.9277177,0.1911202,0.3765678,-0.001197733,-0.0006033399,-0.003199671
0.9305891,0.1895424,0.3764817,-0.001235308,0.0002865845,-0.001936689
0.9313066,0.1883801,0.3759898,-0.00101619,0.00216281,-1.368899e-05
0.9295653,0.187242,0.3755209,-0.002435113,0.000837092,-0.0001284318
0.9298936,0.1872816,0.3749671,-0.005309494,0.0008692684,-0.005699095
0.9268591,0.1891372,0.3740035,-0.003107471,-0.001211784,-0.008969673
0.925823,0.1909319,0.372792,-0.002887153,-0.002093037,-0.003151134
0.9279645,0.1920177,0.3695085,-0.004007261,1.053073e-05,-0.0006005131
0.9297425,0.1920364,0.3688731,-0.002955634,-0.001878414,-0.004543448
0.9312859,0.1909792,0.3701428,-0.004720497,-0.002188719,-0.008082652
0.9302813,0.1909601,0.3697755,-0.005578646,-0.001594613,-0.005949146
0.9294064,0.1905791,0.3707474,-0.006495398,-0.003251881,-0.003643213
0.929191,0.1915298,0.3709604,-0.006796414,-0.003509035,-0.006145496
0.929045,0.1931119,0.3728843,-0.005794193,-0.004636359,-0.004749536
0.9303423,0.1876668,0.379127,-0.008918121,-0.001795551,-0.003464243
0.9298418,0.183041,0.3825976,-0.008351978,0.003113553,-0.003917717
0.9261035,0.1877271,0.3782965,-0.001755223,0.001601664,-0.0030602
0.9234731,0.1931329,0.3723437,0.0009932466,0.001764785,-0.005534542
0.9292592,0.1954839,0.3748786,-0.001962709,0.004569624,-0.005835123
0.9364196,0.1973413,0.3757595,-0.005767591,0.004807561,-0.005311222
0.9334523,0.1949269,0.3686291,-0.006765457,0.005661356,-0.006468423
0.9317019,0.1898947,0.3654625,-0.006230999,0.005381266,-0.005222554
0.9341616,0.1916511,0.3651953,-0.004585657,0.004032723,-0.002019302
0.9299533,0.1956759,0.3677916,-0.0007553373,0.003484279,0.002235464
0.9260389,0.1961289,0.3710948,0.000916306,0.002092709,-6.750187e-05
0.9263535,0.1976531,0.3703214,-0.001235603,0.001898984,-0.00378192
0.9265364,0.1975991,0.3763566,-0.002219044,0.002458342,-0.0004095411
0.9280865,0.1960799,0.3831039,-0.001596159,0.002378809,0.001424076
0.9278593,0.1949507,0.3799796,-0.001745639,0.002460412,0.002861529
0.9258582,0.1919738,0.3776006,-0.00172754,0.0004592378,0.004270466
0.9264577,0.1915054,0.3797316,-0.001314694,-0.001813866,0.002972215
0.9284999,0.1913747,0.3787485,-0.001005794,-0.001057114,0.004173541
0.9297043,0.1897334,0.3742413,-0.001580579,-9.942887e-06,0.002869354
0.9291629,0.1921531,0.3727864,-0.003254889,0.0002829408,0.0003025042
0.9289482,0.1938753,0.3736625,-0.003216502,5.416335e-05,0.003274629
0.9293597,0.1918513,0.3734808,0.0002241178,-0.002417711,0.005896061
0.9288931,0.1912588,0.3719858,0.004121848,-0.004692863,0.006188949
0.9282932,0.1918,0.3712687,0.005447094,-0.00493997,0.003839029
0.9273456,0.1917141,0.3740525,0.002893304,-0.003714828,-0.002507333
0.9267389,0.1916094,0.3741195,-0.001913482,-0.0004022735,-0.007071135
0.9269124,0.1913006,0.3709935,-0.002955164,0.0006288707,-0.005222213
0.9287981,0.1899385,0.3714206,-0.002633735,-0.0002567546,0.001343467
0.9314188,0.1886465,0.3756628,-0.003290463,0.0006975755,0.004612795
0.9299628,0.1904703,0.3806595,0.0003948085,-0.0001351923,0.002420991
0.9279468,0.1924915,0.3794745,0.001563071,-0.001397173,0.001094788
0.9286604,0.1907158,0.3745412,-0.0002532424,-0.002655813,0.000546893
0.927715,0.1897404,0.3748158,-0.0001755743,-0.003886193,-0.00425774
0.9272348,0.1916605,0.3776506,-0.007270357,-0.002216175,-0.01094507
0.9285011,0.1928975,0.3798781,-0.01378386,-0.001688431,-0.01036567
0.928477,0.193753,0.3805945,-0.007372389,-0.0002895018,-0.005860657
0.9296266,0.1958187,0.3769142,0.002442649,0.000839382,-0.000363991
0.9314053,0.1975086,0.3737229,0.007638153,-0.001463079,0.008450827
0.931446,0.1956845,0.3758504,0.01032825,-0.0001198084,0.006006397
0.9297011,0.1920398,0.3773334,0.009877511,0.001589638,-7.830219e-05
0.927019,0.1906334,0.3759937,0.005316914,0.002513077,0.004616544
0.9291315,0.1884906,0.3760715,0.003844894,0.005353151,0.004474895
0.9319458,0.1870426,0.3752985,0.00506703,0.001578478,0.003835817
0.9289886,0.191396,0.3716205,0.005520633,-0.003737964,0.005714918
0.9276418,0.1944995,0.3690592,0.007700813,-0.00118432,0.003478113
0.9280506,0.1931045,0.3691787,0.006464989,0.001950371,0.01120022
0.9275455,0.1931565,0.369688,0.004791491,0.002866084,0.01738559
0.9286076,0.1932464,0.369423,0.006759795,0.003155386,0.008398203
0.9276201,0.1912303,0.3700299,0.007540733,-0.000639473,0.003384993
0.9257536,0.1910578,0.3731522,0.008955702,-0.007327152,0.01156053
0.9271492,0.1921698,0.3760445,0.008923542,-0.01290782,0.01790568
0.9311372,0.1898785,0.3753754,0.007424786,-0.01205945,0.0086985
0.9346277,0.1861108,0.3742699,0.006789594,-0.008692248,-0.001629394
0.9335506,0.1847453,0.3753218,0.004341287,-0.01085026,-0.0008844338
0.9312165,0.1878931,0.3746613,0.003984559,-0.009023358,0.00440983
0.930339,0.1930387,0.371887,0.003095921,-0.003854429,0.01098715
0.9286269,0.1916198,0.3703524,-0.002917834,-0.003687616,0.009944869
0.9289397,0.1876679,0.3700913,-0.007685979,-0.003665939,0.007511556
0.9307195,0.1866612,0.3694811,-0.009087459,-0.004987876,0.01418778
0.9304774,0.1852856,0.3678595,-0.008497648,-0.00499105,0.01767236
0.9309221,0.1866543,0.3697943,-0.008242672,-0.004308294,0.01822625
0.9325041,0.1885644,0.3749099,-0.01102586,-0.007683857,0.0184819
0.933254,0.1895805,0.3756069,-0.01318303,-0.008531852,0.01137068
0.9319773,0.1911433,0.3743744,-0.01313898,-0.0120139,0.003796094
0.9295462,0.1889477,0.3733398,-0.01132502,-0.01859174,0.003291568
0.9304143,0.1879743,0.3715099,-0.005136696,-0.0195602,0.004642672
0.9312841,0.1873148,0.3713001,0.001149822,-0.01759061,0.0003023745
0.9302657,0.1833428,0.3675517,-4.903709e-06,-0.01174837,-0.004587828
0.9322049,0.1833281,0.3609442,-0.001543614,-0.00518382,-0.003507861
0.9322973,0.18732,0.3595436,0.005620598,-0.006048629,-0.001232024
0.929624,0.1936459,0.3600172,0.01036689,-0.007496211,0.005622467
0.9294239,0.1969506,0.358766,0.007215068,-0.001118792,0.01972053
0.9294982,0.1912367,0.3633608,0.005809829,0.006883706,0.02667208
0.9301451,0.1881874,0.3742594,0.004262988,0.01074239,0.02322259
0.9327226,0.1961418,0.3798086,0.001538333,0.005763376,0.02506817
0.9340533,0.2030796,0.3794195,0.0006980149,-0.003521256,0.03339237
0.9334079,0.1988699,0.3780409,-0.006003032,0.002171931,0.03839614
0.9339493,0.1912754,0.3730751,-0.01502172,0.007831325,0.04063173
0.935839,0.1842714,0.3667222,-0.01328813,0.002269266,0.03557567
0.9373665,0.1765092,0.3648183,-0.009339131,0.007283023,0.01978297
0.9392702,0.1760898,0.3640397,-0.00966003,0.01206197,0.005101072
0.9385873,0.1805716,0.3555688,-0.004952524,0.01075647,0.00302048
0.9359267,0.1810933,0.348307,-0.004245056,0.01197341,0.005430517
0.9350206,0.1745406,0.3538169,-0.008789096,0.0106223,-0.01096334
0.9327542,0.1666388,0.3595867,-0.00834633,0.01619417,-0.03797427
0.9315634,0.1723113,0.3618314,-0.01082592,0.02424341,-0.04772538
0.9326389,0.1814327,0.3665153,-0.009797088,0.02664446,-0.04099944
0.9313319,0.1822823,0.3684287,-0.004761193,0.02871083,-0.03054911
0.9309158,0.1868709,0.371747,-0.006661503,0.02780402,-0.02395803
0.9308205,0.1903245,0.3783292,-0.00546111,0.02864679,-0.01896488
0.9300667,0.1871893,0.3796856,-0.001013117,0.03333833,-0.01497152
0.9319356,0.1843549,0.3798412,0.007429587,0.03860094,-0.01522689
0.9316731,0.1824704,0.3821111,0.01900154,0.04000715,-0.01488196
0.9284402,0.1831517,0.381403,0.01941984,0.03083862,-0.01413112
0.9245949,0.182707,0.3780496,0.01657586,0.01447712,-0.009820751
0.9223808,0.1803205,0.3747017,0.01654984,-0.001189361,-0.005941536
0.9256367,0.1808042,0.3754246,0.01759664,-0.003174612,-0.00992702
0.9292543,0.1823814,0.3792836,0.02460962,0.003324044,-0.01452664
0.9310705,0.1838932,0.3792115,0.02880597,0.00126874,-0.02072698
0.9312956,0.1841084,0.3769031,0.02684454,1.86761e-05,-0.02487676
0.9296544,0.1854911,0.3748096,0.02650717,0.002247698,-0.02587987
0.9312145,0.1886781,0.3725522,0.02495049,0.004480415,-0.03104001
0.9327133,0.1881237,0.3720851,0.02014708,0.01223696,-0.03417905
0.9331906,0.1895592,0.3727447,0.0176298,0.01512266,-0.03496051
0.9334126,0.1979828,0.3758937,0.01303763,0.01398377,-0.03228778
0.9289546,0.2066564,0.3790416,0.002035173,0.01692458,-0.02366181
0.9258198,0.2101828,0.3776986,-0.004920878,0.01557789,-0.01730622
0.9261818,0.207854,0.3761391,-0.007617125,0.01246281,-0.01638246
0.9266387,0.2041526,0.375757,-0.01465073,0.01107144,-0.01824422
0.9275403,0.2005045,0.375513,-0.01849697,0.007107936,-0.01642603
0.9278748,0.1943477,0.3767573,-0.01162056,0.005301105,-0.01009637
0.9287674,0.1915292,0.3776496,-0.00526282,0.005945558,-0.00540221
0.928471,0.1934049,0.3780363,-0.008451986,0.004537988,-0.003239053
0.9273641,0.1933363,0.3802861,-0.009624004,0.001274433,-0.002341858
0.927881,0.1932715,0.3837563,-0.004047577,-0.004017229,-0.001431165
0.9275693,0.1960551,0.385065,-0.003151339,-0.006681129,-0.001098127
0.9262007,0.1989279,0.3819624,-0.008365826,-0.004760932,0.001126061
0.9225646,0.1979347,0.3781527,-0.01491035,-0.006770435,0.004512552
0.9195152,0.1916498,0.3780126,-0.01599632,-0.01132418,0.0007117074
0.9208089,0.1862244,0.3784321,-0.00705795,-0.01054486,-0.005179933
0.9217314,0.1868573,0.3790436,-0.00051596,-0.004199797,-0.007003001
0.9226221,0.1897752,0.3801652,-0.002566918,0.003286511,-0.006020657
0.9259315,0.1912263,0.3745627,-0.001949463,0.003307397,-0.002539522
0.9273613,0.1945262,0.3687433,0.002883026,0.000152001,-0.002185437
0.9260076,0.1973474,0.3733117,0.001615982,0.001019624,-0.001124234
0.9261915,0.1959497,0.3771491,-0.003524669,-0.0005440382,0.004354995
0.9266379,0.1981018,0.3747341,-0.00365355,-0.0006437634,0.007037641
0.925155,0.2007731,0.3764135,-0.003867747,0.001711982,0.005372992
0.9246493,0.196064,0.3800469,-0.007501382,0.001067848,0.001098304
0.9243088,0.192007,0.378281,-0.01047561,0.002385845,-0.003014015
0.9240091,0.1927957,0.3743521,-0.01047708,0.002312311,-0.007705116
0.9244104,0.1934266,0.3712438,-0.007900137,2.635562e-05,-0.008707224
0.923125,0.1919207,0.372139,-0.006929332,-0.001481299,-0.004930186
0.9215103,0.1912318,0.3769172,-0.004108807,-0.006347528,-0.006961966
0.9205819,0.1919237,0.3782593,-0.0004234739,-0.01082637,-0.007695124
0.9205357,0.1917475,0.3769304,0.0006243393,-0.01181574,-0.007753483
0.9218869,0.1925447,0.3760491,0.001400174,-0.009204498,-0.01141836
0.9243099,0.1936083,0.3764152,-0.005392766,-0.004816727,-0.008557185
0.9269899,0.1942573,0.3787487,-0.009263218,0.0006823483,-0.008641768
0.9252408,0.1964534,0.3793882,-0.003307247,0.00609038,-0.007690521
0.9220853,0.1978729,0.3796178,-0.003218436,-0.00353721,-0.0008122887
0.9238338,0.1971062,0.3809823,0.0004454607,-0.01853099,0.001391727
0.9246224,0.1943669,0.3816624,0.00647052,-0.01631709,0.008551811
0.9246187,0.1877399,0.3796829,0.003230808,-0.00834042,0.01196374
0.9273431,0.1813719,0.3754255,0.004470606,-0.00666357,0.009517508
0.9264965,0.1869634,0.3757558,0.00534315,-0.01764786,0.01244004
0.9246936,0.2007198,0.3764082,0.0006887648,-0.04093416,0.004930635
0.9264364,0.2080365,0.3743588,-0.003281525,-0.04840838,-0.002906924
0.9300682,0.2098015,0.3769472,-0.01472117,-0.02998026,-0.0004218637
0.9346042,0.2097263,0.3788766,-0.02783317,-0.01440499,-0.001990562
0.932306,0.2082222,0.3783691,-0.03284197,-0.01633215,-0.003381546
0.9276528,0.2032432,0.3794161,-0.02968159,-0.01576328,-0.003816231
0.930472,0.1940972,0.3793118,-0.01935391,-0.006803254,-0.005987822
0.9313253,0.1926748,0.378998,-0.01192348,0.0002160602,-0.003211396
0.9294604,0.195267,0.3799236,-0.01127692,0.00977022,0.00430648
0.9292477,0.1913374,0.3829557,-0.01032705,0.01044619,0.0138836
0.9270805,0.1890585,0.3866869,-0.003478779,0.002975786,0.02233727
0.9274219,0.1895157,0.386405,0.006048123,0.006671115,0.02422012
0.928337,0.1888499,0.3826308,0.01477625,0.004923668,0.02374968
0.9263331,0.1879729,0.3773536,0.02292292,0.001437431,0.02504177
0.9262691,0.1860736,0.3722069,0.02508687,0.005870079,0.01782586
0.9262825,0.1861697,0.3709402,0.02507704,-8.34802e-05,0.008446955
0.9252029,0.1903896,0.3714219,0.02210424,-0.003006284,0.00855916
0.924017,0.1935302,0.3705592,0.01430969,-0.0009227088,0.01097529
0.9232244,0.1944602,0.3721274,0.01451232,-0.003505268,0.0139009
0.9250651,0.1982286,0.3718238,0.01675359,-0.00202353,0.01209856
0.927365,0.1982494,0.3672749,0.01572229,-0.004803474,0.007025835
0.9290554,0.1944273,0.3677978,0.0122729,-0.008593802,0.004955402
0.9296833,0.1953784,0.3706261,0.005524819,-0.006306027,0.001052653
0.9286652,0.193462,0.3712946,0.006743144,-0.002311362,0.003313023
0.9282946,0.1918395,0.3729081,0.006426341,0.002715694,0.0065719
0.9278601,0.1941564,0.3744032,0.001619437,0.001124844,0.004017459
0.9283401,0.1925036,0.3765408,0.002635986,-0.001186272,0.006241187
0.929807,0.1929697,0.3783885,-0.002630656,0.001368165,0.006681707
0.9287668,0.1936095,0.3780041,-0.008859105,0.0002624723,0.006124461
0.9270774,0.1925205,0.377287,-0.003283405,-0.003286803,0.0103085
0.9261705,0.1939793,0.3767085,0.003721881,-0.009025152,0.01205661
0.9260048,0.1910993,0.3745784,0.004717888,-0.01341941,0.01086358
0.9273282,0.1856687,0.3695463,0.003174282,-0.01025304,0.008890201
0.9293467,0.1822528,0.3650708,0.003646193,-0.006720064,0.008619838
0.9329312,0.1811086,0.3651678,0.009070435,-0.003388736,0.007139377
0.9345303,0.1809944,0.3692706,0.016993,0.001892396,0.003958799
0.9323395,0.1817419,0.3721319,0.01852908,0.002771128,0.002977326
0.931286,0.1884228,0.3707769,0.01517237,0.0023969,-0.0009079011
0.9295929,0.1946639,0.370887,0.01179392,-0.0006077371,-0.004854438
0.928373,0.197003,0.3739103,0.005109976,-0.007562649,-0.005776572
0.9306231,0.1996166,0.3760558,0.001432627,-0.005649318,-0.003981013
0.9306846,0.1996061,0.3763222,0.001730033,-0.003252574,0.001847625
0.9291764,0.1984985,0.3737013,-0.001565029,-0.008299994,0.002034478
0.9284431,0.1969178,0.3687368,-0.004069484,-0.008504435,0.001787115
0.9281027,0.1951769,0.3645482,-0.006935407,-0.008208652,0.00716934
0.9297861,0.1967069,0.3614298,-0.01270072,-0.00922916,0.006786665
0.930344,0.1970035,0.3587907,-0.01253492,-0.007781539,0.008048315
0.9299473,0.1922043,0.3651035,-0.01072385,-0.008296666,0.01211386
0.9292496,0.1869509,0.3749199,-0.01373555,-0.005487319,0.006558198
0.9269394,0.1866774,0.3711948,-0.01312723,-0.0007859139,0.0003675654
0.9273398,0.1881969,0.3683814,-0.01021997,0.0006258928,0.0005478436
0.9275847,0.187172,0.3730688,-0.008728225,0.0009371321,0.002574854
0.9261232,0.1861886,0.3711581,-0.005327453,9.237099e-05,0.00237385
0.9290794,0.1852648,0.3717481,-0.003099123,0.002222344,-0.004048998
0.9317998,0.1852298,0.373789,-0.002335763,0.004751205,-0.01052393
0.9304349,0.1905315,0.372223,-0.003113181,0.004688854,-0.008331232
0.9301525,0.196897,0.3765079,-0.003730865,0.006745826,-0.002987828
0.9307145,0.1979761,0.379875,-0.001540251,0.005813555,-0.001134472
0.9296021,0.1987609,0.3824956,-0.001661906,0.001666534,0.0007375932
0.9287525,0.2026658,0.3856173,-0.001038651,-0.0006859187,0.001192621
0.9292334,0.2036298,0.3797033,-0.002111843,-0.003673123,0.0009782689
0.9294716,0.2018791,0.3739599,-0.009109456,-0.005858876,0.004668278
0.9299179,0.1998444,0.3753637,-0.01287023,-0.006222546,0.005639301
0.930901,0.1930204,0.3789934,-0.01464138,-0.006168996,0.004850978
0.9306655,0.1864679,0.3812491,-0.01381767,-0.00700804,0.005031442
0.9303002,0.1882483,0.3789397,-0.007502199,-0.009339417,0.002307475
0.930714,0.1900027,0.3766909,-0.001742777,-0.008823435,-0.001085989
0.9305567,0.1867372,0.3773214,0.0007866005,-0.004550487,-0.007354593
0.9304548,0.1869041,0.3752101,-0.001199564,0.001212194,-0.01134308
0.9306646,0.1895955,0.3705986,-0.001430979,0.003700552,-0.006321479
0.9299661,0.189601,0.3707339,0.0002765513,0.001257032,-0.0006777024
0.9278612,0.1909702,0.37543,-0.0004658142,0.001044249,0.001866388
0.9261645,0.1936058,0.3790289,0.0005601235,0.0008716094,0.001301943
0.9286843,0.1955392,0.3800341,-0.001365406,-0.0007149357,0.0009242556
0.9318574,0.196947,0.3788153,-0.002592216,0.001251554,0.003367334
0.9293203,0.1962802,0.3783572,0.001939276,0.00156031,0.003957686
0.926325,0.1972287,0.3770271,0.003941035,-0.001091185,0.007044074
0.9267966,0.1974473,0.3737605,0.004566206,-0.002699185,0.01211719
0.9281277,0.193568,0.3740675,0.001670253,-0.002435435,0.009997715
0.9306882,0.1913159,0.3722542,-0.0031921,-0.001750134,0.005184834
0.9312239,0.1895069,0.3682264,-0.0009218,-0.00381595,0.003810892
0.929922,0.1883161,0.3718936,-0.0002481979,-0.005347299,0.003368064
0.930818,0.188943,0.3768805,-0.004471646,-0.004613974,0.002635748
0.9306682,0.1878848,0.3803229,-0.006032022,-0.003217792,0.001543928
0.9298775,0.1880145,0.3860432,-0.005612306,-0.001431462,-0.0001005747
0.9290985,0.1909803,0.3842701,-0.003153329,-0.002757408,-0.001118077
0.9268602,0.1940275,0.3785022,0.0009289913,-0.004047492,-0.001118413
0.9266783,0.1923815,0.3804711,0.004344439,-0.001662051,-0.001025901
0.9266745,0.1884817,0.3797056,0.004718849,-0.0001974191,-0.002320209
0.9264066,0.189085,0.3759974,0.001024659,-0.0004351184,-0.005918672
0.9293718,0.1902178,0.3788903,-0.0001324496,-0.0006091616,-0.009245755
0.9314169,0.192052,0.3808238,0.001637532,-0.0009182344,-0.006841695
0.9306121,0.1941427,0.3814696,0.001827539,-0.002476416,-0.001769618
0.931462,0.1921431,0.3802768,0.001784128,-0.004300946,-0.002011809
0.9369642,0.1902125,0.3759644,0.0008187145,-0.002961753,-0.001499723
0.9414018,0.1891622,0.3777598,-0.0003638225,-0.001068005,0.002138662
0.935991,0.1917825,0.3788135,-0.00208525,-0.002104098,-0.0003817945
0.9292218,0.1962072,0.3768972,-0.006143981,-0.003770612,-0.003068491
0.931638,0.1936059,0.3790234,-0.009453295,-0.003827891,-0.001545985
0.9330687,0.1921138,0.3784347,-0.00885906,-0.001581268,-0.002283268
0.9291299,0.1956446,0.3755656,-0.001507142,0.001106194,0.0006808099
0.9283247,0.1952078,0.3725573,0.006501386,0.003153417,0.003925777
0.9283066,0.1898163,0.3687071,0.007350518,0.005339737,-0.001945793
0.9278765,0.1831886,0.3696928,0.007017464,0.004661893,-0.004774173
0.9299111,0.1821656,0.3736198,0.00756836,0.00316419,-0.002075465
0.9295536,0.186354,0.3758138,0.004017712,0.004844111,0.0006658536
0.9295585,0.1878095,0.3753847,0.0005043442,0.00522825,0.006257384
0.9324919,0.1895916,0.3736262,0.001343425,0.005067754,0.00614688
0.9330113,0.1931319,0.371885,0.00114798,0.006037033,0.002584927
0.9324349,0.1943144,0.3694324,3.625415e-05,0.004518317,0.002649256
0.9292451,0.1947087,0.3702764,0.00162763,0.003033239,-0.001328793
0.9251429,0.1944283,0.3722805,0.002176297,0.001497342,-0.001928864
0.9287384,0.1942397,0.3710096,0.004034183,-0.0006926274,0.004455121
0.9319453,0.1947114,0.3721285,0.008061333,-0.001726433,0.005422938
0.9274416,0.1942603,0.3721794,0.007867037,-0.004319961,0.003006223
0.925009,0.1944761,0.3696142,0.006462907,-0.005623192,0.002634111
0.9271394,0.1945526,0.3711665,0.006568069,-0.004703313,0.004849966
0.92862,0.1939081,0.3708765,0.005584013,-0.004590246,0.009127193
0.9305753,0.1928247,0.3683581,0.005846989,-0.003086982,0.00983898
0.9330368,0.1906738,0.3684397,0.00722066,-0.0001318929,0.008571572
0.9335843,0.1898353,0.3699263,0.006911841,0.002183734,0.007805968
0.9332245,0.1895657,0.3741815,0.006530108,0.001169521,0.005227067
0.932179,0.189111,0.375987,0.005963216,8.563175e-05,0.003359575
0.9307127,0.1889904,0.376354,0.005030893,0.002641244,0.001492833
0.9303401,0.1876489,0.3802257,0.00525779,0.003471455,0.001387936
0.9305224,0.1872446,0.3799243,0.005131539,0.002700831,0.004495496
0.930679,0.1880489,0.3782478,0.004810968,0.00152749,0.004887431
0.9305119,0.1893031,0.3805873,0.003932711,-0.0001263385,0.004299044
0.9304766,0.1916439,0.3802513,0.002441231,0.001184815,0.003662895
0.9305181,0.1910813,0.3766345,0.003123658,0.00159125,0.002969824
0.9291934,0.1886916,0.3748046,0.003904301,-0.00184461,0.004108237
0.9274879,0.1888535,0.3784796,0.003619017,-0.00434089,0.003663868
0.9274136,0.1899214,0.3841787,0.002189172,-0.002165689,0.002932417
0.9286928,0.1905269,0.3829542,-0.001953041,0.001384117,0.002862873
0.9281465,0.1907269,0.3765511,-0.002820154,0.002528871,0.004004978
0.927304,0.1918494,0.3710016,0.00259617,0.004093682,0.0047623
0.9303591,0.1932079,0.3670484,0.007747666,0.004734167,0.002173731
0.9330643,0.1905813,0.3626278,0.008816645,0.003451416,0.001689199
0.9335594,0.187568,0.3575334,0.005737653,0.003899378,-0.001308016
0.9329196,0.1887023,0.3629133,0.002455039,0.003912041,-0.006064136
0.9293392,0.1886313,0.3740895,0.003184053,0.002815345,-0.002641413
0.9272034,0.1867008,0.3734881,0.00328988,0.00287108,0.001497824
0.9293244,0.1878628,0.3740684,0.000873892,0.004058035,0.001397112
0.931552,0.1897241,0.3810517,-0.0005547594,0.004933378,-0.003921357
0.9307062,0.1907393,0.3798434,-0.001771248,0.004139931,-0.008891076
0.9298266,0.1924741,0.373981,-0.003230791,0.004262331,-0.006494645
0.931315,0.1932598,0.369976,-0.004733353,0.00555595,-0.006966289
0.931373,0.1932433,0.3743287,-0.003953681,0.00569579,-0.004942787
0.9314858,0.1927806,0.3807421,-0.001340398,0.003129787,-0.0001762181
0.9308052,0.1921787,0.3755164,-0.002435717,-0.001995402,-0.003739674
0.928007,0.1922146,0.3704331,-0.002920592,-0.002962729,-0.003349049
0.9291575,0.1912412,0.3696055,-0.000917091,0.00145076,-0.001583649
0.9296447,0.1900329,0.3702659,-0.001598566,0.004676033,-0.003407566
0.9275858,0.1899504,0.3774133,-0.00291518,0.005292078,-0.0020108
0.9280575,0.1904954,0.379805,-0.003777901,0.005418488,-0.002466536
0.9290967,0.1900639,0.3735125,-0.00275563,0.004407912,-0.002361342
0.9320791,0.1881474,0.3696828,-0.001280758,0.001698587,-0.00404276
0.9343014,0.1872192,0.3738324,-0.005077555,0.002210163,-0.007151689
0.9320802,0.1878064,0.378187,-0.00822698,0.004560716,-0.004468217
0.9304798,0.1903725,0.3724453,-0.006416428,0.004888323,-0.004108657
0.9306408,0.1922443,0.3686524,-0.004742838,0.005235114,-0.004260378
0.9316351,0.1896901,0.3724561,-0.004252419,0.0007879283,-0.000896062
0.9335226,0.1865928,0.3744703,-0.004301683,-0.003774436,0.001209644
0.9354314,0.1845562,0.3772298,-0.005102581,-0.001901407,0.0005063308
0.9362535,0.183675,0.3781285,-0.005984065,-0.002171607,-0.001724769
0.9342238,0.187444,0.3769372,-0.006910858,-0.001797916,-0.001020107
0.9314462,0.1920916,0.3771886,-0.006763489,-0.000306951,-0.003361383
0.9308972,0.1911013,0.3714457,-0.005464834,-0.002728778,-0.007428929
0.9315112,0.1907409,0.3657389,-0.007099012,-0.001481299,-0.004586921
0.9319958,0.1944655,0.3678598,-0.008221174,0.004230748,-0.003283654
0.9314585,0.1933095,0.3694828,-0.003461041,0.009217857,-0.004311818
0.9282334,0.1912414,0.3692064,-0.0006813143,0.00716389,-0.002398334
0.9257521,0.1904845,0.3712709,-0.0006962629,0.001539304,-0.001505345
0.9292022,0.1860178,0.3715637,0.0009024361,0.003005791,-0.002934488
0.933827,0.1871812,0.3699593,0.0001972215,0.003516639,-0.004274061
0.9338166,0.1907283,0.3715176,-0.000912549,0.00250256,-0.00352542
0.9326911,0.1899782,0.3729221,-0.002231062,0.004532531,-0.003195919
0.9324424,0.1915748,0.3735408,-0.003870202,0.003636339,-0.003895704
0.9308448,0.192161,0.3743559,-0.002238094,0.00415569,-0.00315844
0.9298162,0.1914773,0.3733597,-0.001757932,0.00371767,-0.00185237
0.9297534,0.1901531,0.3754246,-0.002376792,0.0006782245,-0.0002210146
0.9280282,0.1862063,0.3772411,-0.001546286,0.0007197964,0.0009435162
0.9275831,0.187139,0.3748869,-0.001011325,8.957835e-06,0.002213805
0.9298417,0.1896538,0.3738657,0.0002906152,0.0007561786,0.003973259
0.9307462,0.1892015,0.3739005,0.0006810574,0.001155449,0.004386924
0.9288544,0.1896233,0.3765576,-0.002184812,-0.0002028284,0.004640543
0.9269419,0.1879905,0.380698,-0.005399356,0.001821544,0.002782582
0.9280601,0.1869421,0.3798379,-0.004625351,0.001715142,-9.542047e-05
0.9300698,0.189783,0.3740917,-0.002929555,0.002112203,0.001525746
0.9305106,0.1908443,0.3691667,-0.003775871,0.004654878,0.002910249
0.9299682,0.1905303,0.3720414,-0.001874969,0.004224671,0.002625282
0.9286596,0.1919952,0.3755842,0.001257901,0.003745407,0.006010352
0.9289828,0.1932507,0.3729664,0.003087003,0.002528476,0.008491601
0.9293164,0.1915671,0.3733025,0.006321039,0.002678373,0.006201717
0.9269804,0.1892254,0.3757095,0.005660925,0.003450449,0.002882611
0.9259266,0.1902859,0.3766467,0.001794455,0.001153888,-0.000523101
0.9269137,0.1906718,0.3794274,0.001048196,0.000517876,-0.002788326
0.9710242,0.1828342,0.2753452,-0.1906477,0.06380983,-0.2966937
0.9669299,0.1860477,0.270209,-0.1910374,0.05909857,-0.297998
0.9677683,0.1858935,0.2702331,-0.1877439,0.06579694,-0.299219
0.9687003,0.1880238,0.2725866,-0.1856194,0.06341031,-0.2976321
0.9653129,0.1883372,0.2718733,-0.1825016,0.05917632,-0.2953434
0.9653223,0.1869712,0.2712415,-0.1748959,0.05885717,-0.2924821
0.9661893,0.1911378,0.2697792,-0.1722995,0.05850751,-0.2927518
0.9667093,0.1905869,0.2687461,-0.1729907,0.06237889,-0.2962672
0.96744,0.1862057,0.2701149,-0.1799909,0.05816265,-0.2980741
0.9668421,0.18742,0.2705107,-0.1846956,0.05480808,-0.2968183
0.9685088,0.1902792,0.2728229,-0.1838652,0.06112926,-0.2939761
0.9674299,0.1925336,0.2744889,-0.1857572,0.06324767,-0.2911948
0.9656538,0.1929096,0.2733412,-0.182379,0.0639412,-0.2853275
0.9672656,0.1903615,0.2735299,-0.181269,0.06557882,-0.2798687
0.9665181,0.1869301,0.2739106,-0.1813864,0.064521,-0.278818
0.9665033,0.1874044,0.2744667,-0.176956,0.05889112,-0.2716437
0.9673415,0.19103,0.275254,-0.1769887,0.05249695,-0.2634022
0.9682953,0.1914493,0.2752893,-0.1735826,0.05300947,-0.263359
0.970957,0.1893023,0.2757366,-0.1682483,0.05287537,-0.2593587
0.9699618,0.1864409,0.2763125,-0.1647358,0.05173409,-0.253383
0.966496,0.1871535,0.2739518,-0.1624408,0.05365162,-0.2545351
0.9634891,0.1897231,0.2682282,-0.1653381,0.05270323,-0.2536303
0.9620162,0.1894205,0.2658072,-0.1633128,0.05157524,-0.249731
0.9644384,0.191629,0.2693132,-0.1607296,0.05079197,-0.2472001
0.9672727,0.1925411,0.272235,-0.1610521,0.0476309,-0.2406094
0.9677945,0.1918259,0.2709948,-0.1572974,0.04598198,-0.2355233
0.9680096,0.1936492,0.2715252,-0.1583968,0.04959872,-0.2371329
0.9683244,0.192115,0.2753034,-0.1634365,0.05591619,-0.2391661
0.9678793,0.1910141,0.273745,-0.166513,0.05910705,-0.2405507
0.9678257,0.1922148,0.2676568,-0.1663908,0.06082937,-0.2365802
0.9671973,0.192406,0.265571,-0.1661538,0.0594965,-0.2307963
0.9652773,0.1933877,0.2686103,-0.1704033,0.05256915,-0.2290858
0.9655416,0.1931532,0.2715435,-0.1680585,0.04928753,-0.2223934
0.9681058,0.1924423,0.2733052,-0.1645348,0.055097,-0.2196416
0.9700311,0.191126,0.2766008,-0.1664923,0.06457944,-0.2241941
0.9687343,0.1878372,0.2757904,-0.1609686,0.06791346,-0.2241869
0.9663906,0.1867626,0.2726942,-0.156915,0.06241617,-0.2214733
0.9673507,0.188084,0.2719758,-0.1583981,0.05681705,-0.2148252
0.9673051,0.1894553,0.266753,-0.1562281,0.05731385,-0.2105101
0.9644178,0.190761,0.2657114,-0.153851,0.06106167,-0.2109221
0.9639882,0.1914893,0.2731991,-0.1510684,0.06294104,-0.2105581
0.9674532,0.1915905,0.2771832,-0.1499744,0.06172038,-0.2134209
0.9702993,0.1918179,0.2783185,-0.1506497,0.05945823,-0.2108452
0.9669987,0.1918668,0.2750682,-0.1503832,0.06066255,-0.2053696
0.9635683,0.1923696,0.2682208,-0.152114,0.06256161,-0.2055314
0.9655998,0.1933537,0.26568,-0.1509025,0.05920537,-0.2062781
0.9656498,0.1920154,0.2664475,-0.1477253,0.05857585,-0.2072736
0.963724,0.1900224,0.2688926,-0.1480478,0.060674,-0.1988035
0.9643119,0.1893031,0.2684733,-0.1474288,0.05703206,-0.1883711
0.9656088,0.1882107,0.2674824,-0.1444404,0.05511321,-0.1930035
0.9671612,0.1870804,0.2709256,-0.1408706,0.05707458,-0.194704
0.9670524,0.1862998,0.2733223,-0.1373951,0.05802269,-0.1859534
0.9660565,0.1883836,0.2755154,-0.1369381,0.06025626,-0.1805857
0.9669834,0.1916119,0.275829,-0.1382196,0.06006729,-0.1782622
0.9665854,0.1911064,0.2740054,-0.1367215,0.05705486,-0.1761539
0.9654269,0.1930837,0.2759636,-0.1377898,0.05617812,-0.1751862
0.9651757,0.1975412,0.2778804,-0.1420778,0.05590159,-0.1735106
0.9642806,0.1957642,0.279107,-0.1427313,0.0577451,-0.1714484
0.9646736,0.1927829,0.2778335,-0.1446149,0.05879505,-0.1696153
0.9657165,0.1924108,0.2731862,-0.1436743,0.0550283,-0.167339
0.9662135,0.190889,0.2725949,-0.1347027,0.05277788,-0.1650365
0.9669042,0.1906789,0.2714672,-0.1287528,0.05213877,-0.1626708
0.9665215,0.1909049,0.268237,-0.1265472,0.05106192,-0.1614095
0.9656725,0.1914156,0.2693221,-0.123589,0.04900794,-0.1615208
0.9652524,0.1942217,0.2707736,-0.1180145,0.04486783,-0.1581919
0.9660243,0.1941905,0.2725716,-0.1124348,0.0431088,-0.1484242
0.9671871,0.1939034,0.2761741,-0.1136925,0.04332341,-0.1414792
0.9666255,0.1947094,0.2754132,-0.1141976,0.04587017,-0.1448267
0.9664508,0.1913184,0.273063,-0.1137807,0.04929261,-0.148151
0.9668869,0.1897191,0.2738682,-0.1187783,0.04766097,-0.1478775
0.9663841,0.1922074,0.2733193,-0.1191858,0.04663133,-0.1468346
0.9659404,0.1938878,0.2707645,-0.1146388,0.04699475,-0.1410696
0.9663251,0.19417,0.2672991,-0.1127334,0.04609098,-0.1377066
0.9685493,0.1936253,0.2646326,-0.1121812,0.04798281,-0.1374908
0.9699862,0.1921991,0.2679575,-0.1115721,0.04859767,-0.1345911
0.9673799,0.1893529,0.2730202,-0.110478,0.04543253,-0.132786
0.9648546,0.1898348,0.2752545,-0.109632,0.04437218,-0.1306217
0.9651749,0.1922755,0.2742578,-0.1089357,0.05010711,-0.1307003
0.9654397,0.1912661,0.2712129,-0.1075471,0.05602854,-0.1312206
0.9651839,0.191547,0.274723,-0.1057232,0.05212444,-0.1261643
0.9651299,0.1911265,0.2784083,-0.10259,0.04608393,-0.1210703
0.964207,0.1894382,0.2757293,-0.0998572,0.04362414,-0.1154923
0.9628901,0.190648,0.2776527,-0.09930177,0.03879925,-0.1140392
0.9633846,0.1899569,0.2813562,-0.09953702,0.03650491,-0.1161648
0.9660332,0.1882209,0.2818694,-0.1015355,0.04224343,-0.1118126
0.9674422,0.1880099,0.2797938,-0.1047443,0.04927583,-0.1115816
0.966514,0.1911081,0.2735184,-0.1031628,0.04989864,-0.1157794
0.9662564,0.1973945,0.2704967,-0.09921205,0.04518521,-0.1148393
0.9660374,0.1982713,0.2706064,-0.09878532,0.04077425,-0.1117874
0.9645346,0.1959543,0.2691928,-0.0973593,0.03804674,-0.1072195
0.9633402,0.1947608,0.2694694,-0.09612224,0.04017107,-0.1066683
0.9622822,0.1923232,0.271471,-0.09777454,0.04505444,-0.1082836
0.9624341,0.1929217,0.2728301,-0.09758375,0.04456303,-0.1064384
0.9648834,0.195602,0.2722286,-0.09589541,0.04480074,-0.1055812
0.9666505,0.1959988,0.2719276,-0.09231344,0.04735129,-0.1023815
0.9667305,0.1959493,0.2721457,-0.08951634,0.045701,-0.09922825
0.9654338,0.1959407,0.2697568,-0.09155868,0.04520324,-0.09891828
0.963015,0.1966207,0.2662279,-0.09319496,0.04502466,-0.0975097
0.9620238,0.1975122,0.2643221,-0.09303249,0.04060753,-0.09877165
0.9622977,0.1959401,0.2661539,-0.09283748,0.03742909,-0.0989356
0.9617854,0.1935672,0.2702727,-0.09056568,0.03977545,-0.09431679
0.9609646,0.1926247,0.2729358,-0.08446929,0.04291251,-0.08864565
0.9617861,0.1929316,0.2716559,-0.0787712,0.04018429,-0.0842739
0.9631435,0.1939019,0.2678821,-0.07837548,0.03596841,-0.08243487
0.9624153,0.1950374,0.2683491,-0.07827216,0.0340799,-0.07949603
0.9627477,0.1956433,0.2720712,-0.07628342,0.03480435,-0.07807199
0.9655348,0.1943828,0.2743277,-0.07623205,0.03917236,-0.08120631
0.9672675,0.1943299,0.2740889,-0.0770634,0.03973209,-0.08460413
0.9670069,0.1952378,0.2727632,-0.07565254,0.03753356,-0.08590411
0.9661742,0.1928824,0.2766359,-0.07099797,0.03689584,-0.08262806
0.9667856,0.1927697,0.2808849,-0.06589429,0.03432459,-0.07884575
0.9669463,0.1949851,0.2788229,-0.06459716,0.0350139,-0.07719023
0.9662481,0.1959259,0.2765911,-0.06645705,0.03990384,-0.07491518
0.9664142,0.1975714,0.2753355,-0.06752218,0.04297991,-0.07525791
0.9639717,0.1947266,0.2745049,-0.0676901,0.04192118,-0.07427494
0.9616437,0.191467,0.2751525,-0.06357327,0.0392948,-0.0695774
0.9633795,0.193475,0.2750924,-0.0558715,0.04091901,-0.06556996
0.9641864,0.1933363,0.2741665,-0.05533629,0.04172983,-0.06071049
0.9618062,0.1926358,0.2714568,-0.0552748,0.03970339,-0.06148982
0.9596051,0.1933427,0.2684042,-0.05075753,0.03674003,-0.06531662
0.9605655,0.1931112,0.2696698,-0.05254958,0.03221756,-0.060878
0.9625273,0.1943286,0.2738591,-0.05556551,0.03749455,-0.05879222
0.9627339,0.1968769,0.2757384,-0.05561885,0.04485448,-0.05995693
0.9619155,0.1994518,0.2748133,-0.05523749,0.04052067,-0.05775679
0.9597233,0.1998831,0.2738143,-0.05291202,0.0376528,-0.05948006
0.9577909,0.1994232,0.2761248,-0.05266894,0.03401439,-0.05855799
0.9588986,0.201857,0.2805728,-0.05233176,0.02492152,-0.05141943
0.9612465,0.2023208,0.2806048,-0.05079871,0.02523145,-0.04618346
0.9632214,0.1955126,0.2815046,-0.05036921,0.02891251,-0.04378302
0.9655798,0.189444,0.285204,-0.04743024,0.02664224,-0.04349986
0.9644015,0.1933558,0.2790401,-0.04615259,0.02644844,-0.04147314
0.9608998,0.1983178,0.272225,-0.04660791,0.02561702,-0.03976029
0.9629491,0.1970022,0.2778832,-0.04449989,0.02209268,-0.0398979
0.9651778,0.1969762,0.2813667,-0.0446362,0.02201579,-0.03830755
0.9644702,0.1975275,0.278211,-0.04650817,0.0218254,-0.04008385
0.9642209,0.195519,0.2791309,-0.04496654,0.0213535,-0.04117562
0.9616395,0.1939894,0.2807438,-0.03894075,0.02111327,-0.03769911
0.9621519,0.1923018,0.2802611,-0.03506362,0.0151933,-0.03433528
0.9646724,0.1918792,0.281216,-0.03663324,0.009046398,-0.02856262
0.9642138,0.1929125,0.2817417,-0.03596301,0.008908501,-0.02350209
0.9658544,0.1955789,0.2811734,-0.0369564,0.01116494,-0.02267343
0.965738,0.1995233,0.2797797,-0.04139248,0.01420783,-0.02548301
0.9654188,0.1957402,0.2798328,-0.04226619,0.01862333,-0.02916641
0.9676478,0.1904969,0.2813938,-0.04278496,0.0203607,-0.02676598
0.9664389,0.1935529,0.2793311,-0.03844404,0.01501123,-0.02457013
0.9661772,0.1937206,0.2784343,-0.03222567,0.009100552,-0.02642508
0.9660968,0.1912742,0.2793217,-0.0343909,0.01118687,-0.02553383
0.9635075,0.1928974,0.2760873,-0.03486573,0.01503776,-0.02549955
0.9628328,0.1933855,0.274209,-0.03412227,0.01545588,-0.03027343
0.962514,0.1942439,0.2749621,-0.03767649,0.01829309,-0.03344176
0.9635808,0.196655,0.2751988,-0.03782871,0.0183789,-0.02637021
0.9662444,0.1978029,0.2752432,-0.03493178,0.01330782,-0.01795844
0.9670891,0.1979906,0.2755932,-0.03285876,0.01312888,-0.02272407
0.9667571,0.1967009,0.276949,-0.03381278,0.01558934,-0.02560536
0.9662204,0.1953704,0.2764297,-0.03534726,0.01853584,-0.01804754
0.9655466,0.1945116,0.2756277,-0.0336418,0.0197261,-0.01625758
0.9633078,0.1934543,0.2752276,-0.03255307,0.016976,-0.01920473
0.9618097,0.192808,0.2736855,-0.03146084,0.0175652,-0.02015189
0.9637668,0.1928534,0.2750858,-0.02868505,0.01632612,-0.0191664
0.9651042,0.1933891,0.2756994,-0.02756155,0.01401511,-0.0158491
0.9646476,0.1929089,0.2741378,-0.02783008,0.01575475,-0.01492452
0.9645797,0.1929212,0.2741945,-0.02862896,0.01512132,-0.01453204
0.9654945,0.193541,0.2725825,-0.03199287,0.01573826,-0.0139207
0.9665624,0.1943701,0.2718752,-0.03544527,0.01666753,-0.0143509
0.9661035,0.198422,0.2743993,-0.03312154,0.01489935,-0.01141703
0.9640843,0.2007351,0.2755184,-0.02870538,0.01276806,-0.007140899
0.9622503,0.1969651,0.275039,-0.027464,0.00897764,-0.002858845
0.9646851,0.1927482,0.2747869,-0.02781821,0.008750851,-0.002196418
0.9683027,0.1924671,0.2750802,-0.03053925,0.009401682,-0.004419016
0.9669456,0.1931962,0.2751014,-0.03290993,0.008429964,-0.002255795
0.9676518,0.1909292,0.276253,-0.03206184,0.01295563,-0.003757331
0.9704443,0.1887152,0.2822676,-0.03196476,0.01690762,-0.007210236
0.9671635,0.188664,0.2870383,-0.03082891,0.01541419,-0.005289387
0.9637757,0.1891247,0.2804428,-0.0255082,0.01433365,-0.007039574
0.9637504,0.1899277,0.2716912,-0.02096241,0.01505002,-0.01098514
0.9635796,0.1903663,0.2729161,-0.02232218,0.01596512,-0.01267829
0.9630242,0.1904587,0.2742774,-0.02603446,0.01729285,-0.01457731
0.9614411,0.1905076,0.2750751,-0.02617483,0.0180346,-0.01419312
0.961337,0.1921627,0.2807567,-0.02403592,0.01721626,-0.01247041
0.9623641,0.1950777,0.2773966,-0.02070311,0.01705696,-0.01236836
0.9619421,0.1968562,0.2721138,-0.01772759,0.01596442,-0.01115771
0.9636383,0.1993308,0.2761703,-0.01831425,0.01341166,-0.008509542
0.966131,0.1999442,0.2746761,-0.0203112,0.01218555,-0.008323085
0.9649725,0.1953252,0.270334,-0.02201239,0.009993686,-0.007291876
0.9624722,0.1914935,0.2702653,-0.02120821,0.009410471,-0.003538161
0.9619365,0.1929452,0.2733137,-0.01887524,0.01103989,-0.0009854703
0.9627845,0.1948862,0.2803418,-0.01912063,0.009784085,0.0004932221
0.9626131,0.1941599,0.279358,-0.01846311,0.008508972,0.0008638112
0.9622115,0.1944491,0.2731748,-0.01725791,0.007669942,0.002709321
0.9627191,0.1947448,0.2727331,-0.01692173,0.007148751,0.005543653
0.9624678,0.1936794,0.2765133,-0.01486898,0.008174308,0.005722515
0.9629038,0.1927533,0.283816,-0.01360655,0.007290922,0.003710869
0.9653726,0.1902169,0.2839521,-0.01339876,0.007098404,0.0003441864
0.9668035,0.1895689,0.2771998,-0.01420206,0.00755063,0.00332577
0.9643467,0.1909046,0.2748597,-0.01323413,0.005563807,0.00792457
0.9611242,0.1900259,0.274443,-0.006995297,0.003752021,0.005443398
0.9623607,0.1901831,0.2762519,-0.002844092,0.0009776988,0.006572654
0.9633712,0.1905568,0.2768729,-0.002364323,-0.0003164387,0.008297597
0.9624869,0.1903436,0.274432,-0.002767914,0.003447138,0.005267878
0.9662546,0.1922505,0.2734371,-0.006450686,0.006662046,0.004720296
0.9694528,0.1935615,0.271618,-0.01213951,0.009047685,0.004712747
0.967981,0.1931857,0.2737554,-0.01459837,0.01058056,0.004632492
0.9672684,0.1927857,0.2793246,-0.007948384,0.003320513,0.006131385
0.9661854,0.193832,0.2823562,-0.0004479242,-0.004586063,0.01105255
0.9629794,0.1968007,0.2837802,-0.0003890063,-0.002135816,0.01749058
0.9617399,0.199809,0.2828796,0.004457961,-0.003135979,0.01993789
0.9637153,0.2009857,0.2848128,0.01485942,-0.009546608,0.02469217
0.9644086,0.2011092,0.2909342,0.02537956,-0.009153011,0.03061605
0.9644429,0.199369,0.2939852,0.03798174,-0.009247656,0.03223327
0.9688292,0.1881099,0.2847412,0.03461219,-0.005155595,0.02932086
0.9740201,0.1741513,0.2681337,0.01219488,0.01607635,0.01413195
0.9738565,0.1743242,0.266889,-0.005828247,0.03179507,-0.0009681661
0.9686477,0.17983,0.2718247,-0.01403511,0.0213702,5.409237e-05
0.9633564,0.1826734,0.2683663,-0.01214339,0.01007663,0.002224221
0.9612894,0.1916824,0.2700539,-0.01005928,0.01486321,-0.0001428638
0.961511,0.1981151,0.2737771,-0.0134351,0.01165706,0.002535703
0.9614754,0.1967776,0.2752111,-0.004679797,0.003633331,0.004745975
0.9605604,0.198297,0.2762366,0.002266294,0.006339836,0.003312342
0.9619843,0.1983033,0.2746602,-0.001282036,0.006256433,0.004860732
0.965002,0.195339,0.2751286,-0.002322787,0.01270767,0.006980768
0.9675889,0.1932557,0.2709211,-0.00670764,0.0228271,0.009126286
0.9692789,0.1901201,0.2660184,-0.007867729,0.01824905,0.01266862
0.9683693,0.195698,0.2712279,-0.009916547,0.01742546,0.009902801
0.9660758,0.2034267,0.2737797,-0.01638267,0.01816303,0.005920381
0.9618745,0.1997755,0.2723412,-0.01243186,0.0144233,0.009149008
0.9599313,0.1986093,0.2764234,-0.007645859,0.01736149,0.01365972
0.9604383,0.2009426,0.2826625,-0.00460156,0.01655083,0.01625099
0.9578832,0.1968558,0.2847831,-0.0004233945,0.01421319,0.0155803
0.9623498,0.1919338,0.2831989,0.0002976183,0.01536265,0.01281761
0.9707044,0.1892651,0.2848117,-0.001410267,0.01601317,0.01075596
0.9711494,0.1900781,0.2872052,-0.008246353,0.01805179,0.006789936
0.9683002,0.1939128,0.2861114,-0.01112317,0.01515145,0.006623499
0.9617959,0.1976332,0.2866932,-0.006589949,0.00659419,0.01327044
0.9550417,0.2009675,0.2873886,-0.003009947,-0.005619927,0.01769859
0.953696,0.1989361,0.2833598,-0.003350045,-0.01382039,0.01878249
0.9566966,0.1951457,0.2777508,-0.009314456,-0.01265344,0.01714241
0.9614503,0.1965163,0.2760201,-0.01559981,-0.01367981,0.0107505
0.962842,0.1941924,0.2774945,-0.0180538,-0.01109352,0.006121312
0.9659808,0.1905208,0.2780399,-0.01607287,-0.005962604,0.007833495
0.9693603,0.1926626,0.2777755,-0.01477396,-0.005265378,0.01011125
0.9683245,0.1943563,0.2777134,-0.01675028,0.002141464,0.0100411
0.9689264,0.1972062,0.2779508,-0.01473676,0.003701813,0.0132518
0.9654277,0.2011005,0.2791071,-0.01229497,-0.000772632,0.01609366
0.960376,0.2027379,0.2811376,-0.01049394,0.0001955297,0.01494787
0.963093,0.2016963,0.2831697,-0.008904179,-0.004263667,0.01715847
0.9660206,0.1962454,0.2839491,-0.009428445,-0.001803403,0.01815037
0.9662685,0.1937209,0.2826048,-0.005762773,0.00712888,0.01668333
0.9641124,0.1934368,0.2783319,-0.002264044,0.006018651,0.01846308
0.9598401,0.1941428,0.2760912,0.003411441,0.003777132,0.01914338
0.9606651,0.2018368,0.2787573,0.0153348,0.001681857,0.02173164
0.9638994,0.2061057,0.2793675,0.01750752,0.0003789617,0.0259643
0.9635992,0.2031789,0.2803393,0.008442395,-0.0004603556,0.02521646
0.9644457,0.1985151,0.2833448,0.002207859,-0.00328158,0.02202353
0.9658343,0.1923994,0.2817204,0.003394173,-0.002975163,0.01944571
0.9632194,0.1903589,0.2809861,0.007050391,-0.005892143,0.01912478
0.9616899,0.1926115,0.2811354,0.01022671,-0.01024728,0.01828788
0.9623761,0.1958412,0.2787976,0.01322115,-0.01362162,0.01663209
0.9607957,0.1986732,0.2796502,0.01221151,-0.0162245,0.01817426
0.9592439,0.1983671,0.2780648,0.009851461,-0.0119056,0.01890205
0.9609744,0.1964165,0.2737037,0.009039175,-0.009952251,0.01862092
0.9644901,0.1960206,0.2748502,0.005953384,-0.008074298,0.01950144
0.9661758,0.1967551,0.277188,0.005058708,-0.001371573,0.01894523
0.9661655,0.1980024,0.2766673,0.01055588,-0.0009217207,0.01923754
0.9667086,0.200222,0.275503,0.01532562,-0.004441911,0.0190115
0.9668708,0.1971069,0.2751423,0.01229459,-0.007210981,0.01749003
0.9665435,0.1923353,0.2749207,0.007445315,-0.006616042,0.02056454
0.9664535,0.1960121,0.2773539,0.00742684,-0.002351051,0.02330003
0.9658724,0.1987618,0.2851581,0.006668044,0.001804928,0.02350267
0.9647756,0.197524,0.2892758,0.006774783,0.005461611,0.02537669
0.9642369,0.1956418,0.2807582,0.009736516,0.003283328,0.02455753
0.963747,0.1915897,0.2717021,0.01013941,-0.00124499,0.02396271
0.9626906,0.1925703,0.2788912,0.01358161,-0.002159342,0.02468832
0.9627862,0.1942713,0.286381,0.018875,-0.001829209,0.02306452
0.9642344,0.1927203,0.2821796,0.01921771,-0.0003233475,0.02382434
0.9656167,0.1966007,0.2838142,0.01838861,-0.003325697,0.02446281
0.9647458,0.2020076,0.2830439,0.01613145,-0.008176874,0.02397005
0.9630306,0.2030982,0.2765838,0.01448483,-0.007782791,0.02456105
0.9638877,0.1999406,0.2813211,0.01765186,-0.006781504,0.02397298
0.9631639,0.1952051,0.283671,0.02115837,-0.005652747,0.02646679
0.9603092,0.1944462,0.2805605,0.01992562,-0.006107373,0.03032806
0.9583844,0.1946782,0.2815132,0.01538552,-0.008610517,0.02914703
0.9570605,0.1938632,0.2796195,0.01339227,-0.008055952,0.0248684
0.9610245,0.1940284,0.2765877,0.01262406,-0.006496078,0.02235598
0.9658265,0.1939857,0.2740929,0.01069676,-0.007782021,0.02403371
0.9630635,0.1962197,0.2722314,0.01031449,-0.01259565,0.02629709
0.9610068,0.1971053,0.2715658,0.01011434,-0.01538633,0.02661994
0.9623286,0.1906477,0.269281,0.007988653,-0.01352861,0.02633952
0.9610602,0.1855052,0.270779,0.005875309,-0.01053178,0.02440904
0.9617989,0.1884161,0.2753631,0.008583142,-0.007027144,0.02102606
0.9652191,0.1921256,0.277817,0.01197946,-0.005621207,0.01882208
0.96527,0.1916649,0.277469,0.009806608,-0.003193247,0.0178394
0.9633737,0.1920155,0.2746173,0.009414695,-0.0007638916,0.0188182
0.9620065,0.1952288,0.2744402,0.01186664,-0.005787891,0.02134383
0.9625301,0.1984506,0.2745072,0.01245246,-0.009350312,0.01988295
0.9648477,0.1980801,0.2716169,0.01293719,-0.006410829,0.01745642
0.9655346,0.1921392,0.2702599,0.01211416,-0.00203461,0.01807955
0.9651957,0.1899128,0.2694439,0.01045825,0.002719042,0.01759537
0.9643381,0.1932638,0.271193,0.009868907,0.003385666,0.0177297
0.9634481,0.1938809,0.2751623,0.009550993,0.0006201661,0.01657074
0.9638754,0.1947458,0.2757441,0.008743065,0.0003001508,0.01145702
0.9630211,0.1954062,0.2765846,0.006755039,-0.0004040514,0.008660469
0.9621055,0.1959976,0.2783797,0.00662531,-0.006169322,0.009350447
0.9625529,0.19822,0.2779394,0.007881784,-0.01171674,0.01089268
0.9623777,0.1949819,0.2772782,0.007914662,-0.009818602,0.01188395
0.9616054,0.1923123,0.2768111,0.009282002,-0.006236972,0.01339474
0.9611332,0.1935632,0.2753523,0.00981843,-0.007240007,0.01472748
0.9632016,0.1926848,0.274422,0.008546543,-0.007435975,0.01597928
0.9666232,0.1936889,0.2757409,0.00812329,-0.006847977,0.01902118
0.9681255,0.1959555,0.2778367,0.006820191,-0.007708018,0.01615466
0.9680304,0.1976185,0.2796775,0.006336853,-0.00674603,0.01250864
0.9665428,0.1974294,0.2795639,0.006058204,-0.007257307,0.01476056
0.9637161,0.193674,0.2771992,0.003550084,-0.007138044,0.01339533
0.9614373,0.1925354,0.2752383,0.003241128,-0.002843879,0.01448158
0.9614383,0.1930798,0.271072,0.004821487,-0.001795972,0.01907598
0.9614153,0.1933752,0.2681733,0.00776517,-0.004684308,0.02139088
0.9607908,0.1954653,0.2715396,0.01172578,-0.006492063,0.02413064
0.9622257,0.1978125,0.2732345,0.009608025,-0.001884892,0.01842701
0.9634591,0.1992113,0.2718777,0.006562162,0.004060005,0.01164026
0.9649425,0.1963509,0.2721138,0.009401721,0.0008334393,0.01408295
0.9675761,0.1929707,0.2724001,0.00929226,-0.000366839,0.01440134
0.9669841,0.193325,0.2721702,0.004918092,0.004318881,0.01321175
0.9656271,0.1951607,0.2734012,0.003058293,0.004942388,0.01302518
0.9652877,0.199291,0.2785712,0.005344373,0.003875451,0.01252441
0.9631797,0.2010451,0.2834617,0.01020837,0.000756471,0.01534949
0.9625119,0.1996276,0.2803208,0.01199833,-0.002361601,0.01655027
0.962929,0.199426,0.2745874,0.01028469,0.0001575764,0.01484532
0.9622228,0.1970669,0.2744095,0.00791843,0.003849437,0.01609504
0.9634895,0.1931902,0.2745353,0.005555806,0.005814726,0.01733949
0.9646098,0.1921937,0.2735047,0.007040732,0.006732945,0.01541995
0.9644899,0.1934276,0.2764307,0.01000015,0.006805004,0.01466356
0.9656192,0.1932613,0.2784086,0.01101599,0.005554681,0.01422006
0.9652792,0.1931381,0.27585,0.009871054,0.004290221,0.01268686
0.9640296,0.196451,0.272847,0.006257778,0.006403384,0.01278037
0.9638804,0.1997375,0.2718303,0.006199764,0.008307327,0.01235267
0.9637,0.2001621,0.2732617,0.007316931,0.005947424,0.01365325
0.9638503,0.1972083,0.2772551,0.005719775,0.003008462,0.01905105
0.963031,0.1946338,0.280309,0.00623475,0.001323657,0.01947805
0.9620547,0.1959766,0.2765596,0.007222408,-0.0008547624,0.01122057
0.962766,0.1962256,0.2731463,0.009893413,-0.002292449,0.005121967
0.9634866,0.1954384,0.2754549,0.01462886,-0.003731918,0.007548023
0.9640543,0.196193,0.2745902,0.01749733,-0.004871124,0.009556207
0.9638776,0.1974487,0.2736045,0.02026264,0.0008738908,0.008180275
0.9627659,0.2009796,0.2756811,0.01953044,0.007026356,0.00981093
0.9623389,0.2040552,0.2750823,0.01500637,0.002703155,0.01080116
0.9624236,0.2029614,0.2751927,0.01254749,-0.001068095,0.008366936
0.9626021,0.202228,0.2779317,0.01093483,0.002065096,0.007509527
0.9621429,0.2041298,0.2791989,0.007952216,0.001484656,0.008634118
0.9606211,0.2043122,0.2758759,0.004815101,-0.00220874,0.01199882
0.960178,0.2028241,0.2726597,0.006599359,-0.005025396,0.01638334
0.9639166,0.2017953,0.2770565,0.01383991,-0.008036113,0.01776079
0.9682522,0.2002167,0.2810025,0.01764269,-0.007393306,0.01886655
0.9658177,0.1976973,0.2778043,0.0141664,-0.005187824,0.01880986
0.9618311,0.1940951,0.2757276,0.007684342,-0.003778373,0.01499508
0.9615812,0.1937781,0.2758627,0.006134146,-0.003372541,0.01295471
0.9599278,0.1975306,0.2743513,0.01372682,-0.009688348,0.0125121
0.959113,0.199316,0.2743005,0.02054211,-0.01506807,0.01188586
0.9603945,0.1994799,0.2752152,0.0175458,-0.01304407,0.01220494
0.96038,0.1959482,0.2746748,0.01395462,-0.01281657,0.009892173
0.9615364,0.192084,0.2735985,0.01548794,-0.0127915,0.006029721
0.9626809,0.1982951,0.2733618,0.01319984,-0.00621713,0.003811614
0.9640706,0.2037522,0.2757389,0.0117817,-0.000863066,0.002326834
0.9662613,0.1991696,0.2769631,0.01746193,-0.007172844,-0.0002558048
0.9646937,0.1963592,0.2751929,0.01933,-0.01589771,-0.006602536
0.9621141,0.1986931,0.2752851,0.01611485,-0.017033,-0.009479909
0.9609804,0.2002287,0.277665,0.01426341,-0.0201316,-0.001024694
0.9614247,0.2018292,0.2795145,0.01767347,-0.02271258,0.00881955
0.9633748,0.202821,0.2765169,0.0231557,-0.02025087,0.01177853
0.962315,0.1991918,0.2710384,0.02170229,-0.02065599,0.01236345
0.9608722,0.1957656,0.2691923,0.01966276,-0.01864855,0.01418332
0.9605478,0.197499,0.2680319,0.0197729,-0.01583136,0.01563759
0.9590376,0.1996972,0.2692154,0.01833462,-0.01771277,0.01626793
0.9599338,0.1997215,0.2718135,0.0206576,-0.01736383,0.0200552
0.9612137,0.1984257,0.2688974,0.02351275,-0.01644834,0.0245054
0.9617762,0.1969169,0.2669372,0.023678,-0.01611409,0.02496412
0.9631871,0.1986906,0.2686697,0.02232955,-0.01664545,0.02573475
0.9623784,0.2011688,0.2690177,0.01767844,-0.01761835,0.02697813
0.9621895,0.1998691,0.2698504,0.01372531,-0.01423494,0.02608469
0.9629338,0.1993093,0.2715058,0.0148821,-0.01250995,0.02615323
0.9621893,0.1995057,0.271965,0.01678764,-0.0128418,0.0274284
0.9625832,0.1969733,0.2694882,0.01589934,-0.01283747,0.02749711
0.9631545,0.1957154,0.2651091,0.01676229,-0.01362822,0.025105
0.9649583,0.1948697,0.265015,0.01624354,-0.01166313,0.02043139
0.9676957,0.1929591,0.2685545,0.01252726,-0.01090262,0.01522127
0.9668685,0.1938394,0.2701116,0.01273829,-0.01106221,0.01194576
0.9662211,0.1975632,0.2685315,0.01428684,-0.01024655,0.01475193
0.967962,0.2013228,0.2637222,0.01528455,-0.01062684,0.01982395
0.967604,0.2004558,0.2602986,0.01461553,-0.01077449,0.01926329
0.9643567,0.1977504,0.2645852,0.0122973,-0.01431274,0.01854463
0.9616278,0.1977125,0.2705061,0.01323911,-0.01758095,0.0185948
0.9629531,0.1952281,0.2699836,0.01149396,-0.01425441,0.012692
0.9653474,0.1931868,0.2677036,0.008259852,-0.008638502,0.006941094
0.9653965,0.1940635,0.265491,0.009185305,-0.004139382,0.006526966
0.9667988,0.1927691,0.261477,0.008841965,-0.001043158,0.008421557
0.9673093,0.1928853,0.2635929,0.007348702,0.0006404088,0.008000593
0.9651477,0.1948141,0.2680084,0.006747119,0.001612193,0.006736182
0.9661172,0.1961622,0.2654533,0.008250813,0.003343997,0.008379888
0.9671945,0.1983111,0.2645398,0.01004477,0.002008283,0.00745337
0.9663761,0.1991373,0.2664534,0.006865414,-0.0011146,0.006956525
0.9668345,0.2000242,0.2675646,0.0041131,0.0007351481,0.009129375
0.966588,0.2006466,0.2703885,0.005058853,0.001753274,0.01120644
0.9666252,0.1994466,0.2698734,0.00362991,0.001702856,0.01531753
0.966834,0.2000818,0.2680262,0.0004972851,0.003612144,0.01160898
0.9660752,0.2003183,0.2682563,0.000876018,0.002553883,0.005624821
0.9650852,0.1992078,0.2674101,0.00178934,0.001580365,0.007459521
0.9634302,0.198507,0.2658334,-0.0003169888,0.001927368,0.00563779
0.9646942,0.1961031,0.2604851,-0.0008244442,0.002029271,0.004594931
0.9670243,0.1946848,0.2595039,-7.975525e-05,0.002543865,0.006848077
0.9668191,0.1950677,0.2677326,-8.289155e-05,0.002089093,0.005663728
0.9673538,0.1946098,0.2692292,0.00270967,0.003160308,0.007842952
0.9675043,0.1931955,0.2668481,0.004206901,0.004113628,0.01062138
0.9663912,0.1924382,0.2669375,0.001831107,0.002230391,0.009202474
0.9662903,0.1953054,0.2639122,0.00114144,0.001392736,0.009138894
0.9660016,0.196952,0.2633568,0.0009543332,0.002308606,0.009443401
0.9647891,0.1954079,0.262735,-0.0001652302,0.003874136,0.006148112
0.9641519,0.1948556,0.2614382,0.0005102134,0.006879808,0.002849429
0.9638007,0.1941795,0.2643447,0.000829674,0.01061321,0.003721473
0.9628927,0.1964577,0.2666717,-0.0010087,0.01010895,0.004402277
0.9636003,0.197331,0.2706122,-0.00458985,0.005765806,0.002823158
0.9659757,0.1941957,0.2715942,-0.008666985,0.00551428,0.002891654
0.9672582,0.1964808,0.2693895,-0.009711957,0.007194709,0.002373075
0.9667909,0.1974532,0.2718082,-0.009324233,0.006803922,0.0001629345
0.9658985,0.1961033,0.2706977,-0.01019502,0.005896285,-0.0009997644
0.9651281,0.1970154,0.2692913,-0.009389343,0.004823623,-0.003625689
0.963414,0.1933149,0.2708986,-0.008032196,0.008964433,-0.006561264
0.9632093,0.1920991,0.2694402,-0.008843669,0.01635776,-0.007178862
0.9635353,0.1940115,0.269219,-0.008861852,0.01750693,-0.008696589
0.9611532,0.1938192,0.2672859,-0.007930674,0.01297843,-0.009186941
0.9620305,0.1967055,0.2639858,-0.007921426,0.009625811,-0.006027759
0.966339,0.1983021,0.2637166,-0.006986126,0.01220225,-0.002370013
0.9690451,0.1990834,0.2641196,-0.005510846,0.01411347,-0.0008177355
0.9694821,0.2024072,0.2671315,-0.006037275,0.01055542,-0.001520549
0.9656687,0.2032625,0.2698703,-0.007204689,0.008761905,-0.0008105961
0.9625148,0.2018256,0.2709811,-0.006869712,0.007593307,0.002393725
0.963898,0.2008084,0.2728753,-0.006765655,0.004956653,0.004382197
0.9647639,0.2009981,0.274119,-0.006519295,0.006155551,0.004595867
0.9648064,0.1989415,0.2748909,-0.003641338,0.009930714,0.005540977
0.9643217,0.1960344,0.2749787,-0.001122704,0.0110773,0.006013246
0.9612348,0.1971933,0.2760889,-0.000618073,0.006358283,0.003835329
0.9604401,0.1977451,0.2762592,0.0009786745,0.0006430391,0.003211965
0.9647188,0.1968218,0.273216,0.003115722,0.001821723,0.002926253
0.9669288,0.1971339,0.2705679,0.00261924,0.003937213,0.0006555096
0.9658902,0.1964463,0.2692372,0.001587861,0.002809701,0.001268776
0.9662152,0.1954138,0.2690813,0.002230928,0.004176757,0.003284453
0.9675411,0.1957876,0.2667974,0.0003588338,0.003103958,0.008463254
0.9683491,0.1971506,0.2650245,-0.00180853,-0.001232392,0.01450428
0.9662055,0.2010065,0.2698771,-0.0003039981,-0.000179743,0.01163716
0.9639479,0.20511,0.2747799,-0.0001756655,0.003168691,0.00730165
0.9638135,0.2013526,0.2769448,-0.00176396,0.00476428,0.005120663
0.9620551,0.1962854,0.2796218,-0.001433759,0.001772098,0.002710807
0.9622263,0.1998138,0.2801679,0.002732721,-0.003479993,0.007468131
0.9643944,0.2009647,0.2783712,0.006846443,-0.001972484,0.01010548
0.9655726,0.1971555,0.2801146,0.002602708,-0.001685835,0.005284621
0.9671608,0.1964881,0.2852842,-0.002165601,-0.003614897,0.00618215
0.9658049,0.1945834,0.2867891,-0.0001789604,0.00218696,0.003887135
0.963369,0.1930232,0.2803522,-0.002608204,0.006535066,-0.003122766
0.962858,0.1976404,0.2716193,-0.008247487,0.00568934,-0.001693199
0.9613446,0.2025795,0.2745347,-0.006558117,0.006204531,-0.002791786
0.9606682,0.2022449,0.2800644,-0.001956088,0.006649491,-0.003479352
0.9615005,0.2010793,0.2766305,0.001747481,0.006163513,0.0009647407
0.9619987,0.202421,0.2777319,0.003987037,0.006645186,-0.0005564543
0.9626941,0.2004283,0.2781592,0.002076917,0.007592998,-0.0007095952
0.9628613,0.1978714,0.2742455,0.0007361104,0.006789131,-0.001726281
0.9631465,0.1992909,0.2747979,0.0008080788,0.005696328,-0.005121987
0.9642668,0.1995139,0.2737937,0.001340062,0.005179449,-0.002532498
0.9640551,0.2009255,0.2745518,0.003663469,0.004645919,0.0002380919
0.9635421,0.2024494,0.2762543,0.001418672,0.005205636,0.003736529
0.9641099,0.2016846,0.2755362,-0.002037933,0.004724263,0.003621216
0.9635333,0.2032103,0.2778694,-0.0004575813,0.004074087,-0.002718199
0.9619451,0.2027203,0.2768169,0.002454868,0.004079779,-0.004370159
0.9607533,0.2004137,0.27314,0.006540503,0.002518207,-0.001332421
0.9609585,0.1997454,0.2728149,0.007346929,-0.0005442905,0.002112777
0.9624289,0.1987008,0.2737422,0.005008979,-0.004261637,0.0009598972
0.9626475,0.1986832,0.277116,0.006285387,-0.003100883,-0.0006148229
0.9625892,0.1985239,0.280705,0.006297921,-0.0005378488,0.004406542
0.9635099,0.198487,0.2789997,0.005038073,-0.003410604,0.007482859
0.9640233,0.1992762,0.2767294,0.005704218,-0.003942102,0.008091174
0.964083,0.200089,0.2788053,0.005315299,-0.002891014,0.009296071
0.9636999,0.201896,0.281117,0.005764842,-0.004032465,0.009092861
0.9638736,0.2006148,0.282705,0.007085413,-0.003564478,0.009993902
0.9639079,0.198175,0.2821908,0.008209428,-0.004993377,0.01284115
0.9627591,0.1988878,0.2811204,0.009213682,-0.007028098,0.01640577
0.9623643,0.199506,0.2808733,0.008948222,-0.005758168,0.01545509
0.962593,0.1998185,0.2726416,0.01007443,-0.003321294,0.01084395
0.9634522,0.1984924,0.26409,0.01136853,-0.001854879,0.007183044
0.9642508,0.1962884,0.2659444,0.01072433,-0.004293874,0.004842849
0.9638103,0.1972281,0.2680797,0.01069781,-0.007655425,0.009557315
0.9638397,0.1976624,0.2675414,0.01165525,-0.01036868,0.01650672
0.9639513,0.1968281,0.2733943,0.01440149,-0.01615375,0.02046102
0.9638379,0.1973608,0.2807211,0.01720304,-0.0193599,0.0249244
0.9639416,0.1973093,0.27799,0.01612464,-0.01511258,0.02208422
0.9640079,0.1970438,0.2749442,0.01242453,-0.009097191,0.01388533
0.9648335,0.1973668,0.2765696,0.006371186,-0.005083227,0.007055495
0.9660648,0.1971729,0.2746929,0.0006177787,-0.0007880688,0.0004365409
0.9680435,0.1971816,0.2763362,0.003158241,0.002561696,0.002624494
0.9697543,0.1973074,0.2790778,0.00881151,-0.001064009,0.007860866
0.9680123,0.1973227,0.2761546,0.01037952,-0.009420292,0.006466258
0.965592,0.1981521,0.2750776,0.01388208,-0.01336226,0.009626412
0.9666242,0.1985391,0.2750317,0.01469828,-0.01068802,0.01115714
0.9671128,0.1967078,0.2747239,0.01124921,-0.002897204,0.005100022
0.9652296,0.1942389,0.2753219,0.01104563,0.005210855,0.006360467
0.9651404,0.1938452,0.274807,0.00760678,0.005477316,0.008439499
0.965415,0.1944453,0.2746524,0.005847529,0.0008226249,0.004734537
0.9647297,0.1953689,0.2733433,0.008695318,-0.002384017,0.005278605
0.9635266,0.1978145,0.2714969,0.006711894,-0.00255259,0.007550985
0.9609233,0.1981242,0.2725113,0.007593825,-0.0007844651,0.008629614
0.9607928,0.1974167,0.2740041,0.009588145,-0.003440376,0.008661985
0.9624652,0.1999129,0.2737091,0.008730313,-0.007569942,0.007508752
0.9625598,0.1997765,0.2727841,0.01146548,-0.006590692,0.009331656
0.9626029,0.1973264,0.2740997,0.01161527,-0.002416236,0.0101904
0.9622318,0.1970531,0.2777876,0.01010813,-8.260633e-05,0.008773138
0.9615681,0.195517,0.2799604,0.0121414,-0.004768028,0.009754898
0.9617023,0.1954326,0.2778395,0.01459147,-0.008466436,0.0093763
0.9644051,0.1977899,0.2703058,0.01474824,-0.004561931,0.007339016
0.9680729,0.1989454,0.2625389,0.009754683,-0.002036387,0.006747436
0.966634,0.2005485,0.2642141,0.004366508,-0.003912893,0.004943706
0.963916,0.2003581,0.2732848,0.004918913,-0.004661828,0.004819343
0.9640004,0.1993316,0.2784838,0.006067437,-0.003684805,0.007113928
0.9636255,0.2000812,0.2761418,0.003310902,-0.004928661,0.006799129
0.96375,0.1976572,0.2716772,0.003202926,-0.005475146,0.006914799
0.963251,0.1937071,0.2702132,0.005468716,-0.003851672,0.006819503
0.9618655,0.1923963,0.2707592,0.00573411,-0.003818052,0.005830739
0.9624551,0.1932487,0.269383,0.006693341,-0.003476671,0.007417053
0.961809,0.1953181,0.2628449,0.004968845,-0.003271947,0.006058527
0.9608976,0.1961116,0.2576723,0.003361232,-0.003280958,0.003116677
0.9631973,0.1959466,0.2674707,0.00578047,-0.003004455,0.00014593
0.9652671,0.1950384,0.2792709,0.005072747,-0.004114334,-0.004573906
0.9647283,0.1921288,0.2749784,0.0009090989,-0.004474425,-0.003251903
0.9633864,0.1897894,0.2732939,-0.003014527,-0.004726939,-0.0003243527
0.9644698,0.1921743,0.2785904,-0.0007742334,-0.003541096,-0.001080909
0.9678583,0.1980015,0.2745585,0.002845692,0.0011685,-0.0008285636
0.9696988,0.1991447,0.2732903,-0.001232702,0.004380689,-0.001578928
0.9672531,0.1953593,0.2766685,-0.002075765,0.00126626,-0.003769025
0.963947,0.1925767,0.2727637,0.001414753,-0.003556806,-0.004293296
0.9660404,0.1916004,0.270315,0.001995837,-0.001688544,-0.00265406
0.967907,0.1918955,0.2703762,0.0009942737,0.0002107599,-0.002256731
0.9659319,0.1920514,0.2728687,-0.003087347,-0.0003402874,-0.00292581
0.9666998,0.1943731,0.2785546,-0.004538125,0.005241169,-0.003536173
0.9667373,0.1977496,0.2754358,-0.001292351,0.009555818,-0.004758694
0.9643441,0.1961914,0.2712101,-0.001102962,0.008469037,-0.001973499
0.9638937,0.1932334,0.2722099,-0.002587853,0.008072933,-0.001038196
0.9644771,0.1919149,0.2714989,-0.001881638,0.007088778,-0.004724474
0.9658085,0.1921854,0.2750448,-0.002281394,0.005340489,-0.007030388
0.9651094,0.1939351,0.278014,-0.004461903,0.00536316,-0.008877549
0.9629266,0.1948777,0.275569,-0.00490149,0.006185412,-0.006782755
0.9626258,0.1964755,0.2754112,-0.006380426,0.004626791,-0.006198543
0.9630117,0.197872,0.2745342,-0.007129244,0.003202072,-0.008794836
0.9645883,0.1981147,0.2718997,-0.0025587,0.004195228,-0.007541288
0.9652157,0.1989739,0.2707714,-0.0006080328,0.004283524,-0.008372599
0.966166,0.1992416,0.2721168,-0.002629908,0.004286427,-0.006413166
0.9693592,0.1987152,0.2749237,-0.003809294,0.003981527,-0.001224321
0.9695576,0.1980945,0.2747449,-0.006403108,0.00320606,-0.0008780472
0.9677299,0.1977886,0.2754574,-0.008047659,0.003048326,-0.00110172
0.9643427,0.1970131,0.2774354,-0.006247196,0.002713522,-0.003208441
0.9614132,0.1955379,0.2762059,-0.004972502,0.003803346,-0.004784512
0.9643257,0.194162,0.2770213,-0.005329458,0.003731655,-0.003783787
0.9666062,0.1928921,0.2780314,-0.00620894,0.001658303,-0.003686646
0.9660352,0.1954591,0.2745973,-0.009106104,0.001215824,-0.004093941
0.9676034,0.198732,0.2718572,-0.010298,0.004453195,-0.0091179
0.9683697,0.1970315,0.2718291,-0.007970458,0.00952045,-0.01286116
0.965714,0.1966697,0.273067,-0.008010778,0.008072799,-0.01182306
0.9627406,0.197831,0.2749442,-0.006174117,0.003924791,-0.01061702
0.9622287,0.1969066,0.2769247,-0.004229345,0.00462189,-0.005602142
0.96342,0.1972145,0.2766441,-0.009198536,0.004770893,-0.004559994
0.9645143,0.1977757,0.2736709,-0.01138924,0.004495245,-0.01051752
0.964792,0.1987826,0.2724042,-0.01161916,0.005257732,-0.01346214
0.9652712,0.2005169,0.2726042,-0.01382488,0.00674703,-0.01322906
0.9654787,0.1992809,0.2746383,-0.01487392,0.01283967,-0.01001506
0.9637156,0.1980522,0.2789016,-0.01707277,0.0172043,-0.007832863
0.9618509,0.1996909,0.281247,-0.01312171,0.009472085,-0.01079909
0.9606876,0.2004817,0.2809251,-0.008154546,-0.0007072844,-0.01295922
0.9608012,0.1998184,0.2770497,-0.01161814,0.002029283,-0.01285184
0.9618131,0.1997716,0.2754743,-0.01182673,0.007282237,-0.01193192
0.961904,0.1990521,0.2766783,-0.007816874,0.006813864,-0.01000097
0.9633942,0.1973495,0.2734282,-0.006163678,0.00822682,-0.00749436
0.9638873,0.196699,0.2748567,-0.007527255,0.007368051,-0.007912465
0.9624909,0.1960883,0.276565,-0.009517815,0.007363067,-0.01259907
0.9630699,0.1938405,0.2736124,-0.00826922,0.01077291,-0.01288254
0.9618165,0.1930121,0.2776447,-0.008108204,0.009364097,-0.006324271
0.960335,0.1966731,0.2786796,-0.008800671,0.007489868,-0.001032832
0.9623968,0.2000366,0.2764411,-0.00689967,0.001928078,-0.002140578
0.9629156,0.1987341,0.2774297,-0.004860446,-0.004310521,-0.004042852
0.9618836,0.1978644,0.2768806,-0.003329836,-0.0004477378,-0.001127795
0.9608142,0.1991338,0.2816686,-0.00411364,0.001242083,-0.001321681
0.9591609,0.1985865,0.2836436,-0.005464543,-0.0008910509,-0.004062347
0.9596643,0.1982932,0.2805821,-0.00444821,-0.0006402636,-0.004105295
0.9617864,0.198977,0.282682,-0.004699894,-0.001545233,-0.004659289
0.9647041,0.1984164,0.2833017,-0.00536062,0.0005326968,-0.002178807
0.9678247,0.1987515,0.2849338,-0.004012434,0.003440667,0.001072084
0.9662029,0.1998817,0.2872897,-0.001545584,0.001369056,0.002041123
0.9612636,0.2011148,0.2846395,0.002856471,-0.002478279,0.005009688
0.9589044,0.2031663,0.2799272,0.008218272,-0.006221545,0.006812311
0.9592716,0.2047216,0.2735303,0.01332767,-0.01055363,0.005675603
0.9604636,0.205644,0.2738735,0.01508919,-0.01315411,0.004596802
0.9607767,0.203895,0.2797873,0.01369405,-0.01097317,0.006315228
0.961826,0.2004578,0.2780203,0.01598588,-0.008301554,0.00798094
0.9633886,0.1994121,0.2745346,0.016542,-0.01039579,0.009138352
0.961998,0.1984308,0.2762567,0.01339438,-0.01346531,0.01474238
0.9613443,0.197934,0.2792888,0.01566579,-0.01589179,0.01920125
0.9617385,0.1982654,0.282177,0.02058759,-0.02093317,0.02106589
0.9623089,0.1967494,0.2785266,0.02449536,-0.02279895,0.02178502
0.9648473,0.1969445,0.2721409,0.02161215,-0.01734571,0.01770765
0.9644678,0.1977767,0.2751184,0.01453034,-0.01297143,0.01305263
0.9648975,0.1968217,0.2764616,0.0149798,-0.01385242,0.01152505
0.9675366,0.197298,0.2740213,0.009864531,-0.01614822,0.01232491
0.9648282,0.1974134,0.2783844,0.004013417,-0.01959656,0.01217416
0.9626041,0.1965744,0.2798366,0.0150615,-0.02412649,0.01258233
0.9638906,0.195665,0.2760557,0.02247284,-0.02208543,0.01481927
0.9648548,0.1936407,0.2715576,0.01843215,-0.01442979,0.01342634
0.9662702,0.1932668,0.268218,0.01477153,-0.01068643,0.01187865
0.9654556,0.1933578,0.2723541,0.01179264,-0.009425235,0.01124472
0.9635741,0.1925801,0.2761266,0.01043421,-0.009235264,0.009884066
0.9642033,0.1932825,0.2748312,0.00994042,-0.008020844,0.00962948
0.9652003,0.1929963,0.2749948,0.009643167,-0.002138848,0.008370001
0.9669074,0.1918493,0.2760582,0.00858591,0.001320152,0.007629838
0.968094,0.191863,0.275915,0.005801458,-0.003341808,0.006133338
0.9659074,0.1923274,0.2723371,0.004080958,-0.009241083,0.004645957
0.9642103,0.1934738,0.2668948,0.001906206,-0.004636369,0.003838074
0.9632971,0.1934193,0.26555,-0.001100703,0.0001335458,0.0004105464
0.9627188,0.193506,0.2671281,-0.001661784,-0.004251586,0.001589296
0.9656805,0.1948771,0.2670536,-0.0004487096,-0.004165916,0.00342828
0.9679296,0.1932312,0.266937,-0.0004352342,-0.004529206,-0.001120362
0.9690383,0.1909782,0.2679236,4.343818e-06,-0.007073243,-0.002211701
0.9711338,0.1917813,0.2680779,0.001035064,-0.004295371,0.001983382
0.9708191,0.1934136,0.271388,-0.0001899248,-0.004924169,0.005367782
0.9698118,0.1937373,0.2743276,-0.0001906145,-0.005386194,0.004437929
0.9666333,0.1934384,0.2681977,0.001071547,-0.004183411,0.002693598
0.962218,0.1951353,0.2628179,0.00238485,-0.005034892,0.003827887
0.963029,0.196676,0.2668145,0.005072737,-0.004379029,0.002517581
0.9622234,0.1971179,0.273422,0.00373538,-0.007091598,0.002083509
0.9591339,0.1970973,0.2777527,-0.0005346976,-0.009753669,0.004068565
0.9639008,0.1929264,0.2764966,-0.002576717,-0.007111188,0.002479066
0.9690194,0.1886431,0.2706334,-0.003274876,-0.004347755,-0.0002266313
0.9664936,0.1884098,0.2684037,-0.004136676,-0.002878791,-0.003411842
0.9660532,0.1893654,0.2689978,-0.006794431,-1.231392e-05,-0.00589759
0.9695519,0.1909171,0.2665428,-0.007713532,0.005653013,-0.01058314
0.9705704,0.1921231,0.2623595,-0.007372079,0.007981034,-0.0182076
0.9705269,0.1929981,0.2596864,-0.008384348,0.006060914,-0.01393075
0.9683481,0.1940098,0.2616193,-0.004685318,0.006783138,-0.004967604
0.9654262,0.1950671,0.2695706,-0.002496394,0.008070595,-0.004343245
0.9666833,0.1966455,0.2776438,-0.007148748,0.007675983,-0.004048791
0.9672193,0.1982507,0.275599,-0.007980082,0.006581733,-0.004874633
0.9661726,0.1987876,0.2702469,-0.003662457,0.00412626,-0.005486183
0.9668526,0.195362,0.271823,-0.0005135219,0.003240528,-0.005637323
0.9667465,0.1918632,0.2685946,-0.00310676,0.004711669,-0.009514474
0.9662988,0.1927789,0.2657385,-0.007167339,0.006529482,-0.009727403
0.965757,0.1939187,0.2696142,-0.006576609,0.01133058,-0.01141117
0.9640414,0.1950975,0.2657572,-0.008857569,0.01675282,-0.01461635
0.9634925,0.1975845,0.2635796,-0.01113634,0.01504854,-0.008963879
0.9640521,0.197976,0.2646741,-0.007353417,0.01065757,-0.004473042
0.963933,0.1956429,0.2622295,-0.005819123,0.01015069,-0.006441768
0.9635996,0.1953899,0.2679668,-0.006913744,0.008664653,-0.006927592
0.9630716,0.1966331,0.2735857,-0.007708024,0.005552932,-0.00497786
0.9622184,0.1964371,0.2734173,-0.008087359,0.004268179,-0.004326704
0.9623523,0.1984844,0.2751557,-0.0061371,0.002850888,-0.003960309
0.9627628,0.1985689,0.2756247,-0.002471505,0.002603937,-0.003097634
0.9620028,0.194431,0.2748295,0.000157908,0.004078952,-0.004841675
0.9606793,0.1923247,0.2753415,-0.002537586,0.003018721,-0.005748943
0.9603831,0.1927268,0.2752942,-0.005542437,-0.0001755241,-0.005589089
0.9647344,0.1949753,0.2724078,-0.004094617,-0.004500231,-0.004682167
0.9705266,0.1964055,0.2703605,-0.006113301,-0.005387563,-0.001765448
0.9701272,0.1973747,0.269935,-0.0105746,0.003407219,-0.003838928
0.9690684,0.1979325,0.2702815,-0.01069454,0.0103327,-0.006102837
0.9694377,0.1964282,0.2732708,-0.008490096,0.005895257,-0.005286094
0.9644332,0.1969709,0.2714534,-0.005832939,0.002654933,-0.007359587
0.9609338,0.1948691,0.26874,-0.003407824,0.0058546,-0.007404864
0.9626647,0.191927,0.2711497,-0.001280989,0.006554406,-0.006489537
0.9628538,0.1951448,0.2718626,0.001119957,0.006263924,-0.007810078
0.9622819,0.1967048,0.2739139,9.718714e-06,0.008183346,-0.008929552
0.9630095,0.1956359,0.2769185,-0.003890446,0.005555462,-0.01059256
0.9652788,0.1958664,0.2780435,-0.004511509,-0.0001525194,-0.009445419
0.9680141,0.1968054,0.2777268,-0.003531154,-0.003379775,-0.004945582
0.969546,0.1976233,0.2734881,-0.002763545,-0.003470912,-0.0008431966
0.96995,0.1974447,0.2718379,-0.00160783,-0.001402141,-0.001151873
0.9650951,0.1989836,0.274881,-0.003597474,-0.001253017,-0.007893878
0.9590477,0.1993903,0.2773806,-0.007145962,0.003415867,-0.01276529
0.9622342,0.1938324,0.276474,-0.009942154,0.01091769,-0.01430891
0.9661453,0.1884526,0.2738157,-0.01037213,0.007680113,-0.01628859
0.9627212,0.1919281,0.2745386,-0.004008276,0.00399906,-0.01265977
0.9615376,0.1978945,0.2757189,0.003108651,0.0047424,-0.004575131
0.9616609,0.1974889,0.2775776,0.003679863,0.002451725,0.001879398
0.9602389,0.1976732,0.2802735,0.0006948427,0.002325831,0.0006828777
0.9629805,0.1979094,0.2790917,-0.003999333,0.002966527,-0.007954323
0.964733,0.1936765,0.2788,-0.009313589,0.004260695,-0.01136117
0.9651969,0.1915633,0.2795222,-0.008674585,0.006307986,-0.01160304
0.9659087,0.1920676,0.2791353,-0.003136751,0.002516132,-0.01100951
0.9636095,0.1933229,0.2801593,-0.001352969,-0.001426767,-0.006207878
0.9638239,0.1952544,0.2800701,0.0002421466,-0.001889899,-0.004664183
0.9636487,0.1977819,0.2770961,0.002851333,-0.002342622,-0.002920876
0.9607087,0.1993859,0.2739212,0.001939807,-0.004387539,-0.002409887
0.9604967,0.1987577,0.2758274,0.00219569,-0.006238332,-0.004509665
0.9644479,0.2001352,0.2794562,0.00172605,-0.002844018,-0.002139912
0.9699368,0.1988071,0.2791648,-0.0004001959,0.0002238146,-0.00230276
0.9669254,0.1956434,0.2788286,-0.001416471,0.0006167226,-0.001623589
0.9629028,0.1979392,0.2774996,-0.003655707,0.002125303,0.001235897
0.9664174,0.1985965,0.2752115,-0.004185517,0.003070558,0.0005353743
0.9651041,0.1991104,0.2745052,-0.004674705,0.006651768,0.0002940111
0.9626106,0.2015448,0.2724238,-0.006776293,0.008554831,-0.005089104
0.9628653,0.2022146,0.2720348,-0.007980007,0.007969755,-0.01053034
0.9617566,0.2049176,0.2753153,-0.007848628,0.009291218,-0.007400758
0.962605,0.2043177,0.2770279,-0.004354028,0.002927992,-0.004813347
0.9608223,0.2004411,0.2756054,-0.001961994,-0.004125236,-0.004113318
0.9588234,0.1998001,0.2748413,-0.0001703598,-0.004271901,0.00158353
0.9617219,0.1996754,0.2777993,0.004427444,-0.01014419,0.0115208
0.9649951,0.1998705,0.2802754,0.008250454,-0.0219023,0.01578048
0.9675054,0.1983766,0.2791366,0.01211048,-0.02754778,0.01421206
0.9661811,0.1953585,0.2790764,0.01174601,-0.02070005,0.01474165
0.9641133,0.1929404,0.2813063,0.001750248,-0.01188788,0.01127911
0.9657505,0.1891749,0.2799323,-0.01043626,-0.008210171,-0.001396038
0.9659899,0.1903002,0.2694973,-0.01123736,-0.004510894,-0.01162493
0.9675066,0.1960106,0.258465,-0.003805257,-0.004446237,-0.006683813
0.9704725,0.1979879,0.2610892,-0.001865504,-0.006452969,0.002688188
0.9687093,0.1970003,0.2663886,0.0004425412,-0.006517388,0.001766744
0.9671003,0.1941471,0.2653838,0.001305416,-0.005446611,-0.00358831
0.9682568,0.1925204,0.2703272,-0.003949645,-0.003010122,-0.009531925
0.9669546,0.1951434,0.2721487,-0.004066076,-0.002078447,-0.009526088
0.9642625,0.1978114,0.2695633,-0.003660461,-0.002269787,-0.0005779681
0.9634949,0.1993418,0.2755369,-0.003849349,-0.00382849,0.001985048
0.9638271,0.1992291,0.27422,-0.002618177,-0.003947147,-0.002138446
0.9642661,0.1948161,0.2690369,-0.004281539,-0.00346516,-0.005140916
0.9648953,0.1900344,0.2694721,-0.002772713,-0.005854971,-0.00485131
0.9663353,0.1923929,0.265014,-0.003019422,-0.002280092,-0.003272275
0.9668659,0.1974793,0.2661618,-0.005845077,0.003871495,-0.00618793
0.9646599,0.1969839,0.269587,-0.005155787,0.005532733,-0.005339897
0.9635935,0.1953254,0.2713218,-0.003103491,0.002681774,-0.003277605
0.9657106,0.1951177,0.2785342,0.002268999,-0.003374182,-0.004885557
0.9674107,0.1981997,0.2742894,0.004391863,-0.002767074,-0.001371539
0.9664133,0.2030396,0.2673273,0.002432638,-0.001239738,0.001649107
0.9640608,0.1987706,0.2708155,0.001074385,-0.003679783,0.004450762
0.9618751,0.1943046,0.2721155,-0.003337498,-0.004491037,0.00627907
0.9607211,0.1969827,0.27376,-0.003234976,-0.006869716,0.002835744
0.9628433,0.1963311,0.2736855,-0.0005804582,-0.004799138,0.003006107
0.9649479,0.1962918,0.2708076,-0.002846793,-0.001486232,0.003254236
0.9634577,0.1994257,0.2726601,-0.001838877,-0.006051291,0.00461739
0.9628975,0.1993378,0.2722445,0.001051365,-0.008882747,0.009223966
0.9636942,0.1990138,0.2701091,0.002118802,-0.00908571,0.009504307
0.9646794,0.2014825,0.2712306,0.003852794,-0.01159621,0.0135624
0.9657654,0.2029999,0.2723545,0.003632548,-0.0130254,0.02024044
0.9642487,0.2017969,0.2718345,0.002422161,-0.01359046,0.01797339
0.9636924,0.1988837,0.2670749,-0.0002732523,-0.01526846,0.01148285
0.966136,0.1933253,0.2619587,-0.004853523,-0.01372432,0.006079281
0.9682329,0.190603,0.2618965,-0.006020126,-0.005060058,-0.0003035588
0.9693766,0.1928287,0.2628946,-0.00528422,0.003417582,-0.00358455
0.9694962,0.1942028,0.263081,-0.005571533,0.006056825,-0.001755404
0.9689315,0.1958537,0.2649498,-0.007167457,0.00890118,-0.004341162
0.966268,0.1939359,0.2679741,-0.008728558,0.0128537,-0.008770533
0.9616549,0.1912258,0.2688482,-0.007326113,0.01044631,-0.006420935
0.9602867,0.1990239,0.2691501,-0.006722039,0.005034457,-0.003257447
0.9622451,0.2057337,0.2696448,-0.007960896,0.003537579,-0.0020909
0.9634027,0.2029408,0.266378,-0.00806119,0.003383376,-0.002054383
0.9640843,0.2017579,0.2649653,-0.007339544,0.005393734,-0.004879093
0.9658818,0.2017013,0.269453,-0.004507149,0.008407089,-0.009843915
0.9666201,0.1974654,0.273801,-0.002224021,0.009723152,-0.01418772
0.965993,0.1965174,0.274504,-0.005014212,0.00914076,-0.01010993
0.9652273,0.1988203,0.2733615,-0.009214938,0.005209666,-0.001968602
0.9634833,0.1983049,0.2753694,-0.01116777,0.006083383,-0.003213558
0.9651875,0.1997517,0.2779323,-0.01822597,0.0160045,-0.004298142
0.9708051,0.1982466,0.2787538,-0.04470641,0.05070267,0.003643175
0.9730638,0.1928081,0.2810859,-0.09094514,0.1158513,0.005974389
0.9714075,0.1944777,0.2789605,-0.1140427,0.1523104,0.0003109176
0.9684354,0.1959432,0.2718176,-0.07939067,0.1365972,-0.003622415
0.9641468,0.1970832,0.2694832,-0.04015783,0.1046139,-0.0086662
0.9561256,0.2013893,0.277155,-0.03286312,0.06217406,-0.01185226
0.9503254,0.1980808,0.286874,-0.01611428,0.03095095,-0.01008566
0.955547,0.1938505,0.2869923,0.004877721,0.02234182,-0.01137568
0.9591919,0.1952515,0.2870931,0.007944497,0.002936578,-0.01076102
0.9559346,0.1979221,0.2910915,0.01906837,-0.01595952,-0.007126041
0.9567947,0.2011468,0.2891696,0.03958729,-0.02625991,-0.003644527
0.9575876,0.2006538,0.2896058,0.04654396,-0.04057069,0.003907351
0.9563616,0.1999276,0.2906188,0.04150406,-0.04394528,0.006022814
0.9573967,0.2018692,0.2859866,0.0404203,-0.04771909,0.008102758
0.9584023,0.1997598,0.2842538,0.03997657,-0.05184423,0.01798125
0.9610877,0.1974375,0.2804299,0.0404681,-0.04910093,0.02150355
0.9636437,0.1978585,0.2772256,0.05026321,-0.05361387,0.01875305
0.9628293,0.1935095,0.2801349,0.05017109,-0.04680529,0.01042424
0.9639753,0.1887804,0.2791943,0.03717108,-0.03885433,7.859969e-06
0.9669395,0.1932916,0.2785961,0.02434812,-0.04347645,-0.001911023
0.9661797,0.2000324,0.279834,0.01920716,-0.03697601,8.084766e-05
0.9641692,0.1999781,0.2786877,0.02668987,-0.03038419,0.004067945
0.9636141,0.1961463,0.2786336,0.02709874,-0.03110243,0.008173638
0.9623839,0.1933897,0.2756865,0.02313418,-0.0283136,0.009106768
0.9634162,0.1941775,0.2724361,0.02354002,-0.01914279,0.007936465
0.9674219,0.1960334,0.2743786,0.01674531,-0.009846272,0.005308696
0.9687757,0.1949692,0.2751613,0.01453436,-0.01141175,0.004143721
0.9681601,0.1951284,0.2710415,0.01567997,-0.01121095,0.004189434
0.968785,0.197257,0.26713,0.01180315,-0.006991744,0.006655486
0.9694198,0.1968675,0.2679596,0.009572632,-0.008573233,0.008992591
0.9673274,0.1945583,0.2694815,0.009641581,-0.01206038,0.007471541
0.9630921,0.1925167,0.2699289,0.01252696,-0.01618573,0.005782387
0.9616339,0.1944854,0.2722818,0.01205925,-0.01751833,0.005100005
0.9626924,0.1968274,0.2748591,0.009601494,-0.01526457,0.008012224
0.9626689,0.193366,0.2767704,0.008914546,-0.01221589,0.0115302
0.9623461,0.1903341,0.2789776,0.006887213,-0.009870025,0.009736266
0.9625071,0.1897209,0.2781546,0.004512061,-0.001587818,0.006962138
0.9625842,0.188317,0.2686751,-0.001709349,0.01081087,0.003959616
0.9624309,0.1872588,0.2560316,-0.004078693,0.005069284,-0.002434133
0.9623132,0.1885467,0.2536038,-0.0005814234,-0.002969732,-0.006808633
0.9616864,0.1953657,0.2602955,0.003111988,0.004282448,-0.001971275
0.960739,0.2025768,0.2663517,0.01048894,0.003712196,0.004962724
0.9619583,0.2024878,0.2691384,0.01156478,0.004130141,0.005597444
0.9659704,0.1979846,0.2693065,0.008360083,0.01943718,0.003392555
0.9701422,0.1899641,0.2707458,0.004811846,0.03005971,-0.004042155
0.9695934,0.1808414,0.2749988,-0.007636838,0.0275227,-0.0135453
0.9644357,0.1852187,0.27478,-0.0175429,0.02316434,-0.01438325
0.9603578,0.1976156,0.2739113,-0.01775061,0.02642058,-0.01415708
0.9588367,0.1985827,0.2774491,-0.01117822,0.02443098,-0.01606464
0.9594934,0.1981909,0.2745892,-0.005432099,0.01590457,-0.01485295
0.9596139,0.2013492,0.269877,-0.007567589,0.01487293,-0.01722367
0.9587808,0.1992939,0.2702845,-0.01000838,0.01331305,-0.01874247
0.9621436,0.1990569,0.2689357,-0.0109301,0.01354243,-0.01397564
0.9650756,0.1987577,0.2692878,-0.006050578,0.01463644,-0.01126459
0.9634913,0.1977136,0.2707426,0.0003539921,0.00705598,-0.01119589
0.9621679,0.1987034,0.2727423,-0.005730924,0.006610956,-0.01338899
0.9621231,0.1973598,0.2782681,-0.01360933,0.01168645,-0.01617273
0.9626661,0.1987724,0.2787126,-0.0166042,0.01166744,-0.01474644
0.9614952,0.1995163,0.276904,-0.01944181,0.01410142,-0.01372126
0.9595523,0.1986041,0.2781611,-0.02079558,0.01558227,-0.01577354
0.9594085,0.2004885,0.2776215,-0.02185211,0.01089933,-0.01687675
0.9578344,0.1982263,0.276685,-0.02161512,0.005812172,-0.01698367
0.9567653,0.1972585,0.2763118,-0.02023921,-1.271797e-05,-0.01784765
0.9586795,0.2039822,0.276527,-0.01510266,-0.009603584,-0.01488071
0.9620193,0.2126139,0.2794823,0.004507268,-0.01526903,-0.00522442
0.9680139,0.2146408,0.2842752,0.03139718,-0.02114391,0.009100019
0.97354,0.2048905,0.2857054,0.03610609,-0.03290438,0.01953961
0.9706947,0.1934027,0.27997,0.01136203,-0.02891932,0.01473533
0.964541,0.188992,0.2741006,-0.01613521,0.002072943,0.00453335
0.9660769,0.1883498,0.2722512,-0.02568538,0.03274407,-0.002864639
0.9651313,0.188133,0.2728811,-0.0191087,0.03086561,-0.008116519
0.9592051,0.1905015,0.2759348,-0.01411319,0.02229403,-0.004588834
0.9601303,0.1955415,0.2737721,-0.01521602,0.03295168,-0.004607537
0.9591222,0.1989721,0.2711445,-0.007788148,0.02431724,-0.009985848
0.9561244,0.206072,0.2775636,-0.002038776,0.01119242,-0.007304967
0.9578392,0.2146065,0.280968,-0.008844076,0.02088093,0.001458738
0.9882268,0.1184931,0.2297352,0.006435533,-0.06014852,0.067343
