accx,accy,accz,gyrox,gyroy,gyroz
0.8193228,0.4002746,0.4368086,0.01410164,-0.08758497,0.1375094
0.82152,0.4020759,0.4381747,0.009915613,-0.09081975,0.1301386
0.8210249,0.3985973,0.4411349,0.008455863,-0.09087998,0.1301953
0.8181918,0.4068952,0.4429788,0.004682851,-0.1020429,0.1324739
0.8151468,0.4122578,0.4359003,0.004037628,-0.1010174,0.1268
0.8138518,0.410758,0.4294104,0.004823606,-0.09224583,0.1278577
0.8128253,0.4122052,0.4324182,0.00368932,-0.09125215,0.1228405
0.8147074,0.4130986,0.4338586,-0.001188246,-0.08906318,0.1160854
0.8146848,0.4159466,0.4263488,-0.01217548,-0.09636428,0.119276
0.8166653,0.4125771,0.4217604,-0.01969027,-0.1093701,0.1191123
0.821469,0.4062969,0.4272553,-0.03035962,-0.1147994,0.1148414
0.8189578,0.4074958,0.4341069,-0.04413868,-0.1074814,0.1036809
0.8168018,0.4094344,0.4404244,-0.04352678,-0.09477699,0.09221497
0.8157741,0.4107979,0.4449203,-0.03882468,-0.09267851,0.09772801
0.8097023,0.4053791,0.4435671,-0.03682536,-0.08846977,0.1098555
0.8055107,0.3983675,0.4429032,-0.03048655,-0.08768636,0.1175772
0.8078069,0.4013173,0.4452599,-0.02977185,-0.0926116,0.1217234
0.8160745,0.4013601,0.4451238,-0.02766143,-0.08249601,0.1180611
0.8216384,0.3969104,0.4454289,-0.0139026,-0.0767218,0.1122655
0.8192688,0.3980988,0.447808,-0.006160333,-0.07992608,0.1126608
0.8157752,0.4042985,0.444728,-0.004609091,-0.07815254,0.1164209
0.8148096,0.4114103,0.4413899,-0.004736974,-0.07771777,0.1245157
0.8153249,0.4121479,0.4433395,-0.009853692,-0.078762,0.1303997
0.8156932,0.40736,0.439251,-0.006691826,-0.08591751,0.1268318
0.81703,0.4061302,0.4248372,-0.003008236,-0.09595945,0.1213702
0.8186552,0.4062183,0.4141344,-0.004004789,-0.0956588,0.1140944
0.8185049,0.4002557,0.4255183,0.002436143,-0.08290854,0.1103627
0.8195854,0.3907322,0.4411596,0.00637382,-0.06787647,0.1097952
0.8200416,0.3886863,0.4372465,0.007440571,-0.06681048,0.1035562
0.8139831,0.4021528,0.4375461,0.001485636,-0.07403545,0.1041163
0.8071967,0.4177455,0.4396594,-0.01631657,-0.07939105,0.1061488
0.8105028,0.4195537,0.4295269,-0.02235339,-0.08919116,0.1008812
0.8159339,0.4180648,0.4315771,-0.02330906,-0.09374607,0.09740385
0.8174697,0.4191305,0.4309915,-0.03570724,-0.06306851,0.09338191
0.8254105,0.4112668,0.425918,-0.0509425,-0.007821068,0.09736133
0.8263423,0.399227,0.4523151,-0.05568767,-0.009661976,0.10491
0.8123374,0.3987106,0.4763291,-0.02884343,-0.1089076,0.0996708
0.8117926,0.4130366,0.460539,-0.003063694,-0.1855119,0.09768681
0.8245811,0.4211816,0.4314715,-0.02783961,-0.09957621,0.1018588
0.8345271,0.3910832,0.4159867,-0.05305012,0.03506385,0.09923009
0.8430917,0.359462,0.4201385,-0.04431465,0.03637954,0.09250954
0.8236357,0.3855575,0.4325254,-0.04583973,-0.02638049,0.08522513
0.7934292,0.4127485,0.441181,-0.03789508,-0.07658221,0.08473994
0.8091967,0.3996142,0.4503695,-0.001754089,-0.1075847,0.08707906
0.8224875,0.3981448,0.4537356,0.007100614,-0.08136428,0.083219
0.8080902,0.3986371,0.4482443,-0.002882518,-0.06288591,0.08411035
0.8148784,0.3887067,0.448943,-0.001839306,-0.05151144,0.08803465
0.8163307,0.3953074,0.4466359,-0.005834384,-0.02284364,0.08953519
0.8090062,0.3981673,0.44248,-0.00305822,-0.04104232,0.09718388
0.8142275,0.39654,0.4481541,0.008285708,-0.05328728,0.1032792
0.8099736,0.401823,0.4433833,0.01371398,-0.05747254,0.1001589
0.8111725,0.4040527,0.4385511,0.01520475,-0.08214894,0.09512057
0.8152078,0.4097177,0.4399627,0.01129679,-0.0748875,0.0928074
0.8122737,0.4091923,0.4337831,0.007474162,-0.07310727,0.09094199
0.8170587,0.4041507,0.4366448,0.003055494,-0.07903474,0.0893951
0.8162251,0.4087779,0.4397664,-0.0002429148,-0.0784403,0.0919995
0.8149652,0.4099828,0.4376766,0.0002165974,-0.09543371,0.09198413
0.8181238,0.4097871,0.4380134,-0.005016939,-0.09315709,0.08797989
0.8192195,0.4078581,0.4335528,-0.009636232,-0.07287931,0.08580372
0.8228174,0.3995364,0.4336842,-0.01450294,-0.05446492,0.08349751
0.8163723,0.3996944,0.4343192,-0.01657606,-0.04999396,0.08611469
0.8091057,0.4008508,0.4365546,-0.006420924,-0.06352333,0.09191722
0.8136255,0.3969805,0.447454,-0.001357025,-0.06369183,0.09303461
0.8160475,0.3972968,0.4521143,-0.0005265881,-0.06296968,0.09232556
0.8162465,0.3971166,0.4494942,0.006289223,-0.06713786,0.09160285
0.8155049,0.3970643,0.4444365,0.01218615,-0.06546301,0.09085204
0.8134277,0.3976726,0.4416622,0.01351911,-0.07145088,0.08894029
0.8163675,0.3972409,0.441423,0.01007535,-0.07457418,0.08676484
0.819194,0.4002229,0.4396479,0.01025044,-0.07353182,0.08575408
0.8161332,0.4020336,0.4402055,0.01298873,-0.07565956,0.08487722
0.8140947,0.4005323,0.4387564,0.01457171,-0.0778856,0.08533245
0.8164319,0.3993228,0.4348633,0.01681371,-0.07873987,0.08496439
0.819001,0.3988019,0.4324305,0.0113247,-0.07252703,0.08362818
0.8213899,0.39791,0.4330889,0.005182976,-0.06655102,0.0807138
0.8204863,0.3964743,0.4361994,0.00401306,-0.06360634,0.07373679
0.8174836,0.3980702,0.4356738,0.0008805801,-0.06167777,0.06885035
0.8191562,0.4011824,0.4344114,-0.0006910661,-0.06188919,0.06695118
0.8211405,0.4031372,0.4323199,-0.0001559847,-0.05982859,0.06586094
0.8216371,0.4027115,0.4293385,-8.923955e-05,-0.06085592,0.06951066
0.8227516,0.3998362,0.4294816,-0.002756521,-0.06047032,0.07264718
0.8221052,0.3997089,0.4301524,-0.007065435,-0.05108276,0.07013837
0.8220402,0.3987855,0.43143,-0.00849839,-0.04539264,0.06833572
0.8225014,0.3975009,0.4303746,-0.006211806,-0.04882229,0.06809618
0.8219987,0.399579,0.4298703,-0.001973445,-0.05429938,0.0658341
0.8223191,0.3983908,0.431572,-0.001310477,-0.05993813,0.06410461
0.8222522,0.3979399,0.4300303,-0.000630031,-0.06037611,0.06326357
0.8222887,0.3985151,0.4314977,0.001758816,-0.05315955,0.06199169
0.8232486,0.3962982,0.4316912,0.0006135374,-0.0517175,0.06151301
0.8236043,0.3975294,0.4258904,-0.0009330232,-0.05088873,0.05963631
0.8228647,0.398525,0.4229665,-0.00275909,-0.04604567,0.05706066
0.8217645,0.3981347,0.4254866,-0.0002869505,-0.05050267,0.05633882
0.8221519,0.3979184,0.4295253,0.004619097,-0.05162046,0.05458174
0.8225492,0.3951146,0.4266051,0.001177898,-0.04789011,0.05294601
0.8223003,0.396158,0.4230047,-0.001543022,-0.04755586,0.05077436
0.824451,0.4007121,0.4250399,-0.001091553,-0.04168156,0.04584042
0.8274276,0.402339,0.4265415,-0.002502268,-0.03906557,0.04455877
0.8276451,0.4013716,0.429797,-0.002324525,-0.04000997,0.04525698
0.8241584,0.4003332,0.4274716,-0.004760647,-0.03846735,0.04370004
0.8213856,0.3991608,0.4219608,-0.008440795,-0.03788419,0.04278288
0.8247354,0.3963292,0.4231125,-0.009997252,-0.03295413,0.04079417
0.8278018,0.3966275,0.4221564,-0.009585751,-0.02649406,0.03905081
0.8250964,0.398255,0.4275417,-0.005679591,-0.02158524,0.03767376
0.8232511,0.3965998,0.4372489,-0.005284179,-0.01699217,0.034651
0.8238451,0.3971899,0.4336124,-0.008288905,-0.01335002,0.03341416
0.8236493,0.3977036,0.4321542,-0.00949639,-0.007636617,0.03076137
0.8244696,0.3966552,0.4394212,-0.009894942,-0.002217108,0.02835646
0.8250926,0.3977625,0.440403,-0.00987291,-0.003636482,0.03084511
0.8229403,0.3984294,0.4351746,-0.01159564,-0.01231436,0.03145847
0.8206919,0.4006288,0.4291553,-0.01100446,-0.01630317,0.03267888
0.8206403,0.4030877,0.4288048,-0.009175364,-0.01070336,0.03546864
0.8219635,0.4017024,0.4355084,-0.01245288,-0.006874906,0.03181102
0.8225271,0.4001452,0.4385,-0.0135411,-0.01157883,0.02965038
0.8221398,0.4002376,0.4349497,-0.01129935,-0.02092621,0.03249812
0.8221983,0.4026846,0.4317487,-0.009271873,-0.02504888,0.03331265
0.8222512,0.4050226,0.4322934,-0.007641725,-0.02186952,0.03362005
0.8213173,0.4033531,0.43279,-0.009416123,-0.01819297,0.03325697
0.8177708,0.402006,0.4326909,-0.01082352,-0.01812074,0.03456476
0.8144178,0.4028278,0.4374815,-0.01067992,-0.01816461,0.03755101
0.817642,0.4020804,0.4401139,-0.01118031,-0.01421692,0.03495454
0.8221672,0.4008284,0.4349886,-0.01221417,-0.01281195,0.03048448
0.8209163,0.4014283,0.4275863,-0.01445755,-0.0151868,0.02791663
0.8201374,0.4016462,0.4220897,-0.01339039,-0.0173194,0.0268524
0.8214684,0.4007619,0.424701,-0.008786044,-0.01739792,0.02719844
0.820415,0.3997276,0.4288979,-0.006765163,-0.01387798,0.02482931
0.8196003,0.3981052,0.4301246,-0.00905059,-0.01361585,0.0234591
0.8186507,0.3982572,0.4338754,-0.01096519,-0.01803366,0.02537907
0.8173242,0.39918,0.4309977,-0.008185284,-0.02074073,0.02536822
0.8183283,0.3984869,0.4278932,-0.006308348,-0.01494526,0.02586296
0.8187453,0.3994372,0.4321121,-0.008120521,-0.006479998,0.02612005
0.8203863,0.4010955,0.4309942,-0.009739875,-0.009457654,0.02226239
0.8233616,0.402494,0.4311267,-0.01135159,-0.01274992,0.02099021
0.8223798,0.4049264,0.4320408,-0.0110742,-0.01227197,0.02353628
0.8215781,0.4037288,0.4287941,-0.009015544,-0.01664341,0.02490202
0.8225017,0.3987823,0.4324301,-0.008663951,-0.01704734,0.02492936
0.8212594,0.395164,0.4337672,-0.008119761,-0.01571816,0.02081045
0.8203663,0.3942276,0.4324326,-0.00696089,-0.0163712,0.01776142
0.8213225,0.394756,0.4356382,-0.005831254,-0.01523931,0.01838577
0.8226985,0.3947168,0.4353878,-0.004092255,-0.0151572,0.01341261
0.8240357,0.3959951,0.4372143,-0.004364657,-0.0143617,0.0123284
0.8240767,0.3984865,0.4388494,-0.006351137,-0.01392469,0.01671584
0.8240792,0.3989857,0.4382895,-0.008629442,-0.01331325,0.01582241
0.8250872,0.4004711,0.4414687,-0.01262085,-0.009959778,0.01601784
0.8234492,0.4022555,0.4396406,-0.01693659,-0.007735471,0.00966945
0.8212001,0.4017979,0.4352401,-0.02203209,-0.0006763724,-0.003222649
0.8223297,0.4006274,0.4308735,-0.0313852,0.02372285,-0.009525781
0.821905,0.3966368,0.4278251,-0.03997383,0.04599252,-0.01840087
0.8182312,0.3930778,0.4338427,-0.03840254,0.02420716,-0.02722877
0.8168436,0.3942249,0.4390636,-0.0316185,-0.004184457,-0.02729059
0.8216339,0.3950983,0.4392369,-0.02966353,0.01458477,-0.02797215
0.8258806,0.3948579,0.4399205,-0.02861877,0.02293603,-0.03354565
0.8182516,0.398585,0.4429344,-0.02624988,0.007267086,-0.03413856
0.8103761,0.4049789,0.4464407,-0.02607577,0.01684536,-0.03014635
0.8150113,0.4068814,0.4409947,-0.02564943,0.03151016,-0.02999828
0.8162263,0.4047491,0.4361779,-0.02155992,0.03952429,-0.02256679
0.8094496,0.4035652,0.4457607,-0.01169806,0.02694746,-0.01209792
0.8077974,0.4023886,0.4529205,-0.004450801,-0.00322067,-0.007120124
0.810974,0.4014981,0.4445112,-0.007454165,0.001814749,-0.0003098019
0.8136331,0.4013362,0.4328843,-0.008748782,0.008693473,-0.002165918
0.8124633,0.4002858,0.43027,-0.005125361,-0.004989871,-0.002089067
0.809765,0.3997768,0.4381349,-0.005582147,-0.006815979,0.00817893
0.8102054,0.4002018,0.4465783,-0.007595304,-0.01327557,0.009018595
0.8112715,0.4009158,0.4436531,-0.007954422,-0.01416308,0.006727649
0.8127937,0.4020296,0.4407012,-0.006539234,-0.009387144,0.00634302
0.811889,0.4032501,0.4447699,-0.002977792,-0.01579056,0.004818881
0.8081258,0.4046974,0.4425506,-0.002894755,-0.0119667,0.004874017
0.8081802,0.4053971,0.4402034,-0.005831264,-0.008653317,0.002829001
0.8086469,0.4054085,0.4407577,-0.006010978,-0.009898454,0.002891484
0.8093204,0.405437,0.4382568,-0.004729751,-0.009771764,0.005971245
0.8121754,0.4040841,0.4419399,0.0005019468,-0.01642239,0.007259963
0.8129738,0.4038425,0.4459743,0.006670231,-0.01421603,0.004859651
0.8135425,0.406128,0.444262,0.00132782,-0.01016517,0.001417223
0.8138017,0.4062208,0.4427291,-0.005198651,-0.01184766,0.003079864
0.813019,0.4058046,0.4398487,-0.0003535298,-0.008889714,0.00462253
0.8128876,0.4074927,0.4374077,0.00152226,-0.00851432,0.005018331
0.8147986,0.4071792,0.4365366,-0.001608639,-0.006129996,0.007692029
0.8177663,0.4064271,0.4359941,-0.0004614773,-0.001205755,0.006468203
0.8159256,0.4074796,0.4344849,-0.002746584,-0.002528673,0.003381517
0.8141778,0.4078018,0.4342301,-0.006535513,-0.002177877,0.001015201
0.8153636,0.4078639,0.4381805,-0.005171363,0.00112192,-0.0009382588
0.8125288,0.4060319,0.4412578,-0.004628473,0.001728358,0.004726565
0.8100407,0.4029596,0.4440041,-0.003752586,0.002325356,0.01098477
0.811294,0.40397,0.4440115,-0.001618837,0.004111348,0.007560237
0.8123876,0.4049468,0.4425867,-0.001780596,0.002944938,0.005358899
0.8127462,0.4033928,0.4455835,-0.002346644,0.0002634262,0.007700425
0.8133958,0.4033939,0.4445739,-0.001978969,-8.788247e-05,0.00609796
0.8142112,0.402941,0.4435359,-0.0009828825,0.001890222,0.004061161
0.8137232,0.4035398,0.4452629,-0.0008087296,0.004990745,0.003357834
0.8128436,0.4067145,0.4429494,-0.002858542,0.004634187,0.002123686
0.8123706,0.4074188,0.4433681,-0.004751163,0.002889906,0.002588793
0.8123073,0.4066211,0.4467279,-0.002078584,0.002699269,0.0008079682
0.8127411,0.4060535,0.4512573,0.0007869563,0.001691583,-0.002430136
0.8124021,0.4052442,0.4529659,-0.003280562,0.003842185,-0.001865366
0.8124277,0.404294,0.4440832,-0.006953329,0.00685092,-0.001217445
0.8126656,0.3994303,0.4364767,-0.005102018,0.00801706,-0.002835454
0.8123416,0.3941818,0.4383365,-0.003038435,0.0098678,-0.004349082
0.8124045,0.3983369,0.4412531,-0.002737851,0.008168938,-0.0045747
0.811617,0.407937,0.4438544,-0.002775598,0.004218288,-0.005049051
0.8109384,0.4121089,0.4493864,-0.001745685,3.506545e-05,-0.005987409
0.8119983,0.4106448,0.4499625,-0.002071711,-0.002683605,-0.006965338
0.8129012,0.4083696,0.4448924,-0.003219571,-0.0008890799,-0.007824466
0.8125378,0.4069284,0.4449011,-0.002606718,-0.00210569,-0.001537734
0.8122662,0.4053649,0.4446903,-0.003314509,-0.004008897,0.006033178
0.8126702,0.40437,0.4435026,-0.003474772,0.000928339,0.001823817
0.8124966,0.4044441,0.4449008,-0.002941201,0.00651255,-0.003876672
0.812196,0.4033587,0.4421845,-0.004831324,0.01094551,-0.003329988
0.8117624,0.4072924,0.4429924,-0.004789859,0.01436324,-0.0004693825
0.8107401,0.4135187,0.4453943,-0.003704347,0.01126192,0.003536138
0.811186,0.408862,0.4407696,-0.004806082,0.007359136,0.001548345
0.8122889,0.4034667,0.4395071,-0.006259819,0.0123206,-0.003355963
0.8125616,0.4034032,0.4413468,-0.00898705,0.01649895,-0.00324503
0.8121203,0.4011791,0.4410401,-0.01037052,0.01258293,-0.004256012
0.8096902,0.4010038,0.4434292,-0.006911365,0.01150341,-0.004733678
0.8078526,0.4013722,0.4483768,-0.004282577,0.01281934,-0.002729735
0.8099343,0.4023752,0.4508386,-0.004999101,0.01168302,-0.003090069
0.8119539,0.4069906,0.4494153,-0.003099807,0.009853124,-0.001612192
0.8102022,0.4078601,0.447798,0.000279237,0.002857037,-0.001318049
0.809285,0.4063858,0.448416,-0.0002367785,-0.00237087,-0.006305225
0.811868,0.4069973,0.4482593,-0.0008198422,0.004654052,-0.009727101
0.8131334,0.4078451,0.4464564,0.0009742625,0.01126833,-0.008086761
0.8124118,0.410178,0.4472081,0.002677734,0.006384471,-0.004327546
0.8123693,0.4128965,0.4477449,0.004874408,0.002531391,-0.003823002
0.8125677,0.4120773,0.4466282,0.004394312,0.005133685,-0.002254851
0.8121946,0.410817,0.4475687,0.001558505,0.003797898,0.002209283
0.8106235,0.4110962,0.4474124,0.001429137,0.0001430537,0.002273109
0.8092136,0.408199,0.447641,-0.0002659972,-0.0009089593,-8.171756e-05
0.8095577,0.4061981,0.4478608,-0.00383774,0.001954834,-0.002274215
0.8100336,0.4089818,0.4440443,-0.005086726,0.007880188,-0.001700964
0.8096173,0.4100628,0.4425977,-0.003733559,0.008295753,-2.547823e-05
0.8097736,0.4079615,0.4463347,-0.0003894541,0.005364413,-0.002071434
0.8108201,0.4059278,0.4512363,-0.001251728,0.004117171,-0.002344225
0.8109046,0.4059501,0.4532253,-0.002356464,0.003705929,-0.002287353
0.8094049,0.4060553,0.4526346,0.0005780398,0.004907182,-0.002364859
0.8078999,0.405818,0.4528598,-7.27748e-05,0.003922434,1.231364e-06
0.8093042,0.4075849,0.4527484,0.0005941183,0.001641661,0.0001268219
0.8119911,0.4069739,0.4523639,0.002600327,0.0002097801,-0.0003128789
0.8113945,0.4054142,0.4509503,0.001337871,0.0001229919,-0.003082674
0.8105481,0.4058587,0.4485735,0.003247118,0.002529443,-0.006522083
0.811411,0.4053873,0.4500365,0.005244354,0.003201335,-0.004480054
0.8114927,0.4065366,0.4550095,0.004246641,0.004058736,-0.002304852
0.8123658,0.4074526,0.4583623,0.0008205731,0.006849699,-0.001065858
0.8131516,0.4062923,0.4559582,-0.003485269,0.008096089,-0.001915801
0.8116348,0.4052969,0.449809,-0.001884782,0.005410006,-0.004683944
0.8092867,0.4035849,0.4458787,0.001587354,0.001198545,-0.003814943
0.8061374,0.4038966,0.4464957,0.003468035,0.002945082,-0.005378573
0.8045698,0.4050765,0.4484538,0.005402115,0.00419219,-0.007863244
0.8072311,0.4055729,0.4483733,0.002967893,0.002200142,-0.003118523
0.80934,0.4075588,0.4510442,-0.0005511465,0.004393777,0.0008972486
0.8097424,0.4073186,0.4539409,-0.0004244631,0.004967673,-0.001189343
0.8100243,0.4062956,0.449721,-0.0004672635,0.002651877,-0.004239573
0.8084181,0.4078623,0.4472498,0.001058641,-0.00250282,-0.005813124
0.8080583,0.4091062,0.4496021,0.004789416,-0.007747496,-0.005530923
0.8089566,0.4086224,0.4506616,0.004318513,0.0006745831,-0.003966058
0.8098476,0.4049591,0.4503883,0.002841572,0.009936044,-0.003669051
0.8118735,0.4032221,0.4490318,0.002987073,0.003957473,-0.003659363
0.8112593,0.4084497,0.4502427,0.0007304405,0.0009817356,-0.004285856
0.8107505,0.4108227,0.450875,0.0003189692,0.007467028,-0.00959296
0.8124659,0.4075197,0.4470934,0.00133459,0.009374382,-0.01321143
0.8120467,0.4064326,0.4468065,-0.000676608,0.008623843,-0.007500435
0.809869,0.4085462,0.447712,-0.00203133,0.008067131,-0.001172199
0.8076765,0.412492,0.4467389,-0.002194893,0.005891586,-0.00336342
0.8088029,0.4143845,0.4473781,-0.002239725,0.007475965,-0.006505277
0.8108037,0.4112997,0.4460934,-0.002497097,0.009824589,-0.004564062
0.8097092,0.4086607,0.4444454,-0.003747297,0.009533776,-0.00180408
0.8112528,0.4104691,0.4444357,-0.002959164,0.007342592,0.002387964
0.8130015,0.4121492,0.4442091,-9.126357e-05,0.002705371,0.003473555
0.8096463,0.4108476,0.4450665,0.001816989,0.001944532,0.001170755
0.8072288,0.4117926,0.446149,0.00132536,0.001925288,0.004417731
0.8083249,0.413306,0.4476164,7.618455e-05,-0.002144251,0.004550274
0.8081012,0.412123,0.4477257,0.001112997,-0.003164057,0.001748577
0.8044309,0.4123209,0.446531,0.003125311,-0.002563328,0.004324312
0.8023719,0.4119933,0.4475657,0.004691191,-0.004100516,0.004346502
0.8063675,0.4112852,0.4477014,0.004611978,-0.006014546,0.003219153
0.8108737,0.4119989,0.4485996,0.003711623,-0.00712217,0.003427412
0.8104926,0.4104921,0.4506158,0.006839578,-0.005873487,0.001461715
0.8105076,0.407664,0.4481844,0.009793723,-0.001726536,0.002596061
0.8126284,0.4047022,0.446609,0.009130968,0.002454989,0.009585268
0.8107575,0.4037424,0.4495594,0.01099242,-0.001795862,0.0133107
0.8083927,0.4071442,0.4522015,0.01288982,-0.008822079,0.008183937
0.8089993,0.4095946,0.4511748,0.01096322,-0.005464566,0.006771499
0.810184,0.4091412,0.4469632,0.009340347,-0.0006827333,0.01221835
0.8144377,0.4099639,0.443684,0.005984697,0.002129169,0.0144863
0.8166727,0.411942,0.4425963,0.001645358,0.004572382,0.01391873
0.8146243,0.4120608,0.4430235,0.004008242,-0.002985672,0.01265373
0.8150933,0.4087452,0.4441376,0.008080467,-0.01014554,0.01266426
0.8145222,0.4038845,0.4436766,0.009282644,-0.008806177,0.01382003
0.8120074,0.4035169,0.4420613,0.01017637,-0.007991463,0.01634206
0.8105968,0.406765,0.4393937,0.00710232,-0.005782818,0.01913675
0.8089779,0.4074869,0.4369049,0.005015629,-0.003482984,0.01523202
0.8092433,0.4077415,0.4388313,0.008543867,-0.008455594,0.01295275
0.8113014,0.4086587,0.441588,0.0107472,-0.017163,0.0168493
0.8138197,0.4083024,0.4401604,0.01110459,-0.01986703,0.01845728
0.8144112,0.4086508,0.4400266,0.01090825,-0.01807592,0.02009124
0.8115534,0.4101372,0.443234,0.01006504,-0.02253519,0.0215879
0.8105109,0.411461,0.4458446,0.008451086,-0.03058203,0.02156903
0.8111402,0.4101319,0.4472077,0.007052174,-0.03392286,0.02184725
0.8103808,0.4069709,0.4454803,0.009471481,-0.03227825,0.02204626
0.8108796,0.4039189,0.4426363,0.01025739,-0.02996301,0.02248921
0.8139376,0.3963721,0.4405916,0.008798606,-0.0288912,0.01860754
0.8164093,0.3896114,0.4378822,0.01167505,-0.02626804,0.01408431
0.8153392,0.3945909,0.4401954,0.01279605,-0.0232967,0.01461396
0.8142698,0.4012291,0.445141,0.009036923,-0.0182689,0.01222112
0.8143967,0.3994552,0.4447656,0.007355076,-0.01217184,0.006279449
0.8139644,0.4000906,0.4391286,0.01036301,-0.01284853,0.001515586
0.818053,0.4027962,0.4318052,0.01502039,-0.01214788,-0.005232708
0.8240786,0.3998037,0.4317386,0.01665395,-0.004337816,-0.01096962
0.8254751,0.3998014,0.4327528,0.01640222,-0.0009278914,-0.01098949
0.8244505,0.4024874,0.4290078,0.0156167,0.001257967,-0.01096316
0.8230935,0.402384,0.4327729,0.01014983,0.01362109,-0.01113611
0.8243439,0.4015093,0.4358588,0.003428298,0.02786504,-0.00968666
0.8245157,0.3996062,0.434114,-8.942329e-05,0.03428883,-0.01067641
0.8173538,0.4028993,0.4371652,-0.004100204,0.03565004,-0.01130566
0.8122243,0.4085889,0.4379239,-0.007100692,0.03217718,-0.01161282
0.8160645,0.4077809,0.4376596,-0.006880241,0.02885714,-0.01271057
0.8201015,0.4038515,0.4395718,-0.01055284,0.0362882,-0.01228548
0.817522,0.4001168,0.4403733,-0.01640009,0.04209374,-0.01373286
0.8148519,0.4016589,0.4409188,-0.01517819,0.02963747,-0.01533796
0.8140761,0.4040318,0.4398651,-0.01195396,0.01817916,-0.01525595
0.8112852,0.3998755,0.4412066,-0.0103504,0.02286797,-0.01418031
0.8118391,0.3972988,0.4435164,-0.008336467,0.02310677,-0.01119524
0.8108038,0.3959015,0.4467834,-0.007770684,0.01324062,-0.009200521
0.8064829,0.3932958,0.4537391,-0.001700964,0.009260159,-0.008410115
0.8085317,0.3931534,0.4535919,0.006276261,0.009648076,-0.01034641
0.8096288,0.3938568,0.4497156,0.004592614,0.008752395,-0.01222082
0.8101135,0.396856,0.4500405,0.001539524,0.01204942,-0.009443548
0.8138922,0.4017195,0.4500351,0.001564415,0.01585575,-0.008239412
0.8126824,0.4053253,0.4511129,0.0004324009,0.01066429,-0.007348022
0.8118624,0.4048967,0.4527035,0.001472002,0.001289499,-0.007506892
0.8145764,0.4019929,0.4518326,0.004402202,-0.002036445,-0.01132601
0.8166416,0.4029661,0.4468253,0.00483052,0.001386565,-0.01019396
0.819014,0.4033426,0.4384965,0.0009452025,0.005212948,-0.01091617
0.8191402,0.4029504,0.4351144,-0.003806257,0.005173066,-0.01531018
0.8181174,0.4054406,0.4372814,-0.002874081,0.00516553,-0.01292938
0.8182833,0.4058101,0.4389074,-0.001835317,0.008798587,-0.01016938
0.8178119,0.4070682,0.439471,-0.005287282,0.01247133,-0.007951529
0.8174877,0.4077744,0.4402148,-0.00440107,0.01341718,-0.007462777
0.8156488,0.4058505,0.4407413,-0.003153365,0.01215294,-0.01561009
0.8127742,0.4057564,0.4401023,-0.005252535,0.008666846,-0.02244564
0.8136984,0.4018812,0.440217,-0.004270793,0.005123614,-0.0218367
0.8144241,0.3982742,0.4413868,-0.00606975,0.007446902,-0.01897077
0.8122789,0.4003357,0.4406206,-0.00848397,0.01177094,-0.01603078
0.8114462,0.4003948,0.439184,-0.006126337,0.009712598,-0.01268906
0.8107753,0.4001094,0.4385576,-0.005429388,0.009167976,-0.01326582
0.8103422,0.4028574,0.4389605,-0.004953686,0.0115392,-0.01756314
0.8117724,0.4051908,0.4401309,-0.004693906,0.01070585,-0.01680217
0.8136065,0.4047653,0.4415258,-0.007328788,0.01281938,-0.01625073
0.8140482,0.4025473,0.4466623,-0.008298207,0.01185348,-0.01752423
0.8109684,0.4010381,0.4511945,-0.00391519,0.002243394,-0.01495485
0.8093523,0.4009011,0.4469802,0.001825391,-0.004131574,-0.01476157
0.8134361,0.4018181,0.4418108,0.002146734,-0.0018841,-0.01409161
0.8162993,0.4016233,0.4434787,0.002451014,0.001833588,-0.01134425
0.8136687,0.4020405,0.4454608,0.00432648,-0.0008586503,-0.00925321
0.8111917,0.4042071,0.4452523,0.002566639,-0.0005104788,-0.007574352
0.8129202,0.4031022,0.4450588,0.003198149,0.007620414,-0.01100836
0.8139239,0.4004963,0.4434307,0.003870012,0.01337311,-0.01514505
0.8133103,0.4001017,0.4435572,0.001172894,0.01574112,-0.01849889
0.813121,0.4031907,0.4432213,0.001168772,0.01078085,-0.01828183
0.8102751,0.4089971,0.4402132,0.001030619,0.001117745,-0.01350799
0.8086586,0.4105223,0.440425,0.0001014236,-0.002177469,-0.01454431
0.8092671,0.4076644,0.4403419,-0.0006740695,0.006147371,-0.01205021
0.8081622,0.4058236,0.4408484,-0.002166426,0.01787462,-0.007284691
0.8093855,0.4046035,0.4426372,-0.001774148,0.01064324,-0.009834429
0.8121368,0.401377,0.441092,-0.002122328,0.003144532,-0.008732404
0.8128928,0.3986055,0.4417503,-0.001852443,0.01192796,-0.007450947
0.8117142,0.4010392,0.441995,-0.0008427742,0.01096119,-0.007773044
0.8077368,0.4054699,0.4416466,-0.002419999,0.008628428,-0.006632297
0.8043688,0.4093745,0.4448953,-0.0024924,0.01068777,-0.008606664
0.8055962,0.4104492,0.4463124,-0.002787457,0.006294586,-0.008832549
0.8090895,0.4053948,0.4468959,-0.003504706,0.006800618,-0.008708477
0.8105891,0.4028279,0.4481472,-0.001896508,0.008097031,-0.008823998
0.8115029,0.4045343,0.4486209,-0.001185496,0.007551317,-0.006785568
0.8130025,0.4042554,0.4467153,-0.001060981,0.006352092,-0.003991165
0.8126065,0.404249,0.4453723,-0.001932093,0.0006882201,0.0007444964
0.8117119,0.4052453,0.4474827,-0.0003221815,-0.002129565,9.102153e-05
0.8099682,0.4067145,0.4480462,0.004551383,-0.004953316,-0.002135756
0.8080171,0.4074147,0.449261,0.004559085,-0.006678286,-0.0006093808
0.811045,0.4061409,0.4467685,0.001880956,-0.003084043,-0.007081451
0.8157187,0.4043248,0.4388712,-0.001346021,0.0006265621,-0.01443043
0.8158617,0.4022031,0.4341176,-0.003482268,0.003594106,-0.01281907
0.8138419,0.4032265,0.4323641,-0.002567991,0.001236143,-0.01085341
0.8110202,0.4053806,0.4383128,-0.005380196,-0.002120107,-0.009197225
0.8070626,0.4042063,0.443028,-0.006669467,8.500944e-05,-0.005660242
0.8075518,0.4030628,0.4409537,-0.003912451,0.0004953761,-0.005007795
0.8096197,0.4020206,0.4439552,-0.003891804,0.00128905,-0.005744831
0.8082176,0.4023737,0.4460641,-0.003139243,0.004760632,-0.003844695
0.8109806,0.4045916,0.4518113,-0.002293426,0.003813281,-0.00344407
0.8147344,0.404254,0.4594455,-0.002236835,0.0009910438,-0.00457121
0.8121978,0.4050168,0.4522107,-0.001665283,0.001234372,-0.004745837
0.8084492,0.407165,0.4442964,-0.001854668,0.001901329,-0.006628215
0.8066787,0.4070826,0.4458166,-0.0001967194,0.001683772,-0.006662581
0.8101244,0.4080934,0.4473232,0.002543119,0.002109676,-0.005376953
0.8144569,0.409518,0.4469086,0.00525136,0.00252826,-0.005042452
0.8122025,0.4099199,0.4464663,0.005614562,0.002903687,-0.002783138
0.8107619,0.4104278,0.4458078,0.003791102,0.002912295,-0.003941205
0.8116469,0.4111837,0.4463432,0.00391729,-0.0007848026,-0.007182859
0.8108768,0.4104472,0.4480128,0.001429642,-0.004708284,-0.006549634
0.8120446,0.4057633,0.4465418,-0.00241105,-0.001559659,-0.005440119
0.8125119,0.4046492,0.4441955,-0.002917575,0.004511653,-0.005094421
0.8093877,0.4071121,0.4427486,-0.001910103,0.005517471,-0.003789405
0.8068291,0.4057378,0.4423298,-4.448268e-06,8.30815e-05,-0.00308506
0.8073228,0.4067368,0.4438407,-0.002158327,-0.004617403,-0.007051867
0.8090138,0.4068861,0.44266,-0.005909815,0.002862252,-0.009466157
0.8084412,0.4033115,0.4416041,-0.004617165,0.01440937,-0.004305826
0.8078312,0.404812,0.4404329,-0.001484911,0.01304397,-0.0004486848
0.8087662,0.4071737,0.4357927,0.001956771,0.002817942,-0.0007359224
0.8082066,0.4085883,0.434459,0.001993208,-0.002699036,-0.003014805
0.8081644,0.4092105,0.4372458,0.0007360461,0.007774381,-0.004870268
0.8089994,0.4071979,0.4409068,0.003463977,0.02025402,-0.003274836
0.8100274,0.4077568,0.4437394,0.002689872,0.01070925,-0.002601498
0.8126673,0.407064,0.446168,0.001035649,0.001362992,-0.002721631
0.8125095,0.4060926,0.4471121,0.002477791,0.005578825,-0.002082416
0.8093342,0.4078063,0.4452628,0.00237777,0.003688542,-0.000221747
0.8077136,0.4065686,0.448532,0.003155846,0.001865056,0.004688675
0.8080554,0.406748,0.4517035,0.0007517227,0.0008605797,0.007052142
0.8091611,0.4074959,0.4495955,-0.003494636,-0.002994571,0.003557574
0.8101421,0.406361,0.451804,-0.001096905,0.0008268098,-0.002392999
0.8123359,0.4073023,0.4536827,0.002073436,0.002372755,-0.003569101
0.812821,0.4069158,0.4518021,0.003254833,-0.001687849,0.005751084
0.809232,0.4072316,0.4479686,0.003964263,-0.003898969,0.01436721
0.8075686,0.409999,0.4398065,0.003573752,-0.005746519,0.008302391
0.8083491,0.4110618,0.435493,0.004349983,-0.00469853,0.001390386
0.8086959,0.4087449,0.438554,0.004385445,-0.003124843,0.006708787
0.8092234,0.4046337,0.441044,0.004659728,-0.003441293,0.008923916
0.8099873,0.4050917,0.4401726,0.006470871,-0.00519944,0.007981089
0.8109203,0.4066141,0.4407828,0.006727917,-0.008024144,0.0103971
0.8113009,0.4056206,0.4419232,0.007134003,-0.007590873,0.008741611
0.8120885,0.4063224,0.4414021,0.006234511,-0.006794967,0.01138475
0.8131886,0.4045484,0.4434872,0.003492776,-0.007906705,0.01522884
0.8141765,0.4024441,0.4437492,0.003344433,-0.008917453,0.01151568
0.815844,0.4038054,0.4421592,0.002537563,-0.009565505,0.008298614
0.8153249,0.4033888,0.4431954,0.001096645,-0.00868287,0.004241956
0.8137329,0.4023601,0.4412904,0.003460227,-0.008661645,0.003747945
0.8130396,0.4018254,0.4388424,0.004944186,-0.009491108,0.005860237
0.8120656,0.4009511,0.4383411,0.003161363,-0.008669355,0.001845719
0.8124761,0.4005277,0.4384561,0.002128791,-0.008950148,0.0008385124
0.8127801,0.400099,0.4426144,0.002240467,-0.01051245,0.002016093
0.8122271,0.4016837,0.4452817,0.001433218,-0.01071215,0.001511229
0.8131595,0.4035381,0.4434988,-0.0004141147,-0.009987917,0.002203084
0.8152127,0.4026566,0.444788,-0.001382871,-0.007869185,0.001082828
0.8173641,0.4015242,0.4484793,-7.120331e-05,-0.003921787,0.0007630103
0.8167574,0.4013386,0.4481316,0.002250321,-0.000323085,6.869955e-05
0.8140003,0.4016716,0.4430737,0.003707018,0.0008116021,-0.001215982
0.8127688,0.4032048,0.4385276,0.004973081,-0.0009162361,0.0002235543
0.8123546,0.4045912,0.4397584,0.004264459,-0.004430793,-0.0005387969
0.8132958,0.4030515,0.4415335,-0.001185637,-0.006473816,-0.00226106
0.8145192,0.4006848,0.4402659,-0.006273747,0.002472234,-0.003219281
0.8135084,0.4013899,0.4438968,-0.005899177,0.01369013,-0.004720305
0.8130388,0.4034827,0.4482991,-0.001428328,0.00567537,-0.005757177
0.8133884,0.4042302,0.4454664,0.002612204,-0.001257652,-0.008762913
0.8139966,0.4048431,0.4406897,0.003416129,0.009792,-0.01184722
0.8152174,0.4062488,0.4382669,0.000336688,0.01692449,-0.01401575
0.8145366,0.406568,0.4411098,-0.005058153,0.01722741,-0.01418895
0.8117674,0.4067714,0.4448368,-0.003564391,0.01160087,-0.01029772
0.8090788,0.4070654,0.4428243,-0.0001068913,0.0004399448,-0.009448603
0.8108455,0.4048647,0.4423431,-0.003570672,0.001376493,-0.01047802
0.8135811,0.4035387,0.444382,-0.002696608,0.009852992,-0.01018642
0.8095193,0.4042968,0.445532,-0.001549189,0.01251077,-0.01277215
0.8072168,0.4042177,0.4488514,-0.00399133,0.006438721,-0.01421379
0.8106677,0.4045097,0.4495507,-0.002212698,-0.001638844,-0.01209994
0.8119159,0.4059185,0.4472028,-0.003398512,0.00232163,-0.008969585
0.8119551,0.4074973,0.4460448,-0.003622046,0.00568219,-0.00674351
0.8125699,0.407228,0.4427963,-0.0009179718,0.0004745711,-0.003957093
0.8123362,0.4062208,0.4409186,-0.0009420194,-0.001252731,0.0003332995
0.8106446,0.4063813,0.4410573,0.001535647,-0.00373667,-0.002033567
0.8090205,0.4053073,0.4378608,0.002065467,-0.0004053649,-0.007761932
0.809757,0.4051802,0.4374415,0.0007673714,0.007073875,-0.01087788
0.8103363,0.4062567,0.4415224,0.00158806,-0.0003304466,-0.01699204
0.811455,0.4061443,0.4439712,0.001160121,-0.005728904,-0.02152118
0.8144016,0.4072024,0.4435107,0.0008266182,-0.0005902966,-0.02465745
0.8161522,0.4072882,0.4422868,-0.0007404514,-0.0008844488,-0.03107886
0.815985,0.406092,0.4436899,-0.002087793,-0.002878397,-0.03375566
0.8124367,0.4054564,0.4453538,-0.001352682,-0.006270698,-0.03274064
0.8077503,0.4037987,0.4466566,-0.001767113,-0.0116595,-0.0296253
0.807437,0.4046365,0.4473071,-0.003920891,-0.008193016,-0.02605527
0.8075812,0.4066853,0.4423207,-0.008571407,0.001918999,-0.02469748
0.8060495,0.4061686,0.4386715,-0.01229988,0.00714435,-0.0190997
0.8074078,0.406969,0.4401803,-0.01011919,4.402185e-05,-0.01326521
0.80844,0.4074686,0.4398377,-0.005905897,-0.0104249,-0.0126917
0.809142,0.4066072,0.4385658,-0.007090733,-0.008648039,-0.01425481
0.8129444,0.4080276,0.4409826,-0.01346787,-0.003149305,-0.0211884
0.8162663,0.4082145,0.4488538,-0.02037229,-0.003376172,-0.03904511
0.8208285,0.4049195,0.4570498,-0.01900325,-0.003191947,-0.06990109
0.8224497,0.4007323,0.4572688,0.0007148002,-0.003852301,-0.08978735
0.8126229,0.3995584,0.4477973,0.02242873,-0.00249155,-0.07723206
0.798802,0.4049371,0.4342697,0.02426113,-2.737073e-05,-0.05286395
0.7933766,0.413259,0.4281894,0.01836445,-0.005968112,-0.0323671
0.8004089,0.4199148,0.4346502,0.01434038,-0.01029023,-0.02292118
0.8056017,0.4221328,0.4397814,0.00556904,-0.008223874,-0.01858815
0.8009575,0.4196235,0.4324561,0.003258785,-0.008820015,0.0003482096
0.801177,0.4188943,0.4291624,0.007096638,-0.01137943,0.006057043
0.8077345,0.4207794,0.4393014,0.004382975,-0.01208532,-0.009619883
0.8169546,0.4190864,0.4495057,0.0107831,-0.01147449,-0.0297849
0.8267442,0.4109552,0.4513566,0.01832484,-0.008260981,-0.07590913
0.8230712,0.4036077,0.4385317,0.01006005,0.009486972,-0.1013089
0.8067111,0.4104377,0.4218621,0.00868239,0.03008508,-0.07037924
0.7927066,0.4235943,0.4201048,0.008683289,0.02968328,-0.04364929
0.7908867,0.4306952,0.4245193,-0.004579083,0.02457456,-0.02235743
0.7954358,0.436718,0.4288403,-0.01637011,0.02032886,0.005315126
0.794244,0.4295476,0.4363837,-0.02125522,0.01667329,0.02413168
0.7948266,0.4108534,0.4417233,-0.02328931,0.03072629,0.03863004
0.7972809,0.4099314,0.4454898,-0.02530568,0.03670151,0.03362488
0.7955492,0.4194887,0.4508336,-0.02125472,0.02599151,0.04076876
0.7997841,0.4246735,0.4546084,-0.01763213,0.02433762,0.06798569
0.8042665,0.4263536,0.4563289,-0.01775903,0.02280241,0.06212196
0.8043544,0.4202623,0.4565392,-0.007890746,0.01515154,0.04496677
0.8058448,0.4153671,0.4518044,-0.001558,0.006746277,0.03454407
0.8037885,0.4133246,0.4446117,-0.0019578,0.008154252,0.02933504
0.8028343,0.4126973,0.4418022,0.002005903,0.01593556,0.03704844
0.8073579,0.4154165,0.4415174,0.007236165,0.01044273,0.02654145
0.8101337,0.414462,0.4408052,0.01113268,0.01181831,0.009149112
0.8049388,0.4196899,0.4442166,0.006120381,0.0151831,0.004357945
0.7984742,0.4257701,0.4486804,0.002631392,0.001547274,0.009016949
0.8015076,0.4187476,0.4445021,0.00632245,-0.004416318,0.02302529
0.8031356,0.4144648,0.4391707,0.00618586,-0.003206893,0.02235475
0.8017986,0.4167571,0.4405547,0.0062331,-0.00463298,0.02670573
0.8054961,0.4159394,0.4415939,0.006721344,-0.008304027,0.04050614
0.8056374,0.4114591,0.4424767,0.008013716,-0.009269441,0.03874972
0.8060542,0.4082607,0.4443018,0.009195099,-0.004272497,0.04645354
0.8099302,0.408091,0.4454281,0.008450586,-0.006772231,0.0505415
0.8098963,0.4071503,0.447971,0.008576343,-0.00611702,0.04287406
0.8096227,0.4068022,0.4477994,0.006314985,-0.004099455,0.04608428
0.8098695,0.4055876,0.4468682,0.006982428,-0.00990385,0.04301598
0.8094837,0.4033506,0.4503768,0.01102155,-0.009584969,0.03755422
0.8099595,0.4027144,0.4517578,0.01323888,-0.009070688,0.03421609
0.8094244,0.4037512,0.4486146,0.01372491,-0.007780845,0.02869056
0.8087826,0.4076716,0.4462039,0.01201697,-0.006719608,0.03336715
0.8082319,0.4089209,0.4468129,0.0135286,-0.01007079,0.03664998
0.8083806,0.4072343,0.4465046,0.01597917,-0.01106976,0.03657063
0.8104697,0.4063633,0.4424337,0.01723341,-0.01869609,0.03659095
0.8115239,0.4047173,0.4408571,0.01822056,-0.02582098,0.0290023
0.8112081,0.4031547,0.442858,0.01507474,-0.02530374,0.02471726
0.811123,0.4026104,0.4434029,0.01351716,-0.02046514,0.02616863
0.8121574,0.4056274,0.4443014,0.01198918,-0.0100674,0.02583788
0.8138565,0.4081627,0.4491423,0.008557533,-0.008373297,0.02349951
0.8142524,0.4062912,0.4540605,0.00989137,-0.01404557,0.02105619
0.814925,0.4049872,0.4500429,0.0102018,-0.01621364,0.02036471
0.8164321,0.403843,0.4444669,0.00706028,-0.01406039,0.02011584
0.8168222,0.4036325,0.4469951,0.006090754,-0.0124192,0.02093566
0.8157795,0.403429,0.4446897,0.009502249,-0.02171576,0.01930128
0.8147934,0.4004117,0.4392863,0.01242325,-0.02851909,0.01529327
0.8153543,0.3993722,0.4419551,0.006785782,-0.02167147,0.01313262
0.8151043,0.4008693,0.4427198,0.001739423,-0.01633719,0.01068716
0.8132602,0.4036763,0.4416037,0.006215845,-0.01879436,0.0115521
0.8131748,0.406561,0.4434543,0.009129517,-0.01873149,0.01220645
0.8176129,0.4052334,0.4414134,0.007002745,-0.01205987,0.009342768
0.822827,0.4012666,0.4393681,0.008517968,-0.00716331,0.008097822
0.8208385,0.3993924,0.4416028,0.01145399,-0.006459441,0.005280086
0.8167197,0.4006572,0.4430719,0.01092369,-0.01269501,0.005353652
0.8171212,0.4022705,0.4418894,0.01011713,-0.01941923,0.007853853
0.8181559,0.4022727,0.4366609,0.008009657,-0.0122009,0.005803933
0.8197826,0.4028279,0.4304561,0.004036259,-0.006976994,0.003942929
0.8191961,0.4041407,0.4313124,0.0009622613,-0.01222791,0.002108603
0.8173627,0.403619,0.435639,-0.00235083,-0.01248656,0.00378622
0.8211486,0.4014999,0.436856,-0.002940485,-0.007611337,0.007397342
0.8226736,0.3993172,0.436706,-0.001009816,-0.005867446,0.003126808
0.8181064,0.3999754,0.4336842,-0.001575602,-0.01291136,2.438458e-07
0.8146551,0.4034935,0.4316972,-0.001747644,-0.02092401,0.0004667435
0.8153382,0.4042983,0.4340583,-0.002161649,-0.01755049,-0.003340807
0.8195909,0.4024248,0.4321372,-0.003230331,-0.009652231,-0.006504098
0.8211897,0.4008064,0.4320167,-0.0001985864,-0.003477254,-0.007394381
0.8182213,0.4007937,0.4371952,0.0008714361,0.001707064,-0.008830695
0.8163269,0.4012192,0.4362037,-0.002053665,0.001662649,-0.008571764
0.8198575,0.3993487,0.4335571,-0.003251075,0.002774116,-0.005621145
0.8240586,0.4002591,0.4338503,-0.003318715,0.008690669,-0.003271284
0.8208365,0.40342,0.4357775,-0.002498777,0.006805268,-0.004502041
0.8174652,0.4043277,0.4394334,-0.003019746,0.003648385,-0.006093692
0.8166336,0.4045686,0.4384902,-0.003836562,0.006314156,-0.005619166
0.8142128,0.4031745,0.4363274,-0.002729928,0.004748989,-0.005862202
0.8154868,0.4047052,0.4371192,-0.003881855,0.004755328,-0.005863348
0.8171354,0.409252,0.4368724,-0.005512405,0.006118486,-0.004783718
0.8180447,0.4103256,0.437388,-0.007487062,0.004197628,-0.004753594
0.8204986,0.4098701,0.4380098,-0.008968878,0.005366036,-0.004097077
0.8194141,0.4086231,0.4366044,-0.006993472,0.00507415,-0.0038167
0.8187228,0.4062564,0.4348284,-0.005594894,0.004312843,-0.004767012
0.8191203,0.4033623,0.4332881,-0.003438451,0.004921908,-0.004372569
0.8174859,0.4032583,0.4356022,-0.00288596,0.004554318,-0.005325978
0.8184724,0.4053859,0.4399731,-0.005129499,0.009301537,-0.005394738
0.8211465,0.4038326,0.4393922,-0.004516347,0.01338947,-0.001273466
0.8221622,0.4046953,0.4389834,-0.005545743,0.01062215,0.0002851523
0.8199869,0.4066691,0.4406384,-0.005744581,0.007456851,-0.002599982
0.8165049,0.4047079,0.4375193,-0.003139091,0.007674419,-0.005355105
0.8171685,0.4047998,0.4348797,-0.003691726,0.005809486,-0.005994961
0.8181786,0.4041563,0.4364602,-0.002630276,-0.00284771,-0.006285676
0.8180315,0.4036027,0.4373197,-0.001219478,-0.006813777,-0.007773311
0.8212213,0.4044636,0.4375177,-0.002308343,-0.001480054,-0.008335876
0.823038,0.4019972,0.4372724,-0.002222911,0.001786886,-0.00772401
0.8212254,0.4008496,0.4358033,-0.001963975,0.0006407618,-0.006422916
0.8176616,0.4014518,0.4348896,0.0008789106,-0.004392373,-0.003556106
0.8147891,0.4010711,0.4353147,0.003735131,-0.007665421,-0.002223161
0.8193199,0.3997034,0.4349625,-0.0001270361,0.006294313,-0.00764588
0.8234958,0.3987396,0.4341654,-0.006071634,0.02374833,-0.01565544
0.8168076,0.4030491,0.4350086,-0.007762528,0.01835191,-0.01513076
0.8110152,0.4073042,0.4348549,-0.006367025,0.006952854,-0.009841181
0.8136043,0.4057456,0.4345307,-0.005307687,0.006334844,-0.01052246
0.8148922,0.4050227,0.4361347,-0.004716511,0.007724851,-0.011503
0.8140004,0.407874,0.4371406,-0.005422206,0.01106138,-0.008649994
0.8150618,0.4080928,0.4377869,-0.006783256,0.008577933,-0.009015394
0.8143634,0.4036028,0.4379873,-0.005634019,0.003115289,-0.008231997
0.8135062,0.4004089,0.4389429,-0.004841413,0.006775058,-0.003075531
0.8141326,0.4028783,0.4411062,-0.005457476,0.006327957,-0.002233255
0.8136884,0.4065489,0.4404176,-0.004734493,0.004382069,-0.001670444
0.8141798,0.4056554,0.4395535,-0.004127567,0.005125309,0.003928773
0.8146592,0.4047321,0.4392855,-0.00506045,-0.0005033847,0.007268108
0.8142561,0.4047942,0.4358093,-0.007634731,-0.002605499,0.00406568
0.8131232,0.4008772,0.4336669,-0.009579177,-0.002358994,-0.00224098
0.8120392,0.3998742,0.4348402,-0.00670581,-0.004677377,-0.004140615
0.8145589,0.4047532,0.4350554,-0.002591677,-0.003942273,-0.003131583
0.8160801,0.4083575,0.4342705,-0.002383087,-0.0002971347,-0.004157505
0.8150054,0.407459,0.4338565,-0.001886478,0.004912713,-0.005154293
0.8152773,0.4056477,0.4339231,-0.0004708678,0.004159606,-0.005987648
0.8153075,0.4062778,0.4371646,-0.001096507,0.001640128,-0.005085342
0.8152773,0.4037436,0.4425885,-0.001356939,0.004007788,-0.003705722
0.8156512,0.4017339,0.4424557,-0.001825129,0.003435775,-0.00357377
0.816988,0.4054662,0.4387039,-0.001570177,0.003508916,-0.001434865
0.8185508,0.4069719,0.4382991,-0.0008614823,0.005291151,0.0004142669
0.8170696,0.4070373,0.437858,-0.00294552,0.005186787,0.00229564
0.8151539,0.4073245,0.4383638,-0.004097922,0.006194456,0.004914259
0.8153011,0.4074253,0.4432433,-0.006417946,0.003266591,0.004141324
0.8162576,0.4086278,0.4447746,-0.01046567,-0.0006877808,0.002478434
0.8169435,0.4065,0.4396259,-0.008941533,0.001420214,0.001880044
0.8167235,0.4046835,0.4349471,-0.004256521,0.00283843,0.0003064641
0.8165147,0.4057487,0.4357057,-0.00238478,0.00278577,-0.000359087
0.8167326,0.4054969,0.43794,-0.003624834,0.004081749,-0.001268956
0.8167127,0.4043927,0.4373418,-0.002432743,0.003414321,-0.004442555
0.8167557,0.4029718,0.4372205,0.0001866251,0.003082534,-0.003782904
0.817615,0.4024723,0.4369417,-0.001175086,0.003386123,-0.0004890905
0.818343,0.4025039,0.4359891,-0.001189098,0.002084818,0.0004604864
0.8177361,0.4010176,0.4389096,0.0001558935,0.0019277,0.001400917
0.8159632,0.3994548,0.4408021,0.0005107199,0.001975796,-0.0005796276
0.8138926,0.399724,0.4373918,0.002461101,0.00176115,-0.001268576
0.8134393,0.4006739,0.4340513,0.002417397,0.001328861,0.00339947
0.814133,0.4008318,0.4341365,0.0005555409,-0.001636068,0.004285366
0.8141015,0.4024329,0.4344342,0.001008116,-0.002947246,0.002848856
0.8146224,0.4036668,0.4327562,0.001941553,-0.001979718,0.0001517536
0.8156793,0.4032547,0.433127,0.0004596813,-0.002326853,-0.004565383
0.8153582,0.4044765,0.4344275,-0.0003482816,-0.002361756,-0.00419221
0.8151864,0.4044829,0.4355421,0.0005469505,-0.005875621,-0.002359423
0.8165437,0.4036774,0.4379481,-0.0006101347,-0.008935891,-0.002836751
0.8178099,0.4044878,0.4352773,-0.001535818,0.003370233,-0.004926545
0.8176137,0.4041183,0.4315902,-0.001536992,0.01937774,-0.008308735
0.8145246,0.4047239,0.4343304,-0.001361565,0.01571274,-0.006456772
0.8115632,0.4081456,0.4376624,0.0008986123,-0.003209317,0.002109719
0.8143738,0.4113473,0.4405766,0.001721746,-0.01526878,0.008262074
0.8184253,0.4109933,0.4427235,-0.001118611,-0.005675987,0.001826478
0.8183005,0.4080413,0.4411426,-0.003768616,0.006943784,-0.006518128
0.8178339,0.4061464,0.4393653,-0.0008258215,0.001083305,-0.002152884
0.8178456,0.4036631,0.4380097,0.002939577,-0.002579799,0.0005940784
0.8161733,0.4036653,0.4375275,0.0004399303,0.0007674289,0.0001055025
0.8147728,0.4079619,0.4380446,-0.001888719,-0.003132245,0.005705213
0.8150871,0.4088405,0.4351281,-0.003105356,-0.001952071,0.003349348
0.8156203,0.407621,0.4333106,-0.00486012,-0.001362604,-0.001169972
0.8153399,0.4058479,0.435854,-0.004368947,-0.005906908,0.001965537
0.8160247,0.4030373,0.4366722,-0.005247716,-0.00360605,-0.000356653
0.8166512,0.4037557,0.4373845,-0.005570401,-0.005520264,-0.00388851
0.8135677,0.4027845,0.4386708,-0.004808739,-0.008842565,-0.003486159
0.8096919,0.3994207,0.4386543,-0.005457532,-0.006871432,-0.001858636
0.809451,0.4002937,0.4408453,-0.003593335,-0.006944705,0.00194272
0.8121317,0.4031849,0.4404317,-0.001888098,-0.006282045,0.001056063
0.8149641,0.4057219,0.4365849,-0.002176258,-0.007147143,0.0008953774
0.8157739,0.4061509,0.43623,-0.001690054,-0.008673938,0.004284937
0.8150618,0.4052639,0.4381865,-0.000568513,-0.008513992,0.002339349
0.8141893,0.4065351,0.4422122,0.0007198806,-0.007489073,0.001650576
0.8139313,0.4074011,0.4443915,0.00028805,-0.004995178,0.003361982
0.8147066,0.4068133,0.4415559,0.0004609777,-0.008091396,0.002162367
0.8156128,0.4068758,0.4381969,0.003326702,-0.01340007,0.0004346727
0.8154279,0.4065116,0.4336655,0.005549994,-0.01493112,-0.0008258678
0.8149704,0.4038556,0.433638,0.005822489,-0.01256417,0.003162898
0.8156241,0.4001661,0.437969,0.00516019,-0.008637716,0.008387285
0.8162317,0.3991713,0.4369752,0.004628689,-0.01031856,0.005806439
0.8169092,0.401087,0.4369248,0.003431282,-0.01073369,0.004301953
0.8178813,0.4038792,0.4384594,0.003624473,-0.008848886,0.007934238
0.8180113,0.4070351,0.4365313,0.005444866,-0.0131335,0.009196261
0.8185898,0.4070016,0.4355632,0.004771361,-0.01686873,0.01021257
0.8198118,0.404503,0.4334907,0.005000485,-0.01700989,0.01294055
0.8211997,0.4055345,0.4316509,0.00698753,-0.01622773,0.01476098
0.8211334,0.4062168,0.4331928,0.008364775,-0.01541286,0.01482118
0.8196945,0.4048787,0.4334481,0.01039492,-0.01584291,0.01234321
0.8206438,0.4055044,0.4331209,0.01038988,-0.01436054,0.01187952
0.8205618,0.4038955,0.4323969,0.00765837,-0.01026806,0.01308716
0.8186461,0.4020205,0.4300031,0.004066054,-0.006148359,0.01133696
0.8191305,0.4038677,0.4277103,0.002927409,-0.006316171,0.01069051
0.8183784,0.4046143,0.4259623,0.004406903,-0.01039455,0.008603667
0.8180781,0.4035358,0.4282062,0.003017941,-0.01069296,0.00435385
0.8229753,0.4013861,0.4323787,0.001669475,-0.006668245,0.004498728
0.8261748,0.3992496,0.4331467,0.00135991,-0.002346578,0.002256199
0.8232737,0.3997382,0.4334127,0.0006058962,-0.001899881,-0.002232773
0.8210184,0.4004804,0.433529,0.00276184,-0.004061024,-0.0008204088
0.8224429,0.3998234,0.4332251,0.002422691,-0.001605819,-0.0007246411
0.8224649,0.3998357,0.4344186,-0.001823017,0.00338654,-0.005405757
0.8204971,0.4002813,0.4342569,-0.004832175,0.00756517,-0.008336559
0.8189658,0.3994736,0.4311452,-0.005593378,0.006488102,-0.008090192
0.8175188,0.3981767,0.4282081,-0.002447175,-0.000397427,-0.007398914
0.8176074,0.3977623,0.4299587,-0.0002108998,0.001368898,-0.008381337
0.8177024,0.4016069,0.4340815,-0.002046418,0.01586264,-0.009435947
0.8160698,0.4078708,0.4361618,-0.002884767,0.02826649,-0.009520686
0.8165153,0.4078261,0.4376508,-0.002580501,0.01935256,-0.009218661
0.8175272,0.4055472,0.4353449,-0.003253962,0.004283111,-0.008586076
0.8182007,0.4058484,0.4316283,-0.005443782,0.009969543,-0.01088259
0.8208505,0.4045707,0.4335193,-0.007028441,0.01131582,-0.01285771
0.8203818,0.4054227,0.4342283,-0.005604983,0.004282643,-0.008027532
0.8176916,0.4073678,0.4334253,-0.003781101,0.006751714,-0.003547256
0.8179343,0.4058554,0.4354167,-0.002297527,0.002661768,-0.005499311
0.8183843,0.4035216,0.43486,-0.001616855,0.002256528,-0.008497828
0.8186656,0.4004986,0.434375,-0.002750374,0.00758526,-0.009031208
0.8190803,0.400727,0.4360915,-0.002426449,0.005344275,-0.007211642
0.8185416,0.4034882,0.4361721,-0.0011976,0.00759294,-0.004436667
0.818549,0.4024897,0.436163,-0.0009429624,0.008855028,-0.004584111
0.8181955,0.4026134,0.43611,-0.0004351891,0.01047015,-0.006083884
0.817469,0.4033028,0.4359913,0.0002510518,0.01321806,-0.004938166
0.8177272,0.4029045,0.4354025,0.001545609,0.008000426,-0.005103541
0.8182819,0.4066994,0.4311423,0.001245682,0.006973611,-0.006095805
0.8196245,0.4092704,0.4260554,-0.001813639,0.007494363,-0.004716835
0.8200785,0.4073598,0.4260924,-0.00514386,0.007180954,-0.004409003
0.8186977,0.4048501,0.430837,-0.006880323,0.0086437,-0.004076371
0.8182506,0.4025646,0.4339566,-0.001297464,0.006374553,-0.004120735
0.8163732,0.4016653,0.4339126,0.007741257,0.005705345,-0.005356645
0.814322,0.4044056,0.4350629,0.009193122,0.002813581,-0.004666087
0.8164545,0.4086493,0.4375415,0.00656813,0.0006360513,-0.004158317
0.8181669,0.4069414,0.4381322,0.003140638,0.005992127,-0.003606882
0.8207282,0.40369,0.436557,-0.001621733,0.00994753,-0.003433721
0.8247841,0.4039421,0.4345966,-0.00300801,0.01246848,-0.003292012
0.8212763,0.4036492,0.4319606,-0.002802877,0.01332165,-0.001451371
0.8138142,0.407871,0.4309914,-0.003743873,0.0112563,-0.002830711
0.8116376,0.4125611,0.4328177,-0.003762535,0.009900016,-0.002888794
0.8143137,0.4136033,0.4331583,-0.005563372,0.01088234,-0.0008363303
0.8171137,0.4170248,0.4352897,-0.01091395,0.01541863,-0.002501841
0.8160096,0.4134296,0.4391284,-0.01455132,0.01904073,-0.001457043
0.8145061,0.4044818,0.4390656,-0.01364973,0.01870093,0.0005517095
0.8158962,0.4018786,0.4384675,-0.009719307,0.01279661,0.0005316181
0.8171956,0.4000727,0.437183,-0.005092695,0.006058757,0.0001588812
0.8179665,0.3981324,0.4350093,-0.003757637,0.00689681,-0.002812123
0.8167191,0.3979771,0.4343737,-0.004828743,0.008260246,-0.004137992
0.814389,0.3971349,0.4331863,-0.003856982,0.006139604,-0.003781455
0.8163103,0.3988502,0.4341969,-0.001432986,0.003869235,-0.001659868
0.8186282,0.4009855,0.4372544,0.001100054,0.002218265,-0.001443376
0.8187523,0.3998566,0.4379439,0.002624517,0.007278956,-0.01077467
0.819482,0.4005693,0.4363734,0.001550208,0.01734543,-0.01687668
0.8172556,0.4050024,0.4320022,0.0006703623,0.01878864,-0.01274374
0.8130627,0.4090204,0.4276365,-5.995446e-05,0.007024921,-0.008322363
0.8119725,0.4087767,0.4290642,-0.001984415,-0.001995872,-0.008250212
0.813362,0.4057249,0.4339054,-0.001392453,0.005456281,-0.008600414
0.8146905,0.405369,0.4380967,-0.001615138,0.01231897,-0.0057566
0.8146747,0.4066225,0.4413023,-0.003049673,0.004926724,-0.004181362
0.8152734,0.4067187,0.4391021,8.845333e-05,0.001953052,-0.002217297
0.81556,0.405426,0.4356447,0.0003376753,0.007007173,-0.0002026845
0.81379,0.4033082,0.4384355,-0.005138877,0.006152876,-0.003500405
0.8128212,0.4043835,0.4403579,-0.008146188,0.003209666,-0.004590129
0.8126778,0.4065716,0.4425515,-0.005530574,-0.0006935224,0.001826335
0.8140674,0.4065969,0.4460451,-0.001497096,-0.004549513,0.00797054
0.8161804,0.4055583,0.4428593,-0.003219971,-0.003620401,0.003796129
0.8152704,0.4037116,0.4397939,-0.004143334,-0.003515843,-0.001383827
0.8151973,0.4056235,0.4378475,-0.001483876,-0.001556316,0.001861871
0.8180116,0.4082941,0.4348548,-0.001870549,0.000930403,0.001428523
0.821107,0.4065561,0.4371413,0.0001013277,-0.0008673145,0.0006055357
0.8232002,0.4061051,0.4383865,0.0008587777,0.001140775,0.004075097
0.8222956,0.4047733,0.4363916,-0.001202711,0.003603521,0.00263276
0.821815,0.4024692,0.4349875,0.0001933771,0.002485525,-1.006413e-05
0.8235997,0.4070631,0.432597,-0.001021453,0.004309421,0.0003094196
0.8230543,0.4114218,0.4328496,-0.001638951,0.006919797,0.002302673
0.8194106,0.4078107,0.4349913,-0.0009320183,0.007139663,0.004395849
0.8143896,0.4041606,0.4374084,-0.002805575,0.007054941,0.006610848
0.812686,0.4042091,0.4417259,-0.0001231942,0.006657624,0.007574163
0.8157602,0.4031861,0.4420616,0.001510269,0.005846114,0.00352682
0.8175267,0.4030736,0.4414574,-0.002790929,0.006358245,0.001805613
0.818164,0.4041072,0.4468909,-0.005599063,0.007108583,0.003691339
0.8185306,0.40289,0.4489787,-0.00371298,0.007554947,0.004447671
0.8175602,0.4027364,0.4431082,0.001219428,0.008751956,0.006344859
0.8181964,0.4030596,0.4379932,0.003716004,0.006881809,0.007250389
0.8182864,0.403365,0.4383255,0.002617565,0.002004579,0.007511305
0.81748,0.4048183,0.4397445,0.001685638,0.0008627949,0.00657686
0.8174877,0.4042258,0.4384259,0.002548493,0.005335449,0.004557898
0.8161046,0.4051555,0.4387602,0.002733656,0.008077711,0.006048529
0.8155534,0.4076534,0.4396048,0.001429685,0.003737619,0.007953984
0.8158149,0.4068668,0.4393676,0.002302971,-0.0003151907,0.009029957
0.8167853,0.4049987,0.4414282,0.003462911,-0.001370101,0.008622574
0.819631,0.4043425,0.4406559,0.004308473,-0.003828707,0.00665565
0.8190456,0.405101,0.4386084,0.004517946,-0.003484687,0.004898289
0.8172162,0.4048134,0.4371751,0.002895517,-0.001162851,0.001638391
0.8182646,0.4034509,0.4317527,0.004048597,-0.003329163,0.003195941
0.8180564,0.4028125,0.4278815,0.004392669,-0.007433245,0.007311339
0.8169028,0.4022574,0.4279086,0.003191649,-0.0103278,0.00651877
0.8165623,0.4018313,0.4343258,0.004087626,-0.01009795,0.006225218
0.8166939,0.39705,0.4438589,0.00377089,-0.006268257,0.003494029
0.8177303,0.3928275,0.4400715,0.005370806,-0.006045266,0.00209901
0.8188228,0.3982068,0.4318526,0.008521955,-0.01082786,0.009650514
0.8209343,0.4019062,0.4329114,0.009003286,-0.0140517,0.01209194
0.8238573,0.3985587,0.4340838,0.007625345,-0.01075105,0.006527241
0.8231437,0.3980513,0.4348582,0.005463516,-0.001870144,0.002390508
0.8177897,0.4014578,0.4367585,0.005715824,-0.0002042994,0.001822294
0.8136789,0.4073076,0.4375601,0.006361237,-0.01165068,0.003601204
0.8150581,0.4132378,0.4382838,0.006567338,-0.02178884,0.003876373
0.8169724,0.4116305,0.4371545,0.007952299,-0.01620172,0.00565956
0.8157299,0.4072543,0.4382146,0.007272974,-0.005363459,0.006802898
0.8163544,0.4067079,0.4372135,0.007017372,-0.005645686,0.006295054
0.8200096,0.4041944,0.4346229,0.007653677,-0.00817893,0.009563919
0.8225209,0.4029726,0.4398637,0.006857161,-0.009021979,0.007429335
0.8221297,0.4042568,0.4398947,0.007066902,-0.008774363,0.004183321
0.8191671,0.4020744,0.4373996,0.007442111,-0.005775462,0.007356664
0.8177864,0.4024776,0.4438547,0.007024771,-0.01292265,0.007059233
0.8206822,0.4035668,0.4442023,0.00412777,-0.01965359,0.006707849
0.8233444,0.4020538,0.4363054,-0.001647859,-0.01485046,0.007754375
0.8218805,0.4031163,0.4296757,-0.002868855,-0.009034963,0.006934002
0.8191814,0.4028739,0.4293261,0.001619741,-0.006133804,0.007953492
0.8194895,0.4023916,0.4351074,0.0052207,-0.01535172,0.008481581
0.821111,0.4032324,0.4398232,0.007217505,-0.02401765,0.008615333
0.821081,0.4024485,0.4437013,0.007557643,-0.01363349,0.009188367
0.8196678,0.4027017,0.4405688,0.005738396,-0.005911581,0.009495025
0.8190161,0.4020036,0.4326017,0.006614977,-0.01291063,0.01036087
0.8200647,0.4006839,0.4341204,0.008822097,-0.01624282,0.01054704
0.8215371,0.400658,0.4331889,0.009133915,-0.01057132,0.00996805
0.8244232,0.3997527,0.4282392,0.00929436,-0.006862372,0.007076359
0.8259959,0.3998351,0.4298532,0.006619697,-0.00396155,0.004105087
0.824206,0.4006094,0.4275677,0.003899712,-0.002637588,0.004952973
0.8231368,0.4016383,0.4256958,0.00313227,-0.006172073,0.005154127
0.8219795,0.4033465,0.4307553,0.0009730244,-0.005555192,0.002913879
0.8217107,0.4023189,0.4340872,0.0007844794,-0.00348041,0.001692409
0.8228202,0.3987449,0.4347372,-0.001931002,-0.0009035112,0.0002746504
0.8223257,0.3965335,0.4348019,-0.007327903,0.003788293,-0.002902595
0.8238737,0.3983053,0.4367052,-0.00581474,0.003379408,-0.00512291
0.8258829,0.4021644,0.4381876,-0.001967135,0.004890537,-0.006484757
0.8245419,0.4034832,0.4367735,-0.0009895124,0.009247907,-0.006940797
0.8229491,0.4023269,0.4344622,-0.004067014,0.01230636,-0.005531919
0.8219173,0.4008316,0.4307317,-0.009748644,0.01780694,-0.006407922
0.8221101,0.399563,0.4302185,-0.01189377,0.02081802,-0.007672935
0.8234847,0.3997918,0.4337168,-0.0139217,0.02727767,-0.007055258
0.8237538,0.4000087,0.4349609,-0.01283125,0.03912408,-0.008480171
0.8230662,0.3980297,0.4322199,-0.005411823,0.03790339,-0.007906159
0.8209337,0.396624,0.4295986,-0.004780527,0.03207654,-0.004646716
0.8185771,0.3973638,0.4322825,-0.00867124,0.03460082,-0.006709424
0.8191874,0.3983679,0.4344398,-0.01140714,0.0295126,-0.01498751
0.819862,0.3989267,0.4318299,-0.01760124,0.0177177,-0.02088431
0.8178605,0.400988,0.4305638,-0.01873724,0.001137078,-0.01620232
0.8159349,0.407354,0.4311156,-0.01459658,-0.02162336,-0.006380674
0.8149125,0.4124969,0.4330506,-0.01339573,-0.02339292,0.001730921
0.8151731,0.4069956,0.4360768,-0.0132711,-0.006677711,0.008332804
0.8166027,0.3986929,0.4371291,-0.01002033,0.0007315462,0.00721651
0.8165778,0.397592,0.4391403,0.002193846,-0.01041867,0.003374392
0.8157433,0.3961931,0.4411132,0.01294052,-0.03229227,0.006528806
0.8158144,0.3961993,0.4367012,0.009892182,-0.03561168,0.007032256
0.8185811,0.3998719,0.4283943,0.006941163,-0.01870159,0.004932467
0.8220907,0.3953837,0.4240255,0.008990285,-0.002526237,0.001260831
0.82024,0.3898296,0.4298464,0.006970948,0.001554648,-0.008725459
0.8181975,0.391258,0.4383597,0.008131481,-0.01097957,-0.009373766
0.8200337,0.395463,0.4350057,0.0139715,-0.01902082,-0.00543338
0.8195619,0.404534,0.42654,0.01373154,-0.01878735,-0.009058766
0.818981,0.4096841,0.4227781,0.01170028,-0.018613,-0.008787158
0.8198836,0.4079752,0.4240162,0.008249683,-0.01303886,-0.01010753
0.8195918,0.4083683,0.4284278,-0.0009139598,-0.00653927,-0.0136832
0.8211882,0.4087618,0.4269965,-0.006487847,0.007034524,-0.01116258
0.8229665,0.4099751,0.4275533,-0.00932009,0.01848491,-0.009356449
0.8222135,0.4115079,0.4333489,-0.01238264,0.01428917,-0.005378268
0.8221288,0.4087768,0.4313656,-0.01268321,0.01333826,-0.0005282253
0.8232953,0.40451,0.4315016,-0.0130073,0.02092692,-0.003281597
0.8237125,0.4014859,0.4363385,-0.01272268,0.02851649,-0.007354702
0.8225365,0.4009644,0.4399418,-0.0142482,0.03133306,-0.009025731
0.8205849,0.4015112,0.4424931,-0.01680945,0.02784358,-0.01195406
0.8185796,0.4014412,0.438771,-0.01445727,0.02304502,-0.01366424
0.8166936,0.4010068,0.4387504,-0.009633502,0.02079408,-0.01333972
0.8162623,0.3993558,0.4393281,-0.005445989,0.02107516,-0.01323779
0.8170473,0.3972824,0.4364032,-0.005550645,0.0183269,-0.01028632
0.817433,0.3970242,0.4430127,-0.006142085,0.01256174,-0.008186279
0.8174523,0.3992958,0.4472771,-0.001456937,0.009531175,-0.009492199
0.8173421,0.4006522,0.4463753,0.002037908,0.009151284,-0.009649043
0.8172731,0.4004313,0.4472544,0.005995133,0.0046417,-0.0108451
0.8176417,0.4025556,0.4438392,0.009033621,-0.002778084,-0.009543951
0.8180483,0.4050736,0.440621,0.004333973,-0.001883267,-0.006154915
0.8182433,0.4044892,0.4394857,0.0024939,0.003184845,-0.007114412
0.8185565,0.4031562,0.4401645,0.002947915,0.005761861,-0.009023274
0.8205821,0.4026775,0.4400055,-0.001818491,0.006437466,-0.01324995
0.8226952,0.4019237,0.4378078,-0.004023887,0.004026786,-0.01476547
0.8197857,0.4052076,0.4403735,-0.004291173,0.003423639,-0.007701804
0.8161764,0.4099413,0.4435517,-0.005524999,0.004339304,-0.003267001
0.8164322,0.4058841,0.4438577,-0.005439366,0.004480952,-0.003931672
0.8151344,0.4020507,0.4401448,-0.00558817,0.005302798,-0.003095244
0.8135877,0.4049104,0.4380672,-0.005723332,0.007072254,0.0007862257
0.8140837,0.404322,0.442443,-0.005761342,0.009642894,0.003964861
0.8133305,0.4025925,0.4422796,-0.004755052,0.007253899,0.002799587
0.81477,0.4030162,0.4439954,-0.001643678,0.003687395,-0.0004167361
0.8177289,0.4023277,0.4472536,0.001826513,0.004278293,-0.002533885
0.8175864,0.4017987,0.4429746,0.00242461,0.004074318,0.0005500318
0.8196343,0.4003531,0.4436548,0.0006088785,0.004280575,0.00253372
0.8227946,0.3997326,0.4426049,0.001278632,0.002571915,-0.001669224
0.8181826,0.4021006,0.4360695,0.001188481,-0.003483251,-0.001286795
0.813223,0.4033414,0.4355726,0.0002403654,-0.005697083,-0.0003136326
0.8175138,0.4026211,0.43472,0.001956951,0.003243534,-0.003286206
0.8215039,0.401674,0.4353926,0.0009658598,0.01467354,-0.003801768
0.8202082,0.401198,0.4391164,9.141173e-05,0.009375451,-0.004162289
0.81917,0.4017369,0.4399203,0.001531145,-0.006162214,0.00109416
0.8176299,0.4032171,0.4406753,0.0004033008,-0.01231419,0.008121442
0.8175177,0.4048938,0.4393759,-0.000709392,-0.002492931,0.005291731
0.8182903,0.4052485,0.4355093,-0.00153962,0.01099811,0.003920217
0.8149631,0.4050562,0.4325344,-0.002201145,0.003585085,0.006343854
0.8131502,0.4041223,0.4337683,-0.001036985,-0.005654215,0.005016617
0.8148933,0.4016859,0.4380897,3.862149e-05,0.0004167466,0.005851005
0.8153475,0.4012317,0.4386212,0.002337901,-0.005535848,0.01020575
0.8135683,0.4027905,0.4385939,0.003606989,-0.0154487,0.01346566
0.8118006,0.4043388,0.4383887,0.001697015,-0.01464362,0.01303335
0.8143019,0.4043858,0.4357285,0.00200686,-0.0105329,0.01025221
0.8190864,0.4009367,0.4361866,0.003526159,-0.005388289,0.009653314
0.8212988,0.399064,0.4376092,0.003589387,-0.009283883,0.01003245
0.8187167,0.4004298,0.4392393,0.004248591,-0.01571551,0.01000917
0.8149359,0.4009495,0.441244,0.003279635,-0.01810895,0.01101118
0.8168846,0.4015823,0.4397224,0.0009144279,-0.01585995,0.01181241
0.8185092,0.4015507,0.4376678,0.001150401,-0.007836853,0.01284314
0.8173659,0.4011024,0.4346681,0.002120006,-0.01097394,0.01423601
0.8187613,0.4012579,0.4320237,0.002266826,-0.01609954,0.01396608
0.8189182,0.399512,0.4335315,0.004025519,-0.01401971,0.01056044
0.8193005,0.3980267,0.43379,0.005653585,-0.01520523,0.006569081
0.820478,0.3983392,0.4328319,0.005286509,-0.01339119,0.007729167
0.8206076,0.3979914,0.4339233,0.003841284,-0.0115641,0.009062206
0.8229669,0.3968584,0.4351681,0.0009497278,-0.01075537,0.00657932
0.8226831,0.3971569,0.4366463,-0.0002352655,-0.007060333,0.00547341
0.8213265,0.3983657,0.4377516,-0.001465203,-0.003396415,0.0002958106
0.8226908,0.3979251,0.4390659,-0.004854678,0.002991061,-0.01125961
0.8211955,0.3978927,0.4398581,-0.002070113,0.004950242,-0.01826813
0.8197352,0.3997242,0.4338431,0.001103058,3.133136e-05,-0.0146452
0.8183265,0.4032045,0.4265845,-0.002424631,-0.00466974,-0.005790916
0.814606,0.40575,0.4303667,-0.003320759,-0.005890832,-0.002557837
0.8140248,0.400683,0.4402998,-0.001373104,-0.003293221,-0.005634901
0.8154169,0.3959013,0.4439112,0.002875899,-0.003169693,-0.00645582
0.8170243,0.4033015,0.4372419,0.008646068,-0.005572079,-6.532089e-06
0.8188375,0.4100618,0.4307305,0.008058142,-0.0123663,0.007145528
0.8184836,0.4055717,0.4358656,0.008902556,-0.02603647,0.00637867
0.819381,0.4023382,0.4400808,0.01451109,-0.03460403,0.007259322
0.8217387,0.4015243,0.4363436,0.01391377,-0.03427324,0.01241146
0.8209873,0.397687,0.4357902,0.0131767,-0.03302489,0.01045244
0.8202389,0.4007959,0.4313066,0.01612506,-0.03435791,0.005625986
0.821281,0.4066173,0.4233272,0.01219911,-0.03393734,0.003737032
0.820939,0.4073757,0.4264691,0.007222089,-0.02792909,0.00561631
0.8214997,0.4100323,0.4308564,0.006322548,-0.0219876,0.01022609
0.8229936,0.4086598,0.4295695,0.002697216,-0.02121713,0.01035595
0.8231743,0.4027368,0.4283662,0.0009243894,-0.0218249,0.009767847
0.8246143,0.4011642,0.4260815,0.001299632,-0.02072345,0.009863196
0.8256,0.3987352,0.4283015,-0.00120111,-0.02077184,0.003114077
0.8247449,0.3971616,0.4323919,-0.00316288,-0.01717758,-0.004682977
0.8247735,0.3971968,0.4293267,-0.004825189,-0.008620926,-0.007868355
0.8242686,0.3923371,0.427949,-0.003826669,-0.007416525,-0.008928377
0.8230277,0.3908749,0.4294841,0.00198072,-0.01194803,-0.008091154
0.8226612,0.3949858,0.4283957,0.00408067,-0.01284352,-0.006061839
0.822175,0.3964236,0.4282351,-0.0006448776,-0.007931123,-0.005659227
0.8219681,0.3950742,0.4263197,-0.00401985,-0.002321655,-0.008342878
0.8226042,0.3937409,0.4257139,0.001066886,-0.004788378,-0.0111743
0.8236516,0.3955887,0.4301207,0.006454938,-0.006804043,-0.01265353
0.8264124,0.4002054,0.4309994,0.003534291,-0.00407715,-0.01116951
0.8286917,0.4035701,0.4292669,0.002503424,-0.004376293,-0.006688975
0.8265633,0.4019127,0.4279659,0.004545603,-0.003873952,-0.00559904
0.8237664,0.3985835,0.4262775,0.001870901,-0.004957193,-0.006190733
0.8239612,0.4021205,0.4264345,-0.0004501868,-0.007905873,-0.007213037
0.8261683,0.405551,0.4261488,-0.00156867,-0.00410288,-0.009826445
0.8285556,0.4054827,0.4248786,-0.003460656,-0.0002245183,-0.009819012
0.8272384,0.408675,0.4222975,-0.007343352,-0.0005697355,-0.009597797
0.8251357,0.4089333,0.4206807,-0.01370333,6.780545e-05,-0.003236016
0.8258879,0.4065286,0.4268069,-0.01457045,0.0005201877,0.006505037
0.8249668,0.4034893,0.4340075,-0.01415087,0.001865341,0.003701803
0.824578,0.3976314,0.4339099,-0.01631171,0.007482496,0.003310376
0.826681,0.3965918,0.4305102,-0.01275171,0.01342176,0.00864974
0.8273137,0.3963503,0.4275311,-0.008047497,0.01752601,0.000651254
0.8280016,0.39369,0.4238206,-0.005998163,0.02636932,-0.007950346
0.8278645,0.3947974,0.4209522,-0.005910806,0.03696066,-0.009873688
0.8264332,0.3951495,0.4221469,-0.00948342,0.04141677,-0.01625658
0.8266084,0.3969172,0.4229008,-0.01519743,0.05438776,-0.01808718
0.964014,0.1705897,0.2896531,-0.1265069,0.07392324,-0.2415567
0.965315,0.1686285,0.2918915,-0.1256575,0.06141406,-0.2371317
0.9687166,0.1681658,0.2907058,-0.1277074,0.05523933,-0.2334946
0.9683186,0.1713997,0.2925874,-0.1302823,0.05718464,-0.2316039
0.9675438,0.168401,0.2973079,-0.1296821,0.0560761,-0.2319806
0.9682824,0.1706987,0.301422,-0.1308059,0.0526497,-0.2303548
0.9668173,0.173974,0.2949893,-0.1300964,0.05455602,-0.2253113
0.9654439,0.1739954,0.286546,-0.13394,0.05474362,-0.2181082
0.9654413,0.1759449,0.2876951,-0.1358062,0.05938702,-0.2141346
0.966961,0.1724054,0.2900943,-0.1319205,0.07285996,-0.2193253
0.9690226,0.1668064,0.294263,-0.1304238,0.08221816,-0.2262736
0.9689864,0.1645308,0.2967636,-0.1230874,0.08218258,-0.2284993
0.9693139,0.1724625,0.2916239,-0.1147202,0.07179768,-0.2204246
0.9697062,0.1835972,0.2876929,-0.1130549,0.06358682,-0.207047
0.9680664,0.1777565,0.2858828,-0.1155166,0.06601341,-0.207037
0.9670792,0.1730954,0.2815761,-0.1200264,0.06444315,-0.2073705
0.9672,0.178452,0.2775015,-0.1221532,0.0603604,-0.1961213
0.9676584,0.1761854,0.2790855,-0.1242188,0.06468718,-0.1921759
0.968532,0.1753915,0.2840336,-0.1223794,0.06928216,-0.1900291
0.9695295,0.1776298,0.2905156,-0.1178096,0.06704336,-0.185481
0.9690538,0.1755908,0.2988153,-0.1177061,0.06760129,-0.1862948
0.9646395,0.1766896,0.2967643,-0.1161205,0.07237604,-0.1773012
0.961386,0.177692,0.291704,-0.1156733,0.07196367,-0.1665077
0.9643195,0.1772573,0.2956194,-0.1175124,0.07028735,-0.1656496
0.9677529,0.1774934,0.2944469,-0.1171739,0.06513522,-0.1609201
0.9685479,0.1757035,0.2909874,-0.1163111,0.05734312,-0.1578416
0.969265,0.1757395,0.2877845,-0.115662,0.06497291,-0.1595913
0.9681532,0.174091,0.2772614,-0.1235248,0.07782229,-0.1607221
0.9654794,0.169946,0.2724166,-0.135091,0.07901292,-0.1661825
0.9657887,0.1700024,0.2758446,-0.1347894,0.07965095,-0.1677563
0.9666231,0.1685178,0.2791727,-0.1289522,0.08220682,-0.160078
0.9662305,0.164605,0.2839118,-0.1266962,0.0820858,-0.1560328
0.9671334,0.1647736,0.2904491,-0.1242273,0.08077291,-0.160712
0.9666191,0.1658633,0.2932325,-0.1183906,0.07748711,-0.1637605
0.9661068,0.1652543,0.290092,-0.1139823,0.07853189,-0.1587907
0.9662994,0.1660096,0.2887204,-0.1116036,0.08341372,-0.1531894
0.9646464,0.1677671,0.2891531,-0.1072858,0.08420173,-0.1528352
0.9652023,0.1696086,0.288498,-0.1053866,0.08080497,-0.1542484
0.9657481,0.173241,0.2888415,-0.1035755,0.07431269,-0.1530727
0.9654971,0.1747316,0.2870138,-0.09901347,0.07177,-0.1490788
0.9691404,0.1730315,0.2854255,-0.09925739,0.06974728,-0.1448439
0.9713658,0.1731885,0.2861751,-0.09995508,0.06011226,-0.1409634
0.968044,0.1720341,0.2869525,-0.09731968,0.05547956,-0.1393973
0.9634936,0.1691975,0.2900283,-0.09813259,0.05960506,-0.14254
0.9630235,0.1698537,0.2945973,-0.09854882,0.06358291,-0.1439293
0.9638706,0.1707325,0.2964472,-0.09535,0.06231992,-0.1391456
0.9627737,0.1700137,0.2954617,-0.09277396,0.0597044,-0.133281
0.9640233,0.1709639,0.2958178,-0.09083705,0.06259037,-0.1308489
0.9646656,0.172221,0.2961953,-0.090711,0.06128424,-0.1315346
0.963937,0.172156,0.2950125,-0.09097354,0.05586812,-0.1315337
0.9653466,0.1726583,0.294171,-0.08911809,0.05461457,-0.1287905
0.9655703,0.1740729,0.2916095,-0.08850224,0.05354115,-0.123139
0.9665956,0.1753646,0.290926,-0.08836602,0.05305625,-0.1178504
0.9673504,0.1752031,0.2923413,-0.08659751,0.0496177,-0.1167782
0.9648958,0.1734633,0.2913676,-0.08378658,0.04382928,-0.1145385
0.9642074,0.1723838,0.2914244,-0.08150932,0.04098186,-0.1097338
0.9639086,0.1711955,0.2912255,-0.08261686,0.03753357,-0.1089088
0.9632729,0.1702799,0.2904094,-0.08338824,0.03954614,-0.1114128
0.9634624,0.1712806,0.2911595,-0.08038752,0.04346274,-0.1119574
0.9622134,0.1719378,0.2902461,-0.07879692,0.03729983,-0.1082133
0.9635041,0.1731763,0.2899762,-0.0810627,0.03423303,-0.1040986
0.9664912,0.1742427,0.2921204,-0.08268289,0.04374855,-0.1044936
0.9656383,0.1731476,0.2945169,-0.08120211,0.05406574,-0.1040878
0.9605498,0.1724944,0.2962544,-0.08018247,0.05467322,-0.09889597
0.9552286,0.1712621,0.2943748,-0.08040909,0.04503992,-0.09514284
0.958472,0.1698811,0.2918527,-0.07868185,0.03540699,-0.09369966
0.9646464,0.1692881,0.2931946,-0.07655039,0.03390012,-0.09207564
0.9639237,0.1675747,0.2935723,-0.07407004,0.03705875,-0.09065575
0.9634871,0.1680134,0.2919527,-0.07001386,0.03897178,-0.08863074
0.9634148,0.1704207,0.290638,-0.06978924,0.03788725,-0.08784207
0.9617281,0.171094,0.2881629,-0.07294061,0.03773215,-0.08711482
0.9627503,0.1713233,0.2882677,-0.07355413,0.04075879,-0.08244209
0.9626483,0.1724786,0.2896444,-0.0727511,0.04435858,-0.07829718
0.9621649,0.1741061,0.2875149,-0.07165817,0.04525607,-0.08146372
0.9631986,0.1741926,0.285845,-0.06989753,0.03800723,-0.08343029
0.9640584,0.1739119,0.2816372,-0.06846526,0.02981942,-0.07823396
0.9657071,0.1755312,0.2764659,-0.06578204,0.03613313,-0.07864322
0.9646908,0.1752729,0.2823631,-0.06380594,0.04422943,-0.07880526
0.9633696,0.174046,0.2911302,-0.06565868,0.04163173,-0.07329537
0.9659738,0.1729477,0.2910293,-0.06527478,0.04198532,-0.07354972
0.9673627,0.1680144,0.2897766,-0.06138143,0.03756276,-0.06983947
0.9664075,0.1651381,0.292007,-0.0606911,0.02583355,-0.06466409
0.9655776,0.1670074,0.2946141,-0.06053114,0.02763772,-0.06557436
0.9651384,0.1673627,0.2957204,-0.05950778,0.02988129,-0.06311822
0.9650284,0.1682486,0.291658,-0.0601246,0.02908535,-0.06395828
0.9644532,0.1712091,0.2866934,-0.05914448,0.03906289,-0.06505103
0.9634631,0.1728103,0.2878544,-0.05914457,0.03944461,-0.05990312
0.9628077,0.1747407,0.2897447,-0.06054813,0.02936042,-0.05669591
0.9624944,0.1770223,0.2936839,-0.05926061,0.02506996,-0.05595371
0.9622997,0.1749249,0.3002785,-0.05845339,0.02335368,-0.05589072
0.9631313,0.1722694,0.2952712,-0.05823246,0.02315616,-0.05397269
0.9652845,0.1735562,0.2880607,-0.05656693,0.02099236,-0.05162373
0.9672775,0.1726113,0.2924386,-0.05450715,0.01947509,-0.04720906
0.9671486,0.1716579,0.2925143,-0.05381142,0.02087401,-0.04047227
0.96584,0.1752142,0.2882761,-0.05504662,0.02033702,-0.04156327
0.9661488,0.1753196,0.2892944,-0.05485207,0.022846,-0.04514248
0.9660177,0.1716054,0.2882979,-0.05347561,0.02430303,-0.04513151
0.9656206,0.1702169,0.2868856,-0.05183311,0.02333061,-0.04318056
0.9665805,0.170701,0.2866964,-0.04908071,0.0224985,-0.03946879
0.9664589,0.1711549,0.2882918,-0.04753822,0.01426293,-0.03765894
0.9666452,0.1701942,0.2936629,-0.04659902,0.0035391,-0.03369276
0.9659697,0.167644,0.2939458,-0.04537247,-0.002236845,-0.03277147
0.9650837,0.1639484,0.2928951,-0.04348315,0.003821445,-0.04077113
0.9682721,0.1610749,0.2942654,-0.03940473,0.01432994,-0.04322258
0.9697904,0.1616919,0.2910269,-0.03644386,0.01216671,-0.03814905
0.9667995,0.1647064,0.2874322,-0.03669902,0.01434012,-0.035869
0.9648952,0.1678551,0.2858712,-0.0379998,0.02424811,-0.03920059
0.968565,0.1683496,0.287255,-0.04006055,0.02915832,-0.04326653
0.9720763,0.1683817,0.2903034,-0.04166203,0.03322873,-0.04185473
0.9670866,0.1711995,0.2880154,-0.04154463,0.02289342,-0.03871119
0.9635324,0.1714301,0.2846761,-0.04253312,0.009735063,-0.03493719
0.9666258,0.1708995,0.2829825,-0.04186527,0.01551555,-0.02971456
0.9673385,0.171601,0.2824974,-0.03661137,0.01917493,-0.03011746
0.9664833,0.16777,0.2839774,-0.03435197,0.01843631,-0.03568341
0.9677113,0.1650436,0.2819575,-0.03653231,0.02367057,-0.03787083
0.9694054,0.1652351,0.2797338,-0.03760453,0.03010444,-0.03564574
0.969171,0.1643942,0.2809985,-0.03623668,0.03593567,-0.03633979
0.9666275,0.1679453,0.2823788,-0.03349255,0.03541927,-0.03675936
0.964504,0.1726628,0.2844757,-0.03068132,0.03113546,-0.02969319
0.9654714,0.1715712,0.285994,-0.02725287,0.0273324,-0.02631943
0.968597,0.1714588,0.2872756,-0.02736516,0.02404173,-0.03660296
0.9699631,0.1745017,0.2882154,-0.03240949,0.02672588,-0.04660422
0.9685271,0.1721543,0.2879681,-0.03429873,0.02775022,-0.03817378
0.9638795,0.169237,0.2893288,-0.03045778,0.01720655,-0.02254517
0.9597634,0.1714722,0.2896455,-0.02598698,0.006601503,-0.01723806
0.9628773,0.1710371,0.292116,-0.02637406,0.006732285,-0.01704595
0.9672419,0.1702497,0.2997014,-0.02503302,0.003797491,-0.01827827
0.9664822,0.1713933,0.3018794,-0.01750431,-0.008749261,-0.01648381
0.9646102,0.1706982,0.2949171,-0.01440908,-0.01508956,-0.01158166
0.9635546,0.1717465,0.288168,-0.01290379,-0.01518988,-0.01042363
0.9639298,0.1728735,0.2898733,-0.009054233,-0.01945319,-0.006821541
0.9662557,0.17311,0.292656,-0.009264537,-0.02472556,-0.00321503
0.9679959,0.1748247,0.2909384,-0.01134309,-0.02578856,-0.001935724
0.9683471,0.1753449,0.2905982,-0.01321898,-0.02376896,-0.00210782
0.9678703,0.1745789,0.2858084,-0.01293441,-0.01976459,-0.005306078
0.9667786,0.173107,0.2799012,-0.01212254,-0.0169092,-0.0008303766
0.9653331,0.1719369,0.284435,-0.01432018,-0.02349029,0.004572475
0.9634401,0.1729383,0.2881833,-0.01432761,-0.02986613,0.005799338
0.963709,0.1738125,0.2855364,-0.01266924,-0.02480895,0.008929922
0.9664473,0.1713323,0.285605,-0.01221106,-0.02293447,0.007657842
0.968299,0.167243,0.2859224,-0.01180849,-0.0256747,0.007727947
0.9697406,0.1663018,0.2805918,-0.01080036,-0.02450926,0.00986173
0.9696412,0.169024,0.2741082,-0.009218259,-0.02548312,0.01057148
0.9671207,0.1729136,0.2732518,-0.009294581,-0.03072649,0.01328724
0.9665676,0.1736341,0.2783439,-0.008834167,-0.03945285,0.01325225
0.9690573,0.1689408,0.282194,-0.007023982,-0.04345754,0.01299011
0.9727204,0.1650967,0.2796926,-0.006868661,-0.03247927,0.009320828
0.9742909,0.1667262,0.2776492,-0.009131227,-0.01543858,0.003417308
0.9716707,0.1695646,0.2780096,-0.01366271,-0.008037138,0.006952324
0.9702683,0.1703637,0.2765802,-0.01519,-0.0137204,0.01005616
0.972814,0.170803,0.2793758,-0.01316112,-0.01902569,0.008503969
0.9740375,0.1692898,0.2831248,-0.01253376,-0.01737433,0.009748833
0.9715897,0.1669947,0.2774957,-0.01203411,-0.01731481,0.01080128
0.9687316,0.1682132,0.2699093,-0.01256422,-0.0150151,0.01026334
0.9677793,0.1679255,0.2686191,-0.01649281,-0.009574649,0.00901042
0.9683696,0.1645066,0.2705992,-0.01915875,-0.01099016,0.008407054
0.9710557,0.1616238,0.2723558,-0.01451688,-0.0131106,0.01034371
0.9744237,0.1601604,0.2721943,-0.008803581,-0.01138292,0.01239772
0.9752015,0.1613984,0.2711543,-0.01044154,-0.009591422,0.01237453
0.973712,0.1618022,0.2712405,-0.01182019,-0.004310739,0.01276998
0.9705201,0.1623485,0.2733301,-0.01276049,-2.930031e-06,0.01467902
0.9684076,0.16484,0.2760097,-0.01723096,-0.001001109,0.01519094
0.9701298,0.1640008,0.2753151,-0.01576401,-0.0001950291,0.01527157
0.9724473,0.1629449,0.2742057,-0.0133455,0.005506214,0.01527173
0.9740812,0.1626104,0.2755253,-0.01541637,0.01219113,0.01404217
0.9741116,0.1603707,0.2749889,-0.01421047,0.01370406,0.0150457
0.9724386,0.1608091,0.2755343,-0.01359349,0.01253044,0.01839683
0.9711626,0.1617494,0.279904,-0.0136862,0.01403472,0.02108624
0.9688432,0.1603412,0.2826709,-0.01195738,0.01428107,0.02141055
0.9692378,0.1593509,0.2800097,-0.01272055,0.01425386,0.01837142
0.973098,0.1582016,0.2736461,-0.0118662,0.01511523,0.01521454
0.9740004,0.1587308,0.2700592,-0.01072399,0.01575716,0.01709883
0.9736989,0.1600431,0.2697522,-0.01255456,0.0209187,0.02056336
0.9733945,0.1567656,0.2700215,-0.01288439,0.02543575,0.01838728
0.9723073,0.1534296,0.2704188,-0.01278095,0.0247462,0.01483209
0.9714144,0.1540672,0.2692572,-0.01257678,0.02315629,0.01296193
0.9702189,0.1551216,0.2705882,-0.01290064,0.01945798,0.01105361
0.9710835,0.1581544,0.2741233,-0.0140729,0.01570202,0.01157711
0.9722722,0.1634973,0.274978,-0.01255648,0.01591185,0.01236913
0.9727244,0.164804,0.2739701,-0.01164745,0.01742736,0.01371457
0.9736036,0.1614173,0.2696003,-0.0127207,0.01730186,0.01461889
0.9726952,0.1594156,0.2650623,-0.01325308,0.01845791,0.01218591
0.9734697,0.1601135,0.2662452,-0.01312226,0.02160479,0.01181087
0.9742103,0.1614579,0.2688422,-0.01163873,0.02096332,0.01349479
0.9720481,0.162726,0.2691617,-0.01014056,0.01829114,0.01606312
0.972317,0.160792,0.2710295,-0.00761492,0.01458994,0.01812767
0.9732656,0.1577429,0.2726812,-0.004584132,0.01136605,0.01638361
0.9738168,0.1580187,0.2710592,-0.005238036,0.01357016,0.01193997
0.974897,0.1577377,0.2722975,-0.0058461,0.01465472,0.006702308
0.974677,0.1569788,0.2739889,-0.004195661,0.01518463,0.005338716
0.9743632,0.1598003,0.2728828,-0.003601696,0.01649264,0.004171244
0.9732911,0.1628475,0.2731518,-0.00242724,0.01647229,0.001524958
0.9732748,0.1615145,0.2719301,-0.001739843,0.02205478,0.0008022748
0.9741732,0.15766,0.2717408,-0.00407248,0.0254751,-0.00197017
0.973058,0.1563652,0.2729569,-0.005735525,0.02122771,-0.002029259
0.9722052,0.1580544,0.2717107,-0.00607339,0.014879,-0.002530572
0.9695311,0.1599207,0.2723133,-0.006600799,0.00843771,-0.005528045
0.9667703,0.1608646,0.2726667,-0.006338838,0.01049669,0.001288455
0.9682187,0.1613927,0.2732291,-0.004905106,0.01486076,0.007310513
0.9688449,0.161985,0.2771083,-0.003309493,0.01260695,0.002230855
0.9693959,0.1617075,0.2794199,-0.002688158,0.01457282,-0.0006286462
0.9715798,0.160962,0.2795121,-0.0003647579,0.01865559,0.004551147
0.9705442,0.1609326,0.2789459,0.002296502,0.0184604,0.008873992
0.9675994,0.1614152,0.2788864,0.001208099,0.0176986,0.009773675
0.9667124,0.1626,0.2791088,-4.98427e-05,0.01461376,0.009613466
0.9694125,0.1647581,0.2799025,-0.0005138716,0.01250533,0.003285714
0.973816,0.1648478,0.2827682,-0.0009728282,0.01131744,-0.0004134939
0.9744194,0.160914,0.282562,0.0001552463,0.006219014,0.005950773
0.9729692,0.1604036,0.2811774,0.001157547,0.006400568,0.008016838
0.9737896,0.1650004,0.2833366,0.001077877,0.01228719,0.006539882
0.9737993,0.1667816,0.2829865,0.0008867808,0.01534811,0.009630956
0.9727436,0.1666259,0.2794293,0.002094314,0.01569374,0.01185488
0.9712071,0.1659141,0.2772802,0.00301479,0.01552132,0.01056928
0.9685173,0.1646451,0.2790106,0.00201412,0.01838729,0.006761789
0.9690561,0.1649483,0.2819389,0.0006688143,0.02175423,0.003251511
0.9702484,0.1627337,0.2799226,-0.003589417,0.02491706,0.002877292
0.9689403,0.1603617,0.2771423,-0.007317445,0.02851276,0.004259792
0.9694527,0.1628551,0.2763813,-0.003609539,0.02652666,0.005612856
0.9697664,0.1647119,0.2758433,0.0006997755,0.02208881,0.007697008
0.9690673,0.162927,0.2778059,0.001255307,0.01614883,0.01059252
0.9693163,0.1623182,0.2790585,0.002724018,0.01111351,0.01138963
0.9676434,0.1654681,0.2819369,0.00315639,0.011131,0.01155616
0.9659738,0.1676231,0.2874122,0.003279367,0.007984985,0.01287915
0.9668318,0.1666606,0.2868681,0.006091038,0.006030697,0.01446576
0.9676458,0.1656138,0.2856591,0.006841059,0.00652925,0.01678424
0.9674575,0.1632842,0.2865821,0.005865623,0.004107416,0.01731415
0.9675424,0.1602588,0.2842126,0.003456134,0.005621351,0.01784617
0.969028,0.1615824,0.2837015,0.000605749,0.006024722,0.01908006
0.9700439,0.1647914,0.2837463,0.003448569,0.003922231,0.0171464
0.9694592,0.1649551,0.2808774,0.00553395,0.001642596,0.01598569
0.9705118,0.1660409,0.2806697,0.004610418,-0.005413527,0.0162621
0.9731526,0.167565,0.2812799,0.005848804,-0.006000684,0.01713571
0.9739402,0.1660282,0.2809842,0.006407724,0.002361301,0.01922956
0.9727063,0.1657174,0.2833299,0.007219762,0.006360086,0.01809461
0.9719356,0.1650295,0.2843364,0.006516967,5.367385e-08,0.01650074
0.9734791,0.1632908,0.2845268,0.003766074,-0.004659417,0.01573933
0.9759184,0.1642634,0.2867699,0.002138443,0.01041226,0.01365569
0.9764604,0.1654263,0.2854644,-0.002661539,0.02339299,0.01454155
0.9741319,0.1655509,0.283778,-0.006417752,0.0113604,0.01546065
0.9701691,0.16414,0.2851436,-0.005926042,0.002561245,0.01312137
0.9684969,0.1639092,0.2840512,-0.007125864,0.01083801,0.01344836
0.9696341,0.1673339,0.2809023,-0.00711887,0.01598734,0.01953668
0.969696,0.1704443,0.2783177,-0.005883169,0.01747967,0.02685254
0.9697054,0.1711579,0.2787753,-0.007352738,0.02131305,0.02841736
0.9722334,0.1674112,0.2807503,-0.008031752,0.02438692,0.02671187
0.9739374,0.1627526,0.2795577,-0.008464205,0.03261613,0.02492172
0.9707956,0.1619711,0.2787768,-0.010495,0.0381443,0.0200696
0.9662876,0.1623907,0.2809764,-0.01011473,0.02996797,0.01850845
0.9659168,0.1626807,0.2874314,-0.005830788,0.02181241,0.02044165
0.9662744,0.1614536,0.2959961,-0.000752612,0.01665082,0.02018583
0.9648105,0.1606476,0.2955914,0.001157914,0.009116589,0.02193093
0.9647634,0.1608625,0.2908982,0.002931635,0.004220497,0.02193229
0.9638609,0.1582826,0.2910821,0.009153426,0.0006891285,0.02073694
0.9620502,0.156344,0.289008,0.01297346,-0.002174125,0.02220286
0.964123,0.1575895,0.2879542,0.0138337,-0.003363223,0.02036835
0.9665247,0.1588831,0.2919345,0.01995491,-0.008808834,0.01905708
0.9660264,0.1574487,0.2909783,0.02498369,-0.02059389,0.01824489
0.966907,0.1563464,0.2888921,0.02316235,-0.02735741,0.01731733
0.9689713,0.1587876,0.2897768,0.0218659,-0.02171125,0.01720418
0.9697929,0.1616377,0.2841748,0.02027316,-0.01156707,0.006729365
0.9703914,0.164952,0.2783665,0.01541174,-0.0007619474,-0.004365401
0.9700442,0.1662805,0.2823595,0.01379714,0.005782285,-0.002424369
0.9690059,0.1648692,0.2860097,0.01224721,0.003123608,0.001555184
0.9683159,0.1662286,0.2839645,0.007901809,-0.0004695227,0.002455427
0.9669784,0.1671974,0.2827137,0.009176343,-0.006623084,0.005337347
0.9662771,0.1664403,0.2827523,0.0095064,-0.01654376,0.00712522
0.966737,0.1663528,0.2858286,0.006082624,-0.01928132,0.005419122
0.9667756,0.1648753,0.292387,0.009382623,-0.01963683,0.00761836
0.9665728,0.1633583,0.297389,0.01234792,-0.02267122,0.011968
0.9668428,0.1636691,0.3017561,0.01221651,-0.02694905,0.01584157
0.9676321,0.1640947,0.299394,0.01405129,-0.03480117,0.02013876
0.9680777,0.1626862,0.2904418,0.01358996,-0.03627284,0.01768253
0.9672886,0.1611602,0.2897766,0.01420284,-0.03296817,0.01610238
0.9662296,0.161035,0.2894263,0.01640178,-0.03566655,0.01893385
0.9665829,0.1611638,0.2847181,0.01689516,-0.03649508,0.01910752
0.9669887,0.1621469,0.2841381,0.01837336,-0.03445048,0.01960112
0.966416,0.1625936,0.2805919,0.01804223,-0.03027429,0.01603628
0.9667081,0.161561,0.2791985,0.01574687,-0.02237302,0.01025733
0.9669846,0.1615542,0.2803644,0.01433351,-0.02021389,0.00731495
0.9675316,0.164528,0.2789174,0.01307665,-0.01985062,0.004651293
0.9693812,0.1680317,0.2860757,0.01328036,-0.01670578,0.003940132
0.9697757,0.1666199,0.2912868,0.01365783,-0.01696005,0.002619965
0.969281,0.1639394,0.2872005,0.0116016,-0.01833607,0.004106249
0.969643,0.1643504,0.2823523,0.008567395,-0.0191029,0.007815629
0.9705342,0.1659377,0.2775446,0.00532794,-0.01777936,0.006929817
0.972,0.1699422,0.2796478,0.002964549,-0.01378176,0.007995248
0.9725834,0.1717671,0.2834084,0.003093691,-0.005759466,0.01151384
0.9717763,0.1685689,0.2832469,0.001853191,0.01750897,0.01276135
0.9703427,0.1664698,0.2852929,-0.003134787,0.03891221,0.01059073
0.9690063,0.1637314,0.2851629,-0.004782887,0.0238688,0.007944663
0.9691992,0.1598743,0.2845736,0.003496434,-0.006438455,0.009547259
0.9698164,0.1604991,0.2870757,0.01233462,-0.01511655,0.01059075
0.9693112,0.1624396,0.2861433,0.009588655,-0.01314241,0.01126996
0.9691348,0.1625273,0.2823353,0.006913695,-0.01248018,0.01436899
0.9687845,0.1637716,0.2833893,0.01150689,-0.015972,0.01789767
0.9674418,0.1628882,0.2888716,0.01254999,-0.02878925,0.02245299
0.9670652,0.1601041,0.2905579,0.01630937,-0.03852377,0.02704495
0.9667231,0.162915,0.2865209,0.02245928,-0.04025605,0.03132859
0.9662894,0.1652275,0.2814558,0.01944398,-0.03839012,0.03236304
0.9669592,0.1634381,0.279747,0.01772969,-0.03972057,0.03199801
0.9668271,0.1647855,0.2766185,0.01924013,-0.04630219,0.03479288
0.9682462,0.1658528,0.2699834,0.01677328,-0.04575723,0.0341202
0.9730623,0.1648517,0.2715715,0.01540596,-0.0409791,0.03207221
0.975755,0.164445,0.2756582,0.01336556,-0.03165656,0.03171429
0.9726737,0.1632309,0.2727189,0.009113306,-0.01958617,0.02856112
0.9693614,0.1623884,0.2725486,0.007167458,-0.01824087,0.02860746
0.9717939,0.1621946,0.2734348,0.007436896,-0.01641366,0.0305815
0.9733543,0.162097,0.2727372,0.006258595,-0.009384612,0.02963196
0.9716519,0.1602017,0.27564,0.002785433,-0.003910191,0.02904941
0.9728832,0.1576977,0.2789619,0.002492983,-0.002767157,0.02409743
0.9726025,0.1584934,0.2807427,0.002913406,-0.003200603,0.01766849
0.970633,0.1589099,0.2774816,5.920363e-05,0.004977909,0.01907149
0.9715498,0.1600424,0.2735109,0.0004863892,0.009313325,0.02192093
0.9710537,0.1638418,0.2778215,0.003082357,0.008122126,0.02088341
0.97043,0.1644755,0.2799468,0.002466818,0.01313843,0.01839724
0.9720829,0.1630566,0.2741853,0.0005461753,0.01463372,0.01392995
0.9719743,0.1610878,0.2707541,-0.002577254,0.01516434,0.00823433
0.9694227,0.1580095,0.2739107,-0.009393685,0.02121025,0.004078201
0.967604,0.1577674,0.2791711,-0.0143816,0.0268814,0.004068707
0.9702577,0.1586347,0.2812856,-0.009835616,0.02854861,0.005327346
0.9755549,0.1573423,0.2794357,-0.00341539,0.0286438,0.0003779244
0.9766868,0.1565009,0.2749769,-0.0009938107,0.03265683,-0.004144048
0.9716275,0.1577637,0.2705935,0.002119407,0.03265446,-0.001510227
0.9640982,0.1609847,0.2692912,0.001540327,0.02765208,-0.0002837757
0.9611735,0.1652271,0.2732116,-0.001801382,0.02741052,-0.0005741668
0.9653847,0.1665205,0.2794824,-0.001949835,0.02626273,0.000652498
0.9681922,0.1655435,0.2800822,-0.003502427,0.02213536,0.002762452
0.966492,0.1656345,0.2786043,-0.005135461,0.01811192,0.005699097
0.9671465,0.1609609,0.2803842,-0.004386851,0.01585574,0.001682016
0.9688446,0.1543876,0.2817132,-0.004567946,0.02267402,-0.004565875
0.967737,0.1570327,0.2849618,-0.003071538,0.030343,-0.003640907
0.9668932,0.1612039,0.2881706,0.00247576,0.02536119,-0.002928029
0.9667182,0.1608388,0.2843562,0.008122382,0.01480822,-0.004013517
0.9665714,0.1616995,0.2808773,0.009034828,0.008531666,-0.00355364
0.9679192,0.1619897,0.2867072,0.009171861,0.009252854,-0.003864335
0.9692643,0.1625198,0.2931152,0.01191627,0.01349091,-0.00331324
0.9692711,0.163703,0.2918459,0.01049318,0.01260395,0.0007581266
0.9677587,0.1621808,0.2910136,0.007143046,0.01015032,0.0052724
0.9659219,0.1623582,0.2922301,0.007118105,0.008457456,0.004171656
0.9663733,0.1636577,0.2913821,0.009231295,0.003181319,-0.0007183185
0.9664314,0.1631508,0.2916813,0.01399971,0.001084103,-0.002367616
0.9660627,0.1629741,0.2914731,0.01528711,0.0006191778,-0.001791025
0.9695926,0.1624533,0.2891143,0.01263322,-0.001066313,0.0007629083
0.9721223,0.1623038,0.2858672,0.01219333,0.0004622494,0.005116489
0.9706064,0.1633639,0.2842857,0.009278713,0.0002020474,0.004238785
0.9695587,0.166211,0.2887613,0.004957414,-0.000980484,0.003685024
0.9667743,0.1700368,0.2936487,0.004976954,-0.001173851,0.008729062
0.9621958,0.1701297,0.2931622,0.005745295,-0.001218417,0.009918763
0.9623636,0.1684012,0.2908757,0.004262102,0.0002346618,0.009499514
0.9636459,0.1674749,0.2897957,0.002902685,-0.0009519709,0.01048822
0.9627962,0.1645844,0.2900333,0.00333899,-0.002609141,0.008384998
0.9650959,0.1627752,0.289634,0.003217203,-0.004382429,0.007919425
0.9662062,0.1642884,0.2886542,0.00297296,-0.008825898,0.007877059
0.9646826,0.1641441,0.2896485,0.003954124,-0.01223886,0.006826849
0.9664572,0.163569,0.2912248,0.00477513,-0.01321693,0.0122013
0.9671222,0.1653431,0.2914467,0.006090523,-0.01218262,0.01780286
0.966331,0.1663419,0.2906823,0.005999743,-0.01509238,0.01544617
0.966906,0.1668894,0.2885607,0.004946086,-0.021676,0.01355228
0.9665084,0.1663155,0.2880104,0.00548596,-0.02321307,0.01518811
0.9667112,0.1636185,0.2893362,0.004801291,-0.01838307,0.01383579
0.9667579,0.1621389,0.2870091,0.004885018,-0.01287266,0.0132893
0.9664712,0.1630202,0.2850603,0.007486509,-0.01584635,0.0143513
0.966888,0.1646299,0.2865456,0.007634167,-0.01812144,0.01063717
0.9665077,0.1639412,0.2864966,0.005134402,-0.008812918,0.006956192
0.9667065,0.1633351,0.2878429,0.00371946,-0.0001688037,0.006703684
0.9667499,0.1644448,0.2905961,0.00423871,0.001727869,0.01059171
0.966684,0.1636568,0.290728,0.004222145,-0.004798997,0.01713163
0.9677293,0.163743,0.2911586,0.002342869,-0.01337853,0.0158719
0.9682149,0.1642649,0.2928207,0.00128536,-0.01035971,0.01483981
0.9680078,0.1631451,0.2929999,0.002069647,-0.002745571,0.01978906
0.9668378,0.1623264,0.2896874,0.002387191,0.002051816,0.0160381
0.9654901,0.1605707,0.2852318,0.001953742,0.0005008564,0.01117395
0.9650552,0.1610617,0.2838554,0.001743665,-0.0043721,0.01127697
0.9653642,0.1635844,0.2853559,0.0006608393,-0.001644941,0.007612924
0.9667525,0.1636436,0.2874139,-0.0001343721,-0.001522893,0.007272112
0.9685881,0.1623396,0.287938,0.001157787,-0.005947659,0.007166086
0.970061,0.1604189,0.2877321,0.002361101,-0.005022872,0.001821202
0.9699733,0.1609335,0.2887941,0.003477918,-0.002895999,0.0009070491
0.9707266,0.1629293,0.2895398,0.005077829,6.626253e-05,0.00442826
0.9731331,0.1631585,0.2885958,0.005662784,0.0006531589,0.008709053
0.971686,0.1643012,0.2886287,0.006054629,-4.343573e-05,0.009714838
0.9680042,0.1641229,0.2897428,0.007107103,0.003422218,0.005367506
0.9660944,0.1633399,0.2899809,0.008756133,0.003255614,0.003224488
0.9660908,0.1636355,0.2907632,0.008816268,-0.0004627303,0.005853608
0.9673294,0.1601646,0.2903094,0.007340889,-0.004819448,0.008100503
0.9667353,0.1574406,0.2902692,0.006420913,-0.006819037,0.006047537
0.9673228,0.1600164,0.2930504,0.001905721,-0.002410485,0.004418503
0.9696115,0.1621789,0.2921006,-0.002268148,0.001437778,0.005771961
0.9678571,0.1614388,0.2890839,0.0003074346,0.006439346,0.004662634
0.9641056,0.1625107,0.289586,0.001970625,0.009862112,0.003773482
0.9618518,0.1658414,0.2910749,0.001437816,0.002910172,0.004322182
0.9639891,0.1656471,0.2894483,0.003257973,-0.002573922,0.002994616
0.9674963,0.1645246,0.2850996,0.005318931,-0.0006827821,0.002324534
0.9657043,0.1648062,0.282651,0.005392932,-0.0002057099,0.002937007
0.9645897,0.1634658,0.2833552,0.002991858,-0.001559418,0.004053179
0.9658906,0.1636891,0.2871691,0.003148737,-0.0005227231,0.004597936
0.9663285,0.1645081,0.2890983,0.006100848,0.0003220322,0.004122852
0.9687699,0.1644284,0.28806,0.006658648,0.0006433282,0.003697181
0.9696297,0.1658612,0.2887321,0.008450741,0.003711632,0.001671508
0.9666224,0.166524,0.2849437,0.009338705,0.00567614,-0.0005302346
0.9645058,0.1678097,0.2820718,0.007673811,0.005432798,0.0003034976
0.96594,0.1705002,0.285104,0.009941425,-0.001908537,0.002915186
0.9681466,0.1712055,0.2833403,0.01167125,-0.01533592,0.004219816
0.9690317,0.1703197,0.2800003,0.01135729,-0.01569844,0.003631784
0.9704997,0.1680225,0.2791308,0.01032421,-0.009369449,0.0035149
0.9671687,0.1658695,0.2807418,0.006782512,-0.0104026,0.004733611
0.96241,0.1660947,0.2850096,0.007119063,-0.008444141,0.003558905
0.9686137,0.1653669,0.2853757,0.008070355,0.0001001808,-0.003860758
0.975265,0.163824,0.2849791,0.005939713,0.01101359,-0.008223159
0.9721538,0.1671481,0.2863463,0.004776201,0.01295616,0.0008061602
0.965981,0.1706704,0.2870561,0.002216473,0.0009801294,0.00926037
0.961112,0.1667894,0.2904988,0.0007026026,-0.007169996,0.005242653
0.9632194,0.1635779,0.294977,0.0001700243,-0.006947749,0.0006899141
0.9675007,0.165715,0.2978129,-0.0003493761,-0.004763321,0.0004027456
0.9649406,0.1656897,0.296956,0.002268467,-0.003542097,0.0002107929
0.9653197,0.1647065,0.2927368,0.003887971,-0.007487466,0.00371907
0.9684999,0.1652447,0.2925609,0.00562444,-0.01072188,0.006677743
0.9678068,0.1634878,0.2936727,0.006933886,-0.01143835,0.005599751
0.9694494,0.1622969,0.2920166,0.006189827,-0.01416603,0.008225353
0.9685056,0.165364,0.2906142,0.009467735,-0.01941806,0.01164074
0.9655819,0.1686653,0.2886856,0.01109911,-0.02436521,0.01036539
0.969728,0.1682718,0.290928,0.00735865,-0.02324614,0.008908693
0.9717692,0.166645,0.2945315,0.004883289,-0.02178522,0.008756052
0.9679489,0.1666172,0.2908206,0.005081973,-0.02278865,0.007756377
0.9638231,0.1663043,0.2883396,0.005945799,-0.02190496,0.008060452
0.9613342,0.164827,0.2902729,0.005862124,-0.02295453,0.01146249
0.9626699,0.1636519,0.2913032,0.008462796,-0.0244504,0.01352289
0.9642947,0.1644349,0.291358,0.01059828,-0.02514984,0.01273036
0.965676,0.1658448,0.28806,0.007678225,-0.0260531,0.01098748
0.9688777,0.1643348,0.2847892,0.006419992,-0.02597178,0.008916404
0.9711306,0.1630264,0.2859617,0.004032929,-0.02425338,0.007111893
0.9728227,0.1635299,0.2867692,0.001306268,-0.01852275,0.004821894
0.9730698,0.1630905,0.2855479,0.002420453,-0.01537934,0.004630032
0.9702633,0.1638998,0.2851416,-0.0003001722,-0.01422899,0.005084721
0.9669406,0.1644116,0.2846032,-0.00080947,-0.009462089,0.001552923
0.964941,0.1634067,0.2836034,0.00528297,-0.009458278,-0.002296749
0.9656625,0.1638616,0.2849603,0.00898183,-0.01341488,-0.003100298
0.9682721,0.1626186,0.2884956,0.008935279,-0.01521894,0.0009264418
0.9699977,0.159257,0.2908596,0.007318469,-0.01492017,0.007430903
0.9698528,0.1583639,0.2878703,0.005120972,-0.01342746,0.01244037
0.9687466,0.1616984,0.283615,0.0009011522,-0.01198144,0.01686407
0.9688215,0.165448,0.2857427,0.0001471577,-0.00908194,0.01190574
0.9686503,0.1642878,0.2884745,0.004069896,-0.00926173,-0.001080454
0.9673705,0.1637931,0.2898766,0.003051578,-0.01132655,-0.002405244
0.9667125,0.1668361,0.292404,0.002684493,-0.009232912,0.005283246
0.9661714,0.1679455,0.2893822,0.002007064,-0.01124097,0.008941286
0.9672266,0.1696717,0.2840166,-0.0008073563,-0.02001846,0.008836642
0.9687559,0.1696897,0.2826255,0.004246963,-0.02633666,0.00904053
0.9694361,0.1641969,0.2829633,0.006310282,-0.02474144,0.01246156
0.9700856,0.1594937,0.2827277,0.003837629,-0.02073216,0.01176789
0.968959,0.1575845,0.2805808,0.00383587,-0.01886005,0.00801323
0.9693658,0.1601882,0.2807116,0.001144386,-0.01543769,0.008641659
0.969982,0.1644095,0.2851318,0.002914377,-0.01851182,0.007851528
0.9689958,0.1633795,0.289857,0.009081061,-0.02704198,0.009865083
0.9707108,0.1610865,0.2923759,0.01289833,-0.03025294,0.01503942
0.9704215,0.1591716,0.2901885,0.01178277,-0.03564724,0.01642264
0.9670066,0.1590167,0.2841914,0.007487484,-0.03857994,0.01719556
0.9644639,0.160696,0.2788026,0.009639023,-0.03199021,0.01710877
0.964744,0.1596144,0.2793989,0.01099011,-0.02698607,0.02044239
0.9682607,0.1612909,0.282462,0.01053018,-0.02878101,0.02222737
0.9718912,0.1636769,0.280784,0.01386925,-0.03178833,0.01542674
0.9765624,0.1618977,0.2814434,0.01065431,-0.02798454,0.01100923
0.9770933,0.1609962,0.2823318,0.007446628,-0.02498223,0.009955441
0.9748264,0.1584127,0.279132,0.009280448,-0.02577423,0.01057031
0.9772628,0.1557606,0.28009,0.008418514,-0.02476291,0.01007195
0.9752318,0.1575681,0.2776618,0.007518574,-0.02698463,0.005237922
0.9719785,0.1600197,0.2729114,0.006695952,-0.02442297,0.003746119
0.9727048,0.1619824,0.2753405,0.006388549,-0.0213635,0.005477079
0.9713379,0.1632477,0.2748655,0.007209647,-0.02754135,0.01126673
0.9714821,0.1637756,0.2707601,0.007177698,-0.02917397,0.01706183
0.9701396,0.1633793,0.2692798,0.007437909,-0.0247916,0.01370494
0.9694144,0.1619532,0.2724782,0.00641433,-0.01870555,0.008959908
0.9733768,0.1614624,0.2787957,0.006626919,-0.01351634,0.006808666
0.9755138,0.1584747,0.2774425,0.01022654,-0.009478428,0.004024775
0.9795846,0.1540489,0.2719236,0.01102828,-0.003558113,0.002127095
0.9820927,0.1559447,0.2717966,0.00479651,0.0005042021,0.001278942
0.97949,0.158457,0.269458,-0.002176088,0.006371084,-0.002505794
0.9785785,0.1559229,0.263191,-0.0003724169,0.009942986,-0.007461583
0.9764769,0.1552651,0.2642419,0.002043634,0.01070423,-0.007066215
0.9745079,0.1560883,0.2672464,-0.001788882,0.01584677,-0.007459686
0.9743551,0.1566746,0.2646987,-0.001675022,0.01749286,-0.008171359
0.9734934,0.1581708,0.2677326,-0.0008883866,0.02021051,-0.003913271
0.9756906,0.1582509,0.2713426,-0.003147649,0.02597518,-0.003649244
0.9788658,0.1602063,0.2686299,-0.002161644,0.02880316,-0.00722996
0.9787471,0.1615168,0.2697691,-0.003309147,0.03228173,-0.009345019
0.9774147,0.1603096,0.2716677,-0.006768816,0.03074189,-0.006631653
0.9773289,0.1617063,0.2722408,-0.007926331,0.02849584,-0.0007947728
0.977261,0.1607962,0.2728733,-0.007620503,0.03056057,-0.0009486368
0.975967,0.1587328,0.2719095,-0.006225043,0.02729053,-0.0009199309
0.9761717,0.1585315,0.2742509,-0.00855099,0.02171879,-0.0009125191
0.9766487,0.1576215,0.2750685,-0.01191332,0.01945697,-0.005514661
0.9752031,0.158271,0.2711383,-0.01103346,0.02244879,-0.004892938
0.9743903,0.1557849,0.268781,-0.009156726,0.02859043,-0.004505184
0.9732895,0.1527486,0.2709176,-0.008531133,0.02957373,-0.007620255
0.9720062,0.1545278,0.2752774,-0.008479603,0.02859073,-0.00800147
0.9738508,0.1543793,0.2772603,-0.005090569,0.02936252,-0.008707712
0.9750047,0.154028,0.2794897,-0.002421083,0.02946544,-0.008214101
0.9705663,0.1560096,0.2793651,-0.00321064,0.02883242,-0.007801968
0.9662349,0.1592509,0.2762438,-0.002328131,0.02536545,-0.009026667
0.9676895,0.1629467,0.2781484,-0.003724405,0.02138967,-0.009462808
0.9681767,0.1639475,0.2783947,-0.005500381,0.02125233,-0.01123765
0.9665525,0.1651935,0.2768173,-0.004953153,0.02360627,-0.01292533
0.9710951,0.1648665,0.279037,-0.006029463,0.02599524,-0.01536249
0.9745303,0.1611267,0.2809626,-0.005924849,0.02709289,-0.01718248
0.9681609,0.1605499,0.2860641,-0.005241322,0.02733913,-0.01446396
0.9632377,0.1614899,0.2881858,-0.00511646,0.02673456,-0.01263863
0.967219,0.1609428,0.2805504,-0.004992841,0.02579706,-0.01231433
0.9706182,0.1609626,0.2758007,-0.00400028,0.02511072,-0.01082328
0.9690784,0.1602763,0.2789977,0.0007242873,0.02410554,-0.009989045
0.9691998,0.1595208,0.28352,0.006236952,0.02262012,-0.009779873
0.9699671,0.160976,0.2862018,0.008267462,0.02030317,-0.009732221
0.9689886,0.1634859,0.2900894,0.006006604,0.02004413,-0.008947947
0.969621,0.165518,0.2927865,0.004797001,0.02122429,-0.008738302
0.9693961,0.1664606,0.2887494,0.005533983,0.02122192,-0.008778231
0.9684119,0.1671216,0.2834261,0.00370987,0.02218954,-0.006588453
0.9693624,0.1685745,0.2808952,0.002113207,0.02139992,-0.00577197
0.9712003,0.1694866,0.2815073,0.000376648,0.01893202,-0.006224911
0.9729082,0.1675581,0.2825048,-0.0007055795,0.01835289,-0.004724624
0.9712129,0.1639845,0.2796349,-0.0006427739,0.01865646,-0.002454928
0.9687234,0.1634006,0.2790482,-0.00381873,0.02080435,-0.000301405
0.9678429,0.1651562,0.2825015,-0.0059005,0.02297805,0.0002043785
0.9661664,0.1656799,0.2859868,-0.004310978,0.02215781,3.450816e-05
0.9673291,0.1661622,0.2879724,-0.001701244,0.0160781,0.001279189
0.9689298,0.1666992,0.2869401,-8.937124e-05,0.00759485,0.001844976
0.9678728,0.1656965,0.2856841,-0.0003512337,0.007426372,-0.0006534065
0.9688736,0.163638,0.2846111,-0.001042419,0.01014264,-0.004537223
0.9696153,0.1617102,0.2855789,-0.001720219,0.009971907,-0.005181068
0.9675327,0.1607748,0.2899448,-0.001601288,0.01469534,-0.004132166
0.9663896,0.1609019,0.2917979,-0.002589763,0.01659962,-0.003798001
0.9685127,0.1619379,0.2914975,-0.003339372,0.01344649,-0.003236554
0.9712816,0.1639108,0.289943,-0.0008168893,0.01521988,-0.004453343
0.9705395,0.1668044,0.2880251,0.0006291622,0.01752226,-0.005533198
0.967092,0.1675245,0.2890132,-0.0008564871,0.01754966,-0.00512819
0.9624963,0.1665135,0.2888016,-0.003058127,0.01233816,-0.004191135
0.9598247,0.1694428,0.2869672,-0.004073462,-2.746958e-05,-0.002974183
0.9624902,0.1714937,0.2866595,-0.006865818,-0.004510736,-0.00360414
0.9653789,0.1679618,0.2876631,-0.01103227,0.001583218,-0.002730183
0.9665438,0.16575,0.2890849,-0.008184069,0.004268855,-0.001988408
0.9689702,0.1674972,0.2896938,-0.0008015496,0.001215607,-0.003284626
0.9702982,0.1681547,0.2906097,0.002675037,0.001053481,-0.002309741
0.9711395,0.1642538,0.2908761,-0.002472967,0.009121685,-0.004303604
0.9716502,0.1612882,0.2908666,-0.01006247,0.02090032,-0.006675156
0.9667122,0.1639689,0.2901995,-0.00858173,0.02518152,-0.005195573
0.9599411,0.1673551,0.2856894,-0.007772895,0.01496072,-0.00643568
0.9593572,0.1682464,0.2845869,-0.0107997,0.004412435,-0.007384569
0.9621588,0.1662506,0.2870175,-0.008143616,0.007728826,-0.005811983
0.964506,0.163469,0.2863891,-0.008295617,0.01234836,-0.003707594
0.9678899,0.1636002,0.2875813,-0.008890605,0.01347448,-0.003673926
0.9684833,0.1642407,0.2877093,-0.004921931,0.0157646,-0.008160704
0.9679821,0.1633676,0.2873341,-0.005316803,0.01487859,-0.009242658
0.9704916,0.161892,0.2938314,-0.004733487,0.01692264,-0.007165188
0.9695285,0.1596226,0.2974828,-0.001090918,0.02094592,-0.008524037
0.9680797,0.1582255,0.2956676,0.0013653,0.01876793,-0.009788445
0.9674834,0.158768,0.2957321,0.001769549,0.01815942,-0.01194862
0.9630928,0.1600559,0.2967702,-0.0008241702,0.02010789,-0.01819397
0.9632055,0.1623082,0.2977015,0.0002778169,0.01995486,-0.02262094
0.9654346,0.1650688,0.2975071,0.001357772,0.02108176,-0.02136367
0.9658742,0.1671703,0.2987445,0.000964081,0.02352652,-0.01967478
0.9683555,0.1673725,0.300936,0.003207834,0.02573602,-0.02098092
0.9650065,0.1659714,0.3006122,0.0008657306,0.02601184,-0.02094794
0.9603963,0.1667027,0.3032742,0.0005267669,0.02293741,-0.01969671
0.9627484,0.1671877,0.3069527,0.004147446,0.01883349,-0.02157034
0.963773,0.1665753,0.3045687,0.003239737,0.01765322,-0.02327807
0.9644521,0.1696838,0.2985144,0.001204926,0.02278986,-0.02348134
0.9673881,0.1717412,0.2943447,-0.001444226,0.02732439,-0.02318799
0.9653736,0.1707534,0.2957621,-0.001131315,0.02286547,-0.01692644
0.9623772,0.1704988,0.2995333,0.001359968,0.01774232,-0.01009272
0.9642394,0.1701162,0.300467,0.001175772,0.0166154,-0.01136353
0.9638443,0.1705851,0.2995974,0.003636865,0.01270094,-0.01007338
0.9605186,0.1728208,0.2981895,0.003638127,0.009395001,-0.003939055
0.9593424,0.1753443,0.2968004,0.0005320897,0.007713781,-0.00547647
0.959357,0.1751926,0.2988572,0.001062785,0.002669638,-0.006841842
0.9604485,0.1735922,0.3037926,0.0003204048,0.001802607,-0.0005573594
0.9615588,0.1738727,0.3066936,2.931828e-05,0.006422829,0.00271281
0.9622866,0.1744978,0.3054228,0.001158256,0.008159561,0.004288369
0.9606636,0.1767337,0.302073,0.0003660195,0.005962171,0.006642468
0.9549575,0.1796579,0.300546,0.0007267217,0.001052874,0.006328231
0.9533413,0.1805744,0.2995609,0.000940492,-0.002493775,0.006654568
0.9563336,0.1792725,0.2990138,0.001429381,-0.003684481,0.007538136
0.9580612,0.1764743,0.3030116,0.002652885,-0.008390507,0.01206723
0.9597925,0.1771426,0.3071003,0.001482963,-0.02127208,0.01842369
0.9614703,0.1783314,0.3060058,-0.0004231049,-0.0343884,0.01795627
0.9615018,0.176877,0.3036333,-0.003631224,-0.03130865,0.01845971
0.9593716,0.1755284,0.3010427,-0.007567209,-0.02631444,0.02277775
0.9575788,0.1732394,0.2944921,-0.009008473,-0.03202035,0.02116634
0.9580635,0.172677,0.2906262,-0.01004,-0.02670125,0.01809726
0.9626409,0.1705792,0.2931251,-0.0114532,-0.01291025,0.01732489
0.9682403,0.1661988,0.2960559,-0.00913347,-0.005666425,0.01393656
0.9621512,0.1670913,0.3032958,-0.002108814,-0.01301226,0.01598874
0.9529253,0.1672413,0.3083788,0.003802786,-0.03809399,0.02096733
0.9547503,0.1661702,0.3048379,0.004978765,-0.05341102,0.01838352
0.9590794,0.169678,0.3059221,0.004200202,-0.05679255,0.02212589
0.9626248,0.173545,0.3081695,0.00505322,-0.06762891,0.03375826
0.9648438,0.1749316,0.3061476,0.008310364,-0.07434669,0.04194365
0.9658658,0.1698397,0.3061277,0.01339342,-0.07415252,0.04654897
0.9687854,0.1632653,0.3035105,0.0186432,-0.07531469,0.04716556
0.9682476,0.1649137,0.2943099,0.01969055,-0.07829931,0.04734548
0.9683872,0.1664443,0.28214,0.01940912,-0.08200324,0.04278345
0.9703032,0.1633836,0.277299,0.02019675,-0.0845913,0.03605115
0.9680919,0.1607561,0.2783796,0.01502351,-0.08417873,0.03440888
0.9684151,0.1592633,0.2740247,0.008362956,-0.07848973,0.02966729
0.9719274,0.1624398,0.2735807,0.007648374,-0.07217936,0.02696202
0.9744239,0.1646896,0.2768591,0.01127769,-0.06491281,0.02490872
0.9744848,0.1619022,0.2751473,0.01532347,-0.0551349,0.01997618
0.9734871,0.1641308,0.2800807,0.01124747,-0.04385538,0.01958477
0.9762422,0.1647867,0.2859594,0.005074073,-0.03079657,0.01461205
0.9781032,0.1605864,0.2833316,0.005307876,-0.02605699,0.009578296
0.9790505,0.1613699,0.2843848,0.003423213,-0.02816791,0.008488325
0.9795465,0.160372,0.2854161,0.002440995,-0.02896272,0.003588747
0.9741778,0.1570788,0.2761985,0.002946854,-0.02564528,0.004493154
0.9698918,0.1552624,0.2673791,-0.003815561,-0.01832418,0.006250437
0.9686773,0.1547558,0.2705378,-0.009065275,-0.01644983,0.002208846
0.9681948,0.1586571,0.2765196,-0.008537392,-0.01422953,0.001496643
0.9693091,0.159588,0.2780168,-0.007838419,-0.01054906,0.0009191899
0.9709533,0.1594472,0.2817705,-0.006206831,-0.01384091,0.000572726
0.9752536,0.1605421,0.281727,-0.002622309,-0.01401966,0.003762022
0.9762317,0.1581526,0.2798602,0.001478936,-0.01209962,0.005700468
0.9750298,0.1565442,0.2842672,0.002589691,-0.01343471,0.008515776
0.9758397,0.1536648,0.2826268,0.002576525,-0.01456152,0.01101624
0.9724075,0.1550222,0.2768243,0.003528986,-0.01668468,0.00929677
0.9718602,0.1599858,0.2733133,0.002933808,-0.01775687,0.01064655
0.9724488,0.1582502,0.2707898,0.001602748,-0.02219911,0.01222781
0.9697168,0.1597307,0.2714104,0.0002523551,-0.02901722,0.006969427
0.9732094,0.1624357,0.2687671,0.002747824,-0.02491817,0.005445666
0.9757524,0.160033,0.2684583,0.007202702,-0.01912417,0.009295539
0.9752824,0.1584702,0.2710027,0.008586605,-0.02133146,0.0101274
0.9762442,0.1557375,0.2683763,0.01248189,-0.01777939,0.007826953
0.9744846,0.1537582,0.2690292,0.01670452,-0.008504867,0.003195373
0.9747415,0.1524197,0.2667333,0.02138184,-0.001268915,-0.0003608385
0.9753824,0.150528,0.2598825,0.02798713,0.005671961,-0.007501353
0.9732663,0.1529741,0.2598434,0.0258189,0.009099923,-0.01836222
0.9721509,0.1589561,0.2644159,0.01980204,0.007975797,-0.01823879
0.9719667,0.1657941,0.2741881,0.01509841,0.000732114,-0.01583786
0.9741705,0.1675698,0.2836148,0.009917963,-0.0127869,-0.0188642
0.97525,0.1657745,0.2836084,0.009288141,-0.02451851,-0.01690269
0.9745959,0.167114,0.2723346,0.004796847,-0.02700524,-0.01676288
0.976355,0.1664468,0.2595729,-0.003428911,-0.01841042,-0.01880166
0.9762871,0.1641795,0.2625298,-0.004938663,-0.009630424,-0.01601524
0.9739958,0.1626605,0.266531,-0.004791073,-0.003381472,-0.01308653
0.9715237,0.1595341,0.2629525,-0.004593006,0.000761909,-0.008855279
0.9693487,0.1576988,0.2676464,-0.002214536,0.00062825,-0.007565219
0.968421,0.1568148,0.2701501,0.002599898,0.006160387,-0.009408396
0.9663194,0.1583764,0.2706832,0.009863788,0.003141191,-0.006979136
0.9671274,0.1609703,0.2772024,0.01675472,-0.01373895,-0.00732789
0.9712604,0.1597986,0.2737684,0.02283466,-0.02313256,-0.006805052
0.9721565,0.1611309,0.2693388,0.02306064,-0.0246605,-0.002091026
0.9736797,0.1637752,0.2718901,0.02028649,-0.02392155,0.000349367
0.9769387,0.1632032,0.2691301,0.02274357,-0.02923444,0.00549004
0.9776826,0.1647809,0.2703026,0.02261405,-0.03177384,0.006183307
0.9755004,0.1687512,0.2739326,0.02005689,-0.02631849,0.002607553
0.9722976,0.1716841,0.2699496,0.01868251,-0.02871772,0.006448037
0.9724745,0.1700345,0.2654613,0.01261511,-0.02339309,0.01063122
0.9701233,0.1653574,0.2591709,0.00731028,-0.01592955,0.01268696
0.9653874,0.1638463,0.2564539,0.002147948,-0.01680619,0.009966317
0.9709927,0.1630626,0.2629896,-0.005688586,-0.007232666,0.005210976
0.9774103,0.1599857,0.2652274,-0.008828036,0.0005864858,0.006172682
0.9756303,0.1566591,0.2630736,-0.01119695,0.004855031,0.001868196
0.9759932,0.1569046,0.2600517,-0.01198398,0.01353631,-0.0005755772
0.9771883,0.1621533,0.2534527,-0.009761218,0.01890269,0.001444852
0.9758728,0.1650492,0.2543653,-0.01048648,0.01803965,-0.00468006
0.9767769,0.1628363,0.2596604,-0.006027781,0.01428471,-0.005660203
0.9784686,0.1609017,0.2606047,0.002237742,0.02305803,-0.004198914
0.978656,0.1603726,0.2661204,0.005367525,0.03033143,-0.005974318
0.975641,0.159214,0.2678756,0.005961881,0.02535753,-0.002101306
0.9703372,0.1593971,0.2633595,0.003660481,0.02596262,-0.001147613
0.9698968,0.1651202,0.2634478,0.001138887,0.02568244,-0.0007591338
0.9719141,0.1694395,0.2605208,0.0006035975,0.02405823,0.0006110084
0.9715471,0.1684351,0.2615,-0.0009267022,0.02021544,0.0002994259
0.9734154,0.1702504,0.2681829,-0.00284256,0.007398966,0.005432529
0.9752867,0.1693144,0.2676871,-0.00494076,0.002072109,0.006373062
0.9747855,0.1627161,0.2665842,-0.006204289,0.009775445,-0.001959934
0.9753831,0.1601463,0.2640945,-0.007781148,0.01884378,-0.007953964
0.9760252,0.1607222,0.2608032,-0.01186948,0.02154325,-0.001845438
0.9775839,0.1610488,0.26125,-0.0146238,0.02521715,0.005208452
0.9793067,0.158561,0.2655314,-0.01197519,0.03146244,-0.001287167
0.9791105,0.1557123,0.2766953,-0.006875478,0.03305016,-0.004085378
0.978557,0.158444,0.278597,-0.004722153,0.03274287,1.233102e-05
0.9755741,0.1610169,0.2732658,-0.004927471,0.02481675,-0.0006612242
0.9724006,0.1622532,0.2738582,-0.006832163,0.01821679,0.001788208
0.9733807,0.1642554,0.2688616,-0.008590955,0.02317666,0.004346111
0.9744533,0.164706,0.2647195,-0.007965287,0.02584875,0.001038074
0.9743357,0.165084,0.2672442,-0.007061205,0.03091716,-0.003845022
0.9760583,0.1627652,0.2678185,-0.00338746,0.04203704,-0.007956329
0.9770989,0.1598734,0.2694167,0.001938014,0.05469992,-0.01139716
0.9758451,0.1611606,0.2743174,0.006324691,0.06870599,-0.01859187
0.9752553,0.1612226,0.278571,0.01015626,0.07174844,-0.02735084
0.9741391,0.1591251,0.2732641,0.009443444,0.06873746,-0.03392038
0.9727348,0.1585888,0.2663517,0.008174719,0.06998072,-0.03892721
0.972635,0.159182,0.2708179,0.008129608,0.06744933,-0.04080476
0.9702887,0.1598684,0.2737059,0.00392747,0.06207414,-0.04538611
0.9684831,0.1627447,0.2733825,0.0005271413,0.05863613,-0.05369077
0.9693696,0.1681316,0.2784992,0.001438096,0.05568504,-0.05828011
0.9676434,0.1711958,0.2822589,0.0007069744,0.05390278,-0.06108423
0.9649716,0.1730444,0.2837288,-0.002237015,0.05367168,-0.06019405
0.965127,0.176152,0.2838587,-0.001640307,0.05522694,-0.05201465
0.9664484,0.1769287,0.2816548,0.0005093271,0.05700023,-0.04600698
0.9669045,0.1762111,0.281872,0.003741524,0.05505707,-0.04991771
0.9669908,0.1763481,0.2834815,0.00871339,0.05130973,-0.05529064
0.9684166,0.1780444,0.2877858,0.003913186,0.04795452,-0.04859456
0.9698199,0.1844467,0.2935649,-0.003596847,0.04388435,-0.03418872
0.968788,0.1912871,0.2905154,-0.0001210532,0.04177533,-0.02085676
0.9659253,0.1889983,0.2867301,0.001269748,0.04093869,-0.01524793
0.9609828,0.1825582,0.2904319,0.0002293323,0.03877595,-0.01970141
0.9556476,0.18181,0.2928406,0.00682956,0.03266751,-0.01537151
0.9583677,0.1836284,0.294699,0.01272688,0.020367,-0.004813848
0.9639766,0.1852233,0.295171,0.01405853,0.01420188,-0.000244771
0.9617349,0.1856996,0.2916231,0.01081645,0.01541657,0.004908382
0.9624898,0.1859681,0.2913344,0.004485981,0.007052389,0.005454679
0.9661149,0.1898816,0.2919922,0.002651864,-0.003132731,0.009116424
0.9648962,0.1890063,0.2912942,-0.0002836157,-0.002605404,0.01449702
0.9679476,0.1829997,0.2914739,-0.006206026,-0.0001424566,0.01185715
0.9686763,0.1806384,0.2890049,-0.005539383,-5.18473e-05,0.0154319
0.9630496,0.1782824,0.2871206,-0.005851743,-0.003127044,0.01629935
0.961105,0.1771443,0.2877057,-0.01055953,-0.01366321,0.01357864
0.9605288,0.1776828,0.2873893,-0.00765274,-0.02416175,0.01465217
0.9619887,0.1753556,0.287676,-0.004291125,-0.02207323,0.01107934
0.9651359,0.1718783,0.2890111,-0.007896957,-0.0163399,0.01244315
0.9670268,0.170059,0.2913784,-0.008401927,-0.01809387,0.01286089
0.9676586,0.1727264,0.2922823,-0.007727986,-0.01676,0.007903341
0.9665955,0.1745217,0.2887228,-0.00917033,-0.0113056,0.005485437
0.9712421,0.1723167,0.2838396,-0.007627465,-0.001057455,0.001860511
0.9740664,0.1729435,0.2789455,-0.005634852,0.01099377,0.003692708
0.965143,0.1778644,0.2770285,-0.005103221,-0.001241905,0.005816737
0.9586438,0.1829533,0.2816014,-0.008131249,-0.01771447,0.005841442
0.9623494,0.1815907,0.2853269,-0.0130487,-0.01013855,0.01029725
0.9660929,0.1770896,0.2840271,-0.01113068,-0.005910814,0.009830651
0.9632634,0.1766155,0.2818261,-0.007045522,-0.006598483,0.009225716
0.9630286,0.1754297,0.2790702,-0.005416296,-0.002237906,0.01024396
0.9659565,0.1743272,0.2782759,-0.003568865,-0.002165559,0.007494714
0.9665363,0.175231,0.2804275,-0.006121844,0.003345094,0.008005552
0.9706225,0.1740091,0.2826113,-0.008911852,0.006977901,0.008647148
0.9705057,0.1732165,0.2886125,-0.005847076,0.001540792,0.00693947
0.9675094,0.1739014,0.2930167,-0.004110812,0.0006860859,0.004693819
0.9697108,0.1745059,0.287071,-0.004571926,-0.0005221126,0.00196094
0.9669527,0.1752922,0.2813361,-0.003343737,-0.002455613,0.005731654
0.9636841,0.1750536,0.2823288,-0.002494267,-0.002681021,0.0106868
0.9625854,0.1748291,0.2833831,-0.003181731,-0.005302025,0.00863969
0.9619272,0.175123,0.2857383,-0.004479862,-0.003265406,0.007838541
0.9671475,0.1744284,0.2893889,-0.004783463,0.0005685072,0.00943171
0.9692233,0.1723014,0.284177,-0.003970759,0.001699987,0.009997351
0.9686264,0.1696902,0.2765047,-0.002278334,-0.001005491,0.01279847
0.9697291,0.1688812,0.2799865,-0.0003170203,-0.008016772,0.01293013
0.9683402,0.1688624,0.2849724,-0.001295588,-0.007496532,0.009020275
0.9677138,0.1684697,0.2862152,-0.003926018,-0.00376243,0.007827356
0.9668875,0.1692689,0.2875406,-0.0060072,-0.003136919,0.007405508
0.9653494,0.170422,0.2870512,-0.00750163,0.001714172,0.006379712
0.9642209,0.1715041,0.2886371,-0.005831782,0.004725179,0.00708146
0.9635189,0.173149,0.2863471,-0.003973281,0.004181483,0.00773374
0.9654661,0.1757515,0.2808845,-0.004362176,0.003427155,0.009208467
0.9672944,0.1780916,0.2841821,-0.003183345,0.0005553631,0.01186063
0.9683454,0.1766476,0.2869938,-0.00347437,-0.001916192,0.01059853
0.9674725,0.173792,0.2873249,-0.007594327,-0.004063148,0.006476021
0.9659583,0.1718979,0.2896042,-0.009715339,-0.004038082,0.004806827
0.9682455,0.1694035,0.2900411,-0.006632034,-0.002145338,0.004446136
0.9704453,0.1692316,0.2942038,-0.002906357,-0.0008194705,0.0023834
0.9720131,0.1711988,0.2974384,-0.004071648,0.003960739,7.57358e-05
0.9724948,0.1717061,0.2939737,-0.004882718,0.007826024,0.004160343
0.9700193,0.1721954,0.2884928,-0.002798366,0.005527004,0.01021686
0.9686198,0.1739189,0.2828137,-0.003800775,0.0003804928,0.00742363
0.9676062,0.1727788,0.282996,-0.004109331,-0.007315673,0.003586651
0.9668249,0.1684962,0.282887,-0.002316145,-0.01187904,0.001686861
0.9691369,0.1674265,0.2771889,-0.0005115966,-0.005381769,-0.0008268744
0.9711657,0.1682251,0.2784949,0.002792351,0.0004879301,0.001160125
0.9676046,0.1683544,0.2804975,0.001020338,-0.002660769,-0.001425924
0.9638918,0.1699985,0.2768837,-0.002435294,0.0008372283,-0.00701706
0.9680288,0.1711861,0.2797674,-9.919317e-05,0.01503816,-0.007004793
0.9708268,0.1713011,0.284707,0.001276476,0.02395617,-0.007725723
0.9669074,0.1719655,0.2858982,0.001187738,0.01812026,-0.002946242
0.9646041,0.1751138,0.2890134,0.0004975151,0.004949777,0.003121084
0.9634926,0.1776779,0.2913179,-0.003587765,-0.0001784885,-0.0007013077
0.9619341,0.1753911,0.2900022,-0.006422965,0.003060918,-0.001850688
0.9621917,0.1723009,0.2879626,-0.005183975,0.005154257,0.0006567683
0.9619257,0.1689521,0.2870804,-0.001664078,0.00269169,0.001435446
0.9612257,0.1666385,0.2865194,-5.706105e-05,0.000583389,0.003156016
0.9637858,0.166969,0.2864027,-0.0009454806,0.004262952,0.001808346
0.9673713,0.1666343,0.2895472,0.0003072081,0.006082379,0.000449318
0.9668575,0.1684966,0.2939672,0.001899025,0.005346379,0.0004777798
0.9652106,0.1705146,0.2934625,0.001098604,0.0063725,-0.002889011
0.9653333,0.169886,0.2881764,-5.77636e-05,0.004553776,-0.003610849
0.9653259,0.1706746,0.2875294,-0.0001227152,0.001450745,0.0008046717
0.966211,0.1715787,0.2902929,0.0004630355,-0.003478875,0.004127539
0.9670457,0.1718348,0.2880583,0.0003833018,-0.006743213,0.00508455
0.9667687,0.1720461,0.286662,0.001094606,-0.005098465,0.005050568
0.9669706,0.1735081,0.2867647,0.00201547,-0.005331075,0.004508496
0.9660536,0.175492,0.287872,0.0009284196,-0.005556518,0.002981475
0.9649533,0.1735834,0.2947567,0.0007233738,-0.01148323,0.0007683019
0.9668596,0.1718653,0.2981174,0.0009335146,-0.02282337,0.001231516
0.9684893,0.1707009,0.295282,0.0001565552,-0.02334635,0.003312619
0.967676,0.1683603,0.2910716,0.0006222804,-0.01822558,0.004568793
0.968093,0.169788,0.2869601,-0.0001340528,-0.01508413,0.006073152
0.968222,0.170799,0.2883629,-0.0009920437,-0.012789,0.006647015
0.9663412,0.1699497,0.2921729,0.001515561,-0.01618947,0.007427733
0.9648892,0.1687075,0.2913466,0.003146959,-0.02069594,0.01063299
0.9634551,0.1660388,0.2853972,0.002719155,-0.02217539,0.01346115
0.9648327,0.1689821,0.2835685,0.002308956,-0.02662361,0.01127049
0.9682063,0.1726223,0.2873197,0.001840384,-0.02916539,0.007405708
0.9690908,0.1704168,0.2816086,0.0007270843,-0.02360705,0.009277524
0.9699819,0.1703907,0.276448,-0.00108388,-0.01777997,0.009758958
0.9704229,0.1714154,0.2816443,-0.0004294677,-0.01515855,0.006002132
0.9708798,0.1705065,0.2823824,0.000814413,-0.01520491,0.005402682
0.9719087,0.1706738,0.2812555,-0.0004343855,-0.01654913,0.004963501
0.970624,0.170097,0.2799844,-0.0001734332,-0.01314111,0.005318408
0.9705014,0.1689993,0.2777282,0.0007303915,-0.008151891,0.006270795
0.9708392,0.1699614,0.2803511,0.0009179395,-0.005617807,0.004591855
0.9692143,0.1723451,0.2810199,0.002371843,-0.01087866,0.004753948
0.9689805,0.1742527,0.2823473,0.002060879,-0.02354716,0.004869089
0.969756,0.1736129,0.2856604,0.0008543742,-0.02506503,0.00466891
0.9695425,0.1712745,0.2850408,-6.494393e-05,-0.02010371,0.005401719
0.9691405,0.170485,0.2819722,-0.002691998,-0.02100588,0.005167042
0.969654,0.1708222,0.2760624,-0.002536677,-0.01941757,0.00696657
0.9696633,0.1707058,0.2774348,-0.001004504,-0.01524593,0.007260783
0.9700887,0.1700023,0.2848944,-0.00160655,-0.01140654,0.004048277
0.9708692,0.1699428,0.2848668,-0.0006115432,-0.01497956,0.001892932
0.9680753,0.1738698,0.2826411,-0.001299775,-0.0251937,0.001652085
0.9656312,0.1780079,0.280585,-0.005280105,-0.02823596,0.005557862
0.9666281,0.1757973,0.279757,-0.006780035,-0.02833959,0.01073321
0.9672586,0.1706219,0.2800818,-0.002532951,-0.02521145,0.009825949
0.9673457,0.166673,0.2739334,0.003166,-0.01925364,0.007982765
0.9682203,0.1647709,0.2688258,0.001509437,-0.02052202,0.009811998
0.9686002,0.1655679,0.2704969,-0.001025185,-0.019645,0.007662208
0.969089,0.1669205,0.2723391,0.000279641,-0.01244692,0.005179916
0.9724948,0.1687324,0.2731455,-0.0007306064,-0.002557367,0.007323902
0.9745761,0.1693302,0.2750691,0.00202149,0.01108001,0.006530275
0.9724768,0.1657664,0.274213,0.004221435,0.01882539,0.003976243
0.9715252,0.1649114,0.2716845,0.001626677,0.01275456,-0.0005321131
0.9709656,0.1673303,0.277807,0.002718907,0.003189714,-0.004869635
0.9684917,0.1675699,0.2842502,-0.0004327542,0.002164889,-0.0001766093
0.9681517,0.1697559,0.2826352,-0.003887119,0.0004818301,0.003762116
0.9706266,0.1699401,0.2830784,-0.002307956,0.0005411546,0.001519323
0.9701326,0.166036,0.2842741,-0.005125811,0.01241085,0.002492052
0.9680543,0.1662868,0.284159,-0.001404976,0.01568339,0.004564043
0.9692989,0.1671613,0.2835977,0.003812009,0.008536714,0.002042697
0.9691655,0.1667152,0.2786754,-0.001795805,0.005867543,-0.001387082
0.9697189,0.1682197,0.2763365,-0.004375781,0.006893004,-0.002878323
0.9723038,0.167826,0.2794104,-0.004257608,0.01059852,-0.006048227
0.9708981,0.1645259,0.2810493,-0.004559596,0.009744056,-0.01218975
0.9701693,0.163115,0.2821074,-0.002666401,0.008850979,-0.01632613
