accx,accy,accz,gyrox,gyroy,gyroz
0.9138322,0.1455662,0.4220016,-0.04300496,-0.01358202,0.0377228
0.9156945,0.145797,0.4192787,-0.03716835,-0.01846478,0.04466866
0.9202561,0.1456389,0.4182195,-0.0367643,-0.01853549,0.04457924
0.9193754,0.1497864,0.421935,-0.0373472,-0.01769731,0.04974725
0.9203105,0.1464161,0.4169988,-0.03614766,-0.01442405,0.04650554
0.9213914,0.1420496,0.4163826,-0.03489897,-0.003915715,0.04764358
0.9209063,0.1455639,0.4177108,-0.03460765,0.01931768,0.04404872
0.9227016,0.1444341,0.4118951,-0.04083419,0.03143234,0.02837226
0.923301,0.1439052,0.4137399,-0.05301419,0.03906875,0.03297519
0.9188995,0.1450897,0.423338,-0.0622236,0.04188911,0.04570396
0.9128678,0.1425096,0.4312803,-0.06072789,0.02021526,0.05925139
0.9107671,0.1373969,0.4326535,-0.05329316,-0.003962362,0.06631094
0.9097354,0.1298566,0.4331161,-0.04392285,-0.01912637,0.05739972
0.907801,0.1292459,0.4397279,-0.03341167,-0.02634323,0.05493096
0.9114709,0.132214,0.4373565,-0.02530623,-0.03232024,0.04925798
0.9167301,0.1324674,0.4286929,-0.01866495,-0.03884902,0.0464572
0.9170965,0.138243,0.4266596,-0.01680489,-0.03381013,0.0574943
0.9166554,0.1447684,0.4251533,-0.02265514,-0.0338757,0.05660515
0.9165145,0.1451181,0.4267687,-0.02947716,-0.03790105,0.0558616
0.9170273,0.1428779,0.4268881,-0.0294834,-0.03463831,0.06507452
0.9186603,0.1405363,0.4228401,-0.02627793,-0.03390247,0.0697621
0.919703,0.1378917,0.4223282,-0.02850754,-0.03030064,0.07193156
0.9198542,0.1321949,0.4199018,-0.03279567,-0.02847152,0.06453627
0.9190201,0.1273017,0.4203693,-0.03687152,-0.03115311,0.05031371
0.920375,0.1281821,0.4208628,-0.03778738,-0.02909865,0.04667277
0.9242411,0.1275796,0.413365,-0.0318747,-0.02110307,0.04366806
0.9269507,0.123657,0.4110084,-0.02591451,-0.006879944,0.03465343
0.9252582,0.1248042,0.4172037,-0.01847398,-0.001839891,0.03371879
0.9211061,0.1288779,0.4252145,-0.01221679,-0.004180128,0.03448819
0.9218517,0.1324036,0.4252576,-0.0102462,0.0009691929,0.03142449
0.9219926,0.138016,0.4230555,-0.00777014,0.004532328,0.03431432
0.9179202,0.1384416,0.4301286,-0.008449116,0.003812055,0.03417403
0.9150426,0.1343763,0.4318132,-0.002598048,-0.003388429,0.02571218
0.9113206,0.1349384,0.4297391,0.005001946,-0.01494349,0.01974934
0.911962,0.1356282,0.4307686,-0.001003195,-0.02079092,0.02215363
0.9157563,0.1359312,0.4277577,-0.006978682,-0.02299194,0.03206062
0.9151448,0.1353,0.4244809,-0.01240074,-0.01878787,0.03741672
0.9172059,0.1310591,0.4206647,-0.01560277,-0.01113438,0.03017889
0.9216776,0.1301549,0.4190922,-0.01221787,-0.003404967,0.01787711
0.9241395,0.1322036,0.4201411,-0.01438602,0.001116389,0.01326699
0.9220168,0.135813,0.4197287,-0.01386156,-0.004229949,0.02064881
0.9154862,0.1389075,0.4216609,-0.01141472,-0.002502287,0.02609175
0.9155036,0.1373495,0.4225846,-0.01162225,0.005477492,0.02282334
0.9210931,0.1370625,0.4254614,-0.007682928,0.008408298,0.01983525
0.9245873,0.1379169,0.4294475,-0.01051731,0.01113356,0.02023499
0.9225978,0.137309,0.4258017,-0.01644883,0.009997111,0.02199233
0.9175579,0.1375222,0.4209923,-0.01976556,0.01642537,0.02359036
0.9177961,0.1378846,0.419884,-0.02528131,0.02307967,0.02317289
0.916568,0.1392766,0.4252462,-0.02545209,0.01063981,0.01934379
0.9135747,0.1406374,0.4330612,-0.02443053,0.001807142,0.01424211
0.9145551,0.1394123,0.4320831,-0.02180352,0.004931297,0.01196826
0.9132708,0.1375317,0.430453,-0.01233234,0.007024713,0.01713658
0.9138559,0.1381379,0.4322016,-0.01032052,0.003345479,0.02710446
0.9145856,0.1394301,0.4300119,-0.01456207,-0.009209308,0.03072846
0.9129635,0.1388169,0.4292274,-0.0139551,-0.02529803,0.02950717
0.9149012,0.1383811,0.4279613,-0.01195779,-0.03113086,0.02788161
0.9155666,0.1372675,0.4232657,-0.009121803,-0.02547843,0.02544273
0.9169832,0.1354625,0.4249674,-0.006065363,-0.02665079,0.02581795
0.9189778,0.1359426,0.4273454,-0.003849932,-0.02626823,0.02426786
0.9199833,0.1365153,0.4237452,0.0003826489,-0.01764086,0.01968526
0.9227707,0.1360774,0.4216185,0.0008008945,-0.02075513,0.01918957
0.9178368,0.1376586,0.4215486,-0.004051597,-0.02483932,0.02327952
0.9117343,0.1424321,0.4221196,-0.006307066,-0.02235939,0.02694162
0.9132007,0.1485635,0.422882,-0.006467527,-0.02102957,0.02417645
0.9127274,0.1516081,0.4252256,-0.00721307,-0.02123887,0.02093988
0.9126405,0.1482999,0.4273996,-0.006685297,-0.02734412,0.02188583
0.9164759,0.1412164,0.4230279,-0.003995988,-0.0314824,0.0193127
0.9188721,0.1360873,0.4182295,-0.001770288,-0.03020085,0.01648441
0.9174938,0.1381277,0.4122146,-0.003367548,-0.02527662,0.01899541
0.9158618,0.1420835,0.4057788,-0.006741929,-0.02040996,0.02276518
0.9178138,0.1382229,0.414967,-0.008198875,-0.02111951,0.02551878
0.918672,0.1358148,0.4256468,-0.005721884,-0.0173693,0.02559676
0.9176536,0.1393655,0.4204928,-0.001369012,-0.0111552,0.02494903
0.9187171,0.1407763,0.4177773,-0.0004099427,-0.009558809,0.0262991
0.9207975,0.1437612,0.4210472,-0.0007341348,-0.008147744,0.02582531
0.9228944,0.1441907,0.4188932,-0.0002130933,-0.004600702,0.02435615
0.9225133,0.1417394,0.4181585,-0.001754811,0.0007962194,0.02246079
0.920604,0.144721,0.4169509,-0.004203964,0.005485425,0.02014726
0.9209009,0.1449043,0.4122934,-0.005693604,0.008445094,0.02653805
0.9208787,0.1437589,0.4160067,-0.005728653,0.006702185,0.03372659
0.9206278,0.1445638,0.4211345,-0.007131646,0.000795646,0.02741609
0.9211076,0.1409855,0.4207215,-0.01056511,-0.003913006,0.02235342
0.9202828,0.1377531,0.42088,-0.009321325,-0.0003869659,0.02633847
0.9185324,0.1368702,0.4187823,-0.006400536,0.008082907,0.02590269
0.9149721,0.1376759,0.4168362,-0.006288669,0.006358378,0.02257316
0.9126403,0.1389064,0.4161575,-0.004341508,0.00342162,0.02372015
0.9145232,0.1393017,0.416008,-0.002019329,0.004008824,0.0291192
0.9160231,0.1428552,0.421168,0.001232256,0.0005749757,0.03479566
0.9173031,0.1445365,0.425804,0.007039794,0.005266367,0.0303949
0.9198099,0.139956,0.4263842,0.01054369,0.01742525,0.02261599
0.9203298,0.1348841,0.4249632,0.01282028,0.02582079,0.0247229
0.9167652,0.1358344,0.4230165,0.01275222,0.02310957,0.02777435
0.9124904,0.140059,0.4252485,0.00880338,0.01594827,0.03066689
0.9151194,0.1409768,0.4272283,0.005875136,0.01739235,0.03460854
0.918603,0.1434292,0.4239526,0.00240163,0.01485588,0.03148259
0.9159836,0.147167,0.4209541,0.0009824123,0.01293677,0.03029621
0.9158664,0.1472677,0.4205259,0.003140818,0.01676707,0.03252345
0.9159362,0.1452103,0.4214827,-0.0001514036,0.009129883,0.03225891
0.9135388,0.1415354,0.4246228,-0.003662673,0.005610051,0.03424718
0.9155631,0.1402291,0.4268315,-0.001404805,0.01428292,0.03445572
0.9161994,0.1403746,0.4240704,0.002124302,0.01889702,0.03420876
0.9153061,0.1399349,0.4211022,0.006260966,0.01673376,0.03709531
0.9173902,0.140667,0.4244713,0.004311978,0.01079721,0.03593645
0.9169939,0.1402491,0.4290801,-0.00333815,0.006838897,0.03242406
0.9168329,0.1411004,0.4300103,-0.008497307,0.002436603,0.03080993
0.9179207,0.1422309,0.431914,-0.01186705,0.001231343,0.02981834
0.9162991,0.1410548,0.4338932,-0.01219321,0.006470835,0.03021317
0.9164546,0.1399461,0.431551,-0.01127668,0.006326683,0.034913
0.9180937,0.1383576,0.4259808,-0.01056995,0.005760848,0.0403151
0.918043,0.138253,0.4219271,-0.008998463,0.007527088,0.03852131
0.9175985,0.1372785,0.4233525,-0.009762701,0.01258138,0.03636873
0.915378,0.1334222,0.4243953,-0.009031105,0.02301953,0.03919964
0.9129552,0.1319211,0.4219065,-0.006152123,0.02277203,0.0390988
0.9137196,0.1301096,0.4210791,-0.003172708,0.01569841,0.03717125
0.9144196,0.1266921,0.4220668,0.0009552856,0.01127233,0.03285884
0.9132166,0.1275705,0.4267855,0.00393071,0.005754663,0.02525379
0.9120686,0.1304943,0.4327775,0.007274235,0.001064547,0.02502438
0.9115128,0.130688,0.4303054,0.008961604,-0.002144256,0.0247233
0.914603,0.1305404,0.4254051,0.008790634,0.001450673,0.01636903
0.9200471,0.1310346,0.4276614,0.01039964,0.006005592,0.01531429
0.9192076,0.1321018,0.4314741,0.009992137,0.002356436,0.01724944
0.9132337,0.1340838,0.4308626,0.009123583,0.0003302203,0.01254093
0.9103788,0.1335154,0.4267287,0.009342003,0.0008496969,0.01394746
0.9137804,0.1327565,0.4240786,0.008910406,0.00308423,0.01625545
0.9191566,0.1339766,0.4259105,0.009157213,0.006657304,0.01268029
0.9172641,0.1342636,0.4304488,0.009051709,0.0002908073,0.01373058
0.9119383,0.135743,0.4344438,0.008907507,-0.008152715,0.01572214
0.9125464,0.1367693,0.4336055,0.006595587,-0.007873107,0.01640961
0.9155501,0.1357555,0.4317847,0.002078084,-0.00794792,0.01451676
0.9173863,0.1361385,0.4301223,0.0004499138,-0.007456208,0.01041564
0.916631,0.1360859,0.4246366,0.0006561847,-0.003811925,0.01409206
0.9142099,0.135208,0.4247134,0.0007001789,-0.005546241,0.01362151
0.9137592,0.1356573,0.4305635,-0.001004092,-0.007518915,0.01030137
0.9136956,0.1371142,0.4326457,-0.004532057,-0.005220168,0.01398884
0.9141594,0.1380752,0.4313352,-0.005388288,-0.00412242,0.01118711
0.9151411,0.1368137,0.4287092,-0.003020924,0.000147113,0.009811784
0.9161089,0.1346102,0.4289105,-0.001056933,0.004866389,0.01136587
0.9173206,0.1330047,0.4293769,-0.001670806,0.002782958,0.01069092
0.9163191,0.1337009,0.4268224,-0.0008998198,0.001189099,0.01506009
0.9156971,0.1352861,0.4270377,0.004079567,0.001635962,0.0120708
0.916489,0.132855,0.4306873,0.007364063,0.0001166253,0.007455655
0.9173987,0.131074,0.4344376,0.006641318,-0.002537964,0.006325329
0.9185821,0.1332091,0.4321123,0.005848604,-0.004356792,0.0004746889
0.9170516,0.1329973,0.4269566,0.007042807,0.001895883,0.003613905
0.9158504,0.1296062,0.4257887,0.008894169,0.00980361,0.007394837
0.9161566,0.1267048,0.4220449,0.009675468,0.00577729,0.001136764
0.9148863,0.1282148,0.4207597,0.009674359,0.001814861,-0.001170357
0.9151163,0.1331582,0.4234469,0.006611023,0.004105347,0.0008630031
0.9167009,0.1355822,0.4195537,-0.006960602,0.003087338,0.0009687453
0.9203667,0.1353144,0.4139569,-0.03732259,0.009762384,-0.004293031
0.9248111,0.1356112,0.4122044,-0.06445779,0.03687218,-0.01668966
0.9196537,0.1396028,0.4232321,-0.05704479,0.07248016,-0.02686323
0.9074392,0.1443444,0.4433658,-0.03477525,0.08046029,-0.02104895
0.9015743,0.1446794,0.4464859,-0.0237132,0.04505108,-0.004297489
0.905211,0.1421509,0.4398008,-0.01207089,0.009431381,0.008807732
0.9126326,0.1355173,0.4381137,-0.008484601,0.0001276236,0.01475533
0.9168214,0.1297436,0.4336358,-0.007387158,0.0002543696,0.01219287
0.9152657,0.1324844,0.433002,0.006521653,0.003186001,0.01451023
0.9117126,0.1350414,0.4344786,0.008129157,0.005004512,0.02347393
0.9105193,0.1339592,0.4297505,0.004898883,0.004705225,0.01909289
0.9112011,0.1364692,0.4297272,0.00782313,0.005011237,0.01504398
0.9113642,0.1391599,0.431747,0.006944132,0.003368679,0.01737536
0.9124923,0.1385013,0.430138,0.01169317,0.003060902,0.01429046
0.9154777,0.1380065,0.4326345,0.0102526,0.007967835,0.01564767
0.9175375,0.134003,0.4351656,0.007226824,0.02065469,0.01497241
0.9166908,0.1288758,0.43446,0.01090684,0.03289914,0.009541975
0.9149915,0.1311442,0.4339596,0.007885953,0.03333118,0.007793725
0.9144826,0.1343687,0.4329131,0.008997853,0.02456656,0.005931412
0.9137524,0.1366521,0.4334413,0.007109375,0.01225033,0.006950773
0.9145241,0.1397535,0.4350965,0.002433261,0.007264558,0.006023676
0.9164012,0.1376499,0.4369823,0.005964328,0.01500297,0.003025289
0.9168199,0.1332207,0.4383907,0.003019624,0.02250864,0.0002529183
0.9177124,0.1301777,0.4363928,0.0005126731,0.01960977,-0.007398539
0.9145065,0.1331585,0.4356505,0.001737305,0.01212971,-0.006507918
0.9080029,0.1396091,0.435114,2.472815e-05,0.008216095,0.0009640354
0.9074553,0.1376264,0.4322899,-0.000341283,0.009687863,0.004344689
0.908932,0.1360757,0.4342573,-0.000275685,0.01142167,0.007373077
0.9080091,0.1387491,0.4372918,0.002409905,0.001180685,0.006574298
0.907348,0.1396859,0.4383834,0.005172461,-0.01145916,0.003550033
0.9067919,0.1441965,0.441275,0.006344534,-0.01046528,-2.020227e-05
0.9071407,0.1443922,0.4407218,0.005881135,-0.008287469,-0.0006306576
0.9099976,0.1405101,0.4385992,0.003785632,-0.007270072,0.003847185
0.9155605,0.1395301,0.4379129,0.005871354,0.001136278,0.002633484
0.9193104,0.1321601,0.4358642,0.007372234,0.007613149,-0.001463791
0.9148139,0.1278581,0.4374872,0.007891829,0.003214445,-0.004473857
0.9074901,0.1326831,0.4386571,0.00942968,-0.004563348,-0.00425917
0.9068513,0.1351442,0.4358418,0.01000512,-0.005534441,1.435417e-05
0.9115691,0.1384956,0.4355592,0.01275633,-0.003914562,-0.001659065
0.9150668,0.1405295,0.4343389,0.01215171,-0.001104057,-0.002161329
0.9125913,0.1388538,0.4337684,0.01143975,0.003099722,-0.0005381366
0.9093819,0.138371,0.4339644,0.01482883,0.00441164,-0.003730111
0.9115831,0.1358055,0.4304864,0.01388871,0.004393601,-0.006490202
0.9116865,0.1378247,0.4310744,0.01291458,-0.003931428,-0.01099843
0.9102066,0.1432539,0.4323147,0.01277983,-0.01394322,-0.009228783
0.9117491,0.1433446,0.4320149,0.01039643,-0.009596003,-0.001145274
0.9102752,0.1460123,0.4337444,0.006989457,-0.005999835,0.001811877
0.9072157,0.146069,0.4295842,0.001048727,-0.01176714,0.005694636
0.9049825,0.1411707,0.4264603,0.001365959,-0.01550669,0.006661038
0.9053938,0.1428666,0.4306806,0.003751188,-0.01881319,0.005104822
0.9101674,0.1425554,0.4363075,0.0009053718,-0.02093176,0.008262742
0.9118622,0.138156,0.444355,0.004401813,-0.0180602,0.009336013
0.9112879,0.1384713,0.4482052,0.007272434,-0.01682011,0.009126288
0.9119554,0.1391022,0.4406932,0.005353788,-0.01572994,0.008532074
0.9125339,0.137591,0.4317725,0.007370901,-0.01550405,0.007584366
0.9129953,0.1353062,0.4323762,0.006469924,-0.02004402,0.007955447
0.9120469,0.1345016,0.434376,0.00615903,-0.01820206,0.00820762
0.913068,0.1371314,0.4307186,0.00746109,-0.008593272,0.0116938
0.915566,0.1408283,0.4300402,0.003014723,-0.001180147,0.0134692
0.9162233,0.1424736,0.4321212,0.001690375,-0.004515104,0.01235199
0.9138255,0.1404571,0.4365349,0.001136694,-0.01375332,0.01401459
0.9093005,0.1385617,0.4417737,-0.001995702,-0.01322136,0.01413528
0.9107678,0.1376741,0.4372224,0.0001519179,-0.01080114,0.01193806
0.9128268,0.1355034,0.4322129,0.001595829,-0.004647551,0.009980272
0.9121062,0.1348857,0.4348398,0.0001642692,0.007554615,0.00892706
0.9164046,0.134765,0.4337331,0.0008412126,0.004033243,0.004553692
0.9169058,0.1310288,0.4306713,0.001586951,0.0005654415,-0.002446372
0.9139016,0.1267545,0.432992,0.001335692,0.005308157,0.0002734648
0.9147186,0.1276623,0.434234,-0.000947261,-0.0002145005,0.006656541
0.9141518,0.1304171,0.4327494,-0.002677451,-0.001936978,0.006194866
0.915246,0.1311166,0.4339846,0.002619649,0.003574016,0.002066576
0.9169765,0.1339808,0.4362281,0.008506312,0.004934499,-0.003545145
0.9130426,0.1381686,0.4379806,0.005933825,0.002495742,-0.002265219
0.9096296,0.1397924,0.4381069,0.003918264,-0.002149411,0.002389966
0.9110047,0.1385983,0.43567,0.006380509,-0.003688111,0.001072389
0.9124154,0.1363337,0.4324142,0.00499001,-0.00551236,0.002248024
0.913075,0.1351409,0.4281665,0.003926461,-0.003985674,0.003734993
0.915198,0.134379,0.4299424,0.004687727,0.007770532,0.001924745
0.9143304,0.135763,0.4351019,0.002979932,0.01514754,0.0006915135
0.9126997,0.1377408,0.4342742,0.002747649,0.01358111,-0.0003108803
0.9148456,0.13737,0.438897,0.000483289,0.0124011,0.006940184
0.9148266,0.1376459,0.4447325,-0.004138025,0.01517185,0.01448272
0.9149193,0.1373223,0.4367879,-0.004416961,0.01891898,0.0107628
0.9155816,0.1363978,0.4309015,-0.00663168,0.01852811,0.008055355
0.9119528,0.135983,0.4371662,-0.01193725,0.01498089,0.008203819
0.9111045,0.1346571,0.4406321,-0.01084105,0.009750144,0.006826938
0.9147568,0.1335109,0.4356357,-0.006513764,0.00867899,0.00638716
0.9170787,0.1311622,0.4333879,-0.006427697,0.01169859,0.005106373
0.9135061,0.1298352,0.4366104,-0.005748759,0.01057389,0.00376495
0.9080058,0.1310001,0.4380786,-0.0005550221,0.009927255,0.003688277
0.9096258,0.1312663,0.4389917,0.004704399,0.008773082,0.003050869
0.9104794,0.1312615,0.4411564,0.006450406,0.007261305,0.002050563
0.9082518,0.1304594,0.4435161,0.005474969,0.01135911,0.001775465
0.9101586,0.1305079,0.4436447,0.006859484,0.009625503,0.0004783866
0.9106795,0.1333042,0.4401645,0.009684309,-0.0009552319,-0.001149386
0.9095021,0.1363807,0.4389754,0.009778669,-0.01093746,-0.001500589
0.9102779,0.1379132,0.4380818,0.008766182,-0.01194177,-0.002713714
0.9133118,0.1344094,0.433953,0.006082569,0.0003391049,-0.00437866
0.9165992,0.1292013,0.4310965,0.004479077,0.009183564,-0.006150805
0.9152385,0.1297854,0.4318979,0.004104576,0.003174006,-0.005598077
0.9136787,0.1363255,0.4367513,0.002369577,-0.005247291,0.000137981
0.9141479,0.1444631,0.4402863,0.004606495,-0.007885135,0.004724842
0.9136479,0.1456655,0.4393552,0.005812735,-0.005760167,0.004775364
0.9141292,0.1392658,0.4342433,0.002829279,-0.002220063,0.003712723
0.9148979,0.1323219,0.4281429,0.001730815,-0.001114676,0.0009133768
0.9148288,0.1279696,0.4317158,-0.0009779053,0.0004860706,-0.003128112
0.9128536,0.1322381,0.440367,-0.004348517,0.00076375,-0.00356717
0.9100271,0.1392778,0.4452006,-0.003194233,-0.005709385,-0.003222663
0.9112214,0.1370447,0.4452319,-0.0003075617,-0.008396533,-0.005931463
0.9136375,0.1337492,0.4390364,0.0009974597,-0.002243086,-0.005598698
0.9135794,0.1325764,0.4354763,0.001865691,0.001116149,-0.002140336
0.9121605,0.1313198,0.4362821,0.002850133,-0.003759482,-0.002129102
0.9093858,0.135184,0.4373635,0.004901585,-0.01102303,-0.004942378
0.90836,0.1371934,0.4385921,0.008779401,-0.01282143,-0.005323389
0.9093798,0.135509,0.4367152,0.007456089,-0.01356481,-0.0001427047
0.9091324,0.1353233,0.4373742,0.004063253,-0.01588448,0.004545457
0.9100057,0.134394,0.4385225,0.00470373,-0.01455531,0.001098212
0.9117622,0.1344643,0.4375926,0.003290053,-0.01426041,-0.002410438
0.9127039,0.1335763,0.4413527,0.002885358,-0.0142537,0.00166123
0.9152442,0.1300767,0.4442649,0.002519857,-0.01129208,0.002446803
0.9172263,0.1291772,0.4450346,-0.002433447,-0.005103213,-0.00406438
0.9149649,0.133066,0.4406299,-0.004835226,0.003395458,-0.007817585
0.911816,0.1389836,0.433472,-0.00264067,0.001993277,-0.006107723
0.9123293,0.1392029,0.4387659,0.003357409,-0.003473946,-0.003652333
0.9127994,0.1346193,0.4436038,0.007892894,-0.001836421,-0.004367901
0.911173,0.1327934,0.4396285,0.005879937,-0.002444086,-0.00469373
0.9110397,0.134797,0.4384206,0.005015297,-0.003512853,-0.003838832
0.9117835,0.1365806,0.4354072,0.00837371,-0.000915505,-0.007424334
0.9146436,0.13251,0.4318022,0.009720381,0.004776472,-0.01051153
0.9172345,0.1293138,0.4333649,0.005001479,0.012475,-0.009590869
0.9132714,0.1337004,0.4342846,-0.00196664,0.008227057,-0.008353313
0.9091794,0.1371201,0.4346807,-0.003446429,-0.001575389,-0.006707664
0.9103726,0.1368834,0.4363354,0.002716838,-0.006309729,-0.003769112
0.9113694,0.1367728,0.434416,0.007592824,-0.01360012,-0.0006043444
0.9116968,0.1369851,0.4299708,0.001980474,-0.009014115,0.001009443
0.9140312,0.1375236,0.4277871,-0.003161387,0.001535777,0.00285014
0.914373,0.1373818,0.4249129,-0.0001650031,-0.003326631,0.004075485
0.9133333,0.1355972,0.4241563,-0.0001780977,-0.0001396984,0.003586054
0.9142448,0.134083,0.4330966,-0.00204106,0.007761949,0.004182624
0.9134861,0.1346836,0.4424202,-0.0004805605,-0.002423309,0.005366236
0.910804,0.1350388,0.4417925,3.707834e-06,-0.01106132,0.00780892
0.9055651,0.1344731,0.4404295,0.000620136,-0.01655679,0.01118513
0.9015016,0.1347908,0.4424361,0.001493664,-0.03440333,0.01729197
0.9075237,0.1347906,0.4348103,0.001844556,-0.0554131,0.02784931
0.9139769,0.1340731,0.424743,0.004336546,-0.06315518,0.04029821
0.9126666,0.1321316,0.4272055,0.007721443,-0.05750782,0.0501049
0.9119221,0.1297001,0.4278938,0.01704139,-0.05533211,0.04501767
0.9128872,0.1302263,0.4245072,0.02908367,-0.05293243,0.03566921
0.9126183,0.1310341,0.4272292,0.02938556,-0.04514458,0.03769283
0.9143099,0.1286064,0.4267619,0.02876161,-0.04732392,0.0364887
0.9197124,0.1252195,0.425396,0.03302869,-0.0495859,0.03229031
0.9240432,0.122755,0.4272892,0.02810346,-0.04199255,0.02999465
0.9235246,0.1232577,0.4260096,0.02152806,-0.03583322,0.02515476
0.9228478,0.1253498,0.4262027,0.01513015,-0.02770998,0.02231381
0.9242508,0.1249191,0.4258412,0.005501793,-0.01735773,0.01523677
0.9236095,0.1251974,0.4204851,0.005522792,-0.013912,0.006706545
0.9231192,0.1271516,0.4167418,0.003980068,-0.01292306,0.005650717
0.9239867,0.1279438,0.4174006,-0.003155378,-0.00688851,0.006622186
0.9222743,0.1280051,0.4194256,0.001613061,0.002030056,0.008654
0.9209329,0.1263673,0.4200995,0.00421965,0.005079167,0.01040137
0.9210149,0.1249685,0.4235278,-0.003565104,0.001511305,0.01090326
0.9214169,0.123783,0.4263224,-0.00705051,0.001061255,0.009889357
0.9226629,0.1211942,0.4205907,-0.007100703,0.00441613,0.006651667
0.921305,0.1205293,0.4142648,-0.007443338,0.00513401,0.005254484
0.9202042,0.1207545,0.4133311,-0.007933732,0.002315405,0.008394397
0.9209732,0.120913,0.4215844,-0.005997844,-0.002030911,0.01430076
0.9196887,0.1209756,0.4320586,-0.001497406,-0.003949092,0.01248227
0.9182373,0.1205312,0.4286535,-0.001704445,-0.003643267,0.006102187
0.9177594,0.1216343,0.4270088,-0.002052423,-0.007392076,0.004724635
0.9178756,0.1234415,0.4328889,-0.0002554276,-0.01625008,0.004822095
0.9170211,0.12513,0.4291225,-0.0007210895,-0.02754292,0.007988381
0.9143666,0.1229302,0.4251439,0.0009777254,-0.03748629,0.008509165
0.9142604,0.1196423,0.4233971,0.002883378,-0.04126799,0.006242449
0.9185439,0.1236569,0.4177189,0.003497528,-0.04168681,0.008576249
0.9232779,0.1256951,0.417219,0.004026821,-0.04284684,0.009939379
0.9227696,0.1200296,0.41702,0.001841498,-0.04320512,0.01233067
0.9202961,0.1168372,0.4148581,0.001651263,-0.04406743,0.0127375
0.9214102,0.1201997,0.4170077,0.002694109,-0.04499815,0.01111566
0.9230332,0.1249008,0.4185828,0.001768142,-0.04321549,0.01457053
0.9256342,0.1253486,0.419607,0.001525852,-0.04273542,0.01559882
0.9275394,0.1231751,0.4185932,0.0005434791,-0.04309247,0.01729232
0.925916,0.1193228,0.413923,9.633809e-05,-0.04223275,0.01709422
0.9267513,0.114061,0.4110996,-0.001088344,-0.04373524,0.005866865
0.9302446,0.1131434,0.4076955,-0.006754895,-0.04382477,-0.003554906
0.9345235,0.1151673,0.4050485,-0.01105872,-0.03948141,-0.009521868
0.9363055,0.1156199,0.4054154,-0.00511361,-0.0326812,-0.01559083
0.9279035,0.1157521,0.4049621,0.01164077,-0.02826182,-0.007496812
0.9176395,0.1181623,0.4056062,0.02283744,-0.02955658,0.008744281
0.9178484,0.1222218,0.4064618,0.01719224,-0.02871637,0.01041184
0.9256199,0.1230252,0.4055835,0.009501724,-0.02645605,0.005206886
0.9324886,0.1217426,0.4055199,0.008600363,-0.02237029,0.003434028
0.932846,0.1222604,0.4074781,0.005971227,-0.01467051,-0.0007395489
0.9297368,0.1225858,0.4082143,0.004690004,-0.01791481,0.002885877
0.9276688,0.1229268,0.4037287,0.005645463,-0.02599529,0.007837524
0.9258236,0.1239689,0.4005213,0.001080395,-0.03087737,0.000146032
0.9258969,0.1233812,0.4047097,0.001202243,-0.03827977,-0.003099184
0.9272467,0.1210103,0.4079764,0.004917179,-0.0376195,0.002160256
0.9270226,0.1177733,0.4024948,0.00203513,-0.0281097,0.005521353
0.9280016,0.1149409,0.3981241,0.001557778,-0.01670744,0.005385959
0.9294053,0.1130501,0.4043224,-0.0004632746,-0.01553797,0.003582717
0.929946,0.1109446,0.4120426,-0.004857104,-0.03718392,0.002578527
0.9321983,0.1120021,0.4150113,-0.001692418,-0.05535441,0.00181479
0.9332249,0.1153596,0.412538,0.003665041,-0.04871366,0.008975748
0.9333644,0.1142776,0.4057313,0.01001772,-0.0337502,0.01840559
0.9348215,0.1152905,0.4011716,0.01359792,-0.0268679,0.01372975
0.935373,0.1208113,0.395093,0.01109595,-0.02866874,0.008022032
0.935634,0.1209459,0.388497,0.009430678,-0.03309256,0.01113962
0.9345998,0.1178438,0.3918923,0.005027299,-0.0381764,0.01294002
0.934494,0.115453,0.397489,-0.00161315,-0.0399392,0.01044116
0.9371612,0.1133167,0.3975472,-0.003316138,-0.03281214,0.004662199
0.9377625,0.1116128,0.4018321,-0.004459688,-0.02463721,0.001599828
0.9373773,0.1106262,0.4063017,-0.006719289,-0.02822563,0.006731066
0.9366091,0.1141399,0.4006253,-0.004135593,-0.03215262,0.01222621
0.9357984,0.1163644,0.3975538,-0.001586256,-0.02538393,0.01032157
0.9372177,0.1137369,0.4002953,-0.004763395,-0.02581616,0.006110287
0.9381168,0.1125316,0.3998351,-0.005086621,-0.03428334,0.007610592
0.9391119,0.1113901,0.3994576,0.0002424922,-0.04025056,0.01244985
0.940067,0.1107544,0.3947159,0.004090554,-0.03750297,0.01449586
0.9403578,0.1111218,0.3833196,0.001776765,-0.01397694,0.008758681
0.9437849,0.1099193,0.3743589,-0.005005337,0.01360942,-0.001054593
0.9461985,0.1086669,0.3739649,-0.007750369,0.02728525,-0.00208361
0.940735,0.107882,0.3799445,-0.002972797,0.03928995,-0.001573784
0.9353001,0.1082355,0.3820164,0.004489425,0.05624676,-0.007906125
0.9397683,0.1076718,0.3832665,0.00703628,0.06200973,-0.01392278
0.9448273,0.1065184,0.3874968,0.005131703,0.05576194,-0.02198028
0.9432624,0.1083351,0.3882719,0.004497208,0.05865859,-0.02506735
0.9393139,0.1108842,0.3882631,0.002029141,0.05872399,-0.0204225
0.9344585,0.1135315,0.3903954,-0.0009197538,0.05246762,-0.01978873
0.9348041,0.1154848,0.3962709,-0.003666781,0.05431678,-0.01811479
0.9360337,0.1153678,0.4019302,-0.007125872,0.04968876,-0.01729801
0.9314618,0.1150652,0.399551,-0.00481098,0.04582386,-0.01850261
0.9311692,0.1143544,0.3963339,-0.002769262,0.04705582,-0.01583084
0.9313128,0.1136405,0.3984685,-0.002268679,0.03801156,-0.01930369
0.9291869,0.1148761,0.4005656,0.001375944,0.02687072,-0.02492285
0.9315913,0.1193901,0.4015982,0.001200536,0.01902363,-0.02451584
0.9317068,0.1231192,0.4035206,-0.0003876789,0.01825013,-0.0169248
0.9323475,0.119199,0.4030023,-0.0009102931,0.02723127,-0.00543722
0.9346155,0.1144474,0.4020963,-0.001194347,0.03633425,-0.008953497
0.9326575,0.1166114,0.4033523,0.001736099,0.03530954,-0.0162303
0.9332785,0.116829,0.4025979,0.003929669,0.028454,-0.01478369
0.9338662,0.1139881,0.4029227,0.003220771,0.02658341,-0.02106146
0.932327,0.1158698,0.4049871,0.00119669,0.02269041,-0.02272974
0.9320168,0.1176024,0.4056924,0.0006226642,0.02514335,-0.01613243
0.9298656,0.1178588,0.404929,0.001321291,0.03298196,-0.01568601
0.9301749,0.1182369,0.3996067,0.001278948,0.02583346,-0.01318599
0.9313225,0.1148717,0.394702,0.002207799,0.02156537,-0.009485163
0.9299848,0.1135487,0.3958124,0.001831648,0.023154,-0.007302231
0.9307143,0.116745,0.3997201,0.0005013032,0.01972593,-0.006556527
0.9307381,0.1189086,0.4034139,-0.002111377,0.0179469,-0.009468961
0.9302263,0.1182595,0.4040188,-0.005512685,0.01397757,-0.01092437
0.930848,0.1163998,0.3998455,-0.001844969,0.01967667,-0.01451146
0.9304052,0.1169455,0.3960863,0.002192458,0.02881271,-0.0143584
0.9305485,0.1176758,0.4005046,0.0007925977,0.02224406,-0.01006803
0.930672,0.1175978,0.4050838,0.004091231,0.02025646,-0.01404252
0.9304038,0.1166532,0.4020926,0.008984033,0.02619536,-0.01646891
0.9306774,0.1133369,0.4014042,0.006121771,0.02727258,-0.01588862
0.9305005,0.1142086,0.4026927,0.002654499,0.02767533,-0.01768935
0.930719,0.1180997,0.4015446,0.001840284,0.02838175,-0.01568597
0.9315119,0.1198355,0.4014788,-0.002442553,0.02944167,-0.01360721
0.9319617,0.1192362,0.4010386,-0.003254633,0.02927184,-0.01275729
0.9312187,0.1171466,0.4002755,0.0001341536,0.02686469,-0.009739656
0.9300489,0.1192132,0.3991022,-0.001071311,0.02441715,-0.008982452
0.9305402,0.1214603,0.3980917,-0.0007603117,0.02218777,-0.01183305
0.9303068,0.1211,0.400683,0.001230359,0.02236391,-0.01329259
0.9276114,0.1216509,0.4054033,-0.0002951475,0.02132893,-0.01434551
0.9258466,0.1187613,0.4107644,-0.001786324,0.01665665,-0.01376157
0.9272045,0.1171414,0.412212,-0.00256446,0.01509568,-0.009376133
0.9294254,0.1194876,0.408189,-0.002141267,0.01674424,-0.008883848
0.9293683,0.1198262,0.4060899,-0.002755836,0.01842491,-0.01001285
0.9287035,0.1203066,0.4055222,-0.004796653,0.02038162,-0.01190289
0.9284979,0.1210725,0.404014,-0.005830474,0.01964608,-0.01505467
0.9274128,0.1207171,0.404468,-0.007251582,0.01522306,-0.01141504
0.9276182,0.1198834,0.4073237,-0.005987871,0.01159635,-0.009713141
0.928138,0.1190849,0.4096473,-0.003292489,0.0118983,-0.01342279
0.927682,0.1195114,0.4098628,-0.001503935,0.01519986,-0.01451939
0.928924,0.1195194,0.4103582,-0.001080913,0.01836412,-0.01224194
0.93043,0.1193469,0.4076676,-0.003154841,0.0188396,-0.01028447
0.9305828,0.1197066,0.4049167,-0.001797952,0.01997493,-0.01645372
0.9293601,0.1200886,0.4085224,-0.001554021,0.02332334,-0.0216156
0.9269223,0.1202692,0.4089428,-0.004241308,0.0215568,-0.01617717
0.9258719,0.119249,0.4085576,-0.002681641,0.01492058,-0.01057826
0.9263795,0.1184058,0.4080017,-0.00227293,0.01013502,-0.009877364
0.9265962,0.1162312,0.4009305,-0.001776883,0.009351638,-0.009883858
0.9268196,0.1131998,0.4008985,0.0005944038,0.01142951,-0.006062322
0.9289996,0.1169428,0.4051587,0.0001487286,0.012538,-0.002992513
0.931351,0.1238197,0.4057392,8.694858e-05,0.01650623,-0.008118534
0.9293281,0.1234514,0.4072195,-0.0003607995,0.02227719,-0.01441112
0.9256029,0.1198025,0.4065332,-0.002060101,0.02016693,-0.01491386
0.9250061,0.119579,0.4070741,-0.002863286,0.01437738,-0.01514458
0.9275584,0.1180249,0.4075308,-0.00279556,0.009926943,-0.01512319
0.930088,0.114839,0.4070862,-0.0005371879,0.009614954,-0.01043154
0.928514,0.119038,0.4092919,0.002097926,0.01454499,-0.009435983
0.9267299,0.1248529,0.4081502,0.002484038,0.01640545,-0.01128224
0.9280273,0.1220916,0.4084649,7.100355e-05,0.01483493,-0.00696026
0.9270727,0.120969,0.4116507,-0.003720197,0.01083812,-0.005393322
0.9261917,0.1232891,0.4118647,-0.00478495,0.004512716,-0.008120176
0.9293565,0.1208207,0.4084748,-0.002154456,-9.187876e-05,-0.006747711
0.9314303,0.1204772,0.4026859,0.0009732834,-0.003574301,-0.006020324
0.9304999,0.122289,0.4035894,0.00149559,-0.000675487,-0.008157396
0.9288753,0.1217017,0.4066607,-3.684428e-05,0.007744073,-0.0109443
0.9272931,0.1207721,0.4060979,-0.0007462401,0.01258144,-0.014285
0.9264313,0.1188791,0.4098258,-0.0006358445,0.01565459,-0.01132889
0.9287475,0.1200167,0.4129289,-0.001612498,0.01436943,-0.006334965
0.931922,0.1218689,0.4123685,-0.003264822,0.008139679,-0.01034598
0.9302502,0.1203453,0.4106046,-0.003878714,0.005894436,-0.0149045
0.9280052,0.1207881,0.4075146,-0.004523294,0.005628299,-0.01524096
0.9279266,0.1211563,0.4068112,-0.005911968,0.005242838,-0.01214195
0.9273106,0.1204784,0.4068527,-0.006285239,0.007379807,-0.005840999
0.9280228,0.1208932,0.4085563,-0.006307506,0.01189237,-0.007402466
0.9279526,0.1200434,0.4125961,-0.006566232,0.01515323,-0.008659769
0.9269858,0.1200033,0.4141778,-0.006269012,0.00911618,-0.003559065
0.9260451,0.1211347,0.4124715,-0.004187966,0.0008164824,-0.005288127
0.9224898,0.1210063,0.4091891,0.0005105769,-0.003240067,-0.005232399
0.922254,0.1206218,0.4100096,0.003998457,-0.009898693,0.0001000466
0.9271768,0.1208607,0.4108041,0.004691497,-0.0144776,0.001011121
0.9311418,0.1209642,0.4054509,0.00371511,-0.01409644,0.000257594
0.9331928,0.1206792,0.4011146,0.00219055,-0.003393247,-0.002322067
0.9343535,0.1200064,0.3985753,0.00401375,0.01485616,-0.006137467
0.9323557,0.1164212,0.3969469,0.005929697,0.0128757,-0.008371342
0.9264948,0.1125735,0.3971696,0.004446101,-0.000717512,-0.00823321
0.9253897,0.1154467,0.4014659,0.002511702,-0.003984522,-0.006461099
0.929364,0.1220659,0.4099618,-0.0002258154,-0.005622998,-0.004874761
0.930276,0.1257112,0.4097079,-0.0004924879,-0.003925751,0.0003784822
0.9308185,0.1255916,0.406402,0.002663716,-0.001575015,0.003786835
0.930929,0.1246072,0.4080061,0.002661931,0.0009326587,0.001274931
0.9309366,0.1259173,0.4012022,0.001775301,0.008730103,-0.0008967971
0.932718,0.1263253,0.395369,0.002497365,0.005448903,-0.004508706
0.9316411,0.1225188,0.4026107,-4.63258e-05,0.001742522,-0.004907548
0.9307326,0.1196946,0.4079203,-0.002178939,0.004878136,-0.0006022968
0.9307399,0.1206381,0.4036953,-0.001133546,-0.0003155549,-0.002309174
0.9300787,0.1214136,0.4012997,-0.004387605,0.001348351,-0.006650468
0.9307591,0.1205812,0.4054313,-0.007574746,0.007546885,-0.009128584
0.9288775,0.1213619,0.4068913,-0.002542292,0.007613346,-0.01237454
0.9251019,0.1247743,0.4081563,0.00132279,0.006696006,-0.01128464
0.9227623,0.1272248,0.4139432,-0.002105899,-0.002572546,-0.005935728
0.9230894,0.1262809,0.4170196,-0.003845449,-0.009116278,-0.003398835
0.9244829,0.1229147,0.418643,0.0001774637,-0.00942423,-0.002343173
0.9235573,0.1204572,0.4188642,0.002416072,-0.01637037,0.0007258071
0.9251796,0.1197112,0.4131049,0.0003653992,-0.02121706,0.005938532
0.9275051,0.1193727,0.4073057,-0.001612367,-0.0189356,0.01040833
0.9264248,0.1212999,0.4072787,-0.003390891,-0.01489055,0.01120165
0.9279971,0.125633,0.4075301,-0.003238968,-0.01063072,0.01394587
0.9305617,0.1287511,0.4036197,9.753361e-05,-0.003208944,0.01764261
0.9318086,0.126134,0.401082,0.002448151,0.0001945454,0.01383304
0.9340486,0.120691,0.3993003,0.003188063,-0.007536986,0.004650747
0.9347203,0.1174362,0.3970157,0.005474099,-0.01208668,-0.004658406
0.9342376,0.1133569,0.3959081,0.008766713,-0.01013686,-0.008855092
0.933908,0.11268,0.3936537,0.007546915,-0.009216659,-0.009574406
0.9322,0.1151792,0.3965745,0.002296299,-0.006924661,-0.01098875
0.9313262,0.1139252,0.402559,-0.0004416722,0.0001578526,-0.008327556
0.9331638,0.1174826,0.4067269,0.001453837,0.01040746,-0.00778045
0.9364592,0.1260569,0.4117572,0.005525973,0.02192572,-0.008529099
0.9394475,0.1303961,0.4097841,0.006420765,0.03429375,-0.0008730736
0.9359641,0.1307693,0.4060594,0.00574724,0.03249987,0.005173266
0.9273373,0.1282897,0.4058648,0.008158428,0.01763226,0.008633411
0.9256483,0.1219766,0.4031892,0.01083184,0.002221278,0.01033624
0.9303001,0.1112324,0.4054294,0.01157033,-0.01653577,0.002217644
0.9333727,0.1072222,0.4090811,0.007645839,-0.01580934,-0.007381343
0.9332003,0.1119355,0.4079252,0.003050812,-0.00181561,-0.01302937
0.9319228,0.1134362,0.4069889,0.004497541,-0.007032379,-0.0151644
0.9304439,0.1205971,0.4062724,0.00472861,-0.01998412,-0.01053857
0.9271617,0.1299378,0.4072881,0.002376213,-0.03931887,0.0002104711
0.9296713,0.1285462,0.4058238,0.00242253,-0.04796267,0.0112443
0.9361041,0.1268566,0.3985736,0.003749225,-0.03174639,0.01781567
0.9375036,0.1221681,0.3915854,0.008035785,-0.02551079,0.02039035
0.94027,0.113085,0.3897703,0.01068958,-0.02217834,0.01309189
0.9376448,0.1109672,0.3929727,0.006676681,-0.01698046,-0.002558431
0.9291823,0.11195,0.3928474,0.004864847,-0.02313066,-0.01624174
0.9301036,0.1144392,0.3921999,0.005158509,-0.02019602,-0.02036163
0.9319655,0.1183097,0.3942553,0.0008301863,-0.01107456,-0.01024611
0.9324443,0.1189888,0.3925607,0.0004334515,-0.003439951,-0.00041316
0.9360454,0.1202115,0.3948463,0.001372185,-0.002307951,0.002989622
0.9348894,0.1224847,0.4008647,-0.003015153,-0.008305191,0.006575346
0.9339428,0.1216133,0.4036114,0.0001217588,-0.005413071,0.007766445
0.9353692,0.120919,0.4034446,0.005628326,-0.004097639,0.01106006
0.9344816,0.1215168,0.3981746,0.00455618,0.002378468,0.01080723
0.9346272,0.1185311,0.3916715,0.004782091,0.01687392,0.002576879
0.934778,0.1152443,0.3870109,0.003730535,0.01306281,-0.0006239715
0.9336242,0.1157658,0.3929487,0.003305233,-0.0001032199,0.0009399093
0.9336922,0.1187924,0.4033231,0.004185578,-0.01361462,0.001982247
0.935915,0.1220896,0.3984527,0.0009990969,-0.01922426,0.001627823
0.9379259,0.1203093,0.3972343,-1.764129e-05,-0.01198243,0.000322312
0.9351076,0.1154293,0.4030961,0.000250409,-0.01439139,-0.002047392
0.9319881,0.1136716,0.400811,-0.001512612,-0.0186944,-0.004887155
0.9345106,0.1160132,0.4038397,-0.001091311,-0.01897114,0.001486391
0.9365581,0.1190019,0.4045832,0.005378629,-0.02030748,0.009598592
0.9358386,0.1156265,0.3958679,0.01215971,-0.004842049,0.006314535
0.9360711,0.1114439,0.3898555,0.007816102,0.01467725,0.002371836
0.9349235,0.1123134,0.3859505,-0.003055452,0.01419279,-0.001239267
0.9320912,0.1127261,0.3877442,-0.01658495,-0.001996671,-0.01053864
0.9297433,0.1181184,0.3919041,-0.02637785,-0.01644609,-0.01170144
0.9293656,0.1264966,0.3920501,-0.01970484,-0.01241596,0.006888547
0.9337298,0.1265301,0.3923188,-0.009962308,0.007033272,0.02927078
0.9377659,0.1229244,0.3916339,-0.006405369,0.02959315,0.02747305
0.9363107,0.1183269,0.3913809,-0.005121912,0.03703063,0.0125486
0.9354247,0.1136106,0.3917321,-0.006008678,0.02326452,0.005852509
0.9380707,0.1110226,0.3906515,0.0005936401,0.01507089,-0.0089734
0.9405174,0.1059042,0.3900696,0.005899311,0.01925357,-0.02313344
0.9414618,0.1039702,0.3906442,0.002541028,0.02220228,-0.01952516
0.9386051,0.110673,0.3933963,0.006062095,0.02699844,-0.02250658
0.9339972,0.1178134,0.396231,0.008696745,0.02788802,-0.03148675
0.9339282,0.1198569,0.3977372,0.003431481,0.01624385,-0.02929376
0.9323177,0.1220458,0.3999134,0.0008246116,0.003773135,-0.02187654
0.9267694,0.1272495,0.4025172,0.001165921,-0.001168883,-0.01316962
0.924955,0.128423,0.4036515,0.0008069334,-0.005700551,-0.006859566
0.925568,0.1275255,0.4039044,-0.002081161,-0.01386893,-0.002971483
0.9300974,0.1273552,0.4037009,-0.000717907,-0.01668543,0.003840891
0.9373781,0.123798,0.3985939,0.005279355,-0.007574084,0.01022469
0.9385843,0.1210624,0.3943841,0.00782411,0.00119581,0.01175832
0.9371341,0.1193403,0.3984851,0.008314445,-0.004908916,0.006990667
0.9373347,0.1157729,0.4008792,0.006641355,-0.01252951,-0.0001231333
0.9376859,0.1127057,0.3962242,0.006714209,-0.007017314,-0.0007842921
0.937908,0.1129346,0.3913413,0.007427656,-0.001353352,0.001495229
0.9390434,0.1133236,0.3873959,0.004139217,0.004989044,-0.0007112724
0.9407145,0.111462,0.3833526,0.001665435,0.01328419,-0.005863959
0.9386148,0.1187435,0.3888671,-0.002298605,0.008878147,-0.01450664
0.936424,0.1274869,0.3985804,-0.00251162,0.005776168,-0.01801809
0.9375625,0.1243536,0.3950283,0.001723885,0.008559724,-0.00979785
0.9368478,0.1234829,0.3937924,0.002448124,0.005376692,-0.004402784
0.9351957,0.1239883,0.3990529,0.005694963,0.005589306,-0.003905131
0.9341674,0.1184476,0.3922529,0.00666827,0.003610694,7.101349e-05
0.9321238,0.117006,0.3883612,0.001943155,-0.006411717,0.001560982
0.9318173,0.1195352,0.3939393,-0.001911338,-0.01207259,-0.002213883
0.935112,0.1192358,0.3950658,-0.003341318,-0.009915694,-0.003688202
0.9379614,0.116546,0.3936133,-0.00234238,-0.002802145,-0.002078879
0.9373932,0.1150699,0.3923848,-0.004812341,0.002220691,-0.002807294
0.9352932,0.1176457,0.3932652,-0.005306894,0.001654816,-0.004911567
0.9333212,0.1210117,0.3942694,-0.002874949,-0.001844386,-0.006504043
0.9329284,0.1204326,0.3937317,-0.004814477,-0.005343332,-0.006383425
0.9335782,0.1202668,0.3952609,-0.003055922,-0.004330445,-0.003815376
0.9338506,0.1216701,0.3941213,-0.0006529711,0.002514581,-0.0009687381
0.9359181,0.120057,0.3903834,0.000142035,0.007241449,0.0004998157
0.9382355,0.1188751,0.3883003,0.00357656,-0.006410594,-0.003730444
0.9368831,0.1180436,0.3872997,0.005515471,-0.02575015,-0.007371438
0.9353895,0.1176591,0.3876342,0.008239757,-0.02160087,-0.004848387
0.9374054,0.1205407,0.389325,0.008620086,-0.001718444,-0.004495438
0.9388049,0.1212253,0.3915879,0.006352904,0.02282764,-0.003043729
0.9379219,0.1204911,0.393825,0.003629223,0.04034276,-0.005225083
0.9374048,0.1204778,0.3993205,-0.001774491,0.0344053,-0.01684235
0.9372878,0.12069,0.4033604,-0.00102405,0.03261219,-0.02056827
0.9372856,0.1230723,0.3995754,0.0005910764,0.04285904,-0.01507108
0.9352708,0.1234832,0.3963668,-0.004330333,0.04050496,-0.01060356
0.9312476,0.1232009,0.3958768,-0.004865274,0.03969082,-0.01028572
0.929755,0.1243609,0.3967425,0.0006278998,0.03633917,-0.009843009
0.9305682,0.1242022,0.4006853,0.00474376,0.01715557,-0.004918547
0.9317748,0.1248428,0.4009524,1.328355e-05,0.006211631,-0.006173034
0.9348336,0.1236275,0.3948146,-0.006946173,0.003523582,-0.007951095
0.9382324,0.12114,0.3889044,-0.004611237,0.005330516,-0.004663612
0.9356189,0.1219495,0.3902164,-0.002162716,0.01409093,-0.006705938
0.9312402,0.1208791,0.3933709,-0.000984177,0.01472929,-0.007625442
0.9339509,0.1191663,0.3913072,0.003560386,0.0134747,-0.008351203
0.9360659,0.1230005,0.3929265,0.003861706,0.01300268,-0.01164856
0.9355468,0.1263815,0.3988854,0.002877291,0.009174394,-0.01015648
0.9362104,0.1237972,0.4015075,0.003644268,0.007830765,-0.004031704
0.9321865,0.1207997,0.4012531,0.00309258,0.002313306,0.004405363
0.9291589,0.1209286,0.3992035,0.003293361,-0.00458433,0.00450205
0.9308147,0.1216574,0.3997193,0.002552473,-0.007460718,0.001103516
0.930927,0.1224947,0.4008516,0.0007306795,-0.005935569,0.002577275
0.931324,0.122835,0.3992597,-0.001233431,-0.0009935609,-0.001712472
0.932547,0.1235969,0.4002327,-0.004425937,-0.0001188604,-0.002335537
0.9338806,0.1250598,0.3999354,-0.007206084,0.008254033,-0.0003610507
0.9345895,0.1217023,0.3976396,-0.01010016,0.01903331,-0.006973552
0.9320006,0.1182148,0.397395,-0.01198061,0.0135371,-0.007797818
0.9288528,0.12236,0.3978044,-0.0107219,0.009990786,-0.005784576
0.9297898,0.1260781,0.4001355,-0.006369355,0.01319074,-0.005194619
0.933652,0.1249376,0.4013759,-0.00205508,0.0104762,-0.002423121
0.9355589,0.1246712,0.4038904,-0.004049196,0.01059015,-0.006923157
0.9360362,0.1252985,0.4083848,-0.006747992,0.01484944,-0.00792162
0.9345374,0.1245422,0.4040908,-0.003545819,0.01363601,-0.001722616
0.9313144,0.1231371,0.3953349,-0.001674944,0.001828576,-0.001989659
0.9319493,0.1225384,0.3916428,-0.002911164,-0.01418732,-0.003127752
0.9332469,0.1254659,0.3933686,-0.004314901,-0.01865366,-0.003018084
0.9337564,0.1289569,0.3974661,-0.004835114,-0.0250212,-0.003567807
0.9367286,0.1262698,0.4028187,-0.001952535,-0.04884316,-0.003034401
0.9398107,0.1234404,0.4124072,0.0002764543,-0.06233739,-0.006654944
0.9408284,0.1255182,0.4129143,0.0008516149,-0.05481945,-0.007446989
0.9382796,0.1253356,0.3979705,0.001172404,-0.03638088,0.004448586
0.9365441,0.1243812,0.3893933,-0.002700766,-4.236653e-05,0.01546935
0.9378654,0.1247468,0.3925088,-0.006920569,0.0275978,0.008457923
0.9379044,0.1212971,0.3929891,-0.01008819,0.0192142,-0.004278301
0.9390972,0.118201,0.3872138,-0.01297102,0.01247438,-0.006201847
0.9401149,0.1194726,0.3848559,-0.01121039,0.02266009,-0.006730903
0.9358914,0.1214614,0.3901238,-0.009535058,0.02056265,-0.006600446
0.9319926,0.1234914,0.3942511,-0.008966405,0.01975862,-0.002803394
0.9347553,0.1261447,0.3964214,-0.007374317,0.02516018,-0.003225297
0.9372341,0.1275973,0.3966978,-0.008092246,0.01895673,-0.002280338
0.9329513,0.1293267,0.3952993,-0.007765852,0.02081218,-0.001178539
0.9309874,0.1309814,0.3985933,-0.007351381,0.02359551,-0.002463397
0.934207,0.1269663,0.3995055,-0.009626726,0.01769521,-0.0006940433
0.9348008,0.1231901,0.3964957,-0.01092197,0.01862825,-0.0008843597
0.9320515,0.1253316,0.3958239,-0.01155314,0.01305753,-0.0002360933
0.9301862,0.1256694,0.3960551,-0.01009738,0.006713608,0.004506266
0.9339306,0.1253207,0.39927,-0.004916931,0.006777679,0.01073703
0.9376071,0.1264377,0.4013148,-0.0005198286,0.003737905,0.01548827
0.9339836,0.1236011,0.3999578,-0.001002318,-0.001863143,0.01307821
0.9310004,0.1201899,0.4025308,-0.002392513,-0.01567029,0.01131124
0.9312538,0.1206571,0.4047143,0.0008464514,-0.01921527,0.01168662
0.9306897,0.1223701,0.4005578,0.001947755,-0.007142732,0.005975469
0.932105,0.1232133,0.39718,0.000183421,-0.0007051186,0.001513831
0.9338399,0.1240385,0.399497,0.001563377,-0.0002147161,0.003229091
0.9316115,0.1246705,0.400672,0.001452278,-0.008691243,0.005842877
0.9295409,0.1251255,0.3977184,0.0004927956,-0.01858347,0.007301255
0.9310586,0.1262133,0.3956751,-0.001858909,-0.01733379,0.007572851
0.9327073,0.1262852,0.3929363,-0.005452829,-0.01142348,0.008162309
0.9333022,0.1251625,0.388983,-0.001026035,-0.004164292,0.01071982
0.9328342,0.1230093,0.3900188,0.002924207,-0.001235854,0.01179758
0.9314883,0.1213905,0.3936592,-0.001756898,-0.007147127,0.01079004
0.9327569,0.1223938,0.3957821,-0.003948068,-0.01605277,0.01153727
0.9342509,0.1222969,0.3976909,0.0002072076,-0.01809431,0.01314312
0.9339077,0.1209922,0.3958924,0.004103427,-0.008432393,0.01393543
0.9349388,0.1207833,0.3931896,0.003864987,0.0004961527,0.01238087
0.9350604,0.1206655,0.3956579,0.0005527783,-0.002731781,0.0102478
0.934281,0.1209797,0.3965934,-0.0024732,-0.007468086,0.01195692
0.9349644,0.1208481,0.3952493,-0.001698861,-0.005030838,0.01269631
0.9347406,0.1206779,0.3960851,-0.0003526402,-0.003863697,0.009907238
0.9345388,0.1210247,0.3958581,-0.001230139,-0.002486768,0.0078965
0.9347543,0.1201722,0.3940402,0.001628729,0.001169824,0.007040242
0.9336944,0.1178097,0.3876713,0.004650208,0.001805268,0.006618953
0.9330824,0.1141473,0.3792592,0.002173256,0.004985328,0.004517048
0.933831,0.1137834,0.3809233,-0.001327355,0.008918796,-0.0007828639
0.9361139,0.1188823,0.3855609,-0.004945186,0.01143004,-0.006255837
0.9377731,0.1229599,0.3847182,-0.006723685,0.0124728,-0.00685537
0.9348776,0.1246046,0.3914131,-0.005071281,0.01036522,-0.001913421
0.9311023,0.1267631,0.4009996,-0.00376736,0.01334562,0.004206903
0.9317843,0.1268241,0.3977509,-0.00280172,0.01403765,0.009491393
0.9334538,0.123934,0.3935893,-0.0029477,0.009974376,0.008491973
0.9332391,0.123049,0.3916461,-0.00491129,0.007205179,0.004524862
0.93343,0.1239075,0.3841133,-0.005229941,0.003115613,0.007757367
0.9330297,0.1229565,0.3862079,-0.004316909,0.009763497,0.007652134
0.9313458,0.1209403,0.3921541,-0.003987239,0.01685485,0.002773715
0.9309472,0.1187201,0.3879826,-0.00340821,0.01097458,0.0008112635
0.9337982,0.1187696,0.3899683,-0.001324523,0.01009605,-0.004368127
0.9368632,0.1195466,0.3945008,0.001731672,0.01300254,-0.006907326
0.9323882,0.1187755,0.3941191,0.001285063,0.01261541,-0.005611309
0.9256755,0.1223547,0.3983938,-0.001096892,0.0113455,-0.006116999
0.9264552,0.1262723,0.3982126,-0.0003577587,0.008371194,-0.005055035
0.9295176,0.1256979,0.3956316,-0.0001076503,0.006447481,-0.004415789
0.9314661,0.125756,0.3978852,-0.0006074269,0.004644615,-0.001543089
0.9328143,0.1232022,0.3958576,-0.0007881651,0.004487938,0.001724651
0.9333484,0.1191266,0.3958622,-0.00334168,0.005740884,0.0003685367
0.9347648,0.1195707,0.3990502,-0.00340493,0.004698479,-0.0001415825
0.9347613,0.1191116,0.3967942,-0.002380101,0.004766598,-0.001288231
0.93439,0.1165824,0.3944904,-0.004894695,0.001988993,-0.006720045
0.9341423,0.116023,0.3937826,-0.002534206,-0.0137071,-0.01288437
0.9329076,0.1167379,0.3933717,0.002177045,-0.03694027,-0.01290901
0.9344641,0.1208895,0.3951299,-0.001597124,-0.05271438,-0.009273123
0.9365353,0.125312,0.3968065,-0.005519427,-0.0598569,-0.010986
0.9379025,0.1246086,0.3983348,-0.006323782,-0.06163886,-0.01804484
0.9396099,0.1264254,0.4001893,-0.01241229,-0.06712111,-0.02689013
0.938719,0.1284287,0.4001205,-0.01194918,-0.09474318,-0.02900016
0.9376544,0.1223505,0.398529,0.001289727,-0.1277422,-0.02793069
0.9375317,0.1174569,0.3936327,0.01353853,-0.144331,-0.03068369
0.9376218,0.118835,0.3849989,0.02180338,-0.1458739,-0.0200744
0.9396546,0.1249011,0.378694,0.02403156,-0.1123287,0.0008949059
0.941693,0.1317123,0.3734718,0.01962694,-0.05394799,0.008896859
0.9420418,0.1308854,0.3702419,0.01194662,-0.02242934,0.003392407
0.9413301,0.1265467,0.3737628,-0.001809972,-0.02068508,-0.001511298
0.9406615,0.1239614,0.3768781,-0.01452989,-0.01070918,0.002177423
0.9402221,0.1213067,0.3781377,-0.01733894,0.01279834,0.004580494
0.9400139,0.1173919,0.3783527,-0.002424155,0.03020457,0.003172254
0.9405084,0.1104097,0.3755774,0.0220187,0.04991787,0.002139091
0.9402693,0.1083109,0.3750588,0.02452927,0.05786137,-0.007158088
0.9404526,0.1215707,0.3751092,0.006570978,0.0311003,-0.01651893
0.9430086,0.1407663,0.376151,-0.009560233,0.01134949,-0.01568293
0.947029,0.1454579,0.3779929,-0.01730752,0.01729029,-0.01351372
0.9490265,0.1327084,0.377905,-0.01804581,0.03367543,-0.01467979
0.9440934,0.1196128,0.3833654,-0.01968733,0.04635913,-0.01526708
0.9386214,0.1167203,0.3870867,-0.01733207,0.02588238,-0.01346921
0.94009,0.1186826,0.3855612,-0.01026631,-0.006796242,-0.01288706
0.9409218,0.1201066,0.3872168,-0.00975454,-0.01479914,-0.011195
0.9387753,0.1211171,0.3835905,-0.01085236,-0.006713026,-0.01083367
0.937677,0.1219938,0.3797757,-0.01381605,-0.001635453,-0.01599947
0.9336423,0.1267697,0.3886263,-0.01768632,-0.005080054,-0.01458821
0.9293467,0.1381565,0.3991986,-0.01014041,-0.008533918,0.002114352
0.9334142,0.1441676,0.3984016,0.001095872,-0.01716929,0.02692365
0.9404726,0.1352581,0.3875102,0.006416775,-0.03027855,0.03306633
0.9421457,0.1220705,0.375001,0.01003013,-0.03020749,0.01690417
0.9428093,0.1143557,0.3643107,0.0107007,-0.01142646,0.007336988
0.9453039,0.112221,0.3561636,0.00951313,0.01812707,-0.0004915195
0.9455578,0.1149246,0.3540903,0.01118353,0.02517153,-0.01431893
0.9423661,0.1184098,0.3581366,0.01164674,0.001940614,-0.02666262
0.9391274,0.1260291,0.3624944,0.01042401,-0.009148694,-0.03736042
0.9407869,0.1398244,0.3664497,0.006788535,0.004670821,-0.02965602
0.9425991,0.1463431,0.3727264,-0.006994849,0.0166691,-0.01018612
0.9386053,0.1421462,0.3761072,-0.01871863,0.01042239,-0.002870862
0.934378,0.1314479,0.3822993,-0.01394433,-0.00570072,-0.003331419
0.9317244,0.1176853,0.3912161,-0.008639954,-0.02233488,-0.007557624
0.9311195,0.1123704,0.387834,-0.01140149,-0.02916665,-0.00835667
0.9336025,0.1141447,0.3858156,-0.006829618,-0.01886486,0.004560427
0.9369234,0.1180049,0.3920482,0.00515921,-0.01511578,0.02804649
0.9434973,0.1270681,0.3919275,0.01235732,-0.01913756,0.04424448
0.9466206,0.1303089,0.3883679,0.01165719,-0.01404956,0.03027709
0.9440971,0.1259916,0.3763689,0.007212904,-0.009720677,0.01214388
0.9478575,0.1259938,0.3601935,0.009181887,0.0008207275,0.01403446
0.9514887,0.1256213,0.3616877,0.01090755,0.01521041,0.005665513
0.947732,0.127809,0.3671621,0.005016865,0.01626839,-0.005471164
0.9453202,0.1399929,0.3634447,-0.001855222,0.01403175,-0.0007300534
0.9461508,0.1469856,0.3649619,-0.01816666,0.01783711,-0.001705303
0.9477933,0.1402297,0.3671844,-0.03272343,0.02853477,-0.00682222
0.9470959,0.130869,0.3672996,-0.03450917,0.03869533,-0.006486517
0.9387799,0.1292091,0.3770479,-0.03702107,0.03687348,0.0004128122
0.9291647,0.1312302,0.3842982,-0.03175772,0.02324943,0.01555274
0.9312549,0.1303767,0.3837011,-0.02382599,0.01136052,0.02694426
0.937883,0.1301592,0.3891567,-0.01975071,0.008042287,0.03569542
0.9374365,0.1285843,0.3924545,-0.009272977,-0.003064266,0.04324977
0.9373116,0.1244482,0.3834106,-0.002585187,-0.01301987,0.03780144
0.9370711,0.1202807,0.3764585,0.002691156,-0.003307977,0.02852096
0.9350543,0.1134823,0.3826343,0.01147689,0.001299833,0.02514743
0.9371869,0.1063991,0.3875467,0.01930845,-0.0144817,0.01947733
0.9395607,0.1025136,0.3833921,0.02927089,-0.02734118,0.01126195
0.9441824,0.1038815,0.3822046,0.03739864,-0.0242782,0.00363772
0.9473475,0.1069982,0.3813791,0.04587363,-0.01988153,-0.002758103
0.9424496,0.1097008,0.3782165,0.05240498,-0.02042698,-0.001965034
0.9412313,0.1190524,0.3778236,0.04570067,-0.01993855,0.000880835
0.9456028,0.1295745,0.3740598,0.03441221,-0.0190889,-0.001341514
0.9487244,0.1346566,0.3702608,0.03074751,-0.01627142,-0.002219036
0.9494117,0.135107,0.3706814,0.02760638,-0.01270773,-0.005163898
0.9486811,0.1293834,0.369141,0.01922438,-0.01267769,-0.01131092
0.9460001,0.1251419,0.3675784,0.01122896,-0.0126746,-0.008680623
0.9395556,0.1253834,0.3665435,0.002413765,-0.01299027,-0.003119665
0.9388526,0.1273153,0.3648532,-0.008428631,-0.01594545,-0.001769056
0.9427216,0.1391788,0.3672117,-0.02055526,-0.01470165,0.0005204804
0.9440092,0.1600211,0.3713432,-0.03281897,-0.006014116,0.003902984
0.9480569,0.1679911,0.3731456,-0.04184867,0.00655395,0.01450018
0.9464992,0.1518882,0.3750439,-0.04737334,0.01403559,0.02395134
0.9412008,0.1285233,0.3764407,-0.04030541,0.00372404,0.007641872
0.9440886,0.1119442,0.3752382,-0.03004107,-0.006596832,-0.01976722
0.9461974,0.1076206,0.3711802,-0.02656409,0.003471972,-0.02494992
0.9461052,0.1122842,0.3663784,-0.01252626,0.008350595,-0.01151014
0.9429431,0.1107396,0.3672852,3.332769e-05,-0.002120794,-0.003858289
0.9364477,0.1139988,0.3693442,-0.00124225,-0.005938072,-0.008362211
0.9393622,0.1252604,0.3656528,-0.007326366,0.00135195,-0.01211854
0.9423068,0.124531,0.362628,-0.01758441,0.02035471,-0.01161168
0.9386103,0.1237288,0.362476,-0.0221897,0.04177856,-0.01302739
0.9386669,0.1280236,0.3706549,-0.02000262,0.04276666,-0.01200636
0.9380922,0.1270542,0.3870445,-0.01660498,0.03806138,-0.002985986
0.9391592,0.1227333,0.3914145,-0.01016998,0.04786657,0.01421328
0.942221,0.1119443,0.3868238,0.0008371094,0.04964658,0.02459297
0.9353797,0.1059561,0.3880734,0.01369124,0.03371754,0.005843364
0.9310763,0.1133944,0.386802,0.02398013,0.01047749,-0.01517804
0.9419526,0.1196826,0.3768874,0.03812947,-0.008725082,-0.009019582
0.950882,0.1210556,0.3645104,0.04059365,-0.0004174419,-0.006671491
0.9449161,0.1284916,0.3621467,0.02489647,0.01602068,-0.01659062
0.9372413,0.1416007,0.37097,0.01826188,0.01327101,-0.01830167
0.9378084,0.1470627,0.3755378,0.01553669,0.005553002,-0.01719931
0.9395114,0.1483377,0.3732611,0.005562633,-0.005004135,-0.01235247
0.9423844,0.1489686,0.3704127,-0.00778617,-0.001780637,-0.001485844
0.9444499,0.1426918,0.3693186,-0.02276142,0.01125041,0.006463845
0.9418357,0.1362401,0.369952,-0.02941349,0.006606715,0.009196953
0.9413445,0.1270512,0.3702161,-0.02730759,0.01300377,0.006962794
0.9398868,0.117869,0.3721701,-0.02237624,0.0219869,0.004480145
0.9375507,0.1167289,0.3747004,-0.01831295,0.0127897,0.004004104
0.93796,0.1133632,0.3778366,-0.01143899,0.008958015,0.003778487
0.9368434,0.1142789,0.3825601,-0.004590833,-0.0004040392,0.003720222
0.938402,0.1192797,0.3827831,-0.004499058,-0.008181122,0.002879534
0.9415072,0.1170921,0.3815924,0.002558549,-0.001976148,0.003144728
0.9433916,0.1195578,0.3790387,0.01050519,0.002771795,0.002759331
0.9441273,0.1231422,0.3728351,0.01179766,0.008154746,0.002263695
0.9419829,0.1227371,0.3741338,0.01304188,0.004301192,0.006147852
0.9441479,0.1270031,0.3756549,0.00919049,-0.0003438169,0.01299279
0.9481845,0.1282485,0.3669721,0.010266,0.01416013,0.01477682
0.9496546,0.1270277,0.3607266,0.01214398,0.02275806,-0.004762392
0.9471788,0.1258945,0.3603511,0.008440592,0.008090615,-0.0322103
0.9394422,0.1150783,0.3621635,0.009071779,-0.005895453,-0.03374524
0.9391876,0.1055714,0.3669818,0.007593013,-0.002171556,-0.02150893
0.9416464,0.1143399,0.3736114,0.00961749,-0.002738392,-0.01398028
0.9392938,0.1273996,0.3789579,0.01213652,-0.01347166,-0.005741471
0.9394034,0.1281263,0.3785676,0.009649533,-0.01756106,-0.009511219
0.9342234,0.1302654,0.3796212,0.01387833,-0.02092027,-0.02000515
0.9289755,0.1389535,0.3826962,0.01865417,-0.01977376,-0.01768656
0.9352726,0.144279,0.3773553,0.02355233,-0.01569585,-0.01653525
0.9416401,0.1485579,0.3729593,0.0235104,-0.01942416,-0.009775684
0.9407919,0.1455131,0.3752036,0.01749042,-0.01819704,0.004227969
0.939326,0.1375447,0.3752485,0.01909944,-0.01704035,-0.0068878
0.9411805,0.1371428,0.3727862,0.01568992,-0.01959489,-0.01899195
0.9426939,0.1364738,0.371623,0.006194143,-0.0167237,-0.01122633
0.945742,0.1329957,0.3723433,-0.001878071,-0.01524342,-0.01141559
0.9486926,0.1298773,0.371286,-0.01014527,-0.01128259,-0.01213714
0.9454976,0.1301789,0.3666793,-0.01336084,-0.004924512,-0.008220448
0.9430016,0.134153,0.3631205,-0.01663751,-0.0006893043,-0.01156486
0.9413223,0.1339713,0.3668853,-0.01758078,0.00374755,-0.01073087
0.9398775,0.1380321,0.3727438,-0.01764333,0.00806317,-0.002210375
0.9443716,0.1425348,0.3709147,-0.01971468,0.02059775,0.005608857
0.9478705,0.13641,0.3699729,-0.01504445,0.02791589,0.005773235
0.9462548,0.1307436,0.3727452,-0.009276406,0.01963577,0.001662775
0.9432088,0.125519,0.3713042,-0.0005585364,0.01673447,0.003622734
0.9417277,0.123464,0.3682787,0.005216338,0.01927467,0.006414413
0.942552,0.1280192,0.3640652,0.004065912,0.02092029,0.006740515
0.943203,0.1281418,0.3633761,0.008007559,0.0240815,0.003482495
0.9436535,0.1274651,0.36936,0.006640897,0.02362883,-0.006328575
0.9439188,0.1280912,0.3720268,0.00719652,0.01801088,-0.009223147
0.9427523,0.1274286,0.3709199,0.01050189,0.008878997,-0.004671121
0.9393184,0.1282542,0.3716823,0.004362404,0.003616241,-0.004364511
0.9373358,0.1292519,0.3771223,0.005942,0.005147312,-0.005979869
0.9381676,0.1334689,0.3824609,0.006692114,0.007444878,-0.006919703
0.9369906,0.1395552,0.3783847,0.002493183,0.0097859,-0.004101561
0.9373203,0.1432102,0.3723825,0.001784523,0.009152211,0.002590535
0.9387545,0.1439185,0.3721469,-0.00322585,0.003318253,0.01029684
0.9397816,0.1372985,0.3742645,-0.002266075,0.0001714566,0.01654553
0.9446322,0.129708,0.3775369,-0.002764005,0.002505941,0.01459251
0.9449429,0.1315142,0.3781835,-0.01086036,0.002088493,0.01346796
0.9399252,0.1360074,0.3755859,-0.01335243,-0.007907501,0.02119365
0.9354858,0.138026,0.374481,-0.01423437,-0.02522702,0.02755152
0.9333721,0.1397427,0.3740543,-0.0157962,-0.03158756,0.0272788
0.9421343,0.1327074,0.3707717,-0.0220517,-0.01125294,0.01700151
0.9510213,0.1221521,0.3665948,-0.02418092,0.01842551,0.002310296
0.9473409,0.1240957,0.3677732,-0.01174634,0.03273926,-0.004471934
0.9436961,0.1259325,0.3717902,-0.003656423,0.03143568,-0.008539224
0.9395453,0.1220287,0.3742969,-0.005434212,0.02319975,-0.01061905
0.9308782,0.1238075,0.3775038,-0.003420755,0.01152975,-0.008311371
0.9344053,0.1240997,0.3772594,0.006924991,0.004039772,-0.01315267
0.9449089,0.1218933,0.376353,0.01249257,0.007345179,-0.01869912
0.9443407,0.1224739,0.3802645,0.0110462,0.007207506,-0.01547198
0.9414275,0.1229111,0.3794956,0.01497531,-0.007078524,-0.01261768
0.9404362,0.12703,0.3765598,0.0163193,-0.01801941,-0.008247786
0.9408873,0.1330909,0.3776801,0.01443083,-0.01135475,-0.003543464
0.9448868,0.135564,0.3761702,0.009186033,0.00668265,-0.002218873
0.9426869,0.1375869,0.3742321,-0.001727702,0.01992374,0.006667595
0.9407606,0.1408111,0.3744038,-0.0006164302,0.01630597,0.01570325
0.9409848,0.1450734,0.3722652,0.00272078,0.007229615,0.01478418
0.9374563,0.1482413,0.3670667,-0.001766418,0.005768442,0.01436384
0.9403337,0.1453397,0.3616418,-0.004240399,0.004526071,0.01585022
0.9431357,0.1402033,0.3593195,-0.01432538,0.004710562,0.01398502
0.9426283,0.1394383,0.3625836,-0.02829536,0.00889363,0.01068067
0.9442329,0.1376905,0.3700567,-0.03123988,0.01041514,0.009761838
0.9442268,0.131241,0.3725659,-0.02452436,0.01825061,0.01093626
0.9462556,0.1265935,0.3719297,-0.01820716,0.02486467,0.009303894
0.9456136,0.1269875,0.3770285,-0.01889326,0.01177763,0.008487554
0.9428976,0.1278003,0.3806133,-0.01420699,0.001954638,0.01012394
0.9442164,0.1257903,0.378403,-0.006235041,0.01639906,0.008120155
0.9428314,0.1259319,0.3773096,-0.01183588,0.03576332,0.00671705
0.9424949,0.1270629,0.3810544,-0.01768796,0.04085227,0.003012705
0.9437924,0.1248964,0.3850127,-0.01609789,0.03998384,-0.007848985
0.9422167,0.1256804,0.3849393,-0.01770945,0.0449665,-0.01341163
0.9408333,0.1297555,0.3846873,-0.01740775,0.05002385,-0.01033097
0.9370664,0.1331245,0.3843299,-0.01426508,0.0469915,-0.005078157
0.9336992,0.1333639,0.3832039,-0.009265771,0.03663691,0.001098637
0.9340949,0.1305807,0.3830717,-0.001254761,0.02478988,0.009731782
0.9343119,0.1305957,0.3824508,-0.001855736,0.01244811,0.01537536
0.9355893,0.1305792,0.379341,-0.004997824,0.004842045,0.01159178
0.9366354,0.1301643,0.3754338,-0.002237571,0.005780216,0.006766805
0.9349773,0.1302866,0.3780968,-0.003499266,0.001815115,0.001450417
0.9350065,0.1252411,0.3848534,-0.003830201,-0.002976058,-0.002762309
0.9386525,0.1201928,0.3893219,0.0003184671,0.003201535,-0.0003088233
0.9422707,0.1174078,0.3904824,0.005673805,0.01426662,-0.006901073
0.9422989,0.1133118,0.3877228,0.01684134,0.0258474,-0.01633916
0.9409966,0.1103007,0.3886898,0.02790012,0.03258389,-0.01392988
0.9420215,0.1130167,0.3900376,0.03429734,0.03704569,-0.01522941
0.942832,0.1212192,0.387694,0.03572932,0.03826198,-0.02423359
0.9423741,0.1281252,0.390159,0.0357914,0.02349114,-0.03458145
0.940767,0.135858,0.394858,0.04295761,-0.006683054,-0.0450862
0.9389066,0.1428786,0.4058172,0.04710442,-0.0592167,-0.05823363
0.9438399,0.1445067,0.4099794,0.05186264,-0.1005051,-0.07669942
0.9497965,0.146224,0.3771651,0.05770891,-0.06764595,-0.07535383
0.9409889,0.1468719,0.3447917,0.03130741,-0.01519633,-0.0353861
0.9147367,0.1479388,0.3596535,-0.002374362,-0.01028305,0.02066131
0.89385,0.1479556,0.3721993,-0.002858536,-0.02467743,0.05443686
0.9161796,0.1408836,0.3467672,-0.01425774,-0.03335701,0.05067721
0.9547779,0.130872,0.3382718,-0.04340176,0.002937686,0.04231484
0.9531822,0.1205961,0.3565319,-0.03905368,0.05729384,0.03359898
0.9435452,0.1223601,0.3707948,-0.02810185,0.05710543,0.002061574
0.9473503,0.1426741,0.3886597,-0.03473581,0.05384888,-0.01147269
0.9372781,0.1624561,0.4018076,-0.01682474,0.04675913,0.0093627
0.932019,0.1627554,0.4073673,0.01962703,0.007746308,0.02777157
0.9352933,0.1444232,0.4078455,0.04175346,0.003962441,0.03313703
0.9326167,0.127773,0.3948549,0.02780658,0.009208248,0.02819726
0.9320417,0.1220182,0.3846676,-0.008162045,0.009053076,0.02716584
0.933013,0.1239096,0.3795999,-0.006306561,0.03872211,0.03770565
0.9386077,0.1253638,0.3794663,0.009886774,0.04524706,0.04695296
0.9413109,0.119128,0.3775069,0.01433749,0.0345044,0.04694601
0.9360356,0.119344,0.3667162,0.02774043,0.03691679,0.03372103
0.9342083,0.1224615,0.371257,0.02032032,0.03263417,0.01507109
0.9359057,0.1223181,0.3751861,0.01146992,0.03798349,0.0009967855
0.9389607,0.1287051,0.3687084,0.01143118,0.03959036,-0.002226641
0.9373173,0.1318591,0.3728864,-0.001381941,0.01719443,0.008855869
0.9353435,0.1429797,0.3778632,0.0005735351,-0.003085659,0.0243104
0.9362595,0.1616379,0.3842207,-0.0007663136,-0.009968354,0.03508543
0.933861,0.1580644,0.3874084,-0.005736698,-0.01239006,0.03549785
0.9366787,0.1474992,0.3836074,-0.000603977,-0.02630181,0.02763773
0.938742,0.1423331,0.3896493,-0.008409052,-0.04055961,0.02067859
0.9370356,0.1347644,0.3923549,-0.01395449,-0.04041177,0.01785889
0.9397322,0.1356346,0.3831439,-0.01942491,-0.0362227,0.01936565
0.9406458,0.1363567,0.3747279,-0.02580712,-0.02264152,0.01719955
0.9404299,0.1285205,0.3733468,-0.02395538,-0.007363761,0.007243942
0.9397848,0.1263105,0.3778798,-0.03029465,-0.01076029,0.00038743
0.9382791,0.1230527,0.3801794,-0.02937019,-0.03721906,0.006176115
0.937453,0.1177433,0.3823494,-0.006139,-0.06996799,0.0213073
0.9369594,0.1220366,0.3820701,0.02397763,-0.07653159,0.03073718
0.9392376,0.120752,0.3745043,0.03339579,-0.05645195,0.02503357
0.9401358,0.1146007,0.368942,0.02348757,-0.03102379,0.01100609
0.9412628,0.1146109,0.3679896,0.02162039,-0.01717066,0.003325469
0.9439671,0.1153983,0.3741976,0.01886254,-0.01562247,0.005291023
0.9454542,0.1195495,0.3800584,0.01843882,-0.005880935,0.003749442
0.9482628,0.1192153,0.3738866,0.02513396,0.009264879,-0.01050507
0.9475749,0.1184685,0.3704251,0.01631578,0.007182495,-0.03056962
0.9460982,0.1258297,0.3746663,0.009427502,-0.001209839,-0.03766695
0.9462046,0.1278477,0.3749718,0.01327591,0.003328483,-0.02622439
0.9404789,0.13313,0.3703043,0.01102178,0.00449961,-0.006616896
0.9356079,0.1408944,0.3671258,0.01115269,0.008631115,0.01247892
0.9365602,0.1408079,0.3732389,0.01113226,0.01965836,0.01483205
0.9380897,0.1479852,0.3845341,0.001503974,0.007720375,0.001966425
0.9382354,0.1570986,0.3896442,-0.01163591,-0.001945769,-0.003744171
0.939662,0.1527436,0.3855227,-0.01770603,0.006531075,-0.002712319
0.9424783,0.1403805,0.3797387,-0.01038346,0.005285779,0.004637599
0.940214,0.1284404,0.3776928,-0.002383889,-0.002390739,0.01781111
0.9379545,0.1220166,0.3730073,-0.0004360574,-0.01059218,0.01697134
0.9425759,0.1224178,0.3689221,0.0004927773,-0.01822857,0.007431534
0.9468332,0.1210742,0.3703616,-0.001891273,-0.02177606,0.0003852085
0.9478538,0.115001,0.367868,-0.004348133,-0.008281738,-0.007786691
0.9460441,0.1132874,0.365544,-0.005836302,0.02224047,-0.005394884
0.9405302,0.1163626,0.3751055,-0.006137474,0.02970807,0.002033737
0.9361209,0.1250008,0.3857023,-0.002527707,0.0137822,0.001183738
0.9375839,0.1345344,0.3845827,-0.0007614543,0.006188257,0.001637296
0.9406109,0.1344276,0.3830677,0.002562298,0.006502766,0.003456695
0.9394444,0.1334909,0.3853875,0.008741817,0.004235906,0.003254457
0.9400253,0.1329099,0.3792285,0.009345979,-0.002110229,0.003361473
0.9422573,0.1294794,0.3714838,0.00731879,-0.004080568,0.001769159
0.9409533,0.1314639,0.36946,0.004299721,0.0005890546,-0.002970673
0.9409592,0.1348518,0.368476,-0.0008655974,0.004716146,-0.00896196
0.9405201,0.133983,0.3700275,-0.004176757,0.003052788,-0.008240951
0.9404069,0.1302104,0.3707733,-0.004936283,-0.003291891,-0.004353025
0.94275,0.1268157,0.3736416,-0.005319308,-0.0060624,-0.005641271
0.9414169,0.1289548,0.3787803,-0.008810374,-0.005438267,-0.007607076
0.9412483,0.1323593,0.3763386,-0.01510477,-0.002022335,-0.01207662
0.942343,0.1308466,0.3763293,-0.01669586,-0.00118238,-0.01804262
0.941278,0.1298536,0.3802276,-0.009763266,-0.0144064,-0.02181538
0.9456657,0.1305492,0.3781382,-0.009846198,-0.03706286,-0.04254717
0.9587839,0.1299063,0.3742036,-0.0363826,-0.05078927,-0.09723082
0.9747812,0.1317967,0.3666836,-0.06872386,-0.01594466,-0.1613762
0.9685873,0.1342754,0.3623174,-0.06768045,0.07148044,-0.1699671
0.9274661,0.1350699,0.3705825,-0.04597353,0.1145,-0.09328277
0.892653,0.1287483,0.3748411,-0.03473678,0.03385555,-0.006995908
0.9043083,0.1144178,0.3653248,-0.02857788,-0.04619329,0.003981928
0.936408,0.1138262,0.3604818,-0.0271515,0.01860853,-0.02713881
0.9484155,0.1291422,0.3756572,-0.02130058,0.07521574,-0.02734122
0.9483461,0.1414078,0.3915976,-0.0004045313,0.0231314,-0.007308092
0.9436173,0.1456316,0.3887764,0.004370906,-0.0080783,-0.0005022564
0.9384657,0.1495358,0.3850886,0.0004571876,-0.02730768,-0.004662924
0.9421129,0.1565582,0.3839139,0.005995028,-0.009541663,-0.0130027
0.933724,0.1547208,0.3772015,0.003384711,0.04736007,-0.01209349
0.9222765,0.1520437,0.3867158,0.006024546,-0.01198679,-0.007439476
0.9240843,0.155595,0.3999104,0.01066168,-0.06213513,-0.005614856
0.9263245,0.1503838,0.3887327,0.005648275,-0.01628173,0.01096238
0.9339152,0.1459085,0.3781011,0.007600273,-0.01276795,0.02853112
0.9431923,0.1425516,0.3732315,0.01334682,-0.005365721,0.03145461
0.9512651,0.134379,0.3599243,0.01646029,0.0174698,0.0235867
0.9545191,0.1339672,0.3567922,0.00432488,0.0163594,0.009849976
0.9492139,0.1368535,0.3607022,-0.02080878,0.03221297,0.003793804
0.9467137,0.1440617,0.3630218,-0.03444561,0.03545134,0.007141227
0.9362788,0.1542912,0.376154,-0.04636762,0.01810279,0.01226072
0.9311378,0.15277,0.3876929,-0.05706412,0.00447205,0.005969835
0.9401319,0.1439724,0.3892799,-0.05268957,0.01492777,-0.001871645
0.9383475,0.1377153,0.393932,-0.0437705,0.0319479,0.001488336
0.9335407,0.1371568,0.3979125,-0.02451552,0.0062524,-0.002350383
0.9268124,0.1386204,0.3972216,0.008983348,-0.01927606,0.0008560658
0.9208109,0.1398121,0.3963281,0.02750945,-0.0236274,0.01908771
0.9304455,0.1416205,0.3866211,0.0259874,-0.02193819,0.03330887
0.945313,0.1364335,0.3710138,0.02168592,-0.002293439,0.04307463
0.9566096,0.1263185,0.3649079,0.007560395,0.01516098,0.04369765
0.9527173,0.1231142,0.3640362,-0.004796003,0.03325776,0.03590031
0.9438656,0.1275605,0.3671108,0.004404633,0.04287174,0.02006913
0.9484741,0.1334963,0.3744176,0.01487137,0.03200509,0.01044838
0.9479468,0.1382007,0.374311,0.0143027,0.03469187,0.0158843
0.943855,0.1411919,0.3742002,0.002696099,0.05166699,0.005631616
0.9408146,0.1450962,0.381387,-0.01610683,0.06499339,-0.008751053
0.9313566,0.1481526,0.3886876,-0.01903197,0.04997038,-0.002620175
0.9325634,0.1416817,0.396741,-0.009436215,0.01426823,0.01235632
0.9358992,0.1351382,0.4049287,-0.004845115,0.004592055,0.02374319
0.9312522,0.1365464,0.4059901,0.001488452,0.01381257,0.01597155
0.9338298,0.1304949,0.3994938,0.006606626,0.01867673,0.003987923
0.934214,0.1179742,0.3970463,0.001197183,0.009298523,0.0008914853
0.9319269,0.1141616,0.3979529,-0.0003795358,-0.004337959,-0.01616821
0.9337242,0.1179036,0.3959458,0.01223202,-0.009238389,-0.0284719
0.9293911,0.121054,0.3969502,0.02578923,-0.02316427,-0.01115346
0.9266956,0.1245391,0.3958374,0.02723147,-0.02945992,0.004139634
0.9298802,0.1338764,0.3942238,0.02209578,-0.02959678,0.002445164
0.9311986,0.1426947,0.3940954,0.01984107,-0.04721895,-0.001198837
0.9307849,0.1425558,0.3882901,0.01782669,-0.05970447,-0.005533937
0.9299649,0.140202,0.3879702,0.02068957,-0.07546074,-0.004101866
0.932861,0.1412693,0.3900162,0.02815562,-0.09004823,0.001355435
0.9419549,0.1369417,0.3855426,0.02706432,-0.05915702,0.002192806
0.9554769,0.1278616,0.3768072,0.02728434,-0.001194485,0.006309295
0.9578261,0.1284837,0.3656195,0.03145514,0.02691993,0.009677629
0.9399888,0.1396257,0.3676296,0.02760264,0.007276616,0.007806447
0.9294019,0.1537821,0.3728445,0.01864299,-0.007414707,0.004178128
0.9396933,0.1611844,0.3684259,0.001684026,0.01606814,-0.001730301
0.9489277,0.158513,0.3747153,-0.009982177,0.03087197,-0.002375926
0.945033,0.1557913,0.3846723,-0.004947663,0.02966894,0.008816019
0.9389913,0.1516169,0.3853006,-0.005878869,0.03231204,0.02987415
0.9349522,0.1481932,0.3842175,-0.01259907,0.02639934,0.04458982
0.928542,0.1456911,0.3793538,-0.01504244,0.02452623,0.04305007
0.9294346,0.1312115,0.3746246,-0.01657196,0.02331175,0.03829509
0.9358454,0.1211408,0.3745049,-0.01633848,0.009964817,0.03318581
0.9390217,0.12928,0.3747091,-0.0236586,0.008072688,0.02729155
0.9392783,0.134786,0.3736066,-0.0363247,0.02073403,0.02834156
0.9324561,0.1285937,0.3735849,-0.04056141,0.03403907,0.02775454
0.9290978,0.1256658,0.3840552,-0.03230116,0.03264979,0.01083594
0.9328542,0.1277637,0.39794,-0.01823659,0.01705983,-0.01799253
0.9332669,0.1205782,0.4028672,-0.0105022,9.638992e-05,-0.03719261
0.9297835,0.1109646,0.4085209,0.007654743,-0.02433647,-0.0297255
0.9214909,0.1100901,0.4116362,0.03914039,-0.03384371,-0.005602104
0.9196931,0.112449,0.4033395,0.04998297,-0.02435127,0.01123912
0.9328275,0.1147043,0.3957349,0.04268788,-0.02308391,0.009096536
0.9485231,0.1171334,0.3886535,0.03548099,-0.01339821,-0.01355139
0.9506384,0.1234908,0.3772184,0.02650622,-0.0005492008,-0.03911995
0.9392082,0.1330032,0.3733789,0.02043211,-0.004980007,-0.04338891
0.9343631,0.1456023,0.3737591,0.02113523,-0.006937753,-0.02517231
0.9373993,0.1594196,0.369512,0.0145534,0.0002605643,-0.003834462
0.9415284,0.1597975,0.3682096,-0.003108468,0.00625716,-0.0009626411
0.9461785,0.1529477,0.3693091,-0.009375265,0.009244622,-0.002946787
0.9433655,0.1518956,0.3722075,-0.01030813,0.00817013,0.001998728
0.9400152,0.1509006,0.3811742,-0.02147551,0.005673778,0.0009912061
0.9404139,0.1480625,0.3857455,-0.02559284,0.009098425,0.004938014
0.9397896,0.1405438,0.3819385,-0.02549995,0.01166153,0.01205678
0.938941,0.1285468,0.3810797,-0.02684844,0.008636353,0.0140284
0.9349603,0.1232658,0.3841371,-0.02067898,0.007156017,0.01449351
0.9316701,0.1252991,0.3871972,-0.01555714,0.002975271,0.007320886
0.9315474,0.1262357,0.3935181,-0.01089723,-0.00147446,0.006464932
0.9312184,0.1284348,0.3972546,-0.003221971,-0.003444311,0.01400765
0.9338169,0.1346954,0.3919291,0.002947978,-0.004251653,0.01691496
0.9385661,0.1360369,0.3872835,0.009317106,0.002723338,0.01372372
0.9390473,0.13348,0.3878443,0.01147759,0.008528349,0.007171175
0.9371863,0.1331508,0.3866975,0.01031435,0.009574806,0.01194485
0.9378116,0.1316035,0.3843773,0.01175609,0.007679075,0.01438674
0.937438,0.1308645,0.3853826,0.01253885,-0.001389847,0.003714372
0.9375112,0.1299504,0.3884706,0.01453252,-0.007941647,0.0009057018
0.9400278,0.1269749,0.3911495,0.02085488,-0.01264937,0.005888764
0.9416244,0.129348,0.3892855,0.02463792,-0.01895953,0.009949579
0.9440469,0.1332846,0.3813243,0.01880267,-0.02151508,-0.0003882373
0.945825,0.1335961,0.3769349,0.008909944,-0.02545987,-0.02833742
0.953663,0.1337547,0.3837297,0.007779164,-0.03225563,-0.07202783
0.9779675,0.1290376,0.3924447,0.01574429,-0.01719112,-0.1403047
0.9878868,0.1227795,0.3892065,0.0146033,0.06378279,-0.1850898
0.9398306,0.1282757,0.378672,-0.0171563,0.1488565,-0.1642588
0.8850837,0.1412076,0.3736829,-0.04969036,0.1110099,-0.1055442
0.9012824,0.1522951,0.3773688,-0.03181932,0.03874861,-0.02377952
0.9248024,0.1564694,0.3864763,-0.01119745,0.03397899,0.04295613
0.910938,0.1494926,0.3905346,-0.02997884,0.002876727,0.04501205
0.9176534,0.1435819,0.3923752,-0.03073571,-0.01525555,0.0397289
0.9237022,0.1447197,0.400944,-0.01797193,0.001544115,0.0503158
0.9303361,0.142609,0.403887,-0.02071604,-0.02735208,0.006834465
0.9629722,0.136373,0.3940966,-0.01208487,0.01184046,-0.06947926
0.9585088,0.1305823,0.3829242,-0.007760161,0.08355539,-0.114321
0.9239379,0.1356103,0.3873774,-0.01087298,0.0578063,-0.09448337
0.8980487,0.1489483,0.4026758,0.0001740624,0.01450166,-0.03090195
0.8918965,0.1505721,0.409562,0.01507472,-0.02628869,0.01984217
0.9213599,0.1433109,0.40652,0.02725697,-0.03210101,0.07183237
0.9485081,0.1390657,0.3932892,0.02338506,-2.719161e-05,0.07390828
0.959701,0.1446441,0.3853863,0.0142409,0.01098305,0.002358144
0.9466123,0.1586764,0.3915016,0.01532885,0.04840725,-0.04181607
0.9112773,0.1679043,0.3911759,0.009384503,0.03984373,-0.05116441
0.9056809,0.1759391,0.3843297,-0.004265907,-0.01416135,-0.02937657
0.9094065,0.1806935,0.3800381,-0.02419182,-0.009178709,0.00246703
0.9078261,0.1705683,0.3883976,-0.03436342,-0.02089236,0.02173598
0.9190974,0.1522085,0.3995734,-0.03693398,-0.0487609,0.0476536
0.9376463,0.1360552,0.394171,-0.05148616,-0.0527305,0.02031018
0.9672946,0.1312026,0.394343,-0.0439038,-0.02746974,-0.0225864
0.9697939,0.1304342,0.4007397,-0.02748016,0.03380642,-0.0463436
0.9449973,0.1255629,0.4007866,-0.02237652,0.03217701,-0.07346538
0.9322837,0.1247272,0.4051844,-0.00369022,0.02069741,-0.06590787
0.9225498,0.1309057,0.4049064,-0.007555114,0.04727369,-0.05454199
0.911114,0.1554286,0.399345,-0.02408277,-0.007845714,-0.008303324
0.8941048,0.1829367,0.3972364,-0.01683408,-0.08363631,0.05553703
0.8932749,0.1740378,0.3936812,-0.01906831,-0.1010033,0.06564623
0.9052858,0.1517675,0.3891912,-0.02054356,-0.09108915,0.09216769
0.8937535,0.1459978,0.3851005,-0.008191696,-0.07001745,0.1316821
0.8976552,0.1423648,0.3838687,0.009779875,-0.03747897,0.1602123
0.9267148,0.1460467,0.383103,0.03322146,0.0550109,0.1489407
0.9617479,0.157546,0.3775284,0.02948511,0.1439941,0.09073164
0.9899777,0.1621805,0.3778095,0.0256946,0.1295025,0.07800556
0.9760087,0.1630379,0.3813399,0.04584401,0.04093546,0.0771311
0.9643039,0.1566228,0.3811679,0.04487592,-0.04729049,0.05828567
0.9583686,0.1452485,0.3949958,0.04440683,-0.04896625,0.03758913
0.9269593,0.1355752,0.4085047,0.0511768,-0.02964897,0.02424637
0.9338499,0.1362728,0.3951295,0.02844747,-0.07528256,0.04284052
0.9505675,0.1466145,0.3809695,-0.003100025,-0.1112303,0.01720514
0.9369598,0.1401702,0.3889389,-0.02501678,-0.1372481,-0.04054912
0.9398147,0.1411483,0.4092953,-0.01378324,-0.1381169,-0.06676012
0.9344813,0.1657283,0.4275495,0.03316027,-0.09667024,-0.03143697
0.9246803,0.1716549,0.4247711,0.06926935,-0.09967637,0.04638128
0.9337585,0.1426222,0.4002059,0.07318233,-0.09336228,0.02811226
0.9277575,0.09796913,0.3710829,0.03595909,-0.0519145,-0.019882
0.921399,0.09528719,0.3529379,0.006556781,-0.01601795,-0.01669969
0.9179449,0.1231237,0.3693432,0.02233106,0.0295358,-0.01517242
0.9113935,0.1239721,0.3919044,0.02304848,-0.02101974,0.02234593
0.931708,0.1292546,0.3784583,0.007351422,-0.09325605,0.02382293
0.9602403,0.1401469,0.3760024,-0.004440013,-0.03508896,-0.01317663
0.9692682,0.1412829,0.3865047,-0.01813676,0.01827503,-0.04882323
0.9581647,0.139671,0.3787303,-0.003318198,0.06533083,-0.13788
0.9334281,0.1266356,0.3896039,0.01786301,0.1233757,-0.1572416
0.9109438,0.1287263,0.3984273,0.01555306,0.04045065,-0.09606718
0.8972344,0.1424702,0.3859187,0.01425102,-0.06129104,-0.03409755
0.8923138,0.1600181,0.3825501,0.01386406,-0.04577096,0.05202365
0.9013682,0.1742371,0.3805904,0.000776621,-0.0389645,0.07831403
0.9242047,0.1559192,0.3789189,-0.01570775,-0.05266924,0.05795264
0.9278651,0.1426141,0.3765722,-0.02127959,-0.01719302,0.08388661
0.9170352,0.1440745,0.3706946,-0.008377154,0.03182279,0.1267834
0.9304367,0.1383638,0.3664758,0.008822414,0.08674455,0.1566325
0.9430865,0.1408523,0.3679318,0.008776154,0.1201876,0.158849
0.9554162,0.1446679,0.3872669,0.005098111,0.08896067,0.1354702
0.9708318,0.1453801,0.4043229,0.0005125917,0.05433985,0.1117753
0.9708379,0.141973,0.4071121,-0.02291454,0.05755896,0.100477
0.9933306,0.1355549,0.4062186,-0.04520036,0.1349509,0.1029177
1.001531,0.1388038,0.3978527,-0.05646,0.2814839,0.1111165
0.9386867,0.1454647,0.3900756,-0.06420022,0.3121331,0.1192029
0.8639992,0.1501828,0.395827,-0.06893706,0.1632375,0.116264
0.8558022,0.1460748,0.4065611,-0.09488579,-0.00371049,0.09397243
0.9173948,0.1288027,0.4031294,-0.1134252,-0.1154383,0.04885441
0.9675674,0.114331,0.4016503,-0.04512429,-0.1741927,-0.01293039
0.96422,0.1120794,0.4046656,0.03938446,-0.1238911,-0.04465902
0.9259466,0.1023041,0.3851402,0.01511329,-0.04959165,-0.02970804
0.8847024,0.07848218,0.3666899,-0.02916116,-0.1014778,-0.03571835
0.8879376,0.07619507,0.3641583,-0.01895922,-0.1327759,-0.05930665
0.91231,0.08377889,0.3723662,-0.01362387,-0.06166422,-0.03204268
0.9261869,0.07216444,0.397321,0.01755585,-0.05494033,-0.002657228
0.9370723,0.07301709,0.4170146,0.05084992,-0.07820341,-0.009639442
0.9382104,0.08337122,0.407912,0.03572805,-0.07550528,-0.01338251
0.9441691,0.09534406,0.3800022,0.03328316,-0.058366,-0.01353544
0.9476418,0.1211772,0.3716068,0.0262608,0.001946277,0.009640241
0.9385281,0.125677,0.3779348,0.01135151,0.02151609,0.0556664
0.9381102,0.1243351,0.375528,0.02051747,0.008245145,0.07417105
0.9343278,0.138421,0.3802599,0.02041731,-0.01288387,0.0722892
0.9286731,0.1382885,0.3874197,0.02520105,-0.06689986,0.07606388
0.9396129,0.1421947,0.3918961,0.03177347,-0.07371314,0.07925344
0.9536637,0.1389037,0.3898247,0.02356046,-0.03629916,0.06884861
0.9587095,0.1162614,0.384399,0.01875787,0.009541006,0.05359266
0.9511776,0.1123754,0.3934825,0.0139651,0.03237277,0.04347907
0.9433303,0.1099609,0.4015342,0.0175475,0.00301637,0.02636321
0.9480477,0.1057325,0.4074412,0.01850515,-0.01747738,0.006831263
0.9496991,0.1105096,0.4013989,0.005814759,-0.0236663,-0.004283167
0.9481135,0.1065844,0.3815334,0.0002352179,-0.02916328,-0.006102618
0.951258,0.1032036,0.37789,0.0009191766,-0.01837453,-0.01099939
0.949616,0.09180857,0.3706843,-0.001316675,-0.008637916,-0.0325533
0.9465561,0.08086785,0.3636899,-0.006890207,-0.02086113,-0.04563626
0.9430989,0.09507666,0.3745332,-0.00330251,-0.04508098,-0.03081075
0.9381587,0.1076272,0.3782655,0.009026865,-0.05051297,-0.007630361
0.9405642,0.1062012,0.375504,0.0164521,-0.04744752,-0.003810222
0.9432289,0.1036391,0.3738156,0.02069677,-0.0315606,-0.01705192
0.9423625,0.1053719,0.3741621,0.01398229,-0.007953479,-0.02397712
0.9427745,0.1126514,0.3756698,0.007149492,-0.01462402,-0.0229823
0.9412058,0.1240746,0.3794641,0.01813379,-0.02415864,-0.00643904
0.9410609,0.1309161,0.3869944,0.02529909,-0.0298298,0.01887523
0.9410069,0.1207802,0.3809856,0.0229419,-0.0519292,0.01927889
0.9367631,0.1080046,0.3735325,0.02261701,-0.07236189,-0.0002780955
0.9352963,0.1055352,0.3771428,0.01938726,-0.08369271,-0.01233483
0.936458,0.112412,0.3761353,0.01555413,-0.08814452,0.0005875424
0.9390432,0.1217378,0.3742287,0.01424323,-0.09176788,0.02678941
0.9479795,0.1151796,0.3686698,0.009084726,-0.08807998,0.04068801
0.9576878,0.1066911,0.3598059,0.002788781,-0.07105878,0.03946504
0.9584868,0.1046681,0.3610866,0.002151223,-0.05898325,0.02237374
0.9569891,0.09317863,0.3595515,0.0001098896,-0.04974487,-0.003289686
0.9599398,0.08406581,0.351862,-0.0002386826,-0.03778343,-0.02492024
0.9540525,0.08200209,0.3527793,0.01739432,-0.0354188,-0.03681113
0.9427852,0.08900197,0.3620831,0.03609108,-0.03837959,-0.03446062
0.9442944,0.1125186,0.3712615,0.03142723,-0.03719711,-0.01309225
0.955075,0.1264407,0.368154,0.01745321,-0.02940321,0.01803904
0.9644337,0.1168048,0.3596484,0.009407045,-0.01124512,0.01451097
0.9617854,0.1058872,0.357854,0.004378374,0.007376337,-0.01046277
0.9533166,0.1069502,0.3549884,0.004991964,0.006779362,-0.0198308
0.946152,0.1113456,0.3643215,0.00842831,-0.02150458,-0.03984708
0.9320841,0.1155327,0.3829693,0.01237141,-0.06004468,-0.04080452
0.9338921,0.1203014,0.380153,0.0237528,-0.07649865,-0.01152338
0.9492581,0.1169086,0.3658515,0.02921034,-0.07199036,0.003777229
0.9504132,0.1113939,0.3520168,0.02603387,-0.07280065,0.01698064
0.9548203,0.1091845,0.3428174,0.02727995,-0.07337836,0.01302875
0.9598769,0.1064855,0.3430721,0.0230829,-0.05496788,-0.006981582
0.9602164,0.1088444,0.332713,0.01492231,-0.02863532,-0.01781589
0.9656376,0.1135875,0.3233977,0.007573636,-0.01069589,-0.02413007
0.9637705,0.1210716,0.3297717,-0.005366507,0.008678483,-0.005766357
0.96787,0.1262652,0.33225,-0.02111471,0.04233695,0.007512274
0.9717301,0.1237212,0.3377216,-0.04358312,0.06429701,0.001724973
0.9572182,0.1242453,0.3503623,-0.05639975,0.05202955,0.009458405
0.947422,0.1167115,0.3591254,-0.03880396,0.03526439,0.01374088
0.9471465,0.1014691,0.369297,-0.01634356,0.02334972,0.0159629
0.9501439,0.09499477,0.3726696,-0.01013088,0.009658913,0.01528626
0.9514295,0.09247543,0.3641598,-0.01143548,0.01367282,0.009697649
0.9497562,0.09181677,0.3595799,-0.009272951,0.0211236,0.01114663
0.9482461,0.08827151,0.3610981,0.003863896,0.01936401,0.0003473874
0.9431481,0.09453589,0.361406,0.01509937,0.002052179,-0.01958045
0.9505339,0.1334477,0.3558899,0.005798279,-0.05973173,-0.03160214
0.9626914,0.1585225,0.3387532,-0.01672491,-0.09992588,-0.01291815
0.9602386,0.1028642,0.3259937,-0.02694426,-0.02968613,0.03325093
0.9487006,0.04317989,0.3469186,0.002765201,0.06118575,0.04457885
0.9364527,0.09193301,0.373243,0.03739861,0.05381524,-0.007053018
0.9470029,0.1410505,0.3611679,0.01354105,0.01226231,-0.06039591
0.9667308,0.1136016,0.3466786,-0.02138892,0.01622343,-0.04215565
0.9650475,0.1155262,0.3505169,-0.02667995,0.05335275,-0.02037524
0.9522853,0.1242738,0.3542072,-0.03930176,0.08842631,-0.04538646
0.9389647,0.1074499,0.375231,-0.02902578,0.03636623,-0.03533218
0.9421866,0.1101985,0.3892123,0.01639067,-0.05875561,-0.02496994
0.9553627,0.1004213,0.3742197,0.05193594,-0.07134252,-0.03320231
0.9554404,0.1018832,0.3625984,0.05710114,-0.06465916,-0.008819256
0.9552213,0.1167323,0.3506186,0.02018781,-0.06241768,-0.005988831
0.9552572,0.100201,0.3414878,-0.01261605,-0.02559313,-0.01327825
0.9580346,0.09416799,0.3407824,-0.01285183,-0.002618695,-0.008891987
0.9656184,0.09714214,0.335888,-0.00325504,0.004636303,-0.0166652
0.9591007,0.09955506,0.34314,0.01331094,0.000760752,-0.01185755
0.9513847,0.1146141,0.3537945,0.007975423,-0.002361932,-0.01123754
0.9501138,0.1192431,0.3543319,-0.007873514,0.00473889,-0.01279511
0.9519896,0.1241436,0.3528551,-0.0155501,0.003523071,-0.009248189
0.9638252,0.1239357,0.3484049,-0.02682507,0.02737744,-0.01308383
0.9690786,0.1134897,0.3494949,-0.0187896,0.06673587,-0.00779664
0.9626874,0.1154506,0.3501395,-0.01794786,0.09230862,-0.01023822
0.9502498,0.1157899,0.3429452,-0.02930709,0.09164969,-0.0110981
0.9385495,0.1133821,0.3423941,-0.02598028,0.05389239,-0.0007846412
0.9430177,0.1114104,0.3526941,-0.02528193,0.02467963,0.005778806
0.9501805,0.1034667,0.3640209,-0.01792404,0.01798812,0.01741753
0.9497745,0.1030531,0.3626542,-0.0141422,0.02227963,0.01819218
0.9508216,0.1055731,0.35833,-0.0171768,0.02408748,0.01302426
0.9520832,0.1055897,0.3620443,-0.01547328,0.01607116,0.008096942
0.9547048,0.1085213,0.3615541,-0.02394059,0.02170889,-0.00983348
0.9552238,0.109598,0.3626889,-0.0195158,0.01480332,-0.01954537
0.9470346,0.1114684,0.3663732,-0.01025947,-0.0002974431,-0.004862589
0.9412176,0.1142185,0.3654322,-0.0100468,0.004869333,0.01595453
0.9483802,0.1090229,0.3686512,-0.0003549434,0.02171446,0.007892936
0.9590506,0.1001875,0.367435,-0.001518256,0.05724359,-0.009350611
0.9597407,0.09800275,0.3611791,-0.005496228,0.06871115,-0.01274976
0.9512255,0.09857336,0.3635288,-3.150116e-05,0.04435462,-0.02265166
0.9447003,0.09804455,0.3668003,-0.0001227042,0.03346643,-0.01868663
0.9476308,0.1021892,0.3657908,0.003391097,0.03364765,-0.009684343
0.9515544,0.1057796,0.3644446,0.006403251,0.0357149,-0.01294835
0.9490363,0.105537,0.3656533,0.009957549,0.03416329,-0.005837212
0.9478326,0.1086625,0.3678023,0.01764085,0.03204269,-0.003268564
0.947583,0.1110903,0.3677604,0.01209118,0.03473076,-0.007031797
0.9465595,0.1101184,0.3680991,0.005509762,0.03140656,-0.01124312
0.9497136,0.1080258,0.3652404,0.008518946,0.03130926,-0.017926
0.9497327,0.1046239,0.3625708,0.009543512,0.03178635,-0.01746498
0.9450447,0.1070344,0.3643773,0.01003304,0.02745427,-0.01725486
0.9421182,0.1119687,0.3638767,0.005929905,0.01920426,-0.008914422
0.942729,0.1098106,0.3639064,-0.003658266,0.003859236,0.002571284
0.9468759,0.10462,0.3650222,-0.00551278,-0.00740499,0.0004599741
1.013169,-0.2006637,0.04207621,-0.1053097,0.04676556,-0.1012651
1.019304,-0.1888646,0.03095583,-0.104986,0.01269726,-0.08670594
1.020715,-0.1897803,0.02539315,-0.1021949,0.04453136,-0.07985356
1.009201,-0.1934364,0.02471118,-0.0998246,0.05319643,-0.085069
1.004868,-0.1920984,0.02222579,-0.1023764,0.04735376,-0.09148131
1.009624,-0.1916523,0.02546555,-0.09655529,0.04324888,-0.09980773
1.008786,-0.1823875,0.02045849,-0.1004694,0.03378953,-0.10749
1.006318,-0.1745564,0.01773423,-0.1121976,0.0001009013,-0.09012706
1.00026,-0.1779699,0.02310789,-0.1184319,-0.07612464,-0.06716695
1.003572,-0.1886994,0.02375639,-0.1207661,-0.099115,-0.08078832
1.010078,-0.2045939,0.02363447,-0.1127844,-0.09448362,-0.1045181
1.009221,-0.2104562,0.01346133,-0.1077808,-0.1045769,-0.1142925
1.005879,-0.2052875,0.001347028,-0.1054906,-0.1147935,-0.1179753
0.9967934,-0.2042202,-7.162391e-05,-0.1013706,-0.1450558,-0.1112176
1.001642,-0.206527,-0.00466882,-0.1015466,-0.172142,-0.1153109
1.011292,-0.2046688,-0.009543801,-0.09615685,-0.193683,-0.1263727
1.010611,-0.1988039,-0.009866278,-0.0958792,-0.1999655,-0.1284929
1.015174,-0.1897704,-0.01531274,-0.09869579,-0.1901651,-0.1387775
1.015837,-0.1817143,-0.02613474,-0.09161714,-0.1844854,-0.1335952
1.018955,-0.1836118,-0.03669699,-0.08682102,-0.175923,-0.1181184
1.028837,-0.1863076,-0.04601368,-0.07916987,-0.1594143,-0.1191906
1.029996,-0.1863918,-0.0546969,-0.07229638,-0.1289425,-0.1133148
1.028469,-0.1924705,-0.06195013,-0.07018659,-0.1092283,-0.1077777
1.024323,-0.1936032,-0.0610742,-0.05363595,-0.0923506,-0.1066851
1.020707,-0.1907833,-0.05760192,-0.0375613,-0.0686089,-0.09943385
1.022209,-0.1878148,-0.06453184,-0.04053769,-0.05996405,-0.09727245
1.021544,-0.1809058,-0.07145836,-0.04413319,-0.04214165,-0.09549378
1.020546,-0.1824712,-0.07426326,-0.03988652,-0.03741997,-0.09512028
1.020742,-0.1860647,-0.06839815,-0.0403707,-0.05673867,-0.09599505
1.022017,-0.1855146,-0.05568916,-0.04239896,-0.05812806,-0.09740463
1.022915,-0.1894638,-0.06272718,-0.04106241,-0.04044605,-0.09887378
1.023702,-0.1858801,-0.07399892,-0.04206033,0.002360225,-0.08663379
1.025846,-0.1778263,-0.07807045,-0.03465224,0.04627557,-0.07311713
1.02375,-0.1789514,-0.08317172,-0.02493903,0.05403525,-0.06682518
1.018348,-0.1793555,-0.07390615,-0.02921432,0.04571548,-0.06649686
1.013788,-0.1768509,-0.06925751,-0.0343322,0.04262309,-0.0729261
1.014784,-0.1764111,-0.07410133,-0.03970905,0.04380214,-0.07490505
1.020255,-0.1772424,-0.07170214,-0.0473667,0.04308867,-0.07943694
1.023115,-0.1802181,-0.07420385,-0.04457262,0.0452611,-0.07910715
1.025681,-0.1804877,-0.07497633,-0.04081296,0.0455453,-0.07197835
1.022367,-0.1759338,-0.06790646,-0.04230304,0.03461087,-0.07616641
1.011343,-0.1701063,-0.05640268,-0.04021205,0.004142525,-0.07497627
1.003501,-0.1664505,-0.04850746,-0.04331541,-0.05959256,-0.07351431
1.003358,-0.1683003,-0.06244963,-0.05458579,-0.09137833,-0.07895455
1.017699,-0.1726012,-0.0872914,-0.05832339,-0.03781971,-0.07523782
1.036771,-0.1809702,-0.1063456,-0.04990304,0.02972098,-0.07778917
1.038783,-0.1899835,-0.1106451,-0.03330195,0.06518667,-0.08192192
1.025797,-0.1845058,-0.1021748,-0.0184066,0.0796256,-0.07463553
1.01395,-0.1774243,-0.1020223,-0.01386742,0.07872531,-0.06475713
1.014319,-0.1857569,-0.1071124,-0.01120609,0.09663956,-0.05361594
1.019556,-0.1897093,-0.1087848,-0.0008368285,0.1395705,-0.05036485
1.020792,-0.1823726,-0.1093583,0.01682425,0.1711461,-0.05090649
1.022151,-0.1798903,-0.1023758,0.02923253,0.1981713,-0.04802938
1.022259,-0.1779337,-0.09360612,0.03151524,0.2292754,-0.05322079
1.021119,-0.1667297,-0.08666481,0.03257058,0.2441221,-0.0587588
1.0208,-0.1527029,-0.07605545,0.02905074,0.2452348,-0.0528177
1.020678,-0.147283,-0.06997545,0.01930252,0.2395395,-0.04174249
1.022063,-0.1474905,-0.06631021,0.004803423,0.2313428,-0.02608905
1.022417,-0.1487345,-0.05703991,-0.01429246,0.2263067,-0.01013029
1.022129,-0.1607076,-0.05086733,-0.02925658,0.224887,-0.009201718
1.022349,-0.1728855,-0.04668596,-0.03542461,0.2234692,-0.005591531
1.021682,-0.178475,-0.04286421,-0.03019217,0.2080194,0.01259209
1.019702,-0.1877927,-0.04744758,-0.01781648,0.1922382,0.01859702
1.012427,-0.1914622,-0.04902905,-0.001620442,0.1871409,0.02184196
1.000462,-0.1923008,-0.03945411,0.01596591,0.1701912,0.02141374
0.9916161,-0.1903198,-0.02634367,0.01929562,0.1429584,-0.002925606
0.9945522,-0.1821278,-0.01962091,0.01483279,0.1248102,-0.01828363
1.008849,-0.1827886,-0.02844132,0.01510774,0.1151468,-0.01570843
1.019149,-0.1810931,-0.03583372,0.01753588,0.08990083,0.001072107
1.016165,-0.1794449,-0.03097637,0.02497811,0.05779715,0.02397895
1.011005,-0.189228,-0.03044552,0.02850832,0.0547645,0.006188708
1.013124,-0.1933288,-0.03144994,0.02307929,0.05747171,-0.02472656
1.014011,-0.1922116,-0.03161594,0.01813789,0.04503849,-0.02900051
1.012814,-0.1860192,-0.04056263,0.01698355,0.04402406,-0.02443615
1.014039,-0.1788502,-0.0464189,0.01301726,0.04644356,-0.0181884
1.012721,-0.1821696,-0.04371233,0.0008331129,0.03724875,-0.03384492
1.016753,-0.1824719,-0.04441633,-0.005460225,0.03823544,-0.05858489
1.023778,-0.1783057,-0.04621801,-0.002419631,0.0444568,-0.05689559
1.022284,-0.1775248,-0.04665136,-0.002524293,0.04866968,-0.04404612
1.021767,-0.1783909,-0.0497524,-0.007411362,0.06335464,-0.03098653
1.022651,-0.1797216,-0.05051663,-0.01174574,0.0692122,-0.03065117
1.021689,-0.1776298,-0.04954601,-0.008297444,0.07298084,-0.03470009
1.021273,-0.1745002,-0.04840525,-0.005223346,0.08842328,-0.02307298
1.018376,-0.1732809,-0.04278332,-0.00721665,0.09624172,-0.01428563
1.016765,-0.175359,-0.03587346,-0.01028995,0.1001667,-0.006541116
1.017204,-0.1830211,-0.03374394,-0.02271595,0.08913965,-0.003117248
1.016857,-0.1909306,-0.0385359,-0.03360721,0.06820962,-0.01267704
1.013911,-0.1927068,-0.04104603,-0.02931176,0.06765923,-0.01829545
1.010333,-0.1869414,-0.03289449,-0.02659833,0.07025919,-0.02175084
1.01281,-0.1808091,-0.02183058,-0.03559697,0.0699564,-0.01923793
1.018418,-0.1798866,-0.01690251,-0.041956,0.07270551,-0.01034907
1.024042,-0.1806889,-0.02049307,-0.04313641,0.070909,-0.002857672
1.026325,-0.1817732,-0.02663688,-0.04871116,0.07130919,0.004763457
1.022636,-0.1820955,-0.03102411,-0.05437261,0.07519263,0.0006617739
1.020968,-0.1820314,-0.03593815,-0.06023176,0.09108268,-0.001585673
1.020862,-0.1829841,-0.04312553,-0.06580255,0.1218909,0.008964527
1.018859,-0.1834316,-0.05280745,-0.06869635,0.1381594,0.01063835
1.017355,-0.1828242,-0.05105139,-0.08031058,0.1306103,0.001547942
1.010998,-0.1796001,-0.03907734,-0.09880066,0.1227625,-0.008038406
1.002783,-0.176793,-0.03576807,-0.1100938,0.1085804,-0.007105588
1.006004,-0.1793898,-0.03198143,-0.1053022,0.07753409,-0.002235683
1.013461,-0.1850071,-0.02485325,-0.09494959,0.06289355,-0.004209872
1.014274,-0.1905148,-0.02184693,-0.0909235,0.06122876,-0.002384565
1.015668,-0.1943585,-0.01810143,-0.07906223,0.05035891,-0.006955598
1.015845,-0.1984738,-0.01545411,-0.06547726,0.04054887,-0.0155007
1.01324,-0.2069644,-0.01117838,-0.05236518,0.0205583,-0.0104556
1.013807,-0.2146837,-0.01112336,-0.02267124,0.01077092,-0.004146767
1.009006,-0.2133898,-0.01458338,0.003505214,0.01925679,-0.002480677
0.9977302,-0.2098712,-0.0101816,0.0198722,-0.002101744,-0.006414518
0.9907415,-0.2117897,-0.01131008,0.035255,-0.03160358,-0.0123123
0.9967484,-0.2122982,-0.01579457,0.04270282,-0.04053646,-0.01993127
1.012097,-0.2104057,-0.01921096,0.04453772,-0.03949671,-0.04154787
1.01782,-0.20261,-0.02493186,0.03533063,-0.03818001,-0.05504566
1.014486,-0.1836311,-0.02180555,0.02858315,-0.06110864,-0.04922078
1.013584,-0.1740314,-0.0235773,0.02973035,-0.08489022,-0.04774005
1.017321,-0.1799727,-0.03624661,0.01533454,-0.08962398,-0.05106736
1.020971,-0.180551,-0.04440135,0.0002920452,-0.09332563,-0.052059
1.01616,-0.176594,-0.04405557,-0.005706524,-0.0950264,-0.05402156
1.012297,-0.1766526,-0.04171022,-0.01746174,-0.1022741,-0.0529803
1.011169,-0.1743922,-0.04692695,-0.03391195,-0.1153849,-0.0461857
1.005887,-0.1706009,-0.04470993,-0.04785763,-0.1384051,-0.03995647
1.006802,-0.1718936,-0.03903098,-0.05836257,-0.1616336,-0.03728458
1.016527,-0.1771946,-0.04805699,-0.06645158,-0.1562845,-0.04224692
1.024886,-0.1832154,-0.05252256,-0.06319495,-0.1527785,-0.0484
1.019392,-0.1863638,-0.05294849,-0.05755538,-0.1654072,-0.03869274
1.010143,-0.1889513,-0.05832403,-0.05425383,-0.1694339,-0.03002791
1.013228,-0.1918346,-0.06657278,-0.0455831,-0.1655224,-0.0350976
1.015008,-0.1880297,-0.0821388,-0.04626711,-0.1460067,-0.03673185
1.015199,-0.1842242,-0.08753702,-0.04659707,-0.1147151,-0.03493092
1.019535,-0.1792112,-0.08480408,-0.04009341,-0.09771011,-0.02827383
1.021158,-0.1676973,-0.09091126,-0.03891543,-0.09306365,-0.01463736
1.022988,-0.1684689,-0.09427133,-0.02832427,-0.08778329,-0.005990217
1.021361,-0.1782409,-0.0961499,-0.01441913,-0.08499279,6.625738e-05
1.018686,-0.1836427,-0.1070693,-0.01359368,-0.07715699,0.002365996
1.02006,-0.187862,-0.1148415,-0.01452822,-0.05655231,-0.005694386
1.01836,-0.1836807,-0.1104171,-0.0152811,-0.03683342,-0.009139719
1.015444,-0.1768159,-0.1067476,-0.02562636,-0.02456538,0.0003567674
1.01148,-0.1761606,-0.1076469,-0.03477784,-0.02000554,0.01370543
1.011304,-0.1763331,-0.1059885,-0.02977449,-0.01595982,0.0202658
1.021142,-0.1795243,-0.1059941,-0.02515062,-0.006418926,0.009173464
1.026685,-0.1810376,-0.1051522,-0.02684698,-0.0003931501,-0.002810874
1.020873,-0.1775043,-0.1036556,-0.02576167,0.009933077,0.0017078
1.014491,-0.1769075,-0.1056443,-0.02683333,0.02131397,0.0001085203
1.016116,-0.1822872,-0.1039994,-0.02942037,0.02301549,-0.008920285
1.017147,-0.1886238,-0.1033542,-0.02683239,0.03047481,-0.006951172
1.012275,-0.1859759,-0.1031607,-0.01821326,0.04415912,-0.00386918
1.010623,-0.1807098,-0.09343488,-0.003568264,0.05126477,0.0002008592
1.006926,-0.1811548,-0.08411145,0.005338942,0.04043009,0.009690349
1.005099,-0.181726,-0.08475621,0.005301114,0.02380778,0.01095485
1.015173,-0.1836468,-0.08842471,0.01181725,0.02432827,0.01104712
1.02322,-0.1817989,-0.08933165,0.01893922,0.02359919,0.02126942
1.02301,-0.176038,-0.09357223,0.01662565,0.02569538,0.03194633
1.018752,-0.1776342,-0.1028504,0.01557661,0.04879509,0.03796805
1.014169,-0.185213,-0.1131542,0.01412537,0.0686977,0.03389999
1.012181,-0.1975016,-0.1202556,0.009655006,0.07646233,0.02343359
1.013345,-0.2019956,-0.1149484,0.01309126,0.08325093,0.02070825
1.016922,-0.1898284,-0.1086791,0.01970887,0.1000944,0.01765455
1.015259,-0.1833788,-0.1068692,0.01872282,0.1192655,0.01271424
1.013809,-0.190066,-0.0953654,0.0118457,0.1170206,0.00881118
1.014592,-0.1946578,-0.0839271,0.0036204,0.1015125,-0.00357848
1.010154,-0.192263,-0.07825362,7.78065e-05,0.08848741,-0.00885657
1.0095,-0.19175,-0.07849698,-0.0001811974,0.08326382,-0.003408746
1.008977,-0.1961189,-0.08328123,-0.003554022,0.07878521,-0.003873537
1.004436,-0.1972,-0.08101882,-0.00230389,0.0693357,-0.002157381
1.005338,-0.1957157,-0.08184788,0.008390232,0.0738397,0.001983972
1.011064,-0.1890416,-0.08350701,0.02183352,0.07810047,0.006531367
1.017643,-0.1762879,-0.08210363,0.0274902,0.06690191,0.01707478
1.016355,-0.1721108,-0.08768919,0.02219974,0.06114776,0.0205691
1.013078,-0.1748976,-0.09152737,0.02034561,0.05763054,0.02118433
1.016637,-0.1739241,-0.0978722,0.01861189,0.05570811,0.02943507
1.01534,-0.173634,-0.1005425,0.008930244,0.05765232,0.03121969
1.014249,-0.1792599,-0.09107509,0.002342781,0.05595769,0.02914101
1.017183,-0.1860232,-0.08942689,-0.001128029,0.06479537,0.03096835
1.018124,-0.1904165,-0.09271059,-0.002882815,0.08627484,0.02643355
1.021427,-0.1968007,-0.09520909,-0.005028227,0.1056416,0.01939603
1.018551,-0.203717,-0.09606419,-0.003933603,0.1122973,0.01346634
1.011274,-0.20381,-0.08793423,0.008493464,0.1132037,0.004712628
1.010548,-0.1997382,-0.07810536,0.01736419,0.1157802,0.003145319
1.010141,-0.1992468,-0.07061305,0.02019432,0.1089814,0.006459526
1.013323,-0.1981904,-0.06728618,0.02433751,0.1087307,0.006614965
1.019823,-0.1931548,-0.06524267,0.02687416,0.1132179,0.01215617
1.019617,-0.1901686,-0.06472573,0.02789307,0.1056489,0.02123293
1.016356,-0.1877155,-0.06660187,0.02742724,0.1055793,0.02389385
1.014326,-0.1854036,-0.05949735,0.030255,0.09813023,0.02336102
1.013769,-0.1865888,-0.05644946,0.02814538,0.08028091,0.02666996
1.012462,-0.1901002,-0.06069234,0.01907031,0.0716055,0.02851856
1.010049,-0.1948397,-0.0587761,0.0146154,0.05596956,0.02064954
1.010926,-0.1984764,-0.05758948,0.006980106,0.04904393,0.01157589
1.010818,-0.2011787,-0.05315853,0.001539829,0.05751238,0.01066806
1.008683,-0.2015792,-0.05024299,0.005749215,0.06168018,0.01292756
1.008971,-0.2018379,-0.05440413,0.01229192,0.07036146,0.01241873
1.008555,-0.2058251,-0.05447909,0.01877606,0.07511523,0.007939741
1.009073,-0.2069104,-0.05550456,0.01743153,0.06680285,-0.00052146
1.012245,-0.2064039,-0.05501792,0.01572554,0.05736198,-0.007249033
1.013008,-0.2042748,-0.05142981,0.0219354,0.04872891,-0.003543022
1.012348,-0.1959046,-0.0518309,0.0247945,0.04497884,0.003675885
1.012654,-0.1903967,-0.0512823,0.02388207,0.04797175,0.01010822
1.014112,-0.1900648,-0.0504328,0.02433708,0.04740163,0.02406863
1.017972,-0.1903664,-0.05023568,0.02492674,0.04533757,0.03051135
1.021467,-0.1943906,-0.0491626,0.02295858,0.04841938,0.023076
1.021166,-0.2007245,-0.04841941,0.01954334,0.05276963,0.01991248
1.018118,-0.1996672,-0.04921623,0.01713457,0.05825792,0.01273431
1.012891,-0.194667,-0.05049338,0.01423267,0.05681133,-0.0003538193
1.006696,-0.1935959,-0.04686328,0.008728998,0.04385513,-0.0005067176
1.005366,-0.188695,-0.03982185,-0.0006364068,0.02055374,0.003269178
1.006505,-0.1859166,-0.03128563,-0.007338352,-0.01822567,0.002637829
1.005844,-0.1877532,-0.02727106,-0.009659095,-0.04422353,0.009619252
1.011238,-0.1861966,-0.03418854,-0.01029786,-0.04897626,0.02079138
1.018024,-0.192541,-0.04105091,-0.005872314,-0.06529264,0.02589356
1.016304,-0.2011634,-0.04249555,-0.005251802,-0.08446019,0.02442683
1.012522,-0.2078658,-0.04225344,-0.005949597,-0.09244384,0.01938819
1.01156,-0.2179004,-0.04548519,0.002061316,-0.09085556,0.01833772
1.016878,-0.2175083,-0.05967369,0.008110293,-0.07092929,0.02016143
1.021441,-0.2129288,-0.0741154,0.01379833,-0.04717148,0.01888281
1.010219,-0.2078596,-0.0729793,0.01752918,-0.04000838,0.01291941
0.9984656,-0.1997243,-0.06308847,0.007618477,-0.04393472,-0.003105893
1.004135,-0.2019823,-0.06107257,-0.004370636,-0.04974582,-0.01985778
1.014309,-0.2038121,-0.070074,-0.008175382,-0.05652519,-0.02316052
1.019593,-0.1994321,-0.07681777,-0.006710281,-0.04518028,-0.01395263
1.021179,-0.1996819,-0.06874821,-0.006184513,-0.01230501,-0.001309976
1.017967,-0.1988416,-0.0586787,-0.007629231,0.004701481,0.001548594
1.016255,-0.1983197,-0.06060773,-0.00669366,0.002431094,-0.0007356609
1.015724,-0.2029348,-0.05835718,-0.005732095,-0.001268039,0.000651165
1.013569,-0.2044926,-0.05421902,-0.002486176,-0.003879383,0.003702208
1.014334,-0.2005382,-0.05961587,0.002086336,-0.005250555,0.0108363
1.012225,-0.1972766,-0.05870406,0.002203392,-0.01241012,0.01575396
1.010856,-0.199329,-0.05919241,0.004397875,-0.01865646,0.01442466
1.012281,-0.2052778,-0.0704728,0.01249402,-0.02524118,0.0133826
1.008359,-0.2105397,-0.0766393,0.02269224,-0.02978782,0.0118033
1.008744,-0.2143208,-0.0726629,0.03058878,-0.01841165,0.005784152
1.008418,-0.2161131,-0.06427244,0.03187496,-0.008504782,-0.002967349
1.003788,-0.2154928,-0.06144226,0.02810618,-0.004733595,-0.0102313
1.007665,-0.2132402,-0.05844744,0.02438807,-0.005963388,-0.01726255
1.009806,-0.2099052,-0.05610807,0.02305351,-0.01203961,-0.02128205
1.008839,-0.2087997,-0.06407673,0.02446658,-0.007949648,-0.02014985
1.012392,-0.2055625,-0.06715671,0.02705356,-0.003879097,-0.02122573
1.014897,-0.1973765,-0.0710822,0.02457482,0.002618617,-0.0232192
1.01582,-0.189809,-0.07793386,0.011128,0.01549367,-0.02079592
1.015575,-0.1788259,-0.07682933,-0.01222125,0.02098947,-0.008883875
1.016795,-0.168983,-0.08127874,-0.03079488,0.02647154,0.01118207
1.019474,-0.1710397,-0.0832495,-0.03323569,0.02897566,0.02084494
1.02071,-0.1825577,-0.0787096,-0.02986362,0.02937041,0.01765647
1.022354,-0.2007787,-0.07177135,-0.02064035,0.03801375,0.02027741
1.020295,-0.2125031,-0.05959977,-0.003707125,0.04999671,0.02602667
1.013049,-0.2113151,-0.0606292,0.003186796,0.06298761,0.01820055
1.003878,-0.2126311,-0.06287954,0.004018088,0.0631971,0.004005375
0.994661,-0.2144337,-0.05135977,0.009570957,0.04617648,-0.001478539
0.993819,-0.2124876,-0.04429624,0.01365682,0.02072517,0.002790115
1.003923,-0.2104808,-0.04576214,0.01601464,-0.007855192,0.01178166
1.014165,-0.200591,-0.05701289,0.01289253,-0.01496935,0.01671277
1.017252,-0.1891878,-0.07015822,0.00148085,-0.0106363,0.01806302
1.014721,-0.183786,-0.0689045,-0.01365848,-0.02220914,0.01610268
1.012583,-0.1807929,-0.06176569,-0.02717885,-0.03026169,0.0104266
1.013168,-0.1846618,-0.06166872,-0.02904676,-0.03068956,0.0138005
1.013878,-0.1932759,-0.06851861,-0.02031596,-0.02583502,0.01988389
1.015451,-0.2045669,-0.07577819,-0.006109484,-0.006981043,0.01958392
1.014173,-0.2172573,-0.07655983,0.007632722,0.009506467,0.01153635
1.010237,-0.2195417,-0.07397908,0.009218067,0.02042131,-0.008126409
1.008907,-0.2127556,-0.0699685,0.005005675,0.02622532,-0.0158779
1.004447,-0.2095395,-0.0589749,0.004831873,0.02217378,-0.008398652
1.001471,-0.2121189,-0.05200112,0.008894798,0.01343965,-0.007323083
1.004279,-0.2134895,-0.0533857,0.01417939,-0.005130153,-0.004974219
1.005154,-0.2091447,-0.05001342,0.0169623,-0.02225795,0.004942687
1.008307,-0.1975733,-0.04801737,0.02349348,-0.02631063,0.02010724
1.012594,-0.1836327,-0.04902898,0.02656247,-0.02966059,0.03661259
1.015421,-0.1841007,-0.0521872,0.01570771,-0.03240408,0.04030161
1.019398,-0.1946444,-0.06078706,0.005201252,-0.02888073,0.03436321
1.019147,-0.1982857,-0.06169916,0.004063001,-0.02350863,0.0340437
1.016542,-0.2035955,-0.06770173,0.007725722,-0.01699578,0.03252989
1.011157,-0.2111876,-0.08158675,0.009578635,-0.004067146,0.02294057
1.006372,-0.2163852,-0.07702051,0.006873486,0.00910318,0.01600163
1.011311,-0.2215646,-0.07109157,0.001823382,0.01491636,0.01056241
1.013721,-0.2156887,-0.07330186,-0.007027381,0.02142644,0.005047866
1.009103,-0.2100689,-0.06513533,-0.01231638,0.02773444,0.0006986938
1.007814,-0.2134198,-0.05978371,-0.007601868,0.02319921,-0.004930624
1.010249,-0.2104458,-0.06320512,-0.003297538,0.01658545,-0.004739298
1.013183,-0.20784,-0.06286775,-0.002577433,0.01953235,-0.004849351
1.013422,-0.2054912,-0.06202529,-0.002429592,0.01826157,-0.007340099
1.012497,-0.1988703,-0.06111657,-0.004486946,0.009102159,-0.004932786
1.010917,-0.1974738,-0.05443782,-0.004397119,-0.0002994456,-0.001972911
1.00883,-0.1985373,-0.04841707,-0.002348149,-0.01438973,0.003160443
1.010735,-0.203674,-0.05401312,-0.002313642,-0.01724351,0.003371477
1.011867,-0.2118296,-0.06292495,0.000231108,-0.0114861,-0.005751179
1.010474,-0.2121672,-0.06363858,0.00357164,-0.01773916,-0.01294725
1.010339,-0.2082494,-0.07071887,0.002566464,-0.01756416,-0.01672672
1.009529,-0.2078496,-0.08206996,0.002100521,-0.007923944,-0.02035388
1.009823,-0.2085537,-0.07801447,0.00373475,-0.001601378,-0.02534843
1.012035,-0.2071892,-0.07092084,0.002799755,0.0003928724,-0.02906343
1.013741,-0.2067495,-0.06646618,-1.345546e-05,-0.00556156,-0.03170711
1.014022,-0.2069541,-0.05769862,-0.003806517,-0.009595633,-0.03294051
1.011731,-0.206171,-0.05695764,-0.006830041,-0.01473111,-0.02943701
1.009536,-0.2025044,-0.05789509,-0.002891713,-0.02430578,-0.02004263
1.009502,-0.1930794,-0.05332646,0.005387294,-0.03003184,0.004522906
1.010899,-0.1830973,-0.05596815,0.009666223,-0.04736202,0.02596216
1.015135,-0.1788803,-0.05672946,0.001387533,-0.07541949,0.02393318
1.019771,-0.1835938,-0.05390078,-0.01596721,-0.09499068,0.02483797
1.019996,-0.1917555,-0.05898271,-0.01792643,-0.09464288,0.03393915
1.020285,-0.199143,-0.06956052,-0.001336268,-0.06933171,0.03484199
1.022163,-0.2124297,-0.08892046,0.01255311,-0.04347559,0.03099858
1.01594,-0.2206481,-0.09916529,0.01232624,-0.03183079,0.01962717
1.006869,-0.2153604,-0.08883923,0.002044736,-0.01475391,0.004870801
1.004798,-0.2136751,-0.08386838,-0.005910073,0.007071339,2.565628e-05
1.002836,-0.2176086,-0.08165217,-0.01151654,0.01382432,-0.00748067
1.00402,-0.2176739,-0.07712172,-0.01115569,0.01331882,-0.02431519
1.010893,-0.2178686,-0.07837785,-0.004033363,0.01965199,-0.02681705
1.011914,-0.2177371,-0.07505635,-0.001493926,0.02260453,-0.01810038
1.009726,-0.2122355,-0.07154177,0.007274211,0.02115112,-0.01228975
1.009983,-0.2039302,-0.06848863,0.01733325,0.01800772,0.00642888
1.012012,-0.1946772,-0.06195757,0.01855858,0.003965289,0.02711408
1.016904,-0.1874104,-0.06219896,0.02169789,-0.0127845,0.03074706
1.019082,-0.1865524,-0.06417666,0.01801718,-0.01774015,0.0309792
1.017019,-0.1902744,-0.06664952,0.01103312,-0.01441939,0.03231324
1.016069,-0.1974344,-0.07450369,0.006631549,-0.01160204,0.02964844
1.016594,-0.2081332,-0.08342916,0.0004548244,-0.000551038,0.0194393
1.014436,-0.2180776,-0.08862381,0.002661609,0.02163866,0.0007258713
1.006659,-0.2224705,-0.08479673,0.003379162,0.03377548,-0.0209812
1.000327,-0.2201896,-0.08126835,-0.00140177,0.03302089,-0.03815452
1.00268,-0.2157459,-0.08173894,-0.003633923,0.03817308,-0.0454178
1.007695,-0.2131215,-0.0767708,-0.01200991,0.05115834,-0.04906214
1.010597,-0.2087877,-0.07276378,-0.01899879,0.05231773,-0.05025839
1.013917,-0.2026579,-0.07326228,-0.01121477,0.04463876,-0.04669144
1.014978,-0.1992974,-0.07302056,0.003904741,0.04349355,-0.03443531
1.014574,-0.1967683,-0.06931349,0.01410744,0.0373418,-0.01252261
1.016904,-0.1957604,-0.06468446,0.01810039,0.03966032,-0.003263301
1.018631,-0.1968184,-0.06522119,0.01752881,0.05765493,-0.005948724
1.020445,-0.1979675,-0.06424731,0.0164761,0.06761947,-0.009144205
1.017184,-0.2010211,-0.06156763,0.01798237,0.07629294,-0.01701703
1.008327,-0.2011212,-0.06557863,0.01195249,0.07902556,-0.01773528
1.00961,-0.2018642,-0.06875377,0.00400741,0.08314269,-0.01807354
1.014612,-0.2076023,-0.06657091,0.003275359,0.1026732,-0.0268278
1.014601,-0.2067888,-0.06176077,0.004756328,0.1034019,-0.03208897
1.012645,-0.1996627,-0.0525761,0.01247971,0.09399417,-0.03441765
1.008193,-0.1891804,-0.04487416,0.01975936,0.0890318,-0.03188122
1.011773,-0.1802721,-0.04688137,0.01803942,0.07307762,-0.02755702
1.018738,-0.1844716,-0.05318337,0.0129825,0.06922979,-0.02523566
1.020662,-0.1907988,-0.05941554,0.007522423,0.07406776,-0.01860565
1.022662,-0.1920738,-0.06386169,0.003920399,0.06991313,-0.01318494
1.017454,-0.194937,-0.05226932,0.003874494,0.07277851,-0.01098378
1.011177,-0.1946411,-0.03610503,0.005302915,0.07634642,-0.007566446
1.013348,-0.1928651,-0.03881831,0.003619444,0.0700288,-0.003032343
1.017212,-0.1933627,-0.03954892,0.00459883,0.06691819,-0.003816401
1.020163,-0.1927163,-0.03389813,0.01017988,0.07297627,-0.01069797
1.017332,-0.1931234,-0.04138243,0.01096561,0.07885963,-0.0132328
1.012624,-0.19439,-0.04492211,0.009552938,0.07817258,-0.0208417
1.012065,-0.1987071,-0.03908928,0.006932577,0.07699634,-0.03700238
1.009263,-0.2069383,-0.03734881,0.006322969,0.07921466,-0.0477126
1.008541,-0.2080432,-0.03548282,0.007713515,0.07586626,-0.05315097
1.011293,-0.1998997,-0.02776983,0.00229969,0.05412501,-0.04893083
1.011152,-0.1850664,-0.01286208,-0.001159135,0.0206698,-0.03388749
1.013476,-0.1696534,-0.006009046,-0.001648892,0.002439889,-0.008023465
1.017945,-0.1665544,-0.01521731,-0.003114673,-0.005820407,0.02354008
1.019836,-0.16527,-0.02100467,-0.001307302,-0.03079502,0.03377832
1.020287,-0.162829,-0.02083695,-0.002343237,-0.05636095,0.03100569
1.018251,-0.1764685,-0.02273312,-0.007563601,-0.06550285,0.0338636
1.016217,-0.1912913,-0.0287702,-0.01350186,-0.06648661,0.03034055
1.013471,-0.1962103,-0.04047019,-0.01415996,-0.06022947,0.02398834
1.010839,-0.2010775,-0.0446984,-0.007202215,-0.05642181,0.01832406
1.01323,-0.2019437,-0.04034811,-0.002031405,-0.05628445,0.0111069
1.013051,-0.2026327,-0.04151343,0.0008857472,-0.05415292,0.007663882
1.01261,-0.2008696,-0.04352016,0.002852752,-0.05213371,0.001683801
1.015969,-0.1899509,-0.04257016,0.001662385,-0.04119953,-0.001178295
1.015218,-0.1829688,-0.0432089,-0.0006531103,-0.03523024,0.006832281
1.015041,-0.184616,-0.04183019,-0.002338985,-0.04569868,0.01163837
1.015713,-0.1887048,-0.03964076,-0.001555105,-0.05305111,0.0120386
1.014598,-0.187779,-0.04095781,-0.00144365,-0.05300186,0.01759183
1.014778,-0.1864603,-0.04533913,-0.002067727,-0.05107079,0.0262065
1.013465,-0.1907442,-0.05166779,-0.0001072326,-0.04976705,0.02856797
1.013658,-0.1938987,-0.05678583,0.0004237716,-0.04621395,0.02064883
1.014417,-0.1986912,-0.05893629,-0.001467275,-0.04035351,0.01460231
1.013414,-0.1985828,-0.0557431,-0.004947657,-0.03700344,0.01414533
1.014126,-0.194469,-0.05055827,-0.009027523,-0.02810043,0.01080758
1.013733,-0.1959271,-0.0511096,-0.01084478,-0.01815551,0.007993467
1.012795,-0.192244,-0.05192922,-0.0112194,-0.01905957,0.008043182
1.012846,-0.1922282,-0.05089158,-0.009000201,-0.0292879,0.007164727
1.013963,-0.1976969,-0.05170865,-0.003159895,-0.03739725,0.005154492
1.016141,-0.1969386,-0.05058876,0.004264586,-0.03029102,0.003143682
1.014865,-0.1985933,-0.04768704,0.01063377,-0.02003251,0.0007458627
1.012036,-0.1989816,-0.04500249,0.01421111,-0.01741654,-0.0008450833
1.011828,-0.1972665,-0.04512935,0.01571347,-0.01454312,0.002325131
1.016005,-0.1956191,-0.04756802,0.01382303,-0.01155445,0.006591724
1.021576,-0.1904769,-0.04895209,0.01178352,-0.006624644,0.006285719
1.019844,-0.1911456,-0.05221983,0.01287449,-0.0005201456,0.005316169
1.016259,-0.1919606,-0.05246133,0.01235498,-0.002751318,0.008624631
1.01526,-0.1873142,-0.04996107,0.01124082,-0.01047645,0.01279013
1.011279,-0.1853516,-0.0520616,0.01041317,-0.01443388,0.01703209
1.011577,-0.1860865,-0.05131699,0.00941372,-0.01343887,0.02287318
1.01407,-0.1881209,-0.04841333,0.01205183,-0.01225896,0.01771269
1.011899,-0.1880699,-0.04744835,0.01259657,-0.01511066,0.007969011
1.014063,-0.1885955,-0.04592498,0.009953199,-0.01860051,0.01005108
1.01568,-0.1939117,-0.04710693,0.009302519,-0.01902938,0.007317921
1.012937,-0.1968595,-0.04719214,0.002885226,-0.01883512,0.002125154
1.014114,-0.1966344,-0.04857251,-0.006899519,-0.01511578,0.00799355
1.015141,-0.197413,-0.0538724,-0.00861203,-0.005128793,0.008943023
1.014975,-0.1984672,-0.05362019,-0.007380797,0.003177953,0.004386929
1.014776,-0.1986411,-0.05066662,-0.007219899,0.0016421,0.002416032
1.013079,-0.1986497,-0.04783387,-0.004483678,-0.003499525,0.002508546
1.013206,-0.1988692,-0.04763983,-0.002202256,-0.001605238,0.003217572
1.013958,-0.1993168,-0.05103872,-0.004221259,0.003023545,-0.000684252
1.016401,-0.2004316,-0.04959586,-0.008628463,0.005264366,-0.003102759
1.019392,-0.2000938,-0.04983291,-0.01006418,-0.0003532723,-0.001740615
1.01802,-0.1996432,-0.051266,-0.00416871,-0.01109489,-0.001014858
1.017073,-0.1992642,-0.04800364,0.002853182,-0.009391173,0.0003041721
1.016659,-0.1941246,-0.04708192,0.001320356,-0.008242656,0.0009935077
1.013473,-0.1882067,-0.04691999,-0.001315897,-0.01785189,0.002440697
1.012353,-0.1876897,-0.04863772,0.0007469271,-0.02233618,0.004084908
1.012829,-0.1888299,-0.05116436,0.0002863833,-0.02494344,0.009212023
1.012346,-0.1871815,-0.05118887,0.0007811745,-0.02495967,0.01659281
1.013481,-0.1883053,-0.05172666,0.003234057,-0.02373767,0.01084843
1.014339,-0.1965098,-0.04912169,0.003269263,-0.02700553,0.0001381804
1.013704,-0.2057636,-0.04792398,0.003654209,-0.02500138,-0.0014126
1.01462,-0.208038,-0.04924352,0.002791385,-0.02359927,-0.001767243
1.017509,-0.2001579,-0.04965676,0.001625694,-0.02233083,-0.005837539
1.020107,-0.1943704,-0.05327615,-0.0007990341,-0.01424134,-0.009669766
1.017636,-0.197172,-0.0553152,-0.003917346,-0.009857329,-0.003349285
1.012345,-0.195344,-0.0559145,0.002119394,-0.01231755,0.007366628
1.011045,-0.1922557,-0.05736033,0.008153234,-0.02097514,0.007130205
1.011262,-0.1976148,-0.05686197,0.004867444,-0.02928049,0.007538538
1.011816,-0.2020127,-0.05598713,0.00366078,-0.02893003,0.01021361
1.01307,-0.1996491,-0.05514918,0.006124206,-0.02340857,0.005161325
1.012398,-0.1972522,-0.05491596,0.007227428,-0.01815649,0.003153361
1.011946,-0.1974459,-0.05216115,0.0089007,-0.01927061,0.003666806
1.010982,-0.1969029,-0.04861471,0.008958214,-0.02307885,0.002833472
1.009874,-0.1975598,-0.05039171,0.006152536,-0.02491998,0.002804406
1.014047,-0.1997545,-0.05333512,0.003867614,-0.02453594,0.0001567664
1.018305,-0.2018442,-0.05423755,0.0007226724,-0.01745041,-0.0003563334
1.01565,-0.2036504,-0.05266696,-0.001177256,-0.01151398,0.0001282369
1.0122,-0.201544,-0.05117516,-0.0006254718,-0.0126718,0.002524345
1.012875,-0.1995203,-0.05505213,-0.002661374,-0.01266023,0.006336363
1.014488,-0.1992406,-0.05945687,-0.004117127,-0.009308152,0.0007579171
1.016537,-0.1965575,-0.05758568,-0.004575207,-0.00836328,-0.004133506
1.017265,-0.1943264,-0.05154288,-0.004359578,-0.01007459,-0.003253322
1.015229,-0.1928224,-0.04524946,-0.002195999,-0.01016705,-0.003767067
1.014693,-0.1942895,-0.04375524,-0.002908908,-0.01070448,-0.004377186
1.013721,-0.1972291,-0.05035013,-0.002022572,-0.01087584,-0.005913689
1.011714,-0.1961134,-0.05444442,-0.002614394,-0.009407599,-0.003646397
1.012679,-0.1980111,-0.04949042,-0.006333141,-0.008733446,0.0003431882
1.013702,-0.2009351,-0.04568828,-0.001791445,-0.005422108,-0.001048255
1.013908,-0.1972285,-0.04770375,0.001846562,-0.002481665,-0.004183688
1.013917,-0.1944599,-0.0511944,0.0007663576,-0.001879007,-0.004845506
1.012967,-0.19618,-0.05335002,0.002222718,0.002266297,-0.001917433
1.013913,-0.1972066,-0.05696905,0.00206392,0.01168068,0.0005572897
1.017677,-0.1970531,-0.06118806,0.00188078,0.02655335,0.003286679
1.019668,-0.1974219,-0.05781651,0.0003242974,0.03264647,0.003430567
1.014311,-0.1970476,-0.05169922,-0.005168218,0.01643992,0.0003806405
1.008994,-0.1961238,-0.0494364,-0.01068547,-0.002789787,0.006292456
1.012837,-0.1959878,-0.04724719,-0.01501699,-0.007320747,0.01153594
1.015122,-0.1964848,-0.04674741,-0.01771315,-0.005935402,0.009352441
1.010432,-0.1976613,-0.04614585,-0.01972137,-0.008405397,0.009183158
1.008698,-0.1975811,-0.04475667,-0.01655245,-0.01868565,0.007425291
1.010201,-0.1987275,-0.04657407,-0.01056431,-0.0343744,0.006778265
1.010543,-0.2046059,-0.04628117,-0.01177037,-0.04393449,0.006102468
1.010178,-0.2084237,-0.04689259,-0.01243533,-0.04691701,-0.003323714
1.008691,-0.2050687,-0.05035413,-0.00927617,-0.05371554,-0.01034464
1.007964,-0.1981639,-0.05029919,-0.008940745,-0.0637868,-0.002506879
1.010116,-0.1942331,-0.05307924,-0.006977778,-0.07312038,0.009031243
1.013691,-0.1958832,-0.05769701,-0.005270952,-0.07959913,0.01010582
1.016457,-0.1989675,-0.05982273,-0.007306262,-0.07805685,0.00811717
1.016331,-0.201498,-0.06245501,-0.008448658,-0.07250809,0.006457865
1.014956,-0.2035745,-0.06255029,-0.009629111,-0.06634151,0.003132623
1.013528,-0.2027654,-0.06247806,-0.009922567,-0.06065199,0.004246208
1.010874,-0.2003045,-0.06275733,-0.008219925,-0.06169849,0.004786977
1.011244,-0.2001475,-0.06293741,-0.006557815,-0.06207492,0.002301794
1.0153,-0.2017534,-0.06755396,-0.00577695,-0.05931064,-0.00329354
1.017824,-0.2029141,-0.07208992,-0.009336006,-0.05487642,-0.01130519
1.018801,-0.2010613,-0.07415193,-0.01267046,-0.04168616,-0.009443463
1.019108,-0.1970281,-0.0752584,-0.01174513,-0.03091452,-0.004114587
1.017415,-0.1967325,-0.07398833,-0.01152602,-0.02701823,-0.005448305
1.01339,-0.1978307,-0.06866538,-0.01212785,-0.02463038,-0.00514114
1.011202,-0.1978212,-0.06277567,-0.0139319,-0.02638381,-0.004300822
1.012934,-0.1990564,-0.06342014,-0.01552964,-0.02669911,-0.00654455
1.012591,-0.1986822,-0.06418155,-0.01387397,-0.02807409,-0.006745288
1.011088,-0.1982939,-0.06131808,-0.01208713,-0.03185912,-0.00533593
1.011799,-0.199642,-0.06322944,-0.009682624,-0.03111933,-0.004904039
1.013507,-0.2019892,-0.06847584,-0.006138003,-0.03084788,-0.006019312
1.016235,-0.2049508,-0.06961387,-0.004271338,-0.0330664,-0.009651288
1.01572,-0.202695,-0.06844289,-0.002881422,-0.03184304,-0.0159043
1.014352,-0.1989871,-0.07496167,-0.001388498,-0.02070955,-0.02226405
1.015896,-0.1995305,-0.08271446,-0.001044891,-0.002215707,-0.02022125
1.015227,-0.1975056,-0.07999454,-0.0008171145,0.008453359,-0.01370176
1.014199,-0.1935338,-0.07753375,0.0002515541,0.005672937,-0.01373297
1.01218,-0.1933697,-0.07864992,-0.0005335955,-0.001911134,-0.01272162
1.009192,-0.1943672,-0.07727137,-0.006379995,-0.007641471,-0.01308501
1.013838,-0.1952498,-0.07411993,-0.01291985,-0.007106992,-0.017997
1.019008,-0.1967453,-0.07057291,-0.01379168,0.003479035,-0.01550139
1.016364,-0.1975939,-0.07076137,-0.01276187,0.0142169,-0.0143431
1.014613,-0.1984815,-0.06965001,-0.01260026,0.01431697,-0.01637898
1.014977,-0.1973786,-0.06873323,-0.009605512,0.009575862,-0.01379384
1.013288,-0.1947149,-0.07431782,-0.008338644,0.00898988,-0.013444
1.013662,-0.1954066,-0.07541527,-0.009283621,0.01622276,-0.01241125
1.014328,-0.1943822,-0.07224465,-0.004139706,0.02214903,-0.0115136
1.012493,-0.1897267,-0.06841557,0.001925609,0.0166775,-0.01146364
1.012536,-0.1879698,-0.06499509,0.002736823,0.01099016,-0.008314095
1.013508,-0.1873239,-0.06913039,0.001950945,0.01311151,-0.009269458
1.013808,-0.1876569,-0.07416857,0.0006845089,0.01461092,-0.00899656
1.01315,-0.1906622,-0.07713412,-0.0009111747,0.01555192,-0.006580222
1.010772,-0.1922515,-0.07663638,-0.002940049,0.01644108,-0.007949827
1.009974,-0.1920787,-0.0726647,-0.004090512,0.01029883,-0.004991459
1.009894,-0.1922157,-0.07289013,-0.002637064,0.005676439,0.0005231231
1.01046,-0.192991,-0.07043547,-0.001039718,0.007148146,0.003703092
1.013007,-0.1913041,-0.06852307,-0.001422945,0.006359545,0.003289788
1.014494,-0.1875739,-0.07143026,-0.002135867,0.006533481,0.000729118
1.015637,-0.1879092,-0.07223028,-0.00101149,0.006722059,0.002387182
1.015639,-0.1903707,-0.07579926,-0.0002615652,0.004986681,0.003616307
1.014731,-0.1933102,-0.07532949,0.0006568096,0.005498711,0.003681112
1.015582,-0.1967215,-0.07156042,0.002695492,0.005231472,0.00299069
1.015502,-0.194273,-0.0738209,0.002703208,0.004628575,0.001864743
1.015896,-0.1897188,-0.07014873,0.001122069,0.0034929,0.008588618
1.017069,-0.1899952,-0.06512565,-0.001200056,0.001047718,0.01251343
1.01569,-0.1906551,-0.06709784,-0.0001007683,-8.76113e-05,0.01015025
1.014638,-0.190008,-0.06775383,0.003831565,-0.001638703,0.01271199
1.014676,-0.1910954,-0.06847726,0.003996931,-0.002528412,0.01545786
1.014586,-0.194084,-0.07008701,0.003084399,-0.001779967,0.01623291
1.01537,-0.197843,-0.07122825,0.0003708335,0.0001200414,0.01430244
1.015589,-0.1989806,-0.07218615,-0.003447675,0.002881774,0.009497278
1.014668,-0.1978803,-0.07233225,-0.003445197,0.002566485,0.006474435
