accx,accy,accz,gyrox,gyroy,gyroz
0.606439,0.4700954,0.6589199,-0.03369414,-0.1830122,0.1751118
0.6053514,0.4692245,0.6626776,-0.02677861,-0.1827021,0.1725362
0.6099985,0.4676401,0.6628417,-0.02091276,-0.1800412,0.1716885
0.6161136,0.4641526,0.6544271,-0.02707744,-0.1787967,0.1658194
0.6172343,0.4602578,0.6503399,-0.03286426,-0.175218,0.1569037
0.6138241,0.4598065,0.6522695,-0.02751044,-0.1709906,0.1583838
0.611246,0.4612097,0.6478361,-0.01942855,-0.1781364,0.1662911
0.6136781,0.4626559,0.6475192,-0.01387799,-0.1927116,0.1698343
0.6183817,0.4664302,0.647337,-0.01474809,-0.1975196,0.1640047
0.6212365,0.4693558,0.6416272,-0.01919717,-0.1828828,0.155406
0.6175807,0.4676707,0.6451423,-0.01671549,-0.1660447,0.1577797
0.6103446,0.4657555,0.646756,-0.01635419,-0.1649384,0.1592969
0.6107819,0.4651381,0.6439415,-0.01964512,-0.1647192,0.1561156
0.6147695,0.4655043,0.6463854,-0.01655184,-0.159461,0.1603563
0.6155025,0.4682551,0.6437967,-0.01734118,-0.1602931,0.1589273
0.6160836,0.4695023,0.6448613,-0.0208153,-0.157715,0.151655
0.6166665,0.4660263,0.6521855,-0.02165094,-0.1481629,0.1473651
0.6172712,0.4625728,0.6542977,-0.02354624,-0.1423173,0.1442559
0.6124975,0.4646981,0.6523554,-0.01897216,-0.1411214,0.1459762
0.6061793,0.4674156,0.6462712,-0.01353295,-0.139766,0.1437095
0.612013,0.4663704,0.6460596,-0.01245102,-0.1338668,0.1397352
0.6180229,0.4665911,0.6479264,-0.01220355,-0.1316682,0.1408809
0.6143714,0.4670105,0.6446206,-0.01687854,-0.1319081,0.1379401
0.6121772,0.4662642,0.6483674,-0.02023643,-0.1260407,0.134811
0.612623,0.4669251,0.6511453,-0.01934113,-0.127253,0.1301443
0.6133583,0.4666483,0.6493666,-0.01997119,-0.1304677,0.125665
0.613971,0.4664787,0.648795,-0.02223057,-0.1268326,0.1287152
0.6116731,0.4662288,0.6476516,-0.02264135,-0.1258101,0.1273785
0.6084785,0.4628631,0.6493409,-0.02018782,-0.1253651,0.1269998
0.6068203,0.46083,0.6481119,-0.01855114,-0.1254662,0.1297017
0.6067941,0.4644894,0.6446968,-0.01435233,-0.1239276,0.1249492
0.6070688,0.4693256,0.6418531,-0.01030095,-0.1237111,0.1274432
0.6065195,0.4688855,0.6392002,-0.01204905,-0.1275098,0.1320338
0.6051883,0.4689968,0.6451961,-0.01160623,-0.124611,0.1273716
0.6039766,0.4729801,0.6516827,-0.01043715,-0.1237076,0.1270479
0.6058918,0.4719073,0.6521137,-0.0139896,-0.1248393,0.124406
0.6088463,0.4679397,0.651744,-0.01727794,-0.123918,0.1191744
0.6083852,0.4664922,0.652184,-0.01643211,-0.1291495,0.1222094
0.6070849,0.4677871,0.6538948,-0.0140635,-0.1304836,0.1218478
0.6070702,0.4707582,0.6525499,-0.01453332,-0.1305033,0.115024
0.6080491,0.4691407,0.653116,-0.01710245,-0.1317643,0.1098419
0.6105165,0.4667855,0.655467,-0.01996607,-0.1223888,0.1107147
0.6117816,0.4670083,0.6527192,-0.01843004,-0.1137338,0.1121461
0.6108087,0.4662219,0.6513427,-0.01180676,-0.1174602,0.1066307
0.6095111,0.4678317,0.6513945,-0.008437582,-0.1236349,0.1040031
0.6074792,0.4687889,0.6536095,-0.009521926,-0.1226139,0.106075
0.6067181,0.4684474,0.6559576,-0.01163098,-0.1200533,0.1088441
0.607706,0.470068,0.6537534,-0.01176158,-0.1187617,0.1136116
0.6056522,0.4690605,0.655207,-0.01081449,-0.1163585,0.113566
0.604749,0.4669893,0.6556297,-0.01138489,-0.114532,0.1114843
0.6091654,0.4647185,0.6550351,-0.01117598,-0.110583,0.1120176
0.61045,0.4628371,0.6590605,-0.01447633,-0.1106794,0.1094365
0.6081955,0.4649383,0.6586093,-0.02163238,-0.1145578,0.1028625
0.6071769,0.4676987,0.6572695,-0.02532005,-0.1139865,0.0970832
0.6056079,0.4701079,0.6561675,-0.02334422,-0.1151447,0.09901853
0.6053275,0.4707456,0.6525817,-0.0167406,-0.1176853,0.1060959
0.6057398,0.4713306,0.6517729,-0.01470488,-0.1217305,0.1103521
0.605361,0.4755155,0.6492769,-0.02028945,-0.1268017,0.111939
0.6055757,0.474825,0.6484092,-0.02401163,-0.1268284,0.1088653
0.6045385,0.4709529,0.6524664,-0.02417788,-0.1286346,0.1033775
0.6038741,0.4706726,0.6521663,-0.02520086,-0.1314041,0.1032094
0.6047573,0.4686919,0.6511831,-0.02742394,-0.1309946,0.104481
0.6068223,0.4670732,0.6563111,-0.02856729,-0.1316433,0.103031
0.6094276,0.4665877,0.6594401,-0.02910502,-0.1305806,0.103064
0.6094199,0.4641838,0.6546937,-0.02844019,-0.1251638,0.1044375
0.6094335,0.4637391,0.6483042,-0.02703172,-0.1195833,0.1022033
0.6101931,0.4638393,0.6468636,-0.02603587,-0.1178034,0.09871433
0.6094813,0.4637757,0.6518841,-0.02339382,-0.1167576,0.09765039
0.6098379,0.464217,0.6570093,-0.02378317,-0.1156388,0.09740322
0.6106569,0.4635446,0.6560635,-0.02459349,-0.1176614,0.0989067
0.6101146,0.4643928,0.6554254,-0.02338777,-0.1187692,0.09731511
0.6087392,0.4658006,0.6566766,-0.02745959,-0.1168101,0.09292435
0.6077905,0.4668976,0.6544793,-0.02930942,-0.1150589,0.09249765
0.6084331,0.4672183,0.6532759,-0.02722782,-0.1142638,0.09083545
0.6085714,0.4655083,0.6547009,-0.02453403,-0.1127802,0.08996324
0.6080388,0.4641944,0.6539746,-0.01932835,-0.111234,0.09032928
0.6084838,0.4621194,0.6524276,-0.01982441,-0.1097435,0.08763789
0.6083752,0.4625793,0.6500059,-0.02131591,-0.1067684,0.08509672
0.6081679,0.4650421,0.6462252,-0.01829391,-0.1054235,0.08081256
0.608511,0.4626117,0.6450473,-0.01487313,-0.1040256,0.08100678
0.6087671,0.4617933,0.6444813,-0.01015716,-0.09906612,0.08313492
0.6110063,0.4629564,0.6438657,-0.01123633,-0.09371978,0.07662249
0.6134104,0.4612257,0.6449251,-0.01546535,-0.08565434,0.06748326
0.6125207,0.461122,0.6443834,-0.01335514,-0.07512754,0.05926751
0.6103631,0.462376,0.6455758,-0.008283685,-0.07290825,0.06040949
0.6075396,0.4645134,0.6519966,-0.003073236,-0.08200275,0.06536557
0.6051637,0.4661008,0.6567395,-0.003729368,-0.09277047,0.0596781
0.6086332,0.4659406,0.6518249,-0.009305074,-0.09678007,0.05993798
0.6131592,0.4696074,0.6420258,-0.01279726,-0.09178534,0.06724896
0.61104,0.4738006,0.6403676,-0.01657768,-0.08370796,0.06924124
0.6093902,0.4717136,0.6438213,-0.01243588,-0.07894087,0.06887553
0.608513,0.4667837,0.6458208,-0.004471966,-0.07365633,0.06577297
0.6042707,0.4644105,0.6483315,-0.008264803,-0.07192165,0.06595104
0.6064939,0.4651196,0.6482929,-0.01113188,-0.07439272,0.06576864
0.6121752,0.4666519,0.6476737,-0.01379274,-0.07190042,0.06092706
0.6125956,0.4669043,0.6464469,-0.0208521,-0.0709621,0.06073476
0.611911,0.4664383,0.6422811,-0.0141066,-0.06875552,0.06083503
0.6106347,0.4668121,0.6426573,-0.004325275,-0.0624188,0.06472373
0.6109492,0.4666673,0.6447786,-0.003762732,-0.0618886,0.07096223
0.6125518,0.4665158,0.6440278,-0.003630546,-0.06070772,0.06592104
0.611319,0.4668933,0.6437393,-0.006037407,-0.05910062,0.05835573
0.6108742,0.4661205,0.6427796,-0.009122324,-0.06008171,0.05401523
0.6102152,0.4649431,0.6429457,-0.01153934,-0.06050386,0.05275317
0.6094395,0.4637859,0.6451208,-0.01469121,-0.06250342,0.05353997
0.6108672,0.4658094,0.6479993,-0.01335152,-0.06156268,0.05078735
0.6110867,0.4705109,0.6512124,-0.01109282,-0.06087035,0.04941891
0.6101542,0.4702787,0.650408,-0.01260223,-0.05909544,0.04434708
0.6084613,0.4644185,0.649027,-0.01897452,-0.05396576,0.03560913
0.6078461,0.4594665,0.6506217,-0.02711262,-0.05690609,0.03332872
0.6085299,0.4623556,0.6500094,-0.02536622,-0.06044457,0.02871048
0.6072662,0.4670785,0.6499167,-0.01581376,-0.0594814,0.0279201
0.6059486,0.4657733,0.6526519,-0.0097165,-0.06024265,0.04142976
0.603407,0.4664365,0.6549916,-0.009995806,-0.06166723,0.05556041
0.6011907,0.4676207,0.6571996,-0.02313983,-0.06754677,0.06213322
0.6058772,0.4648934,0.6570766,-0.0426279,-0.07422223,0.05613424
0.6125131,0.4625241,0.655277,-0.04602015,-0.07652326,0.04656968
0.613874,0.4584472,0.6532744,-0.03258719,-0.07384986,0.04675929
0.6146758,0.4577042,0.6487919,-0.01314277,-0.06353276,0.04228807
0.6180081,0.4596683,0.6450288,0.005906206,-0.05249901,0.02852478
0.6179323,0.4579526,0.6445388,0.01381245,-0.04216237,0.01591394
0.614172,0.4616823,0.6483794,0.01434025,-0.03491417,0.01673157
0.6085237,0.4676727,0.6542837,0.01841153,-0.04551799,0.02593163
0.6032395,0.4687081,0.6548915,0.01148725,-0.0651345,0.02310556
0.6036294,0.4693401,0.6527408,-0.01565197,-0.06787228,0.02307877
0.6038935,0.4691615,0.6531201,-0.03911149,-0.05492814,0.02064514
0.6013118,0.4694807,0.6554683,-0.04617391,-0.04992591,0.007299426
0.5993333,0.4687638,0.6578601,-0.04602756,-0.06371605,0.01152453
0.5972187,0.4665234,0.657198,-0.04080951,-0.07895416,0.01341973
0.6020859,0.4647356,0.6559383,-0.03457295,-0.07554441,0.005605371
0.6133246,0.4599553,0.6550281,-0.03856408,-0.06429634,0.002369406
0.6213178,0.4574636,0.6509525,-0.04806993,-0.05485022,-0.01218612
0.6236555,0.4572538,0.6485135,-0.0470351,-0.0406342,-0.01581135
0.6159793,0.4564034,0.6495004,-0.0369402,-0.0334756,-0.00105753
0.6055935,0.4605572,0.6486065,-0.02873312,-0.03082282,0.01121965
0.6046872,0.4666295,0.6480787,-0.03268744,-0.02440817,0.02128828
0.6037758,0.470971,0.6489081,-0.04995679,-0.02696052,0.02062697
0.6025727,0.4704411,0.6477612,-0.06849807,-0.02648566,0.01313348
0.6073471,0.4678007,0.6483862,-0.09148151,-0.0205845,0.00308662
0.6058313,0.46953,0.6529953,-0.1156359,-0.01963439,-0.01444162
0.6030181,0.4660563,0.6576699,-0.1251954,-0.01160019,-0.02354468
0.6051993,0.4608795,0.6603567,-0.1154997,-0.001925218,-0.01508305
0.6022667,0.4627729,0.661806,-0.09587129,0.007217886,-0.005700856
0.6003002,0.4624322,0.6635741,-0.08984514,0.01633745,-0.01016038
0.5993473,0.4601355,0.6658918,-0.08363715,0.01063934,-0.01012528
0.5973265,0.4584495,0.6670563,-0.06772408,-0.002803235,0.001445664
0.5996236,0.4567024,0.6649687,-0.06685948,-0.01258319,0.003951184
0.5996173,0.4578385,0.6628132,-0.07058748,-0.01325187,-0.0008516068
0.6006117,0.4603904,0.6637461,-0.07612768,-0.008188639,-0.007021797
0.6025672,0.4633415,0.6615717,-0.08509767,-0.003148566,-0.00785369
0.6006287,0.4623014,0.6556165,-0.08322851,0.01021743,-0.0007670317
0.6015619,0.4596762,0.6529019,-0.06920988,0.01810576,0.006532777
0.6018535,0.460759,0.654703,-0.04418207,0.01757906,0.01642701
0.6012395,0.4567862,0.6577248,-0.03535659,0.022959,0.0136461
0.6008627,0.4508593,0.6575749,-0.04167425,0.02557591,0.005482945
0.597592,0.4498847,0.6570951,-0.03788561,0.0366085,0.011151
0.598137,0.4456802,0.6609132,-0.03898509,0.05318912,0.01308042
0.598436,0.4417685,0.6638795,-0.04304137,0.05006761,0.01770921
0.5925141,0.4465301,0.6665445,-0.04148823,0.02758721,0.01988276
0.5878014,0.4507334,0.6724651,-0.03130906,-0.006490889,0.01044652
0.5882316,0.4480848,0.6736469,-0.01242682,-0.01765925,0.0114323
0.5892006,0.4469529,0.6751574,-0.007333476,-0.009544625,0.007767993
0.58596,0.4478288,0.6856114,-0.00340215,-0.01947396,0.002143286
0.5835657,0.446696,0.6907972,0.01267014,-0.01930213,0.008518026
0.5849423,0.448382,0.6912253,0.02050356,-0.01591846,0.0138095
0.5849735,0.4530915,0.68703,0.02274766,-0.03064452,0.02546804
0.5855267,0.4583057,0.6678083,0.01946004,-0.0296445,0.0260384
0.5903747,0.4618085,0.6591308,0.004103763,-0.01545165,0.01873691
0.5955901,0.4623446,0.6665669,-0.004892744,-0.0005301803,0.03017995
0.5942537,0.4631742,0.6702762,-0.00321289,0.005612685,0.03349939
0.5879502,0.4617871,0.6744838,-0.003392298,-0.002400967,0.03123766
0.5850844,0.4587456,0.6743762,-0.004653736,-0.004501967,0.03463427
0.5866829,0.4556599,0.6725424,-0.006558816,-0.00903456,0.02815
0.5883734,0.4515754,0.6765555,-0.01067892,-0.01383535,0.02086972
0.5871557,0.4500092,0.6803895,-0.01080352,-0.01295168,0.0137456
0.5851067,0.4468384,0.6860335,-0.00453635,-0.02148912,0.0120995
0.5860179,0.4464741,0.6867867,0.0009721091,-0.02749108,0.01473802
0.5909365,0.4501436,0.6828069,0.001577181,-0.0319455,0.00725853
0.59829,0.4453972,0.6773123,0.003389258,-0.03388906,0.003238398
0.5979171,0.4435128,0.6667326,0.006361234,-0.02707482,0.000879024
0.5906312,0.4502896,0.6646989,0.003599961,-0.03022963,-0.002104167
0.5878465,0.4574514,0.6668219,0.0004515296,-0.03168199,0.001109653
0.5868251,0.4647739,0.6678733,0.003413757,-0.0284311,-0.001843298
0.5873446,0.4646736,0.6766959,0.004387271,-0.0290437,-0.001730907
0.5883172,0.4609863,0.6775887,-0.0008098523,-0.02108617,0.003866972
0.5866582,0.4582705,0.6766462,-0.003792242,-0.01890668,0.003533541
0.5878638,0.4524568,0.684537,-0.001489882,-0.02222569,0.006729095
0.5877397,0.450021,0.6817051,0.002714969,-0.02353069,0.009636349
0.5868643,0.4467673,0.678417,0.005268916,-0.03322331,0.006317212
0.5872858,0.4419827,0.6818588,0.007046648,-0.03707179,-0.001261154
0.5822611,0.4429193,0.683987,0.01589862,-0.03800209,-0.008962487
0.5774243,0.4430425,0.6904004,0.03048927,-0.05104511,0.001040859
0.5782669,0.4471317,0.6847373,0.04026997,-0.06424382,0.02339021
0.5858092,0.4587391,0.6708683,0.04069811,-0.06220518,0.03471544
0.5968787,0.4623638,0.6653445,0.02963604,-0.04921418,0.0294031
0.6003857,0.4596179,0.6587263,0.01083561,-0.04534867,0.01937504
0.5954257,0.4613558,0.6600897,0.003586662,-0.04993844,0.01760461
0.5908561,0.4626826,0.6648699,0.01236925,-0.05689708,0.01852002
0.5917392,0.4609147,0.6629831,0.01456503,-0.06338915,0.01741173
0.5931798,0.456195,0.6683385,0.006162108,-0.05937914,0.01067548
0.5936911,0.4486708,0.6746182,0.001471915,-0.05150481,-0.003066416
0.595591,0.4458458,0.6793346,0.001417847,-0.03554468,-0.008120265
0.5970635,0.4437129,0.6822141,0.001034096,-0.01551024,-0.00927858
0.6032128,0.4383954,0.6773436,0.0005602062,-0.01393074,-0.017538
0.6097046,0.4416599,0.6769812,0.003157915,-0.008072587,-0.02859191
0.6080982,0.4493237,0.6738057,0.006495796,0.01508784,-0.03681892
0.6043551,0.4524745,0.6640223,0.01141244,0.02755928,-0.02609345
0.5999092,0.4559132,0.6627262,0.01981332,0.03522522,-0.005148108
0.5962839,0.4595175,0.6626703,0.02034594,0.04615772,0.004824446
0.5974153,0.4631991,0.6619936,0.01445008,0.04294105,0.0087842
0.5994691,0.462162,0.6641447,0.01028467,0.04094166,0.007631428
0.6000918,0.4573489,0.6644356,0.0004334063,0.05127752,0.006311416
0.5989456,0.4602043,0.6690017,-0.01022711,0.05614115,0.00984221
0.5961481,0.4604248,0.6779816,-0.01156144,0.05772972,0.01074947
0.5935935,0.4562288,0.683707,-0.01166128,0.05594667,0.01093238
0.5903798,0.4567596,0.6828343,-0.01616944,0.04895541,0.00912011
0.5858882,0.4555693,0.6815815,-0.01851388,0.04505349,0.006983099
0.5842478,0.4560876,0.6853249,-0.01591474,0.04242984,0.00731817
0.5850853,0.4562945,0.6852478,-0.01397081,0.04303832,0.003922061
0.5845618,0.4540739,0.684198,-0.01453611,0.04047605,0.002107595
0.584629,0.4550238,0.6872503,-0.01559215,0.03306364,0.001059848
0.5849714,0.4509796,0.6869961,-0.01774841,0.03158089,-0.003742833
0.5842963,0.4475365,0.6840327,-0.01741244,0.02586587,-0.006408806
0.583779,0.4491257,0.6815609,-0.01141783,0.01546966,-0.006565819
0.5821904,0.4483223,0.6848084,-0.00261047,0.01057898,-0.005023314
0.5816114,0.4487178,0.6889713,0.005387778,0.007183386,-0.00436976
0.5831002,0.4489002,0.6821702,0.007156009,0.005034225,-0.002551783
0.5835941,0.4491998,0.6755878,0.007970271,0.004309024,0.00302201
0.5838668,0.4506616,0.6759456,0.01381164,0.005486792,0.006635414
0.5862821,0.4497819,0.6755987,0.01274127,0.009404046,0.007405714
0.5901295,0.4499374,0.6748652,0.008851105,0.0122005,0.002039604
0.5904992,0.4501718,0.6752796,0.01134671,0.01278445,-0.003335756
0.586008,0.4498086,0.6778807,0.008930555,0.01072163,-0.0001680643
0.5827057,0.4501726,0.6800575,0.002306276,0.007429692,0.003067596
0.5829549,0.4505839,0.6797369,-0.003199388,0.003601482,0.003685429
0.5826657,0.4536381,0.68153,-0.002843424,-0.0005973195,-0.0005353847
0.577929,0.4566589,0.6842972,0.00571156,-0.005971492,-0.006770214
0.5734855,0.4555457,0.6842682,0.008036519,-0.0127355,-0.006912614
0.5773061,0.45252,0.6852432,0.007270034,-0.01105153,-0.008250661
0.5839244,0.4496691,0.6893951,0.009038062,-0.005047143,-0.009947055
0.5859557,0.446924,0.6916031,0.008076182,-0.001134303,-0.00725804
0.5865899,0.4465682,0.693002,0.01022884,0.007364182,-0.004213161
0.5871615,0.4480751,0.693898,0.0108738,0.007046138,-0.0003592231
0.5851276,0.448056,0.6902159,0.009625066,-0.000201422,-0.0002712361
0.58266,0.4495522,0.6885561,0.009704569,0.001804117,-0.002950757
0.5847173,0.4506634,0.6883451,0.006308439,0.002375038,-0.0004874069
0.5875208,0.4485856,0.6866019,0.007148082,0.002754601,0.0002835532
0.5852994,0.4487772,0.6879031,0.009431021,0.004702872,-0.0001844458
0.5828975,0.4505219,0.6872674,0.01046256,0.0008785423,0.004435809
0.5818324,0.451612,0.6857826,0.01476895,-0.001855486,0.006046136
0.5811932,0.4509126,0.6870495,0.01390295,-0.0056226,0.006607137
0.583122,0.4491114,0.6873025,0.01327,-0.005475984,0.009346253
0.5846074,0.4502014,0.6864322,0.01644626,0.003984121,0.008252206
0.5864164,0.4503325,0.6850381,0.01500443,0.008584783,0.007874736
0.5870759,0.4495011,0.6841062,0.01444789,0.005283715,0.00797238
0.5852608,0.4505502,0.6786978,0.01532249,0.0008837594,0.004488375
0.5873174,0.450776,0.6749127,0.01329602,0.003256058,0.001898465
0.5869735,0.4510118,0.6819341,0.01117809,0.008949355,0.001986827
0.5805518,0.4486974,0.6841504,0.009754189,0.007423229,0.002706143
0.57633,0.4441722,0.6862682,0.01203119,-0.001053235,0.003018478
0.5770691,0.4441819,0.696487,0.01782661,-0.013578,0.007988205
0.5808471,0.4466651,0.6946474,0.02119073,-0.01630779,0.01496656
0.5835617,0.4473159,0.6909581,0.02098462,-0.01291048,0.01407785
0.5876009,0.4455608,0.6960717,0.01875139,-0.01636351,0.01214109
0.5911062,0.4434089,0.691338,0.01690096,-0.01091804,0.01279479
0.5906781,0.4436817,0.6849329,0.01460193,0.001681284,0.008604123
0.5906088,0.4448624,0.6847691,0.0113537,0.009640791,0.004413088
0.5863324,0.4477965,0.6824585,0.01227043,0.009520511,0.00477696
0.5844862,0.4516723,0.6841656,0.01368864,0.002982412,0.00447447
0.5876279,0.4509945,0.6850896,0.01319371,0.003716142,0.003089598
0.5853701,0.4492148,0.6803223,0.01463933,0.001094459,0.002064916
0.5854187,0.4479006,0.6791714,0.01469489,-0.00277711,-0.001228281
0.5840484,0.4453217,0.6823455,0.01726591,0.0008629476,-0.002081026
0.5792492,0.4491593,0.6854304,0.02241302,-0.006673122,0.006090834
0.58088,0.4546704,0.680538,0.02061773,-0.01557258,0.01776714
0.5820819,0.4535321,0.6741312,0.0171329,-0.02321458,0.02534807
0.5836339,0.4533259,0.6766712,0.01587978,-0.03176417,0.02759859
0.5861007,0.4522306,0.6772682,0.01302316,-0.02604777,0.02665847
0.5865377,0.4485924,0.6764519,0.01109054,-0.02035135,0.02102593
0.5899442,0.4495016,0.6785845,0.01115404,-0.01735009,0.01265195
0.5920757,0.4481242,0.6780822,0.01191577,-0.01684352,0.01079619
0.5919861,0.4415645,0.6790656,0.0141231,-0.02199842,0.007349739
0.5934385,0.4385207,0.6807222,0.01686077,-0.01768828,-0.001257289
0.5945991,0.4385713,0.6796332,0.01817787,-0.01555458,1.651535e-05
0.5929633,0.438715,0.6783823,0.01931189,-0.01748811,0.001242073
0.5914871,0.4431796,0.6740939,0.01819789,-0.01217813,-0.007928081
0.5961977,0.4495175,0.6688085,0.01129583,0.0004326344,-0.01546818
0.5994064,0.4480485,0.671152,0.002985434,0.02667163,-0.01936177
0.5932649,0.4453951,0.6771584,0.0004548389,0.03870919,-0.02262531
0.587854,0.4486514,0.6799811,0.006260014,0.02143353,-0.02488605
0.5905398,0.4493467,0.6808522,0.009330987,0.01330578,-0.01927909
0.5933231,0.4506781,0.676916,0.002876975,0.02420695,-0.009486584
0.5919023,0.4537539,0.6729773,-3.007744e-05,0.03455989,-0.01292014
0.5885812,0.4515289,0.6745619,0.006197772,0.03718739,-0.01496076
0.5802851,0.4491786,0.6737325,0.01531391,0.02619334,-0.00621513
0.5777641,0.4466744,0.6729143,0.02012644,0.01051721,-0.00201238
0.5927323,0.4451555,0.6747949,0.01529568,0.01752701,-0.002818593
0.6045776,0.4441601,0.6766971,-2.983923e-05,0.04619965,-0.02407227
0.5968059,0.4383448,0.6821363,-0.01668071,0.06257293,-0.05271854
0.5858075,0.4393132,0.6849792,-0.01420937,0.03873513,-0.04376867
0.5845918,0.44194,0.6828583,-0.001212936,-0.002788001,-0.02355108
0.5847064,0.4365242,0.6833769,0.001276242,-0.00844248,-0.02422886
0.5842434,0.4345059,0.6857362,0.00449355,0.002961195,-0.03488813
0.5854969,0.434097,0.6873503,0.01086895,-0.006206999,-0.04900688
0.5841891,0.438798,0.6868505,0.01769796,-0.01875442,-0.04274297
0.5846723,0.4499043,0.6820131,0.02803024,-0.02725706,-0.02763823
0.585303,0.451962,0.6779243,0.02382017,-0.009165104,-0.03456951
0.5827041,0.4510433,0.6819366,0.007247138,0.02429991,-0.03974653
0.5790319,0.4533818,0.6879929,4.915522e-05,0.01943432,-0.04060126
0.5729762,0.4537698,0.6879647,0.007192391,0.009135561,-0.0323456
0.5751623,0.4560099,0.686558,0.0168673,0.01586368,-0.003488
0.5833064,0.4594589,0.685066,0.01176193,0.0193673,0.00905542
0.5853357,0.4589536,0.6814977,0.007143441,0.02961277,0.01199295
0.5856916,0.4574998,0.6778527,0.01139303,0.02992475,0.01714935
0.5849849,0.4596368,0.6721511,0.002954829,0.02726997,0.008639787
0.5860822,0.4594559,0.6700126,-0.009516442,0.04631415,0.003134127
0.5859402,0.4533855,0.6800346,-0.01544279,0.05566702,-0.002180841
0.5786971,0.4455566,0.6946617,-0.01302419,0.03828496,-0.007003082
0.5749832,0.4405405,0.7019833,-0.002109291,0.01842296,-0.004914462
0.5759555,0.4432921,0.6994964,0.00253899,0.01168098,-0.008173245
0.5770205,0.4453017,0.69836,0.009603704,0.003278247,-0.008999066
0.5765221,0.4437514,0.7026625,0.01830714,-0.0006571718,-0.007569351
0.5754338,0.4468614,0.6987681,0.02076701,0.01737513,-0.000705925
0.5750397,0.44894,0.6930595,0.02582054,0.02276466,0.0126703
0.5681884,0.4521456,0.6949567,0.019072,0.01318695,0.01359141
0.5641611,0.4573665,0.6942085,0.00986534,0.01100842,0.01023289
0.5722686,0.4537585,0.692664,0.01187641,0.00615476,0.007214453
0.5802098,0.446535,0.6907215,0.009498051,0.007676526,-0.0006889234
0.5800094,0.443489,0.6878808,0.01380331,0.003377742,0.002965239
0.5759701,0.4456465,0.6918186,0.02664313,-0.01781647,0.02027934
0.5754824,0.4487925,0.6947653,0.03408714,-0.03832528,0.03363596
0.5766256,0.4461107,0.694481,0.03847059,-0.05471837,0.03159921
0.5803718,0.4420575,0.6940818,0.03750063,-0.05369353,0.01803444
0.5879911,0.439723,0.6854707,0.0256522,-0.04425239,0.002331106
0.5910426,0.4393418,0.6758834,0.0104836,-0.03910564,-0.0135102
0.5915897,0.4412207,0.6797231,0.01306132,-0.03391735,-0.01760314
0.5892297,0.4412314,0.6844498,0.02467325,-0.03625677,-0.007260593
0.5849867,0.4460916,0.6771799,0.02518223,-0.03220962,-0.004395315
0.5861232,0.4571212,0.6751146,0.02478763,-0.02318034,-0.005771721
0.5861362,0.4623188,0.6812911,0.01919234,-0.01720608,-0.001144316
0.5839296,0.4627606,0.6821429,0.01124753,-0.007304794,0.004094279
0.5832461,0.4616721,0.6805205,0.0136863,-0.005083604,0.01361499
0.5842112,0.4594091,0.6780664,0.007661044,-0.002791148,0.01734688
0.5879729,0.4593467,0.6778434,-0.003505524,0.003075643,0.009845682
0.5915373,0.4571414,0.6788309,-0.003752206,0.00697513,0.00371758
0.5936332,0.4517603,0.6777541,-0.005316214,0.0190739,-0.0001428584
0.5913805,0.4472171,0.6808535,-0.01494238,0.02548402,-0.001356996
0.5870235,0.4423562,0.6812283,-0.02170904,0.0231122,0.0003959807
0.5881812,0.4367556,0.67962,-0.01386309,0.01983712,0.001179925
0.5922324,0.4357948,0.6813385,-0.001101527,0.01167358,-0.005104663
0.5937668,0.4396772,0.6805241,0.002149022,0.01605565,-0.01793404
0.5862787,0.4415382,0.6838778,0.003829859,0.0244791,-0.02306255
0.5766354,0.4458098,0.692342,0.008736573,0.01791398,-0.01733358
0.5800195,0.4496739,0.6966911,0.01102921,0.01665261,-0.009974483
0.582953,0.4460572,0.6904197,0.01122062,0.01573238,-0.003726007
0.579301,0.4463291,0.6812392,0.01169611,0.005416156,0.004030059
0.583151,0.4457365,0.6839214,0.01212516,-0.001545755,0.005834812
0.5846474,0.4410437,0.6864493,0.0130728,-0.008818252,0.001116543
0.5803305,0.4433658,0.6867342,0.01317829,-0.01161238,0.001061754
0.5810221,0.443763,0.6920953,0.01201862,-0.0118612,-0.003627797
0.5812529,0.4421418,0.6885005,0.01319511,-0.01568841,-0.007899008
0.5816822,0.4442364,0.6833866,0.01809624,-0.01190378,0.002876689
0.5843617,0.4456745,0.6845079,0.02842654,-0.01204586,0.0120875
0.5834071,0.448835,0.6823308,0.03645066,-0.02554253,0.01339482
0.5836845,0.4494925,0.6802967,0.0319017,-0.04032979,0.01364929
0.5882351,0.4484802,0.6753141,0.02681202,-0.04186393,0.0135675
0.5915198,0.452896,0.6702185,0.02542416,-0.0272311,0.01304827
0.590873,0.4571448,0.6754323,0.01887163,-0.01584746,0.01348963
0.5903139,0.4568873,0.6796644,0.01465009,-0.01227254,0.01673325
0.5923393,0.4525178,0.6770955,0.01447986,-0.01181524,0.01596209
0.5919782,0.4474546,0.6745519,0.01418667,-0.01462425,0.01470898
0.5918502,0.446168,0.6727942,0.01567982,-0.01432938,0.01485819
0.596833,0.4458435,0.6720922,0.01283421,-0.01316277,0.01050691
0.6007841,0.4422576,0.6729662,0.004127726,-0.00658535,0.005699195
0.6001706,0.4392912,0.6735431,-0.005913947,0.007391457,-0.004944693
0.5976877,0.4428425,0.6710344,-0.01165727,0.01688645,-0.01296614
0.5948928,0.4466658,0.670573,-0.00912607,0.01802354,-0.005694812
0.5884613,0.4467463,0.6819222,-0.003883772,0.01020789,0.003253293
0.5806239,0.4489545,0.6960828,0.006975013,-0.002455366,0.01324144
0.5827282,0.4493703,0.6962033,0.01758084,-0.01551886,0.02206018
0.589262,0.4467484,0.6880922,0.01394216,-0.02226992,0.01508789
0.5925302,0.4472591,0.6818852,0.008239095,-0.01891315,0.007184775
0.5969657,0.4474489,0.674908,0.006132911,-0.01563588,0.009970447
0.5942571,0.4468386,0.6718314,0.003841796,-0.009615,0.007106879
0.5888787,0.44722,0.6724835,0.004258207,-0.0004104643,0.003707497
0.5926972,0.445094,0.6731378,0.00351986,0.001531726,0.007909204
0.5938505,0.4429299,0.6797828,0.006421794,0.0003791796,0.007228045
0.5946816,0.4428102,0.6810536,0.01117952,-0.0008134525,0.008462472
0.5986399,0.4432724,0.67683,0.01163068,-0.004017393,0.01172554
0.5943252,0.4444853,0.6792413,0.01410892,-0.008605188,0.007670891
0.5915719,0.4462974,0.6766089,0.01171715,-0.009697549,0.005399537
0.5946401,0.4483045,0.6734843,0.005414559,-0.005427742,0.002729319
0.5943521,0.4491148,0.6731054,0.005077659,-0.004063296,0.0006966575
0.5925682,0.4496692,0.6673197,0.004893738,-0.004356793,0.003018115
0.5912482,0.4488729,0.6681579,0.004338836,-0.002837428,0.001990182
0.5923611,0.4461254,0.6735569,0.003716378,-0.002770957,0.002726966
0.5940356,0.4470533,0.680027,0.00304467,-0.004112476,0.004518895
0.594179,0.4480233,0.6880974,0.004216201,-0.004620036,0.00309245
0.597663,0.4456201,0.6863951,0.002955702,0.0008012831,0.001696291
0.6019173,0.4430086,0.6780742,0.002071757,0.01056717,-0.003378836
0.6036287,0.4387559,0.6715077,0.0001455928,0.02114219,-0.009942838
0.6043306,0.437525,0.674093,-0.003664374,0.02902636,-0.01471224
0.6026923,0.438404,0.6792752,-0.001396013,0.02786482,-0.01923466
0.5986907,0.4372722,0.6753729,0.003420019,0.02273971,-0.02091889
0.5961165,0.441617,0.6757874,0.005073175,0.01792586,-0.02164188
0.5970811,0.4466854,0.6795028,-0.0005760718,0.01870324,-0.02411725
0.5974568,0.4468527,0.680594,-0.009127581,0.02739815,-0.02331108
0.5947113,0.4478354,0.6863563,-0.007326402,0.03263316,-0.01914302
0.5917264,0.4486569,0.6882777,-0.002041584,0.03376042,-0.01727538
0.5893836,0.4482039,0.6879359,0.0006149601,0.02852564,-0.01455256
0.5888237,0.4453881,0.6875301,0.004859443,0.01359723,-0.0077524
0.5918462,0.4428282,0.6802183,0.005117253,0.001743332,-0.001881782
0.5949661,0.444112,0.6775419,0.004063826,0.002664727,-0.003916802
0.5948199,0.4430742,0.6799754,0.004308177,0.0085558,-0.01308303
0.5936674,0.442295,0.6807024,0.002133152,0.006996883,-0.01578366
0.592787,0.4440022,0.6836839,0.001922992,0.009727118,-0.009787241
0.591609,0.44379,0.6835107,0.0005049997,0.01518373,-0.006198943
0.5930246,0.4454732,0.6788023,-0.00189453,0.009243056,-0.006012632
0.5955482,0.4468,0.677849,-0.002237083,0.008417759,-0.007112591
0.5946265,0.4462075,0.6806506,-0.006313827,0.01110253,-0.01129694
0.5947344,0.4476308,0.6819426,-0.006132853,0.01059143,-0.01606667
0.5965044,0.4474662,0.6833639,-0.002208476,0.01208982,-0.01452294
0.5948259,0.4467652,0.6839168,-0.003391086,0.009516138,-0.009788927
0.5938197,0.447553,0.6797094,-0.001811059,0.01006917,-0.008787179
0.5938817,0.4471324,0.6785767,0.0009204267,0.01032474,-0.007424564
0.5899117,0.447835,0.6804745,0.001640865,0.004985573,-0.006786186
0.5860766,0.4509729,0.6804886,0.003975977,0.004373456,-0.008394082
0.5870555,0.4530035,0.6808188,0.004334402,0.01022156,-0.009330809
0.5889947,0.4493476,0.6792766,0.002499338,0.01774753,-0.01145805
0.58973,0.4433443,0.6788788,-0.0005395733,0.01318681,-0.009971362
0.5917011,0.443102,0.6791342,-0.00361734,0.004748953,-0.007305944
0.5899078,0.4450732,0.6769835,-0.003678722,0.005446482,-0.009242012
0.5855535,0.4467731,0.676746,-0.001077161,0.004273258,-0.008273518
0.5885194,0.4496256,0.6786819,0.002810614,0.005779458,-0.005122722
0.5933023,0.4479881,0.6813221,0.005137384,0.008214,-0.00302857
0.5965144,0.4460257,0.6792317,0.003287414,0.004464609,-0.002287945
0.5978026,0.4478557,0.6775253,0.001237531,0.001599038,-0.003822547
0.5910952,0.4472405,0.6855787,0.003680579,-0.002290515,-0.003844507
0.587227,0.4461132,0.6912986,0.004280826,-0.003730751,-0.007070079
0.5910169,0.4441001,0.6891307,-0.0006664344,-0.003308249,-0.0113202
0.592922,0.4404645,0.6870941,-0.00361,-0.00372832,-0.009801958
0.5934309,0.4423648,0.6857987,-0.001205725,0.003862356,-0.01097174
0.5938126,0.4451926,0.6828029,0.003216224,0.008687856,-0.01187666
0.5914242,0.4436532,0.6830281,0.004127772,0.0008775572,-0.009158697
0.5878149,0.4417009,0.6858569,0.0008591698,-0.003609568,-0.01428379
0.5900399,0.4409607,0.6816993,-0.003546929,0.006477418,-0.02682749
0.5916421,0.4462947,0.6814214,-0.00642174,0.01455179,-0.03133085
0.5811285,0.4544773,0.6939451,-0.0004664827,0.002062818,-0.007222855
0.573519,0.4537701,0.7019648,0.01550445,-0.01453316,0.03072038
0.580742,0.4502126,0.6919111,0.02726082,-0.01906814,0.03620382
0.593957,0.4480516,0.6753019,0.01678336,-0.01801449,0.01097037
0.6046385,0.4416335,0.6726702,-0.003991707,-0.01083694,-0.01270455
0.6076622,0.439566,0.6703238,-0.010861,0.003624781,-0.0226464
0.6043108,0.4399295,0.6615538,-0.01418103,0.01870237,-0.02053904
0.5993349,0.4340458,0.6712374,-0.01495486,0.02774447,-0.02338801
0.5925734,0.4336184,0.6870904,-0.006454252,0.02777568,-0.03058603
0.5838795,0.4410094,0.6910364,0.0005385265,0.01246127,-0.02454184
0.5799106,0.4472786,0.6907398,0.014338,-0.01049475,-0.009325201
0.5808284,0.4501317,0.6874431,0.02422016,-0.01003889,0.00590437
0.5819442,0.4529421,0.6823069,0.0160587,-0.002039221,0.006409804
0.5860306,0.4597006,0.6757753,0.004658524,-0.009426982,-0.005824174
0.5888685,0.4616813,0.6718923,-0.00937753,-0.00332843,-0.005305269
0.58831,0.4561485,0.6719009,-0.01115371,0.005991798,-0.0005954946
0.589441,0.4487145,0.6731575,-0.0008660082,0.004644372,-0.0004532518
0.5917209,0.4421904,0.6786448,-0.002744148,0.008618164,-3.79837e-05
0.5936845,0.4426606,0.6799655,-0.002175737,0.00531553,-0.005297391
0.5918478,0.4436605,0.6797997,0.001995121,0.001583946,-0.003763598
0.5886636,0.4428122,0.6836929,0.003207183,0.001975539,0.002896287
0.58969,0.4451702,0.6812809,0.01001598,-0.003217123,0.004117883
0.5929503,0.4453747,0.6791957,0.008817339,-0.0009025307,0.001917271
0.5959954,0.4454358,0.6781588,0.0009740019,0.001889878,-0.005755185
0.5966236,0.4467929,0.6726534,-0.005811292,0.003594808,-0.005500552
0.5929621,0.4477166,0.6705036,-0.01125247,0.009699647,-0.004273322
0.586419,0.4484379,0.6705661,-0.005421657,0.01069096,-0.009724754
0.5843687,0.4475472,0.6776394,0.0003466613,0.01115095,-0.00511683
0.5858031,0.44558,0.6892375,0.0005529141,0.01000509,-0.0006664708
0.5849716,0.441594,0.690346,0.006084677,0.007159454,0.0008376754
0.5877398,0.4414125,0.6864697,0.007811575,0.006195506,0.0009380129
0.5902804,0.4437462,0.6811298,0.004794293,0.001572892,-0.003155933
0.5900103,0.4450365,0.6746285,0.005770269,-0.001658253,0.002308848
0.591407,0.4504536,0.6764494,0.004970085,-0.00177129,0.005924199
0.5895495,0.4503677,0.6824741,0.002328158,-0.005925032,0.002374574
0.5903258,0.4469203,0.6848547,0.001719937,-0.01059083,0.003134354
0.5951835,0.4470358,0.6853125,0.00187536,-0.004532243,0.003220461
0.5940766,0.4432006,0.6847085,0.005208793,0.002231721,0.002771584
0.5885143,0.4440404,0.685234,0.009408639,-0.007459874,0.001437779
0.5851764,0.4479698,0.6869499,0.01110388,-0.0186343,0.00246319
0.5893688,0.4474811,0.6846532,0.01099447,-0.01869432,0.01017221
0.5944911,0.4497384,0.6795352,0.004627633,-0.01182612,0.0129288
0.594262,0.450587,0.6748416,-0.002982223,-0.002223605,0.01006122
0.5939852,0.4509155,0.6741127,-0.0007867251,-0.001275475,0.009820341
0.5917481,0.4507175,0.6756595,0.002557584,-0.004846719,0.0109324
0.5905099,0.4441609,0.6735137,0.0001280369,-0.003984899,0.01169211
0.5945029,0.4408587,0.675309,0.0008840814,-0.006396562,0.0121345
0.5950961,0.441599,0.6790684,0.002030792,-0.01210647,0.01076913
0.5937885,0.4416819,0.6791866,0.0005756084,-0.0158,0.006503107
0.5949131,0.442152,0.6832064,0.002044461,-0.01374037,0.00285209
0.5941004,0.4421414,0.686441,0.001855536,-0.007990304,0.005327433
0.5933918,0.443551,0.6871224,0.002332014,-0.008084715,0.009024748
0.5933361,0.4427489,0.6858566,0.005891385,-0.00981007,0.00791748
0.5934445,0.4397725,0.6805588,0.00557955,-0.009761609,0.006792624
0.5951648,0.4391685,0.6762477,0.003904727,-0.01180792,0.00546141
0.5948118,0.4411571,0.6710239,0.00139272,-0.01083268,0.004871777
0.5959393,0.4451399,0.6704939,-0.000675961,-0.007245391,0.006920309
0.5990189,0.4443286,0.6743563,0.0006653138,-0.004587199,0.00522236
0.597515,0.4428316,0.6752219,0.001266216,-0.004160791,0.004829675
0.5947156,0.446243,0.6787841,0.001556258,-0.008973087,0.006726046
0.5932688,0.4456981,0.6784907,0.002058992,-0.01500283,0.006163219
0.593557,0.4424841,0.675632,0.004239381,-0.01725978,0.008079228
0.5949987,0.4403182,0.6777703,0.006480097,-0.01688957,0.007275918
0.5944599,0.4398353,0.6761933,0.003223418,-0.01619804,0.002530958
0.5943694,0.4426508,0.6724121,0.0006519179,-0.01223331,0.001171269
0.5959065,0.4435414,0.6706856,0.001805939,-0.007014395,0.002875556
0.5979948,0.4429286,0.6742637,0.001934485,-0.007180856,0.00477385
0.6001326,0.4430938,0.6812758,0.001223691,-0.007208426,0.004591783
0.600331,0.4429372,0.6811948,0.001219493,-0.005731222,0.006072709
0.599763,0.4432208,0.6793488,0.001260238,-0.006459853,0.007778638
0.600035,0.442956,0.6783171,0.0005337835,-0.006297914,0.005757865
0.5997325,0.4430186,0.6753405,0.001203211,-0.005328773,0.004144132
0.5981097,0.4432137,0.6761308,0.002332789,-0.003797604,0.002996825
0.5967251,0.442678,0.6758376,0.001189952,-0.002465147,0.002969198
0.5972069,0.44231,0.66966,0.0006232676,-0.001718646,0.003583415
0.5984702,0.4413559,0.6648362,0.001477659,0.0008905234,0.002334598
0.5989198,0.4413066,0.6669883,0.0007994556,0.004373896,0.001352906
0.5996751,0.4411247,0.6723722,-0.001610222,0.007480368,-0.00138684
0.6010034,0.4394002,0.6743716,-0.00448764,0.0119808,-0.007226136
0.6009916,0.4384333,0.674232,-0.006304581,0.01966799,-0.01186694
0.6004022,0.4372713,0.6750736,-0.004920471,0.02461446,-0.01404474
0.6005487,0.4370148,0.6764737,-0.002712645,0.02112516,-0.01662639
0.6001287,0.4383716,0.6752202,-0.002098366,0.01700887,-0.02071809
0.5995965,0.4393139,0.6731905,-0.002712474,0.02041997,-0.02298956
0.6001833,0.441692,0.6781257,-0.005167425,0.02786131,-0.01745601
0.6001425,0.4437413,0.6828421,-0.005203842,0.03483532,-0.01092715
0.5991724,0.4445547,0.6818789,-0.003688084,0.03804234,-0.01625537
0.5973579,0.4463595,0.6851772,-0.004868432,0.03222472,-0.02012293
0.5941031,0.4452531,0.68839,-0.003890915,0.02502942,-0.01395084
0.5936903,0.443821,0.6826891,-0.002554896,0.02028194,-0.0109781
0.5951922,0.4466317,0.6765869,-0.003663438,0.01361212,-0.00946294
0.5941687,0.4475463,0.678027,-0.003815658,0.01432561,-0.006815644
0.5940867,0.44509,0.6821434,-0.004555497,0.01597094,-0.005851306
0.5939445,0.442947,0.6833988,-0.005720479,0.01272382,-0.006298045
0.5920729,0.443124,0.6811325,-0.006380857,0.01550222,-0.01037686
0.5913233,0.4461163,0.6777736,-0.006672834,0.01594845,-0.009797214
0.589993,0.4474226,0.6792589,-0.006235153,0.01361985,-0.003346456
0.5897684,0.4446936,0.6820146,-0.006016607,0.01454302,-0.003681948
0.5910534,0.4417049,0.6816177,-0.003767455,0.01319961,-0.009338961
0.5909265,0.4419259,0.6823721,-0.002058849,0.01213204,-0.01145481
0.5917966,0.4422324,0.6813807,-0.004904236,0.01056331,-0.01114054
0.592106,0.4413119,0.6790008,-0.006518263,0.01069751,-0.01092939
0.591164,0.4437002,0.6784763,-0.005069123,0.01390472,-0.009813208
0.5917132,0.4454728,0.6786709,-0.004259084,0.01202006,-0.009600369
0.5908764,0.4451596,0.6796115,-0.003447245,0.008892153,-0.007919894
0.5898959,0.4470577,0.6771508,-0.003151048,0.007451218,-0.00607493
0.5913448,0.4476532,0.6762527,-0.003976634,0.002024445,-0.009552762
0.5918282,0.4470196,0.6819774,-0.004105435,-0.003518715,-0.009756406
0.5903896,0.4472631,0.6866399,-0.004585087,0.001147691,-0.007245993
0.5884773,0.4471961,0.6864643,-0.00533838,0.007874572,-0.008160393
0.5888509,0.4471118,0.6838354,-0.004623129,0.00441382,-0.007405664
0.591777,0.4460737,0.6864051,-0.003415454,0.003814754,-0.007919329
0.5923547,0.4445151,0.6904827,-0.00215792,0.006353526,-0.00771047
0.5911888,0.4428699,0.6893477,-0.001549514,0.003561971,-0.00383786
0.5916996,0.4413345,0.6888921,-0.001216269,0.003581904,-0.00186612
0.5919064,0.441294,0.686171,0.0001294969,0.001938532,-0.001672341
0.5910547,0.4419304,0.684834,0.0001276706,-0.001153908,-0.004448184
0.5896318,0.4433862,0.6875609,-0.0001465967,-0.002165935,-0.005633242
0.5866178,0.4490516,0.6864115,0.0002966691,-0.006242182,-0.002196876
0.5859087,0.4546698,0.6870324,-0.002507656,-0.005554737,-0.001012048
0.5900368,0.4493656,0.6852998,-0.006310957,-0.001221768,-0.003713698
0.5928989,0.4424992,0.6796954,-0.007286807,0.004120273,-0.008195418
0.5912435,0.444822,0.6807012,-0.00514633,0.01124153,-0.007767529
0.5878646,0.4449229,0.6826887,0.0006646911,0.007296008,-0.004996186
0.5843308,0.4436365,0.6835698,0.005068523,-0.001584892,-0.005830342
0.5828327,0.4453389,0.6829455,0.001927521,-0.003593987,-0.002947835
0.5865163,0.4449751,0.6781864,-0.00433538,-0.003176779,-0.001631737
0.5916034,0.4460533,0.6754108,-0.005322268,-0.0002322481,-0.007298922
0.5923014,0.4462983,0.6769671,-0.00194625,0.001522861,-0.008395717
0.5909074,0.445343,0.6824469,0.001146673,0.0004329004,-0.001446348
0.5889631,0.4471934,0.6862622,0.002845714,0.002630001,0.004947926
0.5866952,0.4473909,0.6845046,0.002163304,0.004926545,0.002901788
0.5876061,0.4471237,0.6823523,-0.0002870308,0.005069413,-0.001656472
0.5898227,0.4475431,0.681794,-0.003316503,0.005524739,-0.0009129876
0.5901794,0.4478968,0.682822,-0.002903709,0.005257889,-0.0005228333
0.5886593,0.4489224,0.6840882,0.001171024,0.00129521,-0.0005986412
0.5871032,0.4477113,0.6851179,0.001406341,-0.003658496,0.0004928781
0.589282,0.4472371,0.6865362,0.0002638644,-0.002768858,-0.0004671303
0.592257,0.4500631,0.6863455,-8.500619e-05,0.001832663,0.000648987
0.5917939,0.4520674,0.6859773,-0.002401954,0.007598864,0.001415233
0.5908227,0.450586,0.6870822,-0.002967302,0.007093414,-0.001042825
0.5892317,0.448028,0.6878976,-0.002510731,-0.003055272,-0.00116539
0.5862266,0.4475003,0.6871002,-0.001308863,-0.005043842,-0.001343597
0.5853539,0.4455559,0.6851855,0.002748765,-0.0001604113,-0.001967747
0.5852762,0.4415998,0.6825915,0.005800285,0.003080094,-0.001240099
0.5858593,0.4400618,0.6808846,0.003257507,0.008651537,-0.0005750871
0.5887776,0.4427067,0.6816211,-0.001433224,0.007395721,0.001426298
0.5892757,0.4471512,0.682004,-0.0001041485,0.001970144,0.002028202
0.5883571,0.448044,0.681573,0.003215858,0.0008383958,0.002838277
0.5886898,0.4479348,0.6807003,0.004335353,0.00123085,0.005635379
0.588614,0.447679,0.6797782,0.004892609,0.003691905,0.005725939
0.5901719,0.4448967,0.6811883,0.003078137,0.003716324,0.005299972
0.5907057,0.4464487,0.6814542,0.002001095,0.002692834,0.003139282
0.5896332,0.4480942,0.6809264,0.0001011091,0.004107209,-0.002022686
0.5895719,0.4445291,0.681651,-0.001281566,0.002286349,-0.001589167
0.5875909,0.4432784,0.6814989,0.002569332,-0.00261502,0.006174655
0.586972,0.4439719,0.684123,0.003763254,-0.009463282,0.01356086
0.588303,0.4454492,0.6872065,0.003335982,-0.01409849,0.01513915
0.5886624,0.4465966,0.6859442,0.003985665,-0.01241043,0.01627249
0.5891289,0.4453768,0.6835166,0.003029377,-0.01229558,0.01875382
0.5872308,0.4453353,0.6809493,0.003230831,-0.01500004,0.01608161
0.5872271,0.4434052,0.6792618,0.001207158,-0.01581706,0.01475616
0.5910292,0.4405023,0.6795984,-0.001834754,-0.0181799,0.01592034
0.5921636,0.4419797,0.6806048,-0.002897335,-0.02172083,0.01388897
0.5917772,0.4441374,0.681783,-0.003621198,-0.02484024,0.01366437
0.5914952,0.4455284,0.6836099,-0.002148515,-0.0255515,0.01066724
0.5915833,0.4458213,0.6845147,-0.002324373,-0.01603028,0.006443321
0.5919518,0.4424657,0.6842031,-0.0028155,-0.006683443,0.00701759
0.5913926,0.438007,0.685809,0.0004121305,-0.01013474,0.002370336
0.5917628,0.4365896,0.6852066,0.004292794,-0.01188382,-0.001647791
0.5917806,0.4382235,0.6833339,0.009455641,-0.009726507,0.003571603
0.5917842,0.4411723,0.6841289,0.0112818,-0.01769035,0.008089322
0.5940444,0.4457542,0.6800167,0.007454656,-0.02509811,0.00887721
0.5968297,0.4483819,0.6758145,0.003549943,-0.01824452,0.009570777
0.5988547,0.4453273,0.6765437,-0.001095152,-0.006049585,0.008971007
0.5979239,0.4432124,0.6761447,-0.004017503,0.001375624,0.007528123
0.5935072,0.4445247,0.6763667,-0.002098257,-0.0006378331,0.009153859
0.5887374,0.4428732,0.675606,0.000993901,-0.01071809,0.01061498
0.5889511,0.4406886,0.6756217,0.001263177,-0.01661353,0.01141958
0.5961292,0.4412416,0.6815707,-0.001631194,-0.01450651,0.01215544
0.60143,0.4393113,0.6865422,-0.000358024,-0.01142286,0.006737059
0.5997477,0.437619,0.6843557,0.00420145,-0.01079469,0.004070047
0.5953403,0.4435461,0.6766108,0.00389223,-0.01226549,0.007150731
0.5917464,0.4498124,0.6681369,0.003236649,-0.01639227,0.00899789
0.5922729,0.4470137,0.6640047,0.003301274,-0.02163104,0.01250641
0.5981058,0.4430387,0.6700799,0.001979738,-0.01724295,0.01052897
0.6034937,0.4431208,0.6772309,0.002943306,-0.008180763,0.00525454
0.6019176,0.4417742,0.6742606,0.001305444,-0.007053065,0.006038893
0.6001302,0.4408343,0.6770272,-0.0006308379,-0.004638533,0.005175131
0.6031792,0.43936,0.6863056,0.00170615,-0.00402178,0.003972111
0.6027457,0.4368326,0.687541,0.001071566,-0.008755537,0.006367952
0.6002477,0.4402733,0.6835547,0.000774526,-0.008459763,0.008371743
0.5990956,0.4440319,0.6781908,0.001504037,-0.009570539,0.008365873
0.5978152,0.4436047,0.6781313,-0.0003685094,-0.01004523,0.004649926
0.5992828,0.4454664,0.6790574,0.0007279386,-0.004518458,0.002902118
0.6001093,0.4476579,0.6759692,0.001835998,5.67419e-05,0.004618414
0.5988995,0.4445251,0.6779438,0.001473341,0.002346525,0.004368062
0.5979962,0.4395599,0.6784023,0.001654694,0.002315556,0.004829227
0.5979264,0.4388686,0.6784161,0.0007969048,0.007924599,0.0007489101
0.5994621,0.4390226,0.6803663,0.001397397,0.01731547,-0.009433907
0.5984694,0.4375307,0.6761348,0.001375424,0.01957113,-0.01265893
0.5980217,0.4375319,0.6747632,0.001291097,0.01977479,-0.01198652
0.5989061,0.437573,0.6746749,0.002575765,0.01750346,-0.01396008
0.5953778,0.4385283,0.6732284,0.0004596013,0.01504403,-0.01360042
0.5949025,0.4410013,0.6759744,-0.002967061,0.01752918,-0.01166141
0.6008046,0.4439373,0.6777551,-0.007143703,0.02028169,-0.01051171
0.6044859,0.446837,0.6816429,-0.009688887,0.02589345,-0.01029987
0.5968779,0.4450816,0.6837746,-0.00420964,0.0283618,-0.01020398
0.5865608,0.4420632,0.6811102,0.0005311598,0.02147443,-0.008374401
0.5904837,0.44147,0.6789264,-0.001770101,0.01429743,-0.007063878
0.5950887,0.4401343,0.673846,-0.004161403,0.009189084,-0.00966613
0.5934187,0.4418254,0.6764666,-0.004349904,0.006052111,-0.01238067
0.5957598,0.4451534,0.6831232,-0.001556401,0.006907178,-0.0091869
0.5960809,0.4445558,0.679842,0.002063145,0.009035203,-0.006240588
0.5970797,0.4435614,0.679913,-0.000624154,0.009814699,-0.007885137
0.5984614,0.4420619,0.6819154,-0.003666756,0.0116443,-0.008176823
0.5956634,0.4394971,0.6804431,-0.0005999499,0.01656675,-0.009860931
0.5958586,0.4410155,0.6826599,0.0003168172,0.02180638,-0.01475161
0.5939647,0.4435657,0.6816688,-0.001191007,0.02262144,-0.01559633
0.5915686,0.4429977,0.6792391,-0.001086569,0.0150349,-0.01302068
0.5928929,0.4431012,0.6808805,-0.002546893,0.009305014,-0.01253673
0.5935194,0.4439875,0.6819408,-0.003180891,0.01418951,-0.01175326
0.5967098,0.4436254,0.6807003,-0.002413047,0.0188184,-0.008411582
0.5953948,0.4422761,0.6775104,-0.002590215,0.01868621,-0.007317785
0.5909028,0.439189,0.6766769,-0.001637968,0.0154342,-0.006036622
0.5920541,0.4373243,0.6773981,0.0007983116,0.008628835,-0.003656564
0.5915064,0.4407151,0.6801786,0.004565192,0.002171351,-0.008141164
0.5914078,0.4449082,0.6852235,0.004958335,-0.0009456311,-0.01162583
0.5920898,0.4440285,0.6827231,-0.0003928768,0.001439277,-0.01043274
0.5897711,0.4427326,0.6799581,-0.002804859,0.004386587,-0.01174067
0.5886073,0.4436853,0.6812233,-0.002568251,0.002724296,-0.007013049
0.5872105,0.4435745,0.6791089,-0.003811237,0.001698476,-0.002150045
0.589118,0.4473193,0.6821702,-0.001838352,0.001969795,-0.005070585
0.5923352,0.4517806,0.6866071,-0.0003810277,0.002232495,-0.002514628
0.5906071,0.448527,0.6835907,-0.001834451,0.004921176,-1.957518e-05
0.5897317,0.4448604,0.6823698,-0.0007841225,0.005239634,-0.002254955
0.5894835,0.4442044,0.6844204,-0.0002375932,0.0001704742,-0.001496301
0.5887529,0.4440935,0.6860069,-0.0002782054,-0.003379634,-0.002688709
0.5899851,0.4446788,0.6875106,4.718044e-06,-0.0005129709,-0.004019365
0.5912734,0.4434261,0.6852176,-0.001522184,0.003719871,-0.00230215
0.5908554,0.44261,0.6807405,-0.0005369232,0.002923533,-0.001129485
0.5880426,0.4441377,0.6804851,0.001109342,0.001394215,6.857406e-05
0.5869251,0.4474916,0.6795053,0.001459903,0.001053775,-0.0009737954
0.5889857,0.450989,0.6740691,0.001733485,-0.001157727,-0.003013798
0.5910254,0.4485944,0.6706155,0.0003852276,-0.001857606,-0.001834317
0.59203,0.4443535,0.6712447,0.0009930516,-0.002974166,-0.000837351
0.5908101,0.4441184,0.6743659,0.001181497,-0.003617388,-0.001450715
0.5893592,0.4429738,0.6751241,-0.001356507,-5.863891e-05,-0.001006433
0.5886157,0.4424831,0.6754044,-0.002455057,2.083188e-05,-0.0009502259
0.5870954,0.4446757,0.6808945,-0.002816659,-0.003963019,-0.001192907
0.5871263,0.4445159,0.681782,-0.002256649,-0.007801113,-0.000731238
0.5881493,0.4442358,0.6793271,-0.001433859,-0.009282914,-0.001616019
0.5884131,0.4445882,0.6811885,-0.0006051537,-0.005149987,-0.002134766
0.5898924,0.4432377,0.6805686,-6.353033e-05,-0.001968624,-0.002122629
0.5911166,0.4432981,0.6801189,-0.001622936,-0.001885422,-0.003207129
0.5908775,0.444976,0.6816485,-0.001410495,0.002070286,-0.002943366
0.5918432,0.4472451,0.6828088,-0.0004030245,0.005263978,-0.0003002205
0.5920621,0.4478914,0.6846336,-0.000329681,-0.00082705,0.001810701
0.5911862,0.4464878,0.6796058,0.0004917474,-0.006934406,-0.001784912
0.5918996,0.4466694,0.6729647,0.00103382,-0.003231697,-0.005311497
0.5917437,0.4470016,0.6754088,0.002365302,-0.00116084,0.0005555713
0.5914008,0.4488172,0.6796252,0.0004605953,-0.003567545,0.00549684
0.5919465,0.4502955,0.6809532,-0.004171988,0.000208886,0.00217959
0.5915039,0.4452687,0.6819154,-0.003606151,0.007721437,-0.0009861496
0.5916676,0.4409567,0.6845705,0.001084774,0.01456222,-0.002256731
0.5917933,0.4412614,0.6886703,0.005537069,0.01565358,-0.002366113
0.5914907,0.4407808,0.6866228,0.004761055,0.007886344,-0.0003700649
0.5919903,0.4417696,0.6795777,0.002112479,0.001664766,-0.001431033
0.5926748,0.4457317,0.6765841,0.00237445,0.001286756,-0.005362945
0.5941946,0.4465761,0.6763845,-0.001970986,0.003896152,-0.005624396
0.5949148,0.4441466,0.6790938,-0.005203111,0.004767981,-8.51375e-05
0.5940564,0.4433864,0.6829261,-0.0006208924,-0.002153812,0.007298745
0.5928148,0.4429278,0.6824699,0.00121773,-0.008356534,0.008804988
0.5893216,0.4433152,0.6842647,-0.001786948,-0.007807973,0.007009699
0.5862056,0.4463215,0.6875335,-0.004192697,-0.01089148,0.009304209
0.5873226,0.4488508,0.68644,-0.004543396,-0.01754275,0.01136548
0.5882339,0.4500973,0.6846704,-0.00473215,-0.01677833,0.01199743
0.5872023,0.4492576,0.6825489,-0.003823903,-0.01480881,0.01452634
0.5889025,0.446338,0.6810036,0.001374215,-0.01954086,0.01813884
0.5923729,0.4436052,0.6806253,0.004720684,-0.02152177,0.02208573
0.5948546,0.4431901,0.680136,0.003716726,-0.02017253,0.02303414
0.596799,0.4425804,0.6807972,0.002879777,-0.0181478,0.02261758
0.5975951,0.438211,0.6801156,0.0005208235,-0.01529409,0.02194064
0.5980654,0.4378957,0.6775904,-0.003524095,-0.02000017,0.01411572
0.5979326,0.4401632,0.6758271,-0.004552427,-0.02345702,0.005844049
0.5961913,0.4381668,0.6759717,-0.00248338,-0.01539939,0.006286974
0.5935753,0.4393885,0.6769451,-0.001151307,-0.009282004,0.008014047
0.5910952,0.4421346,0.6765909,0.001200941,-0.01259996,0.009197419
0.5929221,0.443172,0.6779122,0.003443064,-0.0156283,0.01276081
0.5960445,0.4438754,0.6792314,0.002493515,-0.01502798,0.01191615
0.5947584,0.4422998,0.674633,0.003786628,-0.01796773,0.009153697
0.5941239,0.4429734,0.6706423,0.004662849,-0.01882775,0.01198906
0.5952326,0.442864,0.6729836,0.003257395,-0.01585162,0.01354719
0.5965126,0.4415447,0.6750866,0.003449927,-0.01630533,0.01243514
0.5981834,0.4437646,0.6742579,-0.001208899,-0.01244713,0.0128697
0.5968466,0.4432492,0.6730879,-0.00626988,-0.009399429,0.0120395
0.595649,0.442467,0.66995,-0.002719804,-0.0147647,0.01156908
0.5953604,0.4436008,0.6669377,0.001993172,-0.01698161,0.01179023
0.5939908,0.4425853,0.6678144,0.003403976,-0.01562784,0.01298873
0.5965021,0.4420028,0.6707284,0.003430145,-0.01514078,0.01429211
0.5991195,0.4406694,0.6748598,0.0002886925,-0.01545332,0.01007017
0.5984956,0.4398364,0.6747644,-0.003154727,-0.01558207,0.006098335
0.5988866,0.4414835,0.6719003,-0.0004446161,-0.01461499,0.007024988
0.5994364,0.4419238,0.6744197,0.002911391,-0.01535934,0.01080858
0.6002266,0.4416447,0.6733177,0.001780547,-0.01491928,0.01422589
0.6002833,0.4416046,0.6687186,0.001561961,-0.01378567,0.01219748
0.5997334,0.4416685,0.6671748,0.0007436195,-0.01536204,0.01060961
0.6011883,0.4419307,0.6666939,-0.001227714,-0.01628784,0.01119603
0.6016345,0.4424416,0.6739815,-0.0007364356,-0.01443905,0.007432134
0.6009495,0.4432316,0.6814761,-0.001720631,-0.009820529,0.00348913
0.5996669,0.4420847,0.6810468,-0.003791768,-0.005143788,0.004362481
0.5981228,0.4402283,0.6803999,-0.00255577,-0.002052255,0.005591401
0.5996058,0.4400981,0.6798804,0.001033243,-0.003685271,0.004438917
0.6015094,0.440335,0.6791076,0.004956423,-0.01088137,0.004327477
0.6015281,0.4404861,0.6770683,0.006409883,-0.01566166,0.002059244
0.6013326,0.4411427,0.675901,0.003587837,-0.01379692,-0.002498623
0.6015357,0.4417484,0.6747971,0.0005426798,0.001619037,-0.003473836
0.6023424,0.4407461,0.6696174,0.0001160688,0.02533524,-0.007522472
0.6030064,0.439036,0.6683005,-0.000222579,0.03335211,-0.01579921
0.6027162,0.4391715,0.6681248,-0.001510246,0.02738769,-0.01820464
0.6016996,0.4392698,0.6667235,-0.004153216,0.02666856,-0.01518891
0.6011751,0.4389884,0.6718987,-0.006640248,0.0292802,-0.01451484
0.6013696,0.4414626,0.6787547,-0.006421116,0.02637747,-0.01791601
0.6014477,0.444121,0.6802792,-0.007615594,0.02501443,-0.0204931
0.6013987,0.4455156,0.6768452,-0.00972818,0.02634368,-0.02044851
0.6004354,0.4479646,0.6745521,-0.006556718,0.02532732,-0.01936393
0.5969699,0.4480158,0.672452,-0.00316337,0.02601223,-0.01860648
0.5930917,0.447175,0.669004,-0.005426692,0.01930049,-0.01799888
0.5938415,0.4486384,0.6745655,-0.008412916,0.01034858,-0.01683892
0.5957522,0.4451455,0.6824013,-0.01093567,0.01565879,-0.01739641
0.5947615,0.4404837,0.6810276,-0.01254341,0.0191486,-0.01684403
0.5953748,0.4425054,0.6796925,-0.007403288,0.01511214,-0.01578255
0.5938851,0.4438426,0.6820814,-0.002128035,0.01274437,-0.01716697
0.5905913,0.4427422,0.6820361,-0.003829242,0.01037319,-0.01353416
0.5945484,0.4430229,0.6807645,-0.005736045,0.012757,-0.01073023
0.5983561,0.4431643,0.680508,-0.006463789,0.01823373,-0.01631581
0.5970117,0.4430206,0.6796197,-0.005695235,0.01943908,-0.01863076
0.5967187,0.4431891,0.6771644,-0.001046944,0.01973588,-0.01332604
0.5954427,0.4440078,0.6744896,0.000981826,0.02019766,-0.008067143
0.5928861,0.4447066,0.677012,-0.001480496,0.01646715,-0.008874801
0.5926298,0.4443176,0.680738,-0.003353265,0.01201254,-0.01023346
0.5933282,0.4434374,0.6771309,-0.002580557,0.01136851,-0.008169881
0.5929114,0.4428001,0.6750273,-0.0009780446,0.009674975,-0.01013419
0.5919548,0.4428477,0.6771279,-0.001311232,0.006858592,-0.01232507
0.591586,0.4424588,0.6768205,-0.001813952,0.00742223,-0.01128417
0.5916777,0.4418573,0.6783008,-0.002926463,0.007975258,-0.01067779
0.5925072,0.4418006,0.6790003,-0.006482821,0.007802154,-0.009788853
0.5924934,0.4422095,0.6756577,-0.008807102,0.008811646,-0.01029346
0.591309,0.4450299,0.6764485,-0.007513048,0.00759574,-0.009359636
0.5915415,0.4479587,0.6826772,-0.003979773,0.006139062,-0.005714484
0.591899,0.447256,0.6889098,-0.00258221,0.00456066,-0.003192665
0.5915428,0.4462802,0.6912679,-0.002538418,-0.002488415,-0.003099109
0.5916659,0.4455101,0.6876554,-0.0002980833,-0.008087171,-0.004108488
0.5917176,0.4443412,0.6844143,0.0005388461,-0.006452202,-0.002941567
0.5916341,0.4458699,0.6855939,-0.0001652394,-0.004729508,-0.004007678
0.5920154,0.4451059,0.6822075,-0.0008658644,-0.004034951,-0.005619699
0.5934848,0.4428192,0.677212,-0.001232577,0.002680802,-0.004519416
0.5949658,0.444346,0.680004,0.0009726722,0.009944163,-0.005896127
0.5942985,0.4430329,0.6814739,0.003958491,0.00727395,-0.004143941
0.5919151,0.4433175,0.6778903,0.005997672,0.0006659784,-0.002749281
0.5894979,0.4503798,0.6763335,0.005821264,-0.003791143,-0.006100543
0.5891357,0.4534746,0.676621,0.002760307,-0.002637124,-0.005809026
0.5933189,0.4497472,0.6781388,-0.0004017134,0.005213795,-0.006312342
0.5970566,0.445321,0.6791385,-0.000248338,0.007253242,-0.005721653
0.5933702,0.4468268,0.6756957,0.002574007,0.002305667,-0.002361706
0.5898443,0.4487503,0.6739045,0.002660866,-0.001171918,-0.004151061
0.5920628,0.445991,0.6823853,-0.0001026136,0.0007814277,-0.003485038
0.5920401,0.4472763,0.6899857,-0.002725092,0.005809703,0.0006866557
0.5900756,0.4470038,0.6826235,-0.003006052,0.005667762,-0.0001532992
0.5903683,0.4446958,0.6760185,-0.001530392,0.006632996,-0.004513501
0.5902207,0.4474522,0.682588,-0.00243933,0.008202627,-0.005013794
0.5901923,0.4474247,0.6859213,-0.001996923,0.003015703,-0.0001347977
0.5904843,0.4465733,0.6842677,-9.014944e-05,-5.397746e-05,0.0009573026
0.5902485,0.4458286,0.6861579,-0.00083396,1.673222e-05,0.0004458952
0.5912692,0.4432775,0.6841891,-0.0009918772,0.001093178,0.0007699969
0.5919862,0.4436869,0.6815312,-0.001144667,0.0026814,-0.002032475
0.5910908,0.4430784,0.6836768,-0.001157908,0.002471442,-0.001352692
0.5889422,0.4431309,0.6856486,-0.0003416771,0.00242398,-0.0008338398
0.5866816,0.4456666,0.6874452,4.240724e-05,0.00188045,-0.000917124
0.5872255,0.4452842,0.6873638,0.0005533626,0.002986619,0.001629311
0.5880891,0.4434845,0.6867964,-0.002031449,0.003948204,-0.0009468369
0.5871736,0.4442316,0.6854575,-0.00447151,0.003726075,-0.001340218
0.5876261,0.4471239,0.682344,-0.002391215,0.004956712,0.002606738
0.5890115,0.4475054,0.686706,0.0009745704,0.004555031,0.003442364
0.5907011,0.4464438,0.6927976,0.003098356,0.006150982,0.0005109989
0.5924179,0.4448625,0.6934801,0.0007365918,0.01019789,-0.004058374
0.5911989,0.4424529,0.6929053,-0.002995393,0.0120636,-0.0002132438
0.5885228,0.4455602,0.6898031,-0.003248411,0.009614127,0.006610134
0.5870722,0.4482495,0.6891339,-0.001258873,0.005101304,0.007450267
0.5872526,0.4442302,0.6933844,0.001736905,0.007183588,0.005906664
0.5888685,0.4420354,0.6964827,0.0007514839,0.009294613,0.001534755
0.5889282,0.4449334,0.6926797,-0.002397623,0.006821799,-0.0005256357
0.5877746,0.4487617,0.6852964,-0.001951052,0.007488072,-0.001771175
0.587618,0.4485462,0.6840198,-0.003111574,0.007401116,-0.002329579
0.5881451,0.4459287,0.683034,-0.004997753,0.00586545,0.001742018
0.5897302,0.4473322,0.6812235,-0.002246905,0.006251374,0.000272736
0.5908179,0.4485327,0.6813625,0.002426138,0.005703698,-0.0007964017
0.591751,0.4460871,0.6793055,0.005234309,0.000683749,0.00166068
0.591751,0.4463546,0.6809258,0.003217719,-0.007461789,-0.0008161747
0.5878911,0.4475231,0.6816455,-0.000243378,-0.009668123,0.0002018915
0.5840799,0.4474184,0.6811088,0.000249486,-0.00914117,0.004174589
0.5829128,0.4494966,0.6860936,0.002276247,-0.01363579,0.009453345
0.5854488,0.448039,0.6895565,0.002742835,-0.01580428,0.01547745
0.5900181,0.4445461,0.693716,0.0004203825,-0.01161598,0.01405872
0.5908082,0.4443053,0.69201,-0.00211922,-0.006949365,0.01376877
0.5898499,0.443333,0.6821973,0.001214733,-0.004775029,0.01460417
0.5884466,0.4416513,0.6809939,0.007892418,-0.003428492,0.009100408
0.5866647,0.4388899,0.6828234,0.01037805,-0.01006199,0.005130661
0.5866434,0.4380614,0.6843333,0.007944078,-0.02591954,0.00537049
0.5867469,0.4387323,0.686746,0.004244553,-0.03014114,0.007479979
0.5895991,0.4389118,0.682283,0.003127152,-0.01792045,0.00792262
0.5939283,0.4431663,0.6791288,0.003580959,-0.007461942,0.007895123
0.5932628,0.4428591,0.680062,0.002887853,-0.008461592,0.01027021
0.5903678,0.4426867,0.6783148,0.003690713,-0.01530231,0.009028365
0.5891031,0.4482267,0.6754202,0.005252851,-0.0177735,0.008163717
0.5896702,0.4460368,0.6756057,0.0038848,-0.01591586,0.008187927
0.5941884,0.4442816,0.6767461,-0.0008604666,-0.01293227,0.001714473
0.5987596,0.4457468,0.6748606,-0.004998656,-0.008664074,-0.002520736
0.5957065,0.4443721,0.6756465,-0.003870441,-0.005673534,-0.0004204151
0.5913896,0.445272,0.6766448,-0.003149039,-0.007748881,0.002880475
0.5915814,0.4454512,0.6760199,-0.004341076,-0.01328222,0.00695848
0.5902373,0.4460521,0.6798776,-0.002312572,-0.01316736,0.009246663
0.5904099,0.4452754,0.6817905,-0.002044675,-0.009330337,0.007864213
0.5927846,0.4434432,0.6829943,-0.003445939,-0.008282,0.007210101
0.5915994,0.4460953,0.6852158,-0.002191358,-0.00893148,0.01265275
0.5923289,0.4452823,0.6820221,-0.0007455907,-0.01182397,0.01629897
0.5948163,0.4419223,0.6794314,0.000845135,-0.01126193,0.009755697
0.5944104,0.4398724,0.6808126,0.001053919,-0.007700321,0.004136943
0.5944324,0.4405515,0.682517,-0.0001763749,-0.006583193,0.006437867
0.5945228,0.444937,0.6814953,0.0002737357,-0.006396195,0.007924135
0.5948204,0.4446324,0.6782034,0.0006253733,-0.009327671,0.006653607
0.5969551,0.4434764,0.6777962,0.001662074,-0.01087059,0.009279105
0.5975067,0.442378,0.6813702,0.003112323,-0.009099223,0.01120222
0.5956399,0.4392082,0.6831915,0.002690021,-0.00611623,0.008684749
0.5945345,0.4421029,0.6749082,0.002717284,-0.001988002,0.009623165
0.5937407,0.4442526,0.6653425,0.001571033,-0.00341966,0.01290394
0.5914376,0.4425934,0.6683118,-0.000890684,-0.004848571,0.01431593
0.5936916,0.443036,0.67298,-0.001473321,-0.003381339,0.01070825
0.5988908,0.4428098,0.6706179,-0.0001836687,-0.003212647,0.004039961
0.598158,0.4410661,0.6705056,0.001684354,0.0004998121,0.003544649
0.598281,0.438976,0.6745357,-0.0006078556,0.005568909,0.0002652765
0.6000943,0.4393097,0.6764498,-0.003663453,0.0124788,-0.007295823
0.5977815,0.440933,0.6766727,-0.002195581,0.01777305,-0.00797056
0.5969299,0.44024,0.6769618,-0.002307238,0.01527734,-0.0100003
0.5973222,0.4400416,0.6787246,-0.003379461,0.01581382,-0.01185548
0.5980797,0.44137,0.6819057,-0.003245292,0.01860745,-0.007634637
0.5975868,0.4454016,0.6820133,-0.003971015,0.01503299,-0.005368433
0.5902697,0.4521138,0.6831968,-0.002704074,0.007611631,-0.0002246027
0.5838811,0.4542849,0.6860402,-4.091648e-05,0.0009753635,0.007117587
0.5861804,0.4510789,0.6845119,0.001648576,0.001643348,0.004427818
0.5902916,0.4486151,0.6840471,0.0006508747,0.004607755,-0.002252537
0.5917726,0.4440441,0.6846213,-0.001465021,0.00250172,-0.003543108
0.5968207,0.4385477,0.6826915,-0.001297575,0.002691722,-0.003418024
0.599159,0.4423558,0.6802887,-0.003583628,0.003754384,-0.0055606
0.5938059,0.4465053,0.6760156,-0.006765128,0.002180127,-0.005878128
0.5940159,0.4417658,0.6748438,-0.005025569,0.006193927,-0.004293621
0.5949143,0.4396171,0.6766815,-0.002384416,0.01548538,-0.006751462
0.5913612,0.4402336,0.674328,-0.0002501822,0.02191363,-0.01218541
0.5900559,0.4372595,0.6734355,0.002339472,0.01591936,-0.01866159
0.5886077,0.4364588,0.6752155,0.002895082,0.006681151,-0.02370378
0.5923627,0.4412919,0.6775488,-0.000577312,0.01321485,-0.02367992
0.5964023,0.4464366,0.6830047,-0.006252223,0.01811591,-0.0187871
0.593353,0.4452101,0.6832966,-0.009505429,0.01456394,-0.01044485
0.590995,0.4440106,0.6818143,-0.01012157,0.01641143,-0.009644262
0.5871647,0.447945,0.6871043,-0.005123667,0.01094994,-0.01171096
0.5846926,0.4473189,0.6885632,0.003365296,0.001077045,-0.00616591
0.5869492,0.444212,0.6868812,0.002145398,-0.001367257,-0.006263669
0.5886081,0.4426851,0.6872428,-0.003121419,0.000341336,-0.00431423
0.591808,0.439854,0.6843342,-0.003381744,0.005178202,0.00174047
0.5940605,0.4409795,0.6807574,-0.005221617,0.005743935,-0.002886397
0.592088,0.4424727,0.6801374,-0.006169184,0.004934498,-0.003753738
0.5910752,0.4410217,0.6825487,-0.004859694,0.004473722,-0.001905584
0.5928656,0.4409554,0.6837033,-0.004265289,-0.001506832,-0.004708328
0.5934983,0.4403714,0.6803363,-0.003360954,-0.004489049,-0.005156753
0.5926113,0.4418115,0.6784539,-0.005215782,-0.0004879886,-0.007407102
0.5922592,0.4440403,0.6801167,-0.006363483,0.004800147,-0.007178379
0.5912252,0.4423878,0.6821549,-0.005004638,0.002914246,-0.006328428
0.5905858,0.4400948,0.6821629,-0.003038617,0.000130757,-0.008676047
0.5901612,0.4385171,0.681801,0.0008752761,0.003408544,-0.008129236
0.5892162,0.4397197,0.6838363,4.300179e-05,0.001625547,-0.008570899
0.5896029,0.4429338,0.6870367,-0.002230773,0.001057128,-0.008286337
0.5895257,0.4438074,0.68986,-0.0001088145,0.002233775,-0.006830062
0.5887498,0.4447207,0.6880646,-0.0008400439,-0.001508337,-0.005913937
0.5892517,0.4460081,0.6844449,-0.001256114,-0.0003434904,-0.002539262
0.5916615,0.4440861,0.6850885,0.0003591585,-0.0002652883,0.0003865671
0.5937954,0.4412358,0.6868327,9.065993e-05,-0.003783628,0.002557164
0.5921209,0.4413452,0.6893531,0.001537479,-0.004225984,-0.001950887
0.5896342,0.4422471,0.6890189,0.002684442,-0.002962383,-0.009231513
0.5884495,0.4423559,0.6831988,0.003678422,-0.0006898216,-0.006013741
0.5870297,0.4433054,0.67961,0.005687844,-0.001718902,-0.003653118
0.587045,0.4433189,0.6792873,0.004139084,-0.003423724,-0.005567647
0.5870654,0.4426765,0.6819472,0.002621988,-0.004301786,-0.003257703
0.5863298,0.4437945,0.6865969,0.001284341,-0.00580043,-0.002861242
0.5894892,0.4457734,0.6874118,-0.001385829,-0.002935669,-0.004304022
0.5935713,0.4476731,0.6857138,-0.0005876375,2.922032e-05,-0.004092914
0.5932067,0.4468534,0.6825187,-0.001449765,-0.001158628,-0.002471497
0.5923937,0.4448193,0.6791939,-0.004452721,-0.004660795,-0.002472658
0.5914193,0.4462094,0.6812347,-0.003080314,-0.006997618,-0.006198805
0.5886001,0.4471537,0.6858612,-0.00174919,-0.005204896,-0.004816316
0.5888207,0.4469166,0.6872042,-0.001865271,-0.003486682,-0.002955088
0.5907489,0.4475158,0.6827197,-0.00155425,-0.004395391,-0.004779552
0.5903817,0.4455614,0.6777246,-0.002446944,-0.006832151,-0.002482619
0.5891249,0.4432771,0.6830874,-0.002356336,-0.009974323,-0.002373515
0.588566,0.4437956,0.6888181,-0.0001537527,-0.0115396,-0.0001572699
0.5890073,0.446165,0.6836735,0.001223073,-0.009726345,0.004756514
0.5891151,0.4466898,0.6812717,-0.001368383,-0.005630852,0.001896715
0.5898238,0.4438334,0.6815584,-0.004353427,0.002131215,0.0009378673
0.5914225,0.4430024,0.677275,-0.001536425,0.01103228,0.0001949955
0.5906783,0.4415281,0.6779151,0.002347596,0.009006069,-0.004695131
0.5881558,0.4400854,0.6803459,0.002875492,-0.0006583593,-0.005950072
0.5873264,0.4462136,0.6789693,0.00255303,-0.005267365,-0.004483426
0.5902068,0.4516015,0.679871,0.001493102,-0.001684567,-0.001625334
0.5924923,0.4510743,0.6813487,0.001463927,0.004718569,-0.0009374387
0.5896718,0.4497691,0.6811477,0.003208969,0.0045314,-0.0008368716
0.5871292,0.4481869,0.6811643,0.004431348,0.006112457,0.002324786
0.5884968,0.4467131,0.6805666,0.004610556,0.01113958,0.00584255
0.5902681,0.4466836,0.6801801,0.002788424,0.009893423,0.007164608
0.5903379,0.4472531,0.6809875,0.001305799,0.01079824,0.001513898
0.5891232,0.4469546,0.6816727,0.001351765,0.01069185,-0.00237588
0.5873303,0.4478977,0.6835832,0.000426661,0.008629875,0.002311931
0.585384,0.4478828,0.687525,0.0004327194,0.01003646,0.006354361
0.5842647,0.445797,0.6897838,0.002467382,0.004411508,0.008897301
0.5849521,0.4454242,0.6893138,0.006174936,-0.00191645,0.01254453
0.5868038,0.4414921,0.6892725,0.009302023,-0.004358454,0.01490775
0.5884465,0.4388432,0.6894584,0.005628745,-0.006768529,0.01327633
0.5903084,0.4430891,0.6843771,-0.001794156,-0.004196811,0.009096138
0.5922593,0.4445393,0.6780606,-0.004906219,-0.002409411,0.002510994
0.5911501,0.4451483,0.679958,-0.005411295,-0.003440656,-0.003490446
0.5866856,0.4482704,0.6812057,-0.00611049,-0.003951774,0.002940708
0.5838821,0.4497948,0.6785151,-0.004313486,-0.004187142,0.01199735
0.5861547,0.4461271,0.6827579,0.001750538,-0.004024638,0.01029225
0.5887945,0.4396581,0.6864151,0.008016657,-0.004344172,0.007536725
0.5873836,0.440437,0.6832466,0.006830686,-0.004632602,0.006348742
0.5872452,0.4422816,0.6815773,0.002943766,-0.009055641,0.006410099
0.5895611,0.4411038,0.6811543,0.003959049,-0.01478619,0.008306487
0.5891509,0.4442677,0.6803413,0.00329039,-0.01675785,0.00793702
0.5884247,0.4460959,0.6815945,0.002138906,-0.01873772,0.01036734
0.5891451,0.4466321,0.6833108,0.003731355,-0.01652474,0.01389026
0.5894166,0.4477325,0.6841135,0.004314022,-0.01137585,0.01223865
0.5914543,0.4459442,0.6851954,0.007191613,-0.01205455,0.01026644
0.5939845,0.445612,0.6847298,0.007639782,-0.01241985,0.008681204
0.5926138,0.4459265,0.6808724,0.003332452,-0.008042405,0.00720063
0.5892069,0.4457154,0.6790561,0.002099903,-0.007576902,0.009197059
0.5885342,0.4460466,0.6797947,0.003732056,-0.01294781,0.01014598
0.5912084,0.4457751,0.6779337,0.006732753,-0.02210051,0.006874438
0.5941995,0.4468663,0.675502,0.006985174,-0.0289686,0.004919926
0.594978,0.4475243,0.6730945,0.004459209,-0.02181253,0.00724516
0.5943027,0.4466135,0.6734588,0.004120229,-0.01327814,0.008993264
0.5952224,0.4440426,0.679203,0.003603179,-0.01508479,0.0064438
0.5990541,0.4394602,0.6816436,0.002800859,-0.01274338,0.004234914
0.6014393,0.4384055,0.6810402,0.001379851,-0.008168599,0.005762439
0.5956599,0.4419932,0.6832926,0.0009106125,-0.009130091,0.008074536
0.5887551,0.44503,0.6862658,0.0021552,-0.009152584,0.009346922
0.5914022,0.4445754,0.6866907,0.000974654,-0.008605094,0.00866537
0.5933378,0.4430861,0.6825318,0.001244494,-0.007548526,0.007316678
0.5905501,0.44269,0.6775893,0.001595918,-0.005180334,0.008407297
0.5929574,0.44116,0.6744777,4.775197e-05,-0.0052064,0.0100687
0.5952145,0.4397738,0.6746092,0.0006644841,-0.00567357,0.0102968
0.5957259,0.4405228,0.6754611,0.0004715282,-0.005441687,0.01042692
0.5979123,0.4422954,0.6726766,0.0006457024,-0.005980031,0.00992189
0.5954541,0.4433765,0.6751888,0.0009548672,-0.006121838,0.008354669
0.5938141,0.4418828,0.678141,-0.001815053,-0.006288508,0.009316077
0.5975714,0.43936,0.6753291,-0.003439674,-0.007331457,0.01015951
0.5994731,0.4383737,0.6768015,-0.001747934,-0.007194557,0.005602577
0.5985632,0.4392506,0.6776563,0.002405982,-0.001972426,0.002807146
0.5970728,0.4419871,0.6768449,0.006052411,0.002827046,0.002002504
0.5957338,0.4473738,0.6758671,0.007168957,-0.004472812,5.239921e-05
0.5929577,0.4515353,0.6725162,0.005280603,-0.01433942,0.002860556
0.5918005,0.4481692,0.6752619,0.0008607117,-0.01149981,0.004013057
0.5980475,0.4435354,0.6778318,-0.00136595,-0.002974021,0.004868649
0.6033115,0.4435923,0.6754104,-0.002062538,0.002039964,0.01013647
0.5999763,0.4427855,0.6749363,-0.002051716,0.000853522,0.009478007
0.5967885,0.441746,0.6756382,0.001176437,-0.00304289,0.008696379
0.5991099,0.4421002,0.6797236,0.004304822,-0.002591861,0.008412005
0.5992433,0.4421554,0.6847854,0.004085006,-0.004093271,0.003062876
0.5976651,0.4434958,0.6848543,0.002617298,-0.005076075,0.002938691
0.5992007,0.4429853,0.6827692,0.002941803,0.00267113,0.001682082
0.5982654,0.4406838,0.6815461,0.001835487,0.01133178,-0.004164801
0.5963504,0.440353,0.682834,0.0007795883,0.01717349,-0.006192273
0.5962561,0.4408621,0.6849442,0.003278801,0.01366707,-0.008105274
0.5969673,0.4421404,0.6843069,0.002234322,0.007698386,-0.008420341
0.5996754,0.4417436,0.6811777,-0.001202892,0.01484336,-0.008205486
0.5988393,0.4401792,0.6761204,-0.005319322,0.01751441,-0.01049344
0.5977164,0.4404737,0.6727775,-0.01009525,0.01408385,-0.01298242
0.5992538,0.4400657,0.6742796,-0.008039348,0.01641015,-0.01590905
0.5970178,0.4402497,0.6748416,-0.004604678,0.01601476,-0.01255907
0.5949987,0.4412842,0.6730266,-0.003452525,0.01633716,-0.008057633
0.5942563,0.4434664,0.6738298,-0.003361648,0.01668006,-0.01005125
0.5939468,0.446657,0.6766622,-0.005743643,0.01486725,-0.009327163
0.5948918,0.4435482,0.6811463,-0.00356739,0.01595093,-0.006443769
0.5930768,0.4400061,0.6837065,-3.890381e-05,0.01437977,-0.00476726
0.591749,0.442946,0.6772926,0.001666773,0.01095961,-0.004444419
0.5918796,0.4440325,0.671282,0.003579531,0.008333992,-0.006200835
0.5922274,0.4434105,0.676205,0.0006185201,0.008011205,-0.00667833
0.5944023,0.4451895,0.6800308,-0.001987362,0.008757077,-0.008971739
0.5964111,0.446132,0.6773111,-0.00228627,0.00615156,-0.01211789
0.5984748,0.4455648,0.6795033,-0.002601909,0.007630532,-0.01339171
0.5976002,0.4443435,0.6840946,-0.0003491078,0.01189022,-0.01478897
0.5947648,0.4438465,0.6848888,-0.0005177291,0.01330303,-0.01435777
0.5944602,0.4448736,0.6848268,-0.001838132,0.01275222,-0.01404464
0.5923857,0.4439872,0.683035,-0.001455391,0.006794688,-0.01222742
0.5916459,0.4417046,0.6831097,-0.001857182,0.003075872,-0.008930362
0.5931275,0.4413015,0.6868388,-0.001367374,0.007505009,-0.01057486
0.591905,0.4411537,0.6881925,-0.000699438,0.01087293,-0.01143012
0.5927284,0.4395438,0.6881137,-0.0005538015,0.008227324,-0.008776792
0.5943235,0.4381653,0.6867153,-0.0004011247,0.004086912,-0.007724364
0.5944707,0.4398695,0.6823365,0.001571834,0.002896656,-0.008764555
0.594454,0.4413206,0.6783131,0.003869485,0.002798987,-0.009718645
0.5922299,0.440591,0.6767425,0.0005634443,0.004599046,-0.007585704
0.5914537,0.4422223,0.6768769,-0.003751514,0.006652678,-0.006361703
0.5925564,0.4426018,0.6756991,-0.003726816,0.004997501,-0.006063949
0.5925976,0.4410377,0.6756727,-0.0006908663,0.003664305,-0.004622779
0.5898028,0.4412558,0.6800204,0.002166178,0.003160943,-0.007752141
0.5859075,0.4413584,0.6830029,0.0007954528,0.003587368,-0.01072086
0.5871644,0.4424647,0.6819276,-0.0005691586,0.002800532,-0.01005475
0.5875525,0.4434537,0.6799595,0.0002108998,1.056205e-05,-0.006477946
0.5852138,0.4445221,0.6801401,-0.0004327141,0.0001195343,0.000844166
0.5871738,0.4456191,0.6811859,-9.351378e-05,-0.003493854,0.001005478
0.5881681,0.4454332,0.6802722,0.0001388114,-0.006985476,-0.002550145
0.5876452,0.4476038,0.6793304,-0.002799535,-0.000365688,-0.001213747
0.5902862,0.4460808,0.6755805,-0.003874994,0.008387695,-0.004150911
0.5925227,0.4420571,0.6705958,0.0001566502,0.0113593,-0.007127739
0.591561,0.4414483,0.6736844,0.00443742,0.004956568,-0.005021096
0.5893073,0.4389827,0.6777797,0.00427885,-0.003375014,-0.004697996
0.5886225,0.4422902,0.67585,0.002462971,-0.004321379,-0.004804377
0.5886377,0.4487794,0.6751786,0.0002964563,-0.002086006,-0.0048042
0.5880466,0.4465472,0.6768842,-0.003772618,0.002662542,-0.004956298
0.5873459,0.4463032,0.6825116,-0.002019539,0.007298736,-0.003836663
0.5871941,0.4484977,0.6904617,0.004567427,0.004882024,-0.00180699
0.5878337,0.4461853,0.6892321,0.005862165,0.001210749,0.0007688404
0.5874284,0.4451507,0.68624,0.00456396,0.003004984,-0.0002246971
0.5872957,0.4435757,0.6889943,0.0004403044,0.003259496,-0.002052264
0.587817,0.4425192,0.6870259,-0.004616361,0.0007750828,-0.001373986
0.5876163,0.4463408,0.6861299,-0.002817612,0.001836317,-0.002032737
0.5893413,0.4481053,0.6888474,-0.0003104367,0.001829261,-0.00195349
0.5905954,0.4472362,0.6865705,-0.000130277,0.001630892,-0.001677446
0.5884787,0.4478473,0.6873648,0.0003244281,0.003750422,-0.001856267
0.586749,0.4479885,0.6890341,4.669669e-05,0.002609581,0.001133491
0.5873814,0.4468177,0.6857226,-3.664372e-05,0.00242225,0.002551341
0.5879791,0.4450193,0.6849493,-0.0009464095,0.003633143,-0.001042606
0.5871835,0.4443638,0.6845064,-0.002043224,0.002571917,-0.005319772
0.5874622,0.4452168,0.6883369,-0.00194315,0.003406551,-0.004904778
0.5877949,0.446163,0.695428,-0.001486878,0.004661209,-0.002640161
0.5871646,0.4457424,0.6899393,-0.0008055041,0.004797302,-0.003231627
0.5878717,0.4434181,0.6843906,0.0002015876,0.004764063,-0.000875959
0.5882341,0.4418488,0.6881541,0.002561494,0.001384397,0.001174434
0.5882585,0.4412988,0.6850755,0.00458276,-0.003453748,-0.0002326562
0.5884754,0.4417994,0.6805747,0.003955206,-0.003902354,0.001440836
0.5886525,0.4432904,0.682394,0.003406191,-0.0008338804,3.611572e-06
0.5893767,0.4447296,0.6830127,0.004389375,0.0003088642,-0.001939936
0.5886809,0.4466368,0.6840755,0.003395912,-0.0003777026,0.001393704
0.5886859,0.4459817,0.6873712,0.0004386501,0.0001297336,0.00214406
0.5891343,0.4450111,0.6903789,-0.001642366,0.0007890769,0.003782629
0.5872701,0.4458824,0.6895388,-0.001911779,0.001008934,0.004440312
0.5859289,0.4457287,0.6843196,-7.341548e-05,0.002500978,0.001466215
0.586342,0.4475182,0.6822328,0.001000213,0.005026758,0.002709257
0.5895413,0.4480014,0.6826138,0.001661264,0.005928127,0.002719389
0.5914623,0.4459783,0.6790839,0.002809279,0.005142788,0.001507229
0.5885865,0.4454691,0.6754364,0.001680307,0.004812723,0.0022536
0.5875468,0.4422853,0.6793507,0.0009470085,0.004114779,0.002173166
0.5876785,0.4404299,0.6870325,0.001330144,0.001553688,0.004326629
0.5870782,0.4428654,0.6877025,0.002096903,-0.0008622354,0.006937251
0.5878596,0.4443238,0.68268,0.003294354,-0.0003986241,0.01191039
0.5874028,0.4459687,0.6795495,0.003084285,-0.0005503509,0.01777484
0.5869758,0.444744,0.6824883,0.002408899,-0.001880401,0.01646511
0.5860135,0.4416401,0.6886076,-0.0007069435,-0.001444121,0.01333231
0.5839057,0.4432105,0.6888965,-0.001664606,-0.00410615,0.01202403
0.5849958,0.4436818,0.6850471,0.002098759,-0.006379197,0.01104135
0.5869622,0.4419906,0.6829377,0.002347469,-0.005240125,0.01117908
0.5876828,0.4416364,0.6853301,0.003844248,-0.007895734,0.01064383
0.5878244,0.4403156,0.688515,0.005624392,-0.01078876,0.0100427
0.5871693,0.442434,0.6826891,0.003221416,-0.01103278,0.01077741
0.5875539,0.4460286,0.6773302,0.004722077,-0.01072623,0.01217671
0.5884085,0.4441632,0.6800207,0.004743742,-0.01023819,0.01391466
0.5909865,0.4425105,0.6821403,0.001819687,-0.009382552,0.01253583
0.5952113,0.4416731,0.6838312,0.001214485,-0.006592263,0.008080305
0.5951352,0.4393414,0.6843706,0.0002073946,-0.006762491,0.007761169
0.594133,0.4401639,0.6861854,0.002019636,-0.008650275,0.008925981
0.5974936,0.4408947,0.6931827,0.004396185,-0.009510639,0.006415112
0.5986774,0.4401038,0.6950796,0.005653514,-0.01504944,0.005949658
0.5940808,0.4425926,0.6880099,0.005734617,-0.01965937,0.007583012
0.5901983,0.4455471,0.680292,0.0005923892,-0.01593382,0.007462414
0.5921961,0.446108,0.6783765,-0.001796579,-0.01021176,0.008368274
0.5938807,0.4446431,0.6799685,0.0003400693,-0.007692895,0.01079556
0.5898193,0.4418881,0.6808608,0.002723051,-0.004975021,0.01299654
0.5881201,0.4399948,0.6825117,0.005158818,-0.004511531,0.01395106
0.5912253,0.4382196,0.6832973,0.004499254,-0.006136657,0.01150068
0.5931565,0.4371444,0.6829931,0.003911996,-0.003477362,0.007972493
0.5932401,0.4389163,0.6835448,0.003285241,-0.003364482,0.006474567
0.5919329,0.4420364,0.6825315,0.0002173335,-0.004390613,0.007630366
0.5915082,0.4438717,0.6830424,-0.001117721,-0.003735888,0.009503979
0.5930762,0.4436846,0.6874301,-0.00039613,-0.008999257,0.008872573
0.5950344,0.4452805,0.6900389,0.0001795078,-0.01127692,0.01135914
0.5969016,0.4476447,0.6888688,-0.0006033888,-0.01017787,0.01245055
0.5976087,0.4439444,0.68595,-0.00052345,-0.0109148,0.006133444
0.5982501,0.439776,0.680409,0.0009405008,-0.007019721,0.006640543
0.5961615,0.4417558,0.6746064,0.001020068,-0.004418566,0.01052734
0.591241,0.44268,0.6772918,-0.0002668213,-0.007148557,0.009808958
0.5909818,0.4417999,0.6823559,-0.001609474,-0.01184937,0.01062233
0.5926651,0.4435573,0.6788152,0.001361199,-0.01377284,0.007480779
0.5931563,0.4434159,0.6764281,0.004742759,-0.007610389,0.005130541
0.5949896,0.4424022,0.6774035,0.001846122,-0.002631875,0.00872068
0.5951682,0.4435076,0.6781757,-4.491196e-05,-0.006916556,0.007979198
0.5952826,0.4429933,0.6821309,0.0005949906,-0.01069325,0.007216809
0.5966623,0.442627,0.6818722,-0.0009585704,-0.006462472,0.007682337
0.5961226,0.4425222,0.6809446,-0.001446657,-0.004034104,0.003996973
0.597768,0.4409394,0.6833214,-0.0003326774,-0.005459726,0.003415888
0.5996327,0.4405762,0.6816954,3.894293e-05,-0.002742902,0.004441437
0.5959001,0.4394175,0.6805661,2.516205e-05,0.0001353499,0.00387241
0.593152,0.4380238,0.6782586,-0.0004221736,0.003847188,0.005666305
0.5934168,0.438262,0.6765636,-0.0001020473,0.007759853,0.005984893
0.5944189,0.437324,0.6806707,0.0006319346,0.007886822,0.001949864
0.5965989,0.4371564,0.6808053,-0.001162004,0.01277124,-0.006238306
0.5949331,0.4379072,0.6792324,-0.003440515,0.02007335,-0.01559105
0.5925446,0.4373115,0.6793533,-0.00623641,0.02325189,-0.02028198
0.5935175,0.4374399,0.6786255,-0.01013178,0.02293498,-0.01956812
0.5937883,0.4376909,0.6798138,-0.008770463,0.01931856,-0.01794288
0.5946709,0.4373196,0.6799746,-0.004714302,0.01781625,-0.01895553
0.5947933,0.4379396,0.6808715,-0.003243667,0.01546978,-0.01623266
0.5933827,0.4393146,0.682958,-0.002534834,0.01063813,-0.01135765
0.5921162,0.4410832,0.6828717,-0.002190425,0.009430153,-0.01045012
0.5897728,0.4423839,0.6820559,-0.0004229369,0.008515648,-0.005668518
0.5917154,0.4434752,0.6797328,-0.0008454855,0.008289294,-0.002177111
0.5954237,0.4452693,0.6795942,-0.003239397,0.009836082,-0.006974954
0.5938363,0.4459074,0.6788274,0.0003479895,0.008991445,-0.009649105
0.59144,0.4450641,0.675379,0.001648109,0.003047792,-0.007182731
0.5898517,0.4442749,0.6789092,-0.002051752,-0.005214825,-0.005961986
0.5896844,0.4454653,0.6814483,-0.00201545,-0.002907987,-0.008747674
0.5913483,0.4483076,0.6755389,-0.002851101,0.004681799,-0.01053668
0.5921799,0.4476144,0.6721604,-0.002481768,0.007005354,-0.01084729
0.595118,0.441377,0.6751246,0.001316689,0.01280163,-0.01364492
0.5965512,0.4353077,0.6798006,0.001180565,0.01522302,-0.01636212
0.5923784,0.4367519,0.6821713,0.001470962,0.006921293,-0.01832536
0.5900369,0.4403741,0.6819597,0.001220315,0.001499786,-0.01669583
0.5910255,0.439494,0.6800274,-0.002277683,0.005649435,-0.01062241
0.5920034,0.4426283,0.678559,-0.004498265,0.01199817,-0.006920308
0.5917493,0.4467125,0.6809161,-0.007769911,0.01219294,-0.00653531
0.5901542,0.4450013,0.6846267,-0.006613498,0.009462929,-0.006644702
0.589169,0.4448512,0.6868383,-0.001825347,0.00783864,-0.005667379
0.5875271,0.4451493,0.6856486,-0.00207895,0.007084702,-0.00444451
0.5855907,0.4446835,0.6841579,-0.002610408,0.006951799,-0.002781478
0.5834883,0.4459571,0.6877466,-0.003328105,0.004122316,-0.001015263
0.5808942,0.4471194,0.6898523,-0.003591258,0.00343124,-0.003170962
0.5819666,0.4475274,0.6873933,-0.001399297,0.004386025,-0.006005016
0.5838709,0.4469142,0.6850738,0.000468009,0.00133453,-0.007398933
0.5850267,0.4473818,0.6833492,0.003551757,-0.002846104,-0.007043641
0.5881718,0.4473322,0.6835713,0.002117856,-0.007150199,-0.002362773
0.5897299,0.4468654,0.6861552,-0.00211799,-0.002917846,-0.000246399
0.5897886,0.4471241,0.6883165,-0.001846223,0.004486691,-0.002885998
0.5880927,0.443879,0.687442,-0.002702884,0.0004621252,-0.005390313
0.584843,0.4404881,0.6856039,-0.002051521,-0.001344266,-0.004851702
0.5860465,0.4396467,0.6870424,0.003437291,0.0006255064,-3.529288e-05
0.5877082,0.4408336,0.6888524,0.006096172,-0.0009603551,0.002620332
0.5862036,0.4441522,0.6886937,0.002760814,0.0009721651,-0.0001996452
0.5860809,0.4482994,0.6894694,-0.000793077,0.0007662945,-0.004411952
0.5862766,0.451658,0.6907352,0.0003468417,-0.0004948025,-0.005945757
0.5868673,0.4499439,0.6878912,0.0001220401,0.002595733,-0.006034233
0.5880395,0.4490688,0.680064,-0.001647698,0.003081656,-0.007116842
0.587368,0.4497362,0.6749586,-0.0002258174,0.002211194,-0.006050842
0.5873666,0.4432657,0.680216,0.0009908075,0.001182076,-0.004549963
0.5877198,0.4382559,0.689903,0.001331584,-0.001310122,-0.002680257
0.5873087,0.4403742,0.6914069,-0.0004937431,-0.002967191,-0.001402564
0.5876097,0.4429715,0.6863299,-0.002001534,-0.002485885,-0.002769172
0.587483,0.4432483,0.6799767,-0.001016802,0.0008142609,-0.0003866385
0.5874408,0.4429044,0.6742259,-0.001509344,0.002105929,-0.0006918432
0.5876019,0.4434553,0.6770481,0.000239919,0.0007242395,-0.004960439
0.587217,0.4437438,0.6815299,0.001731667,-0.0003544645,-0.00444585
0.5866791,0.4447504,0.6800289,0.000667563,-0.001515215,-0.002079856
0.5865308,0.4447458,0.6806959,0.001625883,-0.0005678606,0.002395604
0.5895481,0.4446161,0.6808723,0.001156357,0.001091427,0.00281057
0.9134193,0.224936,0.3987298,0.1583979,0.3317456,-0.05124161
0.9114134,0.2256906,0.3984939,0.1591402,0.3313892,-0.05357877
0.9090943,0.2253877,0.4015203,0.1596297,0.3213381,-0.05042766
0.9080105,0.2265356,0.3975281,0.1585997,0.3020814,-0.04415808
0.9111288,0.2247928,0.3909233,0.1568587,0.2870555,-0.0433314
0.9134957,0.2216852,0.3845585,0.1533061,0.2895069,-0.04597714
0.9111931,0.219339,0.387698,0.1503306,0.2986943,-0.05517547
0.9083909,0.2168146,0.3965616,0.1516395,0.2863284,-0.06233196
0.9072057,0.2224464,0.3924855,0.1519822,0.274516,-0.05404896
0.9074467,0.2312651,0.3883917,0.1512892,0.2731794,-0.04517021
0.9118315,0.2299572,0.3908813,0.1487636,0.2740975,-0.0499601
0.9179418,0.2267551,0.3905643,0.1429316,0.2860555,-0.05305998
0.9210892,0.2256355,0.3926295,0.1379323,0.2828324,-0.05000146
0.9218959,0.2210162,0.3957237,0.1357252,0.2819099,-0.04960159
0.9184818,0.2219883,0.3949222,0.1421298,0.2976971,-0.04441951
0.9114625,0.2256291,0.3890532,0.1502159,0.2899517,-0.0382001
0.9098161,0.2231336,0.3833618,0.1480096,0.280863,-0.03635347
0.9127688,0.2257084,0.3832494,0.1453282,0.2799214,-0.0359846
0.9129482,0.2316882,0.3830202,0.1459908,0.2723532,-0.0410515
0.9129589,0.2334145,0.383433,0.1429334,0.2735353,-0.04117803
0.9136203,0.2349103,0.3842463,0.136576,0.2704236,-0.04030366
0.9131087,0.2341013,0.3853665,0.1223073,0.2666873,-0.04984415
0.9146288,0.2319159,0.388851,0.1063917,0.2700166,-0.05638219
0.917878,0.2301365,0.3880289,0.1089833,0.2732032,-0.05734495
0.9196613,0.2297399,0.3892871,0.1160777,0.2868759,-0.05756018
0.9168977,0.2315155,0.3961088,0.1102735,0.2915651,-0.05994872
0.9114453,0.2302264,0.3986008,0.104943,0.2790001,-0.06003678
0.9086512,0.2299789,0.3972778,0.09671829,0.2721436,-0.0529891
0.9055053,0.2302496,0.3933665,0.09121729,0.2683388,-0.04682537
0.9026882,0.2273296,0.3879622,0.1038719,0.2615965,-0.03519782
0.9057116,0.2262433,0.3872382,0.1155679,0.2562564,-0.02615203
0.9109578,0.220908,0.3937528,0.1204339,0.2552851,-0.02799117
0.9147412,0.2144827,0.4006837,0.1217333,0.2580771,-0.02908419
0.9127298,0.2192059,0.4000181,0.1161067,0.2581157,-0.03767022
0.9064185,0.2276577,0.395864,0.1140189,0.2478303,-0.04309081
0.9065325,0.2301735,0.3942137,0.1132867,0.2298897,-0.03800253
0.9098245,0.2275183,0.3976449,0.1121786,0.2200237,-0.03753362
0.9142128,0.2249026,0.4015242,0.1127909,0.2199274,-0.03519038
0.9204612,0.2246465,0.3981937,0.1126749,0.2219348,-0.0349736
0.9182175,0.2234529,0.3955703,0.1174587,0.2244239,-0.03826386
0.9142405,0.2220153,0.3966076,0.1235706,0.2190612,-0.03862453
0.9141925,0.2231505,0.3933553,0.1261382,0.2060473,-0.03783494
0.911657,0.2257778,0.3893099,0.1236835,0.1961267,-0.0284291
0.9138044,0.2275232,0.3885898,0.1195101,0.1934012,-0.02171521
0.9187047,0.2232298,0.3900011,0.1186004,0.195025,-0.02820392
0.9194258,0.216918,0.3924766,0.1126042,0.1993109,-0.03782566
0.9182124,0.2205919,0.3926874,0.1077835,0.2078289,-0.04160319
0.915232,0.2256695,0.3910992,0.1118833,0.2074671,-0.03561483
0.9142723,0.225729,0.3902275,0.1139556,0.198887,-0.03158829
0.9128624,0.228981,0.388499,0.1105193,0.1986709,-0.0338133
0.9116557,0.2298122,0.3867396,0.1070823,0.1932209,-0.03371761
0.9167117,0.2285967,0.3877833,0.10748,0.1828504,-0.03100402
0.9171959,0.2296483,0.3893718,0.1057076,0.1805273,-0.02839143
0.9120352,0.2288362,0.3885291,0.1020836,0.177821,-0.02832598
0.9108528,0.2292427,0.386307,0.102204,0.1761799,-0.03173192
0.912509,0.2283021,0.3854019,0.1007496,0.1691922,-0.03952103
0.9149346,0.2234125,0.3876294,0.1011989,0.1577019,-0.04585402
0.9137366,0.2196081,0.3929569,0.104741,0.15364,-0.04675235
0.9112139,0.2208188,0.3992902,0.1064547,0.1478761,-0.04787609
0.9113702,0.226582,0.4010769,0.1064857,0.1456237,-0.04862522
0.9109666,0.2294204,0.3961744,0.1007616,0.1510115,-0.04856351
0.9130627,0.2313436,0.385889,0.09409496,0.1591306,-0.04611427
0.9142394,0.2343607,0.376317,0.09234746,0.1652712,-0.03875273
0.9108132,0.2335008,0.3868355,0.09211345,0.1483007,-0.0306423
0.9095392,0.2329112,0.4022117,0.09044187,0.1277507,-0.02402023
0.9121111,0.233522,0.3901839,0.08460005,0.1356736,-0.02200611
0.915215,0.2333533,0.3811775,0.07915648,0.1457184,-0.02353215
0.9140976,0.2334839,0.3861999,0.07763048,0.1459107,-0.02332203
0.9129074,0.2341415,0.3781412,0.07290214,0.152435,-0.02125355
0.9147401,0.2340975,0.3750325,0.06222085,0.1540159,-0.01927084
0.9136227,0.2291406,0.3780524,0.05599925,0.1497997,-0.02035305
0.9135865,0.2236788,0.3789563,0.05986919,0.1472304,-0.02136131
0.9148299,0.2237729,0.3896837,0.06674687,0.1398305,-0.01934837
0.9153193,0.2232899,0.3958289,0.07444254,0.1346732,-0.01832836
0.9183704,0.2200581,0.3987848,0.07736172,0.1313799,-0.01843553
0.9180651,0.2219334,0.3968027,0.07378415,0.1317901,-0.02131202
0.9147748,0.2257448,0.3834065,0.07383202,0.142346,-0.02639712
0.9134313,0.2249016,0.3846422,0.0713217,0.150599,-0.02532803
0.9134714,0.2267445,0.3875299,0.0678508,0.1553387,-0.0203091
0.9144307,0.2292935,0.3831428,0.0719058,0.1535949,-0.02179805
0.9137421,0.2286043,0.3905951,0.07176819,0.1492753,-0.02946211
0.9132478,0.2296249,0.3891205,0.07027729,0.1550685,-0.03645241
0.9125649,0.2281668,0.3761862,0.07077158,0.1585071,-0.03957119
0.9102099,0.2271883,0.3701613,0.0673415,0.1574839,-0.03764324
0.910989,0.2293139,0.3781553,0.0674094,0.1526059,-0.03433881
0.9120482,0.2290701,0.3947628,0.06682791,0.1436141,-0.03406181
0.9127529,0.2284318,0.3953028,0.06384704,0.1401178,-0.03782412
0.9164141,0.224721,0.3948444,0.06479283,0.1335672,-0.04210661
0.9171595,0.2203978,0.4018878,0.06646491,0.1255639,-0.03514792
0.9139135,0.2217458,0.3984508,0.06920089,0.1189971,-0.02588011
0.910672,0.2241195,0.3990626,0.06775687,0.1085295,-0.02972488
0.9092129,0.2262018,0.3951984,0.06451038,0.101959,-0.03133972
0.9114595,0.2274883,0.3866376,0.06659737,0.09437327,-0.02932904
0.9135146,0.2278247,0.3906139,0.06509237,0.08612168,-0.03334752
0.912353,0.2295871,0.3888887,0.06133394,0.08468324,-0.03280855
0.9119572,0.2296863,0.3866186,0.05887519,0.08738011,-0.03065164
0.9121742,0.2285488,0.388774,0.05761213,0.09183375,-0.03244508
0.911752,0.229363,0.3867284,0.062645,0.07703499,-0.03328068
0.9138321,0.2286945,0.3895769,0.07253077,0.03523101,-0.04054476
0.9177145,0.2251842,0.3902061,0.08732896,0.0020477,-0.05886903
0.9230819,0.2238791,0.38701,0.09164439,0.01126944,-0.07856065
0.9277238,0.2294106,0.3838246,0.06678161,0.04724675,-0.08485448
0.9234539,0.2386722,0.3780658,0.03339834,0.07326797,-0.07227518
0.9174821,0.2398924,0.3764523,0.01477283,0.0967599,-0.0571842
0.9179526,0.2333067,0.3751361,0.009808622,0.1208198,-0.05307762
0.9158257,0.2306946,0.373634,0.01404767,0.1304093,-0.05434364
0.9142689,0.2315016,0.3748083,0.02142914,0.1325321,-0.05357385
0.9155294,0.2306419,0.3723959,0.0265588,0.1257783,-0.0484398
0.911314,0.2290323,0.372019,0.03126002,0.1168906,-0.04573362
0.9082058,0.2312975,0.3765158,0.03955815,0.1044969,-0.04772608
0.9074737,0.2359456,0.3791777,0.04311197,0.0896832,-0.04606451
0.9083534,0.2379846,0.3826565,0.02996145,0.09855269,-0.04310351
0.9130396,0.2426518,0.392129,0.01728156,0.105808,-0.03962656
0.9113131,0.2444999,0.4006345,0.02222552,0.09633621,-0.03319329
0.9097007,0.2390253,0.3980699,0.02390966,0.09610674,-0.02856764
0.912507,0.2381996,0.3948451,0.01444638,0.09831539,-0.02650741
0.9099282,0.2392984,0.3983327,0.009275872,0.09397997,-0.02537497
0.9078607,0.2385774,0.3943607,0.007175272,0.0789244,-0.0170102
0.9050986,0.2392103,0.3863963,0.01106934,0.05620089,-0.005104894
0.9024581,0.2379311,0.3839346,0.01794546,0.04187917,-0.006742898
0.9069112,0.2346447,0.3835265,0.01606097,0.03206529,-0.01523688
0.9131161,0.2286791,0.3857992,0.0229033,0.02441411,-0.02648634
0.9196082,0.2250352,0.3875054,0.03643582,0.01814937,-0.04475781
0.9172268,0.2273768,0.3905654,0.03321468,0.006636758,-0.04908569
0.9104308,0.2293852,0.3915389,0.02847075,0.0142282,-0.03413532
0.9149459,0.2320566,0.3847955,0.03204159,0.04031919,-0.0257496
0.9161777,0.2338168,0.3844284,0.03000977,0.04920018,-0.03118056
0.9145922,0.2328454,0.38728,0.02830692,0.05691943,-0.04008661
0.9183392,0.2339611,0.3881411,0.03113635,0.06690554,-0.04898521
0.9163101,0.2355752,0.3897194,0.02915457,0.06692113,-0.0531332
0.9152331,0.2387953,0.3846279,0.02514523,0.07986158,-0.05094042
0.9142142,0.2436142,0.3809867,0.02147462,0.08566148,-0.05032362
0.9091263,0.2451036,0.3825047,0.01960222,0.07980429,-0.05024554
0.9104788,0.2444789,0.3867064,0.02303398,0.08471839,-0.04672127
0.9095018,0.2431908,0.3900191,0.02290164,0.08305895,-0.04516379
0.9056722,0.2427959,0.3871416,0.02363988,0.08107959,-0.04290888
0.9097501,0.2432776,0.3904518,0.0291712,0.08441159,-0.03897621
0.9126249,0.2428653,0.3945608,0.02541622,0.08418631,-0.04208137
0.9106034,0.2431613,0.3940846,0.01946219,0.0853372,-0.04996189
0.9096521,0.2430914,0.3977311,0.01813567,0.08038013,-0.06117343
0.9089862,0.2428858,0.3989517,0.01763025,0.06307458,-0.07119162
0.9071123,0.2436385,0.4000674,0.02322673,0.03036049,-0.0656143
0.9037968,0.2446632,0.3966896,0.02930153,0.006413645,-0.05431358
0.8974369,0.2473277,0.3835978,0.03291783,0.01673331,-0.04900162
0.8927906,0.2509508,0.3754495,0.03514595,0.02372023,-0.04264389
0.8947597,0.25534,0.3772604,0.0306476,0.01205147,-0.04370353
0.8967201,0.2570267,0.3848096,0.02466416,0.01178655,-0.05133662
0.9,0.2534373,0.3896804,0.02333617,0.0130222,-0.05431956
0.9083626,0.2491882,0.3925165,0.03018422,0.005929579,-0.06372746
0.9106909,0.2446182,0.3946205,0.03532336,0.006443611,-0.07403185
0.9038035,0.2438436,0.392449,0.019865,0.006930139,-0.07493851
0.8956289,0.2449552,0.3959019,0.005142359,0.006438441,-0.07073723
0.8948027,0.2402236,0.3987512,0.0165515,0.007735966,-0.05684665
0.9075026,0.2410322,0.3951873,0.02930886,-0.00551548,-0.04913782
0.9247076,0.2453246,0.3912894,0.02983843,-0.009958223,-0.06135378
0.9301023,0.2436822,0.3846078,0.03425912,0.02822818,-0.0748332
0.9215759,0.2469626,0.3821724,0.03686914,0.06650897,-0.07577465
0.9066274,0.2555195,0.380985,0.03877352,0.04909693,-0.07025002
0.8929272,0.2652664,0.377741,0.04889466,0.02355878,-0.06513186
0.8954342,0.2726242,0.3755369,0.04820066,0.03768517,-0.0549632
0.9077621,0.2764983,0.3661316,0.03475029,0.05508637,-0.05075835
0.907341,0.280363,0.3630546,0.01999634,0.07501746,-0.05361255
0.9057552,0.275531,0.3721025,0.005065616,0.08495636,-0.04055368
0.9063908,0.2719343,0.3788089,-0.001108832,0.07419451,-0.02446138
0.9012863,0.2736949,0.3840198,-0.001504428,0.09855056,-0.01965074
0.9031714,0.2700661,0.3838078,-0.002621122,0.130377,-0.02184084
0.9043669,0.2711194,0.3834639,-0.003890296,0.1359082,-0.02901168
0.9026975,0.2702819,0.3935653,-0.005364845,0.1237739,-0.03224122
0.9020772,0.2701435,0.3997976,-0.006643626,0.09890965,-0.03413654
0.8943296,0.2754491,0.3976639,-0.01367178,0.1087535,-0.0377708
0.8913457,0.2675731,0.3994424,-0.017685,0.1144658,-0.04391711
0.8918172,0.2629702,0.4116718,-0.01049307,0.09200747,-0.04908483
0.8900263,0.2688078,0.4253071,-0.005991909,0.07921841,-0.04549116
0.8908307,0.2721783,0.4229421,-0.01419851,0.05839588,-0.04089114
0.8895078,0.2758864,0.4093665,-0.02622265,0.08227641,-0.03455673
0.8895406,0.2751467,0.4027125,-0.02354513,0.1281078,-0.03049019
0.888844,0.274493,0.4119073,-0.009186071,0.1148161,-0.03128205
0.8875013,0.2753816,0.4227743,0.0005658186,0.1112997,-0.02853543
0.8895793,0.2736114,0.4159308,-0.006369556,0.1301726,-0.03907014
0.888086,0.2738739,0.4102104,-0.02283507,0.1398698,-0.05979372
0.8844237,0.2751376,0.4147929,-0.02323742,0.1458248,-0.06499762
0.8784269,0.2807537,0.4154367,-0.01684377,0.1177705,-0.049395
0.8735799,0.2880673,0.4213835,-0.01304939,0.09142004,-0.02583047
0.8755176,0.2887257,0.4265242,-0.007206483,0.1062969,-0.0184517
0.8785656,0.2800166,0.422372,-0.01147991,0.1218427,-0.02552167
0.8824947,0.2658819,0.4234247,-0.01904021,0.1267993,-0.0369822
0.8839391,0.2616435,0.4244284,-0.02880292,0.1352735,-0.05135504
0.8778353,0.2701519,0.4231421,-0.03468892,0.1323222,-0.04877836
0.8654846,0.2822392,0.4277012,-0.02197661,0.1199626,-0.02904439
0.8548984,0.2905093,0.4369736,-0.01408822,0.1083106,-0.01237351
0.8573277,0.2909657,0.4500283,-0.01622968,0.080989,-0.006616311
0.8621764,0.2914892,0.4566337,-0.0157588,0.04882144,-0.009375832
0.8617538,0.295342,0.456075,-0.01399593,0.01839951,-0.009900789
0.8662995,0.2963811,0.4568254,-0.01158229,-0.02096362,-0.009973546
0.8677587,0.2944333,0.4516684,-0.01442236,-0.03614067,-0.01403019
0.8601343,0.2883863,0.4408361,-0.01558849,-0.01962599,-0.01158066
0.8522893,0.2777,0.4349163,-0.00797174,-0.01247399,-0.001670955
0.8475204,0.272855,0.4369395,0.008363815,-0.03761879,0.00930925
0.8542197,0.2764254,0.4391668,0.02661861,-0.06279383,0.01457124
0.8645456,0.2824145,0.4379768,0.02475685,-0.05478174,0.01447313
0.8642921,0.2951849,0.4443917,0.01100411,-0.05017524,0.02172674
0.8707373,0.3057454,0.4517716,0.0002208458,-0.05061041,0.02673569
0.8815227,0.2991503,0.4479836,-0.01542921,-0.03427601,0.01903487
0.8789038,0.290473,0.4432407,-0.02199265,-0.03297917,0.0177288
0.8737787,0.2885529,0.4366474,-0.009923536,-0.03809493,0.03153675
0.8690085,0.2825061,0.4260548,0.0006512248,-0.02912484,0.04757401
0.8626981,0.2784678,0.4255996,-0.0006432545,-0.01278934,0.05005468
0.8624574,0.2795579,0.433715,-0.006420365,0.003802326,0.04329425
0.8665992,0.2787459,0.4397435,-0.01126091,-0.004148187,0.03811357
0.8717706,0.2786326,0.4403108,-0.01465673,-0.0241535,0.02726376
0.8753247,0.2754687,0.4337499,-0.01458627,-0.02896883,0.02109232
0.8760346,0.2696654,0.4281287,-0.01371116,-0.02711653,0.02306469
0.8734288,0.2682657,0.4320417,-0.01187588,-0.02228528,0.01715169
0.8696753,0.2692012,0.4403089,0.0001115248,-0.0237335,0.01266121
0.8731283,0.2730644,0.4473176,0.01514666,-0.03280265,0.01133705
0.8770925,0.2754435,0.4480489,0.01985695,-0.03750604,0.01489086
0.8743613,0.2760238,0.4407309,0.01668572,-0.04224333,0.02640652
0.8752421,0.2845791,0.4370252,0.01203511,-0.04143355,0.02332876
0.8793873,0.2930456,0.4392325,0.005898083,-0.03601463,0.01601406
0.8799772,0.2933467,0.4392261,-0.00678107,-0.02439023,0.01528714
0.8743739,0.2952308,0.4378937,-0.01538059,-0.004715303,0.009439456
0.8627862,0.300268,0.4353547,-0.01412214,-0.01090825,0.01220826
0.8585296,0.2988574,0.4326708,-0.01809259,-0.02746027,0.01659562
0.8637735,0.2937455,0.4346731,-0.02335563,-0.02462666,0.01595641
0.8676572,0.2908684,0.4374017,-0.03068704,-0.02242141,0.02248998
0.8713114,0.2858609,0.4364115,-0.04713658,-0.01353599,0.02364817
0.875511,0.2793821,0.4372172,-0.05640837,-0.0003086666,0.01889675
0.878447,0.273769,0.440457,-0.0550587,0.00649027,0.01662542
0.8779371,0.2738842,0.4408504,-0.04942642,0.01184752,0.02206836
0.8722853,0.2781265,0.4424347,-0.04518079,-0.003210096,0.03890223
0.8697488,0.2724855,0.4451269,-0.04709348,-0.02092093,0.05550604
0.8718665,0.2684858,0.4468699,-0.0485631,-0.01989108,0.07052614
0.8721663,0.2735202,0.4509387,-0.04949122,-0.02038973,0.07551753
0.8696043,0.2739792,0.4492633,-0.05050252,-0.0269799,0.06715647
0.8667222,0.2755577,0.4438106,-0.05070719,-0.03601418,0.06072576
0.8668715,0.2779498,0.4423368,-0.04807996,-0.04268963,0.05487652
0.8653306,0.2789992,0.4388616,-0.04348967,-0.05212234,0.05906076
0.8597999,0.2820894,0.438272,-0.04423534,-0.0645064,0.06923782
0.8583595,0.2787688,0.439191,-0.03951596,-0.06326908,0.06346791
0.8639724,0.271734,0.4372871,-0.02913225,-0.05421595,0.05352918
0.8716918,0.2619686,0.4421716,-0.02552221,-0.03999963,0.04228355
0.8738078,0.2533705,0.4473238,-0.0213807,-0.02996293,0.03040874
0.8747632,0.2541598,0.4496807,-0.01173283,-0.03262264,0.03076322
0.8794694,0.2541883,0.4483382,-0.00252474,-0.03403566,0.03344268
0.8782703,0.2540142,0.4404954,-0.00358035,-0.04134868,0.03703957
0.8769303,0.2564406,0.4426168,-0.006031889,-0.0470447,0.04118855
0.8815292,0.2587046,0.4451321,0.000168257,-0.04610802,0.03903589
0.8823093,0.2630478,0.4395216,-0.001242615,-0.05006275,0.03885025
0.8804385,0.2632034,0.4369864,-0.004126247,-0.04872809,0.03797688
0.8776485,0.263243,0.4305161,-0.001251917,-0.05330158,0.03485692
0.8752172,0.2649631,0.4328088,-0.004179083,-0.06098773,0.03271983
0.8769817,0.2621789,0.4408712,-0.003797973,-0.06337755,0.02946469
0.8786425,0.2611483,0.4364472,-0.001631831,-0.08128454,0.02880261
0.8802392,0.2562256,0.4374768,0.002179893,-0.1111749,0.01890897
0.8809266,0.2448233,0.4388189,0.0237354,-0.1356077,-0.000644702
0.8774711,0.2443948,0.433181,0.04233546,-0.1133491,-0.004969739
0.872764,0.264034,0.4311504,0.02958537,-0.04958502,0.006323224
0.8701999,0.2886716,0.4278444,-0.00699687,-0.01983249,0.01624134
0.8754578,0.291486,0.4336031,-0.04511351,-0.02272437,0.01841874
0.885626,0.2810896,0.4456756,-0.06081845,-0.02363731,0.01957374
0.8876907,0.279726,0.4447402,-0.05303697,-0.01704808,0.02549352
0.8771364,0.2763283,0.4388908,-0.05429131,-0.01007073,0.03481284
0.8629489,0.2703543,0.4365916,-0.06202879,-0.02680831,0.0486357
0.8604245,0.2653031,0.4371594,-0.05099152,-0.04923796,0.05825492
0.8683484,0.2466011,0.4392328,-0.03631273,-0.06324687,0.05736304
0.8737572,0.2299663,0.438831,-0.01460658,-0.07881965,0.05262727
0.8766945,0.2340526,0.4388909,0.009080253,-0.08812869,0.04807784
0.8798984,0.2381643,0.4401318,0.008546454,-0.09001537,0.05195055
0.8855265,0.2356218,0.4398608,0.01456294,-0.08438042,0.06277345
0.8916595,0.2431643,0.4382036,0.02796706,-0.08480448,0.07010129
0.8905867,0.2496312,0.4338109,0.02442167,-0.08607986,0.07176456
0.8893556,0.2471862,0.4303559,0.02157522,-0.07561309,0.06583642
0.8911151,0.2537009,0.4298857,0.0190194,-0.07295549,0.06033158
0.8893439,0.2610212,0.4276277,0.01374951,-0.06971984,0.05606383
0.8873321,0.2595428,0.4240813,0.008545703,-0.06201096,0.04697976
0.8848092,0.2601487,0.4208525,0.0017242,-0.05018632,0.0413766
0.8831095,0.2615032,0.4201177,-0.01057893,-0.0295887,0.03007231
0.8834383,0.2628624,0.4275512,-0.03261623,-0.02619724,0.01396875
0.8827603,0.2629118,0.4394302,-0.03869072,-0.03860329,0.01777956
0.8884186,0.2605758,0.4420683,-0.02571438,-0.05696281,0.03392405
0.8957126,0.2595771,0.4337677,-0.02074366,-0.06757112,0.04082907
0.895391,0.2545201,0.4271392,-0.02874114,-0.04850897,0.02116746
0.8912919,0.2493289,0.426521,-0.04106978,-0.02776388,-0.02538931
0.8827877,0.249733,0.4323638,-0.05090918,-0.02361654,-0.05553904
0.8773666,0.251167,0.4417996,-0.0624387,-0.01837694,-0.04976907
0.8785461,0.2509027,0.4440579,-0.06981657,-0.02070428,-0.03779645
0.876141,0.2454868,0.4414624,-0.07039493,-0.05179584,-0.03222307
0.8752951,0.2362479,0.4368167,-0.06954653,-0.0824502,-0.02720878
0.879242,0.2296127,0.4264458,-0.05353845,-0.07481768,-0.02550278
0.884956,0.2288935,0.4178203,-0.03155565,-0.05124328,-0.02808967
0.8928978,0.2297181,0.4150847,-0.01903381,-0.02021293,-0.03885671
0.8931467,0.2286662,0.4146568,-0.003938181,0.02470421,-0.06064104
0.8912051,0.2293253,0.4140604,0.01704077,0.04117107,-0.07139101
0.8953781,0.2302713,0.4133006,0.02706973,0.03110928,-0.07003787
0.8905221,0.2341132,0.4141595,0.01846852,0.04054664,-0.0832157
0.8843984,0.2423245,0.4140985,0.007456699,0.04911795,-0.09822933
0.8866897,0.2488659,0.4171955,-0.009247943,0.04537311,-0.09885944
0.878934,0.2644804,0.4342449,-0.02571302,0.04502184,-0.08761307
0.8689541,0.2881039,0.4549576,-0.02019056,0.01258937,-0.0573883
0.8724313,0.2912124,0.4567627,-0.006134713,-0.03129613,-0.02024778
0.8773978,0.2818181,0.4483629,0.01657086,-0.03192931,0.001083395
0.8779856,0.2857777,0.4478852,0.02723837,-0.02409667,0.01004751
0.8769554,0.2864927,0.4435854,0.01235576,-0.03168852,0.02102713
0.8719422,0.2813455,0.4367146,0.01171941,-0.03089947,0.02931274
0.8658488,0.282814,0.4353432,0.009559823,-0.02742562,0.03930775
0.8664477,0.2768825,0.4288416,0.004413105,-0.03119508,0.05078539
0.8711836,0.2702186,0.4277101,0.008997413,-0.03365755,0.04297738
0.8733232,0.2652844,0.4309818,-0.005321292,-0.04021811,0.03797162
0.8742689,0.2569801,0.4279609,-0.01221156,-0.04724589,0.04023639
0.8763311,0.2601645,0.4314305,-0.004204885,-0.04319015,0.03202697
0.8815708,0.2609721,0.435787,-0.001487511,-0.04552671,0.03190604
0.8859726,0.2577892,0.4385595,0.005134601,-0.0581487,0.03246348
0.8823915,0.261317,0.4422491,0.01064309,-0.07467297,0.03496969
0.8775728,0.2590932,0.4406393,0.01900841,-0.08879499,0.0489578
0.8778012,0.2593088,0.4401028,0.02156842,-0.08421439,0.06059729
0.876502,0.2608074,0.4355572,0.01051905,-0.07724573,0.06870185
0.8751089,0.2579951,0.4295501,0.003326451,-0.06856376,0.06532191
0.8824852,0.2578475,0.4287165,-0.0007653333,-0.04306941,0.05766172
0.8898037,0.2550996,0.4270997,-0.00318607,-0.02275656,0.05013624
0.8878807,0.2582127,0.4256007,-0.008835749,-0.01343464,0.03854549
0.886374,0.2654835,0.4187741,-0.01817846,-0.009108403,0.03609862
0.8884832,0.2652861,0.4148758,-0.02203571,-3.36625e-05,0.03347347
0.8893753,0.2623818,0.4203449,-0.02733252,0.02409532,0.02960566
0.8900238,0.2551085,0.4246967,-0.03040445,0.03471886,0.02610086
0.8888915,0.2488016,0.4340603,-0.02606945,0.0313711,0.01964911
0.8855814,0.2489871,0.4454016,-0.02318761,0.03415749,0.02302655
0.8845491,0.2476688,0.4466763,-0.02121817,0.02908499,0.02421249
0.8805584,0.2439207,0.444196,-0.0145858,0.02380609,0.02337214
0.8706934,0.2424508,0.4516572,-0.004859842,0.01776784,0.03016355
0.86619,0.2427211,0.4640496,0.008468258,-0.009615703,0.03507383
0.8668442,0.2411351,0.4670663,0.02223116,-0.0444496,0.04554314
0.8663649,0.2430929,0.4645852,0.01960605,-0.06961572,0.05437963
0.8670376,0.2513844,0.4549088,0.01119308,-0.08542918,0.05125994
0.868867,0.2576351,0.4436702,0.01260846,-0.1064947,0.05024488
0.8752245,0.2557505,0.4460835,0.006661821,-0.1229707,0.04826593
0.8847223,0.2481952,0.4473462,0.004173939,-0.1172801,0.04063751
0.8873396,0.245212,0.4387861,0.01513328,-0.118122,0.03467227
0.8857639,0.2458146,0.4331776,0.01951071,-0.1131231,0.02950421
0.8869402,0.2448394,0.4319051,0.02011855,-0.09402554,0.02804957
0.8882612,0.2428434,0.4291572,0.0202741,-0.1065955,0.02973651
0.8882423,0.239465,0.4255498,0.02336003,-0.1197267,0.02644707
0.8890225,0.2433666,0.4230104,0.03113838,-0.1086272,0.02193586
0.8899161,0.2482979,0.4223183,0.03024728,-0.1049967,0.01919069
0.8921189,0.2451217,0.4213481,0.02896054,-0.09568953,0.02008165
0.8956626,0.2453842,0.4130355,0.03002104,-0.08242614,0.02391804
0.8944397,0.2465805,0.4075542,0.02737879,-0.07398652,0.01900562
0.8905399,0.2449248,0.4146307,0.02535081,-0.06013533,0.01306544
0.8891648,0.2442853,0.4189251,0.01778243,-0.05406334,0.01357491
0.8890932,0.2430398,0.4163122,0.009111523,-0.04503341,0.0104242
0.8924783,0.2454151,0.4165123,0.006282784,-0.03219676,0.005246299
0.8959544,0.2485899,0.4199584,0.004602284,-0.03366972,0.000694669
0.8943891,0.2472171,0.4210757,0.004956632,-0.03006614,0.002183406
0.8938494,0.2464342,0.4176981,0.008314499,-0.02350944,0.009965429
0.8945971,0.2464424,0.4139399,0.01146131,-0.02661592,0.01238443
0.8923174,0.2435516,0.4130703,0.009200231,-0.02673688,0.01251252
0.8901199,0.2412322,0.4148601,0.006031723,-0.02606432,0.01405879
0.8899833,0.2417273,0.4165133,0.007251145,-0.02764201,0.01674034
0.8909871,0.2422225,0.4177141,0.008577023,-0.03052278,0.01604874
0.8928147,0.2442669,0.4178779,0.01047889,-0.03726592,0.008838463
0.8944058,0.2467936,0.416475,0.01171445,-0.04322221,0.007006317
0.8939478,0.2459911,0.4169605,0.01183975,-0.04607328,0.009031236
0.893219,0.2458621,0.4166407,0.01204637,-0.04713159,0.01171123
0.8942709,0.2487973,0.4162539,0.009060092,-0.04815915,0.01510694
0.8946747,0.2503313,0.4172824,0.006623671,-0.0461115,0.0121495
0.8952914,0.2474287,0.4162159,0.00613694,-0.03884054,0.009340813
0.8964813,0.2445592,0.4167233,0.004455172,-0.03496527,0.008491591
0.896214,0.2458021,0.4169929,0.00310053,-0.03907538,0.009305848
0.8960102,0.2464661,0.4161546,0.002484026,-0.04348537,0.01163187
0.8955938,0.2448008,0.4162215,0.003054138,-0.04223141,0.01045599
0.8957273,0.2432273,0.4118214,0.004403415,-0.04131659,0.01251592
0.8969373,0.2411027,0.4073718,0.005383326,-0.04039818,0.01296485
0.8986705,0.2410127,0.4078311,0.00610115,-0.0332864,0.009224326
0.9013545,0.2428507,0.4092598,0.006085861,-0.02858442,0.006427439
0.9009951,0.2433305,0.4100885,0.006807689,-0.02900644,-0.000452568
0.900402,0.2455908,0.4112553,0.007835857,-0.02816682,-0.002595294
0.9004166,0.2468867,0.4117711,0.008022649,-0.0294401,-0.002064062
0.8966156,0.2450609,0.411586,0.008408208,-0.0360907,-0.005536483
0.8967595,0.245612,0.4165092,0.008817051,-0.04190954,-0.004129686
0.8990724,0.2442449,0.4199439,0.008455413,-0.03378452,-0.006974141
0.8987073,0.2412328,0.4114249,0.005290851,-0.01211341,-0.01374213
0.9016377,0.2425132,0.4043694,0.002952105,0.008496062,-0.01564696
0.9023379,0.243666,0.4101384,0.005011368,0.01862799,-0.01825627
0.8965004,0.2440963,0.4148695,0.005550507,0.01669226,-0.01792215
0.8913838,0.2455309,0.4089065,0.004373364,0.015813,-0.01991522
0.8945208,0.2461817,0.405641,0.002573637,0.01975336,-0.02668769
0.9013335,0.2464263,0.4077722,-0.002013763,0.02092254,-0.03008705
0.9027707,0.2485866,0.4060357,-0.006023483,0.02879477,-0.03623132
0.9037025,0.2528304,0.4047287,-0.01027642,0.03840627,-0.03609977
0.9003002,0.2536302,0.4064751,-0.0148779,0.03831166,-0.02488595
0.8927758,0.2521844,0.4140482,-0.01750745,0.03753418,-0.0169811
0.8940839,0.2532855,0.422163,-0.01834654,0.03999012,-0.01299257
0.8957717,0.2550494,0.4204701,-0.01628408,0.04506684,-0.01484774
0.895382,0.2576802,0.4203827,-0.01774242,0.05074659,-0.01677025
0.8966275,0.2592554,0.4187958,-0.01966209,0.05268139,-0.01332883
0.8893162,0.2580539,0.4119917,-0.01415027,0.05289858,-0.01209424
0.8820179,0.2581256,0.4192193,-0.01211799,0.05387127,-0.003389818
0.8865985,0.2583025,0.4286333,-0.01136147,0.05536281,0.007844943
0.8923812,0.2556332,0.4263572,-0.007570378,0.05833851,0.006784391
0.8913849,0.2510937,0.4266057,-0.008854214,0.05853963,-0.001364563
0.8895584,0.2466613,0.427593,-0.008183901,0.03993596,-0.01241112
0.8888344,0.2420711,0.4246812,-0.006364414,0.005608659,-0.01491745
0.8871486,0.2309886,0.4237495,-0.006973007,-0.01383749,-0.01086796
0.882706,0.2199495,0.423546,-0.004693884,-0.01217861,-0.0133526
0.8717354,0.2279285,0.4254445,-0.0003923655,-0.01655991,-0.01227703
0.8680796,0.2450598,0.4336197,0.008826021,-0.02459904,-0.005065153
0.8814236,0.2529118,0.4424743,0.01338682,-0.01131425,-0.001058575
0.8936463,0.2579919,0.4429739,0.008999008,-0.002654254,-0.006905879
0.8948734,0.2603918,0.4387914,0.007800607,-0.01987282,-0.01712293
0.8924479,0.2586389,0.4346676,0.004379042,-0.03319483,-0.01705881
0.8947072,0.2568568,0.427147,-0.001349444,-0.03061263,-0.01648432
0.8981899,0.250749,0.4203734,-0.004438275,-0.01317979,-0.02044728
0.8958753,0.2471118,0.4140058,-0.00728499,0.0125727,-0.02040486
0.8910449,0.2473323,0.4116455,-0.00720167,0.02220382,-0.02314875
0.8840191,0.2455975,0.4198604,-0.007250574,0.01025457,-0.0249911
0.8813445,0.2485514,0.422719,-0.004894978,-0.004394111,-0.02322512
0.8861335,0.252388,0.4222662,-0.0006465639,-0.007712493,-0.02443865
0.8893144,0.2524312,0.4252788,-0.003181487,-0.005611943,-0.02377069
0.8943444,0.2529614,0.4229936,-0.004126662,-0.002132068,-0.02316782
0.8977299,0.2536247,0.4253284,-0.0002830582,0.002460776,-0.0244553
0.8932925,0.2533486,0.4278463,0.0005086623,0.008019047,-0.02429941
0.8893764,0.2516109,0.4253791,-0.002091575,0.01726201,-0.02506075
0.8865519,0.2510855,0.427117,-0.005135683,0.02191252,-0.02657375
0.8855528,0.2532108,0.427322,-0.003808965,0.02554637,-0.0286418
0.8855502,0.256623,0.4288768,-0.0004599523,0.02537515,-0.02771574
0.8812031,0.2591263,0.4309787,-0.0006975313,0.0169504,-0.02314838
0.8795143,0.2567745,0.4304393,-0.003900443,0.02066548,-0.02076642
0.8812198,0.2543067,0.4328638,-0.007437187,0.0258646,-0.01976503
0.8813332,0.2557788,0.4332394,-0.005814137,0.02303616,-0.01912642
0.882195,0.2556309,0.4316519,-0.003563339,0.0233927,-0.01859245
0.8821304,0.2532791,0.4300261,-0.007096394,0.01911849,-0.01917268
0.8816069,0.2524335,0.4300012,-0.007003393,0.01419274,-0.02153686
0.8820328,0.2532179,0.4309488,-0.0004571989,0.008980437,-0.02249916
0.8809421,0.2555954,0.4272722,0.00504251,0.003666563,-0.02291305
0.8802465,0.2583356,0.4255714,0.003126245,0.005397352,-0.01926772
0.8811067,0.2597794,0.4256589,-0.006923424,-0.0001033516,-0.01365456
0.8833016,0.2614465,0.4218989,-0.01364172,-0.008482926,-0.01637667
0.8857251,0.2610168,0.4182725,-0.01159823,-0.009304837,-0.02255283
0.8858483,0.2561964,0.4182554,-0.007759459,-0.006450198,-0.02920099
0.8858581,0.2510354,0.4188897,-0.004780296,0.003903262,-0.03671892
0.8863092,0.2494809,0.4172704,0.002766804,0.01121396,-0.03669338
0.8834824,0.2544551,0.4257836,0.01120265,0.001949159,-0.03535548
0.8762648,0.2618098,0.4419281,0.00841785,-0.02811776,-0.04110733
0.8707958,0.2636911,0.4453825,0.003565973,-0.07389736,-0.04677489
0.8757743,0.262685,0.4392168,0.002575962,-0.09625552,-0.04865574
0.8821224,0.2648451,0.4319675,-0.001840231,-0.06617215,-0.04650294
0.8776156,0.2705186,0.4266139,0.001269064,-0.01930949,-0.04005653
0.8742579,0.2738725,0.4255721,0.006011635,0.006092375,-0.03331655
0.8762727,0.2712017,0.4252468,-0.001108672,0.01737812,-0.0321139
0.8769818,0.2671253,0.4275653,-0.003825879,0.01694591,-0.03641108
0.8831484,0.2643014,0.4342861,0.002088798,0.004542229,-0.03623007
0.8887249,0.2634985,0.4384674,0.00359733,-0.004591662,-0.03118855
0.8858908,0.2632557,0.4331327,-0.004270152,0.00304251,-0.0274163
0.8803221,0.2598999,0.4250725,-0.01328387,0.02859408,-0.02524221
0.8748319,0.2578167,0.4249174,-0.009991487,0.04872886,-0.02696751
0.8785524,0.2575012,0.4265877,-0.0004722779,0.05804722,-0.02988164
0.8860258,0.2555094,0.4260198,0.008619083,0.06080362,-0.03579604
0.8838232,0.2553092,0.4270847,0.01726333,0.05563009,-0.04397027
0.8798374,0.256113,0.4294073,0.01807338,0.05712433,-0.04288949
0.8761173,0.2591351,0.4356745,0.01733603,0.05468942,-0.03990149
0.8720336,0.2704676,0.4413883,0.01255627,0.04826854,-0.03986441
0.8699597,0.2849369,0.4400583,-0.002792864,0.03904522,-0.0359112
0.8682694,0.2907655,0.4429861,-0.00747954,0.01391882,-0.03384223
0.8708374,0.2894247,0.4496891,-0.004179988,0.005884486,-0.03207499
0.8722642,0.2905208,0.4463999,-0.009037706,0.01165231,-0.02690685
0.8724981,0.2864705,0.4417515,-0.01027097,0.005525905,-0.02603162
0.8761126,0.2769319,0.4418396,-0.006476849,0.004022675,-0.0254851
0.8732842,0.2785809,0.4395499,-0.003552936,0.001842872,-0.02110165
0.8693653,0.2829424,0.4388716,-0.001223734,-0.01084023,-0.02183266
0.869538,0.282138,0.4359073,-0.005196203,-0.0281926,-0.02247639
0.8686128,0.2819339,0.4267982,-0.01431829,-0.03683063,-0.01582099
0.8743655,0.2722631,0.4258402,-0.02017286,-0.0261081,-0.01228192
0.8821285,0.2599563,0.4335499,-0.01469007,-0.01768087,-0.0139897
0.8806325,0.2624206,0.4386758,0.004122501,-0.02091583,-0.01560972
0.8752046,0.2724904,0.4401687,0.02455024,-0.01703123,-0.01632958
0.8707203,0.2832873,0.441528,0.02831498,-0.01046451,-0.01566577
0.8680433,0.2911934,0.4414753,0.0178531,-0.01390946,-0.01373966
0.8684102,0.2898069,0.4346884,0.01235967,-0.01617075,-0.01269942
0.8687581,0.2883497,0.4289326,0.005069193,-0.01448329,-0.01625152
0.8684326,0.2892525,0.4313188,-0.00396097,-0.01638937,-0.01829529
0.8708259,0.2821057,0.4330073,0.006054479,-0.02065002,-0.01435976
0.8717445,0.2782831,0.4324338,0.01601936,-0.03232284,-0.006741157
0.8717297,0.2826454,0.4317942,0.009848401,-0.04290813,0.0003793189
0.8764381,0.2812523,0.4280412,0.002291463,-0.03757309,-0.008198278
0.879011,0.2770762,0.4232429,-0.005065158,-0.030276,-0.01908818
0.8767729,0.274091,0.4228835,-0.004019081,-0.0296116,-0.01055981
0.873015,0.2743664,0.425854,0.006448605,-0.02852056,-0.005935025
0.8697584,0.2781858,0.427698,0.01191387,-0.02879664,-0.01262018
0.871368,0.278018,0.4291193,0.01693642,-0.02653549,-0.0172971
0.8730975,0.2814245,0.4262074,0.01793328,-0.01767479,-0.02318962
0.8706825,0.2917681,0.421902,0.007892294,-0.0135166,-0.01953895
0.8684757,0.3001335,0.4255346,-0.002039497,-0.02543796,-0.008629337
0.8690551,0.298885,0.4283758,-0.007747304,-0.0446274,-0.007682031
0.8741273,0.2874462,0.4278224,-0.01024028,-0.04632887,-0.005841087
0.8800682,0.2788412,0.4290681,-0.01041244,-0.0365233,-0.003441967
0.8794371,0.2768392,0.4276055,-0.008881037,-0.03579745,-0.006107594
0.8779643,0.2814123,0.4263454,-0.006139132,-0.03436757,-0.002910522
0.8810871,0.2876884,0.4253483,-0.00725541,-0.03020852,-0.002648585
0.880487,0.2858278,0.4213387,-0.009416145,-0.02800433,-0.004757502
0.8780604,0.2853665,0.4186808,-0.01334594,-0.02582205,-0.001940838
0.8779843,0.2850864,0.4145126,-0.01746642,-0.02609944,-0.004358483
0.8762265,0.2823092,0.412745,-0.00558256,-0.02394097,-0.004967312
0.8737009,0.2855094,0.4195353,0.01253615,-0.02571361,0.0002126174
0.8702227,0.2872578,0.422397,0.01507225,-0.02911298,0.007696454
0.8723185,0.2876331,0.4203152,0.01079797,-0.02336636,0.01587858
0.877375,0.2902066,0.420885,0.01173562,-0.01925881,0.01397562
0.873364,0.2925238,0.4206177,0.01199374,-0.01823824,0.0125666
0.8717082,0.2953901,0.4199992,0.008734193,-0.02209367,0.01712491
0.8742437,0.2943051,0.4188685,0.007485017,-0.02936886,0.01597231
0.8748276,0.2901707,0.4173173,0.008372286,-0.02728425,0.01832771
0.8805554,0.2851768,0.4166689,0.01014973,-0.02103835,0.02317542
0.8851999,0.2807885,0.4160614,0.01301027,-0.01107022,0.0198496
0.8846028,0.2820997,0.4169659,0.01362155,-0.001320046,0.01670752
0.8814248,0.2855663,0.4158096,0.01085582,-0.002217801,0.0156751
0.8765127,0.2875774,0.4148894,0.0055992,-0.003452403,0.01269479
0.8749961,0.2887502,0.417723,0.001144318,-0.00401535,0.01322857
0.8757122,0.2882545,0.4193132,0.001313359,-0.008639634,0.01947087
0.8767173,0.2880255,0.4193345,0.002239568,-0.009574175,0.02553992
0.8768607,0.2891692,0.4166822,0.001729026,-0.008066253,0.02552537
0.8769334,0.2891246,0.4143384,0.003029886,-0.007409749,0.02399262
0.8793184,0.28928,0.416297,0.001962584,-0.006753905,0.02599358
0.8798512,0.292626,0.416873,-0.0009063244,-0.009117832,0.02395954
0.8808015,0.2952001,0.4147562,0.0005991072,-0.01427123,0.02170781
0.8834509,0.291715,0.413187,-0.001424104,-0.02078663,0.02767276
0.8827684,0.2841609,0.4134558,-0.005275067,-0.02569205,0.03152979
0.8814277,0.2801592,0.4125551,-0.00423834,-0.02621797,0.03018971
0.8818657,0.2821412,0.4101757,-0.003668549,-0.0266248,0.0313148
0.8820486,0.2845573,0.4104876,-0.000245792,-0.02611959,0.03411256
0.8809061,0.2848196,0.4089699,6.523828e-05,-0.02255373,0.03302541
0.8807309,0.2844339,0.4067469,-0.00406281,-0.01781323,0.02759041
0.8833536,0.2829551,0.4121314,-0.003771311,-0.01201259,0.02159284
0.8855408,0.2812624,0.4176437,-0.00863683,-0.008325065,0.01596397
0.8850205,0.282392,0.4154103,-0.01137317,-0.002912176,0.01622353
0.8837712,0.2850359,0.4147781,-0.006229371,0.001763352,0.02071441
0.8831896,0.2864209,0.4197616,-0.00460638,-0.01416732,0.02236911
0.8814232,0.2854541,0.4205753,-0.00327764,-0.03267563,0.02815322
0.8809424,0.2826807,0.4144977,-0.004829677,-0.01877604,0.03108845
0.8835583,0.2811056,0.4093768,-0.007076828,0.001013399,0.02616064
0.8842329,0.2795092,0.412511,-0.003392808,0.002445418,0.02790897
0.8833455,0.2781751,0.4178575,0.0005081263,0.004190276,0.0287868
0.8832147,0.2787357,0.4167164,0.004093599,0.004185239,0.02371068
0.8845685,0.2771982,0.415827,0.004098166,0.004307667,0.02163219
0.8871331,0.2755053,0.4133818,0.0008344958,0.01318525,0.01789131
0.8877673,0.275093,0.408542,-0.0001771706,0.01982674,0.01616411
0.8872861,0.2749485,0.412632,-0.001326758,0.02654522,0.01728076
0.8855879,0.2780846,0.4144,-0.003812438,0.02982819,0.01333336
0.8840335,0.2800654,0.4097929,-0.00822454,0.02846151,0.009120813
0.8848519,0.2790472,0.4125481,-0.01253306,0.03561392,0.004633386
0.8846425,0.2790304,0.4179387,-0.01480074,0.0420899,-0.001123194
0.8837275,0.2792004,0.4218899,-0.01558192,0.03999351,-0.003916713
0.8833125,0.2794347,0.4218873,-0.01505437,0.03520744,-0.002155007
0.8840304,0.2799816,0.4173734,-0.01709956,0.03108297,0.0006976484
0.8851472,0.2800769,0.4180123,-0.01723241,0.02770873,-0.00220181
0.8837125,0.2772435,0.4191114,-0.01453523,0.02761059,-0.004099392
0.8826956,0.2736906,0.4199133,-0.01517386,0.03069396,-0.004707664
0.8822265,0.2760481,0.42306,-0.01114021,0.02868443,-0.00700087
0.8799147,0.2793232,0.4186779,-0.004439953,0.02916515,-0.002777707
0.8783076,0.2791744,0.4139923,-0.00394685,0.03276634,4.931865e-05
0.8784115,0.2792851,0.413576,-0.004994111,0.03215576,-9.102243e-05
0.8789567,0.2787722,0.4110508,-0.005162855,0.03534127,-0.001013373
0.8799404,0.2772544,0.414421,-0.001626978,0.03519482,-0.00559108
0.8811541,0.2760501,0.4208719,0.00359964,0.03149319,-0.003371103
0.8803831,0.2763711,0.4190238,0.004630804,0.02827893,-0.001422235
0.8790685,0.2789881,0.4151319,0.003874544,0.01818175,-0.002329118
0.8784401,0.2813707,0.416541,0.002057553,0.01379962,0.001500811
0.8773776,0.2828453,0.4176732,0.0007095948,0.01967446,0.0003239664
0.8786757,0.2838776,0.4167302,0.0003337222,0.02680466,-0.001001798
0.8794736,0.2848005,0.4177511,-0.002797336,0.02887646,0.0003510915
0.8770381,0.2852707,0.4178553,-0.007092818,0.02092229,-0.001416004
0.8758963,0.2839439,0.4184748,-0.006372318,0.0133037,-0.0003947497
0.8761039,0.2828801,0.4204689,-0.001677252,0.01226632,0.0001995874
0.8755678,0.2818159,0.4191693,-0.001264827,0.009336384,-0.002164949
0.8739674,0.2812713,0.4192584,-0.002113721,0.002058992,-0.002792854
0.8741053,0.2827746,0.4211006,-0.002577575,-0.0003363092,-0.0006973953
0.8769054,0.2827084,0.4215615,-0.007171201,0.001720982,0.001878059
0.878478,0.2832225,0.4229052,-0.009780156,0.007356067,-0.0004885854
0.8789253,0.2838465,0.4244216,-0.01063169,0.0279972,-0.006803056
0.876485,0.2817883,0.4297343,-0.01029789,0.03904639,-0.01148052
0.8722569,0.2818848,0.4338055,-0.005241511,0.0168579,-0.01009359
0.8735714,0.2822728,0.4238292,-0.003679946,-0.002259511,-0.004767108
0.8771009,0.2827177,0.4142051,-0.006833234,0.00428295,-0.002819037
0.8776096,0.2848679,0.4210542,-0.008566975,0.01112554,-0.0008906012
0.8775127,0.2842932,0.4274076,-0.007900225,0.009362731,0.001758661
0.8769182,0.2819952,0.4235321,-0.005813836,0.01352181,-3.830843e-05
0.8751242,0.2799857,0.4227165,-0.005221043,0.01538037,-0.002482885
0.8745519,0.2809626,0.4244023,-0.005377118,0.01200237,-0.004154185
0.875247,0.2830664,0.4233925,-0.004903285,0.01463848,-0.004249749
0.8749993,0.2828077,0.42418,-0.002801216,0.0142361,-0.002804669
0.8748606,0.2879257,0.4240417,0.001440285,0.01474603,-0.003259468
0.8751623,0.2937569,0.4232868,0.003855996,0.01903069,-0.001689984
0.8747147,0.2898217,0.4257277,0.006997816,0.0182489,0.002624008
0.8741292,0.2852844,0.4270275,0.01265094,0.0207223,0.0085564
