accx,accy,accz,gyrox,gyroy,gyroz
0.9997377,0.02735771,0.2015398,-0.01544778,-0.06523657,0.150668
1.005089,0.01844573,0.1971916,-0.0176097,-0.07785711,0.1470568
1.005606,0.009774508,0.1964426,-0.009047644,-0.06893807,0.145186
1.006155,0.01110419,0.199889,0.007188942,-0.04498671,0.1440972
1.005622,0.009039429,0.2000166,0.003224609,-0.02930119,0.1403463
1.007103,0.003745299,0.197288,-0.01637899,-0.02978464,0.1430245
1.010622,-0.001144549,0.1931718,-0.03134882,-0.04036752,0.1484316
1.008919,-0.005310662,0.1891386,-0.02101946,-0.04504256,0.1501857
1.007006,0.001575075,0.1902654,-0.003064538,-0.03782262,0.1429192
1.005012,0.01142672,0.1907425,-0.01068487,-0.03554332,0.1260697
1.004798,-0.0001643448,0.1897916,-0.02431835,-0.04422166,0.1134932
1.006808,-0.009882157,0.1909617,-0.03387278,-0.05070729,0.1141492
1.005844,0.003117393,0.1921094,-0.03511038,-0.04345153,0.1212549
1.007316,0.009062522,0.1948206,-0.01948738,-0.02737174,0.1202779
1.008496,0.004991764,0.1984636,-0.009005186,-0.01921206,0.1192985
1.007747,0.007815175,0.2053115,0.005145599,-0.02197691,0.122206
1.008629,0.01273953,0.2122027,0.01413837,-0.03063768,0.1193411
1.006281,0.01793897,0.2083809,-0.005720044,-0.03944704,0.128163
1.004789,0.02380386,0.2036647,-0.01513593,-0.04459899,0.1399386
1.00585,0.02130442,0.2044434,-0.007332583,-0.04307608,0.1356697
1.005118,0.007863755,0.1969864,-0.00248471,-0.03319675,0.1317793
1.003829,-0.0006345404,0.188118,0.002579316,-0.03018907,0.1284287
1.002184,0.003170936,0.1914608,-0.0007721985,-0.03658251,0.1230611
1.002895,0.008722136,0.1953136,-0.005041726,-0.04543599,0.1200511
1.005111,0.01057037,0.1965228,-0.003063968,-0.05491742,0.1171516
1.005524,0.01094564,0.2004773,-0.002386369,-0.05399376,0.1170805
1.00497,0.01612949,0.1955003,-0.002737091,-0.04485466,0.1155759
1.00434,0.02327638,0.187389,-0.006588016,-0.03535647,0.1114221
1.007598,0.0209203,0.1903392,-0.01781039,-0.03503781,0.1098068
1.010948,0.007900339,0.1915931,-0.03065317,-0.03982429,0.1101972
1.007936,-0.004482741,0.1896891,-0.02920001,-0.03494616,0.1073427
1.00571,-0.004053557,0.1944421,-0.02822974,-0.0330412,0.1043242
1.007279,0.002596012,0.1978031,-0.04425157,-0.02667785,0.1075146
1.007065,0.003723769,0.1994179,-0.04786398,-0.01259187,0.1078067
1.005466,0.004069395,0.2031614,-0.03648448,-0.0100615,0.1070983
1.004582,0.008077773,0.2035269,-0.02850486,-0.008137532,0.1083018
1.003858,0.01091656,0.2022286,-0.02149284,-0.01610714,0.1052115
1.003876,0.01044717,0.202597,-0.01849646,-0.03246815,0.1062499
1.003577,0.01175055,0.2021956,-0.01583956,-0.02714204,0.1090627
1.002284,0.01505357,0.2001425,-0.01236946,-0.02432648,0.1141455
1.0034,0.01041208,0.1975424,-0.009881097,-0.03551332,0.1224271
1.006719,-0.006759503,0.1942706,-0.001514182,-0.03443258,0.1181546
1.008568,-0.02205241,0.193358,0.003911513,-0.03204832,0.1117886
1.006201,-0.01593515,0.1953157,0.0008867551,-0.03543015,0.112105
1.002771,0.003313732,0.1941781,-0.002681244,-0.03486875,0.1088763
1.005324,0.0134479,0.1933717,-0.0009293915,-0.039734,0.1012255
1.008586,0.01438934,0.1945572,0.004882445,-0.05011429,0.09249349
1.008106,0.01419874,0.1922355,0.01122584,-0.05411976,0.09214967
1.009167,0.02030499,0.1896601,0.01662209,-0.03682197,0.09355018
1.010982,0.02625921,0.1894508,0.006134284,-0.009239395,0.09091599
1.013005,0.01098964,0.1910052,-0.01388971,-0.004523648,0.09987878
1.012573,-0.007414831,0.1946764,-0.02163734,-0.002817924,0.1071781
1.007767,-0.007146125,0.2007661,-0.02833209,0.003068587,0.09583965
1.005532,-0.002934708,0.2036897,-0.03663307,-0.006338228,0.08340065
1.006415,0.002711806,0.2003322,-0.0357878,-0.002733861,0.08191749
1.009048,0.01040924,0.2028316,-0.02812279,0.004970968,0.08447986
1.010792,0.01292476,0.2089477,-0.02285384,0.0004774675,0.08420985
1.008301,0.01455371,0.2108558,-0.02954305,-0.001748436,0.08303852
1.005226,0.01669644,0.212289,-0.03253085,-0.02002384,0.08417884
1.002132,0.01106224,0.209247,-0.01756011,-0.03197034,0.08687764
1.003579,0.004121713,0.203914,-0.005088464,-0.01708859,0.08794194
1.00696,0.01001766,0.1978531,-0.01123046,-0.01259107,0.08299664
1.002425,0.01436764,0.1946324,-0.01694707,-0.02408695,0.07816913
1.000239,0.01144234,0.1991942,-0.009346592,-0.03509263,0.07867389
1.004576,0.013566,0.1993015,-0.005795437,-0.03787081,0.07599316
1.008209,0.01621063,0.2005057,-0.004929434,-0.03738654,0.07130257
1.010876,0.01731409,0.2051572,-0.003773433,-0.03498758,0.07320447
1.009906,0.0118195,0.2031153,-0.01219711,-0.02791949,0.07513305
1.008952,0.003518508,0.2024813,-0.01951067,-0.02118755,0.07215705
1.009981,0.00673911,0.2005369,-0.02867731,-0.004115913,0.0722233
1.006873,0.009102236,0.1998421,-0.04012882,0.002896372,0.07572151
1.001735,0.00853749,0.2056112,-0.03718927,-0.006615935,0.07813438
0.9992948,0.01686622,0.2087312,-0.02767074,-0.005618224,0.07909253
1.002467,0.02119265,0.211366,-0.02270272,-0.01493047,0.08063946
1.007001,0.01364907,0.2075871,-0.02558357,-0.02294818,0.08388912
1.006498,0.005929384,0.2011911,-0.02901513,-0.008924852,0.08026438
1.006228,0.004935797,0.2059284,-0.0221849,0.0002338678,0.0759093
1.005531,0.009206312,0.2121028,-0.01775155,-0.0003213362,0.08078043
1.00132,0.01445811,0.2181968,-0.01997475,-0.01433614,0.08264981
1.001039,0.0157692,0.2210723,-0.01767847,-0.03345186,0.08695216
1.003872,0.01235762,0.2127979,-0.0112414,-0.03845656,0.09088214
1.005385,0.008993207,0.2051864,-0.007281798,-0.03439314,0.07762392
1.005888,0.01014582,0.2023629,-0.007129579,-0.03226841,0.06979691
1.004427,0.0139997,0.202702,-0.003655301,-0.0401544,0.07704505
1.004312,0.0169338,0.2039749,0.003002153,-0.0473798,0.08186773
1.007401,0.01667875,0.1995493,0.005804822,-0.04709953,0.08304936
1.01086,0.0120175,0.1970084,0.004422462,-0.03121394,0.08467581
1.012013,0.007125131,0.1990597,-0.004807342,-0.005361094,0.08341553
1.010163,0.005238636,0.199979,-0.02050426,-0.003350751,0.07556323
1.007921,0.00622336,0.2017439,-0.02690026,-0.006211517,0.07097753
1.004759,0.0103507,0.2034926,-0.02346786,-0.001304346,0.06722504
1.002928,0.01368809,0.2076298,-0.02747807,-0.01124013,0.06094929
1.004732,0.01387061,0.2123047,-0.03494289,-0.01434055,0.06292733
1.004353,0.01614862,0.2111065,-0.03280274,-0.001461375,0.06275015
1.003441,0.01910489,0.2125154,-0.032853,0.007510882,0.06531574
1.003774,0.01051833,0.2143837,-0.03540735,0.004140613,0.07277087
1.001924,0.0002528293,0.2088429,-0.02243546,-0.008030712,0.06712355
1.000093,0.01030695,0.2062212,-0.006180777,-0.02192763,0.06052726
0.9963547,0.02763521,0.210392,-0.004735741,-0.0369609,0.05839013
0.9934564,0.03126862,0.2141523,-0.007743302,-0.03742746,0.0646926
0.9994079,0.01637739,0.2111788,-0.004505297,-0.02703158,0.07535302
1.008051,-0.001236784,0.2032562,7.44752e-05,-0.01835453,0.06276091
1.010113,0.008185451,0.1988425,0.001470443,-0.004852387,0.05074947
1.003659,0.02280486,0.2015779,0.003805045,-0.02071017,0.05783469
0.9982494,0.01944738,0.209108,0.00490518,-0.05136659,0.05541158
1.00535,0.01985903,0.2095783,0.0008750866,-0.03975887,0.04582134
1.012426,0.01567787,0.2008165,-0.00562397,-0.01679663,0.04349318
1.009044,0.007220226,0.1965791,-0.01782712,-0.00120663,0.04996423
1.006663,0.008916561,0.2035198,-0.03035947,0.007254336,0.05863889
1.005788,0.007910587,0.2130632,-0.03098695,-0.003974131,0.05373921
1.003815,0.01027349,0.2103765,-0.02217566,-0.00238314,0.04681619
1.005951,0.01676923,0.2069082,-0.01487496,0.0009738884,0.04908959
1.006278,0.02114652,0.2099959,-0.01915645,-0.006226712,0.04858235
1.004452,0.02387974,0.2057936,-0.02920462,-4.194805e-05,0.05267638
1.004985,0.01741871,0.2061324,-0.03242437,-0.000481772,0.06073756
1.003063,0.01287424,0.2096978,-0.02771698,7.486095e-06,0.05827368
1.001971,0.006021654,0.2076383,-0.0155413,0.003877865,0.05180258
1.003006,-0.003286585,0.2109414,-0.007858731,-0.01661627,0.04655171
1.000796,0.01004569,0.2106639,-0.01317215,-0.03490023,0.04691958
0.99934,0.02628468,0.2089021,-0.01459653,-0.03277903,0.05117208
1.000231,0.02316265,0.2135472,-0.005256161,-0.02199756,0.05040358
1.001041,0.01962473,0.2122853,0.005108599,-0.01189325,0.05232551
1.001626,0.02173382,0.2061952,0.01060708,-0.009123774,0.0549218
1.001736,0.0206881,0.2032986,0.01290909,-0.0106151,0.05226601
1.003476,0.0261664,0.2065187,0.01457907,-0.01892404,0.04834389
1.006538,0.03381294,0.2093272,0.007688886,-0.02738614,0.0438049
1.007855,0.02091939,0.204167,-0.006235447,-0.02713817,0.04504516
1.0075,0.007114993,0.1996582,-0.01737749,-0.01516858,0.04772155
1.007082,0.01077368,0.2019496,-0.02803414,-0.001574619,0.04483877
1.005338,0.01168664,0.2067743,-0.03088562,-0.009227059,0.04305355
1.003667,0.009143259,0.2101478,-0.02145513,-0.01653584,0.04235577
1.00689,0.01331907,0.2127604,-0.01868157,-0.01019134,0.04292758
1.009351,0.01699329,0.2148853,-0.02617944,-0.01277491,0.04574689
1.006284,0.0139149,0.2148861,-0.03025571,-0.01274305,0.04738058
1.004479,0.008281885,0.2154752,-0.02617045,-0.004024102,0.04687739
1.004665,0.005275629,0.2174375,-0.01460004,-0.001004186,0.04437055
1.003237,0.01003022,0.2184121,-0.005749056,-0.005757097,0.04314615
1.001991,0.02056141,0.2178388,-0.007798315,-0.01729301,0.04278425
1.002189,0.02068085,0.2160489,-0.009858522,-0.0265967,0.04124274
1.002085,0.009948294,0.214077,-0.004027033,-0.03041487,0.03902152
1.001007,0.003045635,0.2112266,0.0009211245,-0.03202978,0.03657942
0.9980351,0.005329432,0.2067794,0.003337251,-0.03139947,0.03978118
0.9952594,0.01002626,0.2040385,0.008954994,-0.03602202,0.04273314
0.9999454,0.01009961,0.2041871,0.007989376,-0.04104063,0.03427821
1.005255,0.01570633,0.2051807,-0.001234626,-0.03649888,0.02768627
1.002498,0.02428354,0.2096223,-0.005950062,-0.03026908,0.03548208
1.002372,0.02597956,0.2150686,-0.003280479,-0.0226439,0.04665119
1.00751,0.02551624,0.2137002,-0.0003349183,-0.01053615,0.04868061
1.012684,0.01532182,0.2099098,-0.00910058,-0.005432269,0.0409447
1.015509,0.005883465,0.2066394,-0.01925854,-0.00421284,0.03082371
1.007661,0.01170714,0.2014135,-0.01825125,0.0024081,0.02625989
0.9989904,0.01443424,0.2032383,-0.02049422,0.002296564,0.02555783
1.00275,0.01167684,0.2109098,-0.0257219,-0.004157701,0.02563773
1.004046,0.01317168,0.2136243,-0.02567327,-0.005774814,0.03017931
0.9986035,0.01815453,0.2170508,-0.02583832,-0.003981194,0.03313444
0.9981412,0.02423429,0.2210815,-0.03176444,0.0002604555,0.02741747
0.9990563,0.02295913,0.2190605,-0.03645935,-0.0008600569,0.02253263
0.9996032,0.007864982,0.2165381,-0.02348234,-0.0061308,0.02596193
1.002367,-0.007190775,0.2138955,-0.003260475,-0.01437669,0.03008143
1.003201,-0.002489043,0.2115016,0.001997421,-0.0295648,0.02916937
1.00316,0.004296631,0.21345,-0.003837405,-0.02881174,0.02957202
1.004452,-0.0004617156,0.2146419,-0.004931623,-0.01971659,0.02959572
1.006034,0.002341694,0.2135934,0.003226717,-0.017403,0.02265081
1.004759,0.008978416,0.2137714,0.008955767,-0.00798989,0.01692344
0.9986402,0.01696536,0.2141341,0.01016013,-0.0139618,0.01886264
0.994763,0.02652222,0.2119615,0.01647387,-0.02673382,0.0210232
0.9983016,0.02275436,0.2049211,0.02181422,-0.01631324,0.01706197
1.003598,0.02256601,0.1967184,0.01386263,-0.01069931,0.01556239
1.003019,0.02733749,0.1951807,-0.001568095,-0.007749738,0.02059474
1.000073,0.01503403,0.1955356,-0.01179526,0.005146751,0.02194961
1.000802,0.005412916,0.1949661,-0.01789766,0.005836682,0.01825074
1.003431,0.009898536,0.2045876,-0.0206992,0.006067908,0.01434653
1.007419,0.01191491,0.2136105,-0.02011304,0.01170338,0.01456893
1.006585,0.01234305,0.2101435,-0.02101879,0.007366956,0.01491694
1.001121,0.0162059,0.2113096,-0.02110888,0.003007397,0.009803907
1.0004,0.01631093,0.2179821,-0.02277251,0.001411906,0.007702196
1.000505,0.01235215,0.21978,-0.02990843,0.004228451,0.007790482
1.000483,0.01145405,0.2235384,-0.03368575,0.01819128,0.00744154
1.000109,0.009402665,0.2301802,-0.0229865,0.02313661,0.007511559
0.9971234,0.009003664,0.231268,-0.004474265,0.005247993,0.00356522
0.996355,0.01386916,0.2271537,0.0007977253,-0.0195394,0.004339756
0.9959737,0.01424177,0.2240738,-0.002514801,-0.030164,0.01127542
0.9989393,0.01470413,0.2211296,0.002391254,-0.02775112,0.01206435
1.005109,0.01596048,0.2157967,0.007802757,-0.02075392,0.0002956284
1.005771,0.01660684,0.2122599,0.006668514,-0.004146245,-0.01246588
1.002762,0.02559872,0.2144211,0.007232504,0.003373215,-0.00245865
0.9993565,0.03283304,0.2184698,0.01300567,-0.007550232,0.01805598
1.000151,0.02705994,0.2192527,0.01545512,-0.01136082,0.02470261
1.004443,0.01486286,0.2168807,0.009754035,-0.007979914,0.0205615
1.005691,0.009985536,0.211104,-0.001005187,-0.002372953,0.008391026
1.004316,0.01328802,0.2051274,-0.01227471,0.005902395,0.001728213
1.001329,0.01522273,0.2020671,-0.01632528,0.006385797,0.009877636
1.000715,0.0178826,0.2032219,-0.01273461,0.004558421,0.0149833
1.000463,0.01904393,0.2099827,-0.01114801,0.004156577,0.01312612
0.9992477,0.01781907,0.2143381,-0.01759702,0.001488806,0.01239997
1.002509,0.01954649,0.2157014,-0.02332432,-0.0002093893,0.01200702
1.003422,0.01993096,0.2161668,-0.02010657,-0.0005297324,0.009981794
1.002275,0.01815061,0.2143133,-0.01518343,-0.001444265,0.008212828
1.002846,0.01764926,0.2169858,-0.01004814,-0.004106523,0.007488199
1.000665,0.01796728,0.2195274,-0.003553493,-0.007017696,0.006767957
0.9999268,0.01625034,0.2209094,0.0005220519,-0.006383548,0.01025505
1.001727,0.01470001,0.2235227,0.001524162,-0.003694413,0.01352078
1.003022,0.01681816,0.2202489,0.0006234555,-0.004004608,0.01342023
1.000873,0.01975259,0.2175453,0.004351366,-0.005946233,0.01413895
0.9959892,0.02166493,0.2165229,0.007005357,-0.01170845,0.01135642
0.996014,0.02114591,0.2157752,0.004452933,-0.01845094,0.01073804
0.9995435,0.02117135,0.2176623,0.005699907,-0.01154229,0.01324297
1.002438,0.02259256,0.2162569,0.0003858705,-0.002669213,0.01066709
1.001828,0.02039088,0.2163721,-0.007916315,-0.004686099,0.007381272
0.9993597,0.01876157,0.2173756,-0.003915597,-0.004215638,0.004219729
1.000378,0.020631,0.2164906,-0.002684597,-0.002353723,0.005816289
1.000382,0.02224248,0.2197512,-0.006593568,-0.003232369,0.01273622
1.001337,0.02223195,0.2220151,-0.005846305,-0.0009521495,0.01369166
1.003769,0.02103853,0.2226102,-0.006090798,-0.000723164,0.01157296
1.001624,0.01882285,0.2239909,-0.00716246,-0.003338064,0.008167906
1.000641,0.01458177,0.2235704,-0.007689989,-0.002672154,0.003430805
1.000832,0.01140469,0.222959,-0.00768388,-0.001723137,0.004273295
0.9995806,0.01461244,0.2234718,-0.006142963,-0.002814401,0.006858399
1.000157,0.02303366,0.224706,-0.00645604,-0.005560532,0.007164845
1.001208,0.02839806,0.223709,-0.006388543,-0.009473478,0.005814812
1.002306,0.02566533,0.2228521,-0.003214093,-0.0108041,0.00486539
1.002445,0.02167549,0.2240602,0.0001094051,-0.01439995,0.009795396
1.001905,0.02125023,0.2222148,0.001810903,-0.02150458,0.01348662
1.003425,0.01807027,0.2198968,0.001234548,-0.02121004,0.006218662
1.005824,0.01405956,0.2192135,-0.003100132,-0.01558171,-0.0004306853
1.006038,0.01840046,0.2191033,-0.007882772,-0.00640094,0.005655337
1.000128,0.02487233,0.219884,-0.006448416,0.003780503,0.01351437
0.9942896,0.02530702,0.2189212,-0.00383966,-0.005039022,0.01380791
1.000445,0.02224909,0.2174926,-0.004580714,-0.02005606,0.01110023
1.007484,0.01701377,0.2159254,-0.002753414,-0.01580912,0.007690378
1.002475,0.01378633,0.2136449,-0.001729697,-0.009185916,0.007392947
0.9992711,0.01581663,0.2131272,-0.003085487,-0.005984875,0.00807593
1.000952,0.01874851,0.2140516,-0.003051574,-0.001469036,0.005371348
0.999421,0.02091093,0.216316,-0.005755468,-0.004180113,0.005541218
1.000969,0.02231622,0.2180314,-0.007878574,-0.003902139,0.004502764
1.002054,0.02224682,0.218176,-0.00604501,-0.00291507,0.0008709056
0.9997911,0.02180546,0.2175206,-0.005028111,-0.006933018,0.001938336
1.000304,0.02089971,0.2149148,-0.004891359,-0.003883872,0.002242537
1.000917,0.02058865,0.2150993,-0.005446279,-0.001916571,0.002798503
1.002334,0.02257313,0.2195733,-0.00551148,-0.003123374,0.005886538
1.002574,0.02292555,0.222584,-0.002368741,-0.002387987,0.005096706
1.000575,0.02147926,0.2232164,0.0003269988,-0.004974463,0.003977084
1.001707,0.02208979,0.2214707,-0.002871137,-0.005330576,0.003930547
1.002524,0.02036297,0.2185299,-0.006920666,-0.004333685,0.0007786064
1.002715,0.01662515,0.2199541,-0.004960372,-0.004064501,-0.001512549
1.003158,0.01646051,0.2232551,-0.003957339,-0.002227911,0.000429282
1.00241,0.01766334,0.2229146,-0.004901316,-0.002228312,0.001797719
1.002749,0.0183773,0.2232196,-0.002758538,-0.0002345194,-0.0002554263
1.00197,0.01816794,0.2218134,-0.002938392,0.001851626,-0.001357455
1.000717,0.01772973,0.2159497,-0.003273349,-0.0002385301,-0.0007812481
1.000797,0.01831941,0.2141476,-0.00062021,-0.002010014,-0.001096667
1.000681,0.01799231,0.2145521,-0.001919794,-0.002977857,-9.559853e-05
1.001482,0.0182862,0.21496,-0.004710724,-0.002577093,0.001549306
1.001732,0.02023667,0.2201216,-0.002502105,0.0003649133,0.0001406314
1.000896,0.02208039,0.2256124,-0.001299893,0.002438934,-0.001109259
1.000571,0.02244375,0.2249043,-0.004201489,0.001513257,-0.0006288833
1.000203,0.02015177,0.2213721,-0.003599455,0.001616382,-0.00200889
1.001689,0.0187863,0.2225573,-0.00338934,0.004352491,-0.002562236
1.004525,0.0195503,0.2241644,-0.006662682,0.003966132,-0.002884408
1.004024,0.0197446,0.2234326,-0.005572363,-0.001214811,-0.007092389
1.001052,0.02043761,0.2245725,-0.004250439,-0.006150914,-0.00926185
0.9993932,0.02215747,0.2268772,-0.002812359,-0.005595991,-0.007945647
1.00006,0.02372517,0.228954,0.002632266,-0.005370377,-0.007509648
1.002252,0.02466824,0.2226587,0.005541717,-0.01373009,-0.007670064
1.00337,0.02468098,0.2145688,0.004889097,-0.01894133,-0.01043458
1.003651,0.02245477,0.2184677,0.001094834,-0.007772012,-0.01558893
1.004387,0.02065208,0.2204923,-0.004446562,0.01007228,-0.01662265
1.003523,0.02512706,0.2157594,-0.007766446,0.01517931,-0.009457587
1.000471,0.02944632,0.2140481,-0.004555118,0.007133062,-0.002298272
0.9984828,0.02533726,0.2151065,0.001573824,0.001245217,-0.004232503
1.002622,0.01972463,0.2169522,-0.002465101,0.001106677,-0.006817111
1.007775,0.01799677,0.2165234,-0.007752539,0.00383836,-0.007685356
1.004937,0.01766828,0.2151151,-0.007921504,0.006677152,-0.0127008
1.000796,0.01890801,0.2136517,-0.01029863,0.00561593,-0.01215709
0.9998987,0.02201016,0.2124101,-0.007699432,0.004569232,-0.006823306
0.9993215,0.02527189,0.2172028,-0.003074577,0.00342908,-0.005603357
1.000458,0.02590447,0.2229287,0.0009013512,-0.00263587,-0.003244652
1.000185,0.02393737,0.224641,0.003757875,-0.007862974,-0.003692346
0.999392,0.02250503,0.2268593,-0.0002205068,-0.006214336,-0.007144049
1.000757,0.0186148,0.2269622,6.146954e-05,6.669831e-05,-0.005522048
1.00085,0.01566564,0.2241859,0.003722988,0.003747608,-0.005095011
1.002541,0.02161254,0.2222305,0.00655433,-0.003524537,-0.004907816
1.004492,0.02675073,0.2200609,0.0108003,-0.01266858,-0.005020962
1.003721,0.02567297,0.2190043,0.008413281,-0.008528424,-0.01054469
1.003512,0.02478589,0.2181827,0.004889749,-0.00222377,-0.01551583
1.002477,0.02243837,0.2151577,0.001574788,-0.0001451663,-0.02117098
1.002448,0.02024755,0.2137261,-0.006210403,0.00906239,-0.024497
1.003341,0.02334855,0.2128914,-0.01030074,0.0177167,-0.02412324
1.001475,0.02684274,0.213443,-0.006583735,0.01905525,-0.0290798
0.9983993,0.02685852,0.2187679,-0.0009590336,0.02332375,-0.03204178
0.9946676,0.02889124,0.223769,-0.00507178,0.03302832,-0.02938375
0.9955009,0.03213116,0.2300063,-0.009327489,0.04100414,-0.02838764
0.9998557,0.03207768,0.2357348,-0.003530247,0.04307528,-0.02936403
0.9988996,0.03253625,0.2362723,0.0005797258,0.0411466,-0.03094476
0.9938423,0.03197943,0.2385424,0.00515125,0.0309362,-0.03100799
0.9897269,0.02903734,0.2390307,0.006888161,0.01599346,-0.02817604
0.9953757,0.02692972,0.2362079,0.006554182,0.0138005,-0.02367434
1.003297,0.02461348,0.233857,0.01381219,0.01776156,-0.02271782
0.9971059,0.02645272,0.2299668,0.01203923,0.01348656,-0.02606468
0.9931751,0.03139568,0.2307574,0.008515786,0.00971073,-0.02714374
0.9975744,0.03322644,0.2324573,0.01540878,0.009298833,-0.0257023
0.9966917,0.03617736,0.2308777,0.01562861,0.004781605,-0.02550312
0.9977845,0.03878212,0.2299261,0.01315105,0.00264989,-0.02957543
0.9997985,0.03711418,0.2255687,0.01148755,0.008368146,-0.03387409
0.9982696,0.03618653,0.2239277,0.009770833,0.01344551,-0.03224339
1.000516,0.03594642,0.2261723,0.01251926,0.01437414,-0.03142096
1.002192,0.0340079,0.2246073,0.009169569,0.01512858,-0.03480225
1.001221,0.03311215,0.2245822,0.004184111,0.02177462,-0.03716234
1.0004,0.03464681,0.2267765,0.002941813,0.03334102,-0.03634125
0.9969617,0.0380385,0.2300672,0.0003113407,0.03521307,-0.03166646
0.9931684,0.04070529,0.2362394,0.002252146,0.02626599,-0.0282958
0.9937845,0.04033105,0.2379327,0.003434989,0.01892717,-0.02756745
0.9955386,0.03913044,0.2373782,0.001042003,0.01702861,-0.02397992
0.9939951,0.03870655,0.2400464,0.001601896,0.02134227,-0.02352532
0.99409,0.03970114,0.2387519,0.001079013,0.02309561,-0.02451708
0.9951832,0.04405053,0.2372911,0.001725103,0.01128832,-0.01587368
0.993661,0.04960939,0.2391102,0.00296805,-0.001423641,-0.00818575
0.9937191,0.05044188,0.2385186,-0.001559213,-0.003670823,-0.009556446
0.9934133,0.04770364,0.2391143,-0.005475088,-0.006933869,-0.01166321
0.9944078,0.04829941,0.2391235,-0.00403534,-0.01155696,-0.01309695
0.9979473,0.04939102,0.2388197,0.001125902,-0.009376956,-0.01222287
0.9971985,0.04804288,0.2422007,0.007329209,-0.0117911,-0.004610693
0.9955552,0.04869987,0.2435367,0.009427662,-0.01856326,0.003671013
0.9941733,0.04855499,0.2432914,0.005700243,-0.01787732,0.006650782
0.9923096,0.04567706,0.2428468,-1.90454e-05,-0.01618548,0.009584978
0.9940584,0.04203913,0.2423064,-0.003377414,-0.01538599,0.0102986
0.9950587,0.03906072,0.2408936,-0.003962032,-0.01437758,0.006256351
0.9943543,0.04102629,0.2374188,-0.003165732,-0.01290502,0.006635956
0.9953355,0.04282133,0.2374692,-0.003796098,-0.002904778,0.006747222
0.9961842,0.04085702,0.2361167,-0.00495602,0.004730846,0.005217533
0.9959037,0.04077049,0.2325802,-0.002797266,-0.005029001,0.009256027
0.9957825,0.04019567,0.2341138,0.000315101,-0.01761771,0.01432979
0.9968681,0.0388571,0.2338554,0.002363268,-0.01368183,0.01920534
0.9975235,0.03944655,0.2301232,7.462819e-05,-0.004153346,0.01677934
0.9966472,0.04077522,0.2288621,-0.004345973,-0.0002840876,0.009608673
0.9944966,0.04422108,0.2316729,-0.002523454,0.003365956,0.009591612
0.9929587,0.04630596,0.2347468,-0.00169262,0.001069174,0.003367277
0.9963451,0.04487631,0.2336127,-0.003294055,-0.0007874482,-0.006121206
1.000471,0.04150015,0.2344721,0.0002027041,0.001099717,-0.005027196
0.9994374,0.03474501,0.2364064,0.002484584,-0.002488344,-0.005963557
0.9984758,0.03208617,0.2315839,0.002233167,-0.0003323552,-0.0103164
0.9991359,0.03760844,0.2274698,0.002197152,0.002436931,-0.008832211
0.9985596,0.04132824,0.2305477,0.001617006,0.003553423,-0.007341664
1.000341,0.04053704,0.233828,0.00232582,0.01187604,-0.009845137
1.001641,0.04076847,0.2328902,0.002183953,0.01286399,-0.01299411
0.9973905,0.04253115,0.2318381,0.0009894279,0.00689232,-0.01919168
0.9938387,0.04342356,0.2316875,-0.0003686332,0.002861475,-0.02256763
0.9949318,0.04368696,0.2298312,-0.0007476171,0.004224287,-0.01355155
0.9967831,0.04311386,0.2298679,0.004279422,0.008384376,-0.009123958
0.9967453,0.04160493,0.2329354,0.007507744,0.007712575,-0.02129416
0.9966483,0.0428799,0.2347572,-0.0002328017,0.01404571,-0.03058003
0.9956576,0.04803705,0.2375401,-0.007519526,0.0258302,-0.02307679
0.9917442,0.0526963,0.2424694,-0.001705347,0.02854678,-0.01340252
0.9910096,0.05043887,0.2469776,0.004388595,0.01961009,-0.01373376
0.9931646,0.04557756,0.2514436,0.001328747,0.009936457,-0.01316767
0.9936219,0.04739044,0.2516714,0.0004432058,0.01801831,-0.01533888
0.9959984,0.04804095,0.2440534,0.001526319,0.02785074,-0.02721741
0.9988935,0.04615126,0.2360222,0.003861364,0.02948996,-0.03449286
0.9983764,0.04792983,0.237559,0.009437928,0.03670496,-0.0359825
0.9942197,0.04714587,0.2413738,0.007385746,0.03612553,-0.03803019
0.9891494,0.04676047,0.2376847,0.006048093,0.0321454,-0.04078738
0.9879912,0.04790914,0.2384563,0.01459786,0.03552114,-0.04350465
0.9891288,0.0466523,0.2417593,0.01994355,0.03115151,-0.04678181
0.9896676,0.04745385,0.2405034,0.01826867,0.02870234,-0.05204174
0.9912997,0.04754464,0.2421296,0.01255993,0.03660289,-0.05554327
0.9939094,0.04789599,0.2384202,0.008151732,0.04315242,-0.06102349
0.9935675,0.0504076,0.2355022,0.01139512,0.0477396,-0.0660542
0.9921708,0.05184341,0.2401516,0.01960418,0.05012224,-0.06804252
0.9935277,0.05611714,0.2397502,0.02633759,0.05073554,-0.07721317
0.9931913,0.05983529,0.2416542,0.0253472,0.05162093,-0.08538402
0.9923639,0.05942069,0.2461277,0.02284481,0.0535953,-0.08649487
0.9928704,0.06207565,0.2493303,0.02481005,0.05688625,-0.09048871
0.9918298,0.0668077,0.2533043,0.02506322,0.05431847,-0.09856904
0.9922767,0.06512446,0.2514664,0.02494414,0.05075358,-0.1028081
0.9916464,0.0624735,0.2525663,0.02596154,0.05362048,-0.1034945
0.989454,0.06695681,0.2567762,0.02907577,0.05811021,-0.1094059
0.9903151,0.07081971,0.2562798,0.03457071,0.06487266,-0.1129815
0.9898221,0.07394997,0.2570759,0.03316338,0.06993874,-0.1143078
0.9862949,0.07853968,0.2574383,0.02776978,0.07281943,-0.1258598
0.9826916,0.07876696,0.2574324,0.02540856,0.07421915,-0.1448852
0.9820231,0.07957341,0.2588769,0.02707426,0.06527745,-0.1567007
0.983881,0.08139138,0.2579951,0.03809471,0.06484879,-0.1430618
0.9827802,0.08187732,0.2562981,0.04456127,0.08458101,-0.1339959
0.9794061,0.08296474,0.2555618,0.02716411,0.1004614,-0.1660546
0.9774722,0.08445187,0.2576159,0.01201984,0.1048729,-0.2022011
0.9799357,0.09222964,0.2619205,0.032305,0.1056945,-0.2092676
0.9823445,0.1011436,0.2641092,0.05211151,0.106363,-0.2009664
0.9754586,0.1051019,0.2673013,0.03772899,0.1023812,-0.2012939
0.9685907,0.1131612,0.2760702,0.02473431,0.09940441,-0.2121615
0.9708044,0.1237924,0.2809571,0.01719949,0.1104647,-0.212961
0.973281,0.1313349,0.2737365,0.001466176,0.1254709,-0.1994128
0.9741449,0.1370424,0.2684179,-0.003452108,0.1402455,-0.1762452
0.975552,0.1384156,0.2759388,-0.01679035,0.147552,-0.1615829
0.9735616,0.1383182,0.2868462,-0.03178404,0.1396825,-0.1646711
0.9712152,0.1429211,0.2940897,-0.01594361,0.1276623,-0.1629178
0.9656329,0.145802,0.2970748,-0.0001936653,0.1015401,-0.1578666
0.9484691,0.1503219,0.299322,0.004757964,0.07133311,-0.1527323
0.9388832,0.1603012,0.3026002,0.004883867,0.0599316,-0.1451165
0.9504563,0.15652,0.2989013,-0.0009653423,0.06624729,-0.1488261
0.9592961,0.1503394,0.2952206,0.01333527,0.0972112,-0.1621126
0.9561504,0.1562739,0.2992542,0.0243583,0.1197391,-0.1857827
0.9537052,0.1550034,0.2999647,0.0087395,0.09511084,-0.2021152
0.9536365,0.1562383,0.2990704,-0.004801,0.07124408,-0.1986377
0.9591212,0.1621745,0.2980386,-0.01559025,0.103226,-0.210081
0.971374,0.1572745,0.2943913,-0.02671965,0.1764435,-0.2236204
0.9737797,0.1578612,0.296285,-0.03028579,0.2582924,-0.2236237
0.9572359,0.1715031,0.3016486,-0.03343916,0.2945869,-0.2500723
0.9390933,0.1933155,0.3116617,-0.04362083,0.2543938,-0.2762907
0.9378149,0.2113366,0.3231827,-0.06303809,0.2359109,-0.2560792
0.9450708,0.2098082,0.3234992,-0.0805345,0.2682641,-0.2255826
0.9428078,0.1994619,0.3245944,-0.08344325,0.2772528,-0.205683
0.9306194,0.1907533,0.331814,-0.07638859,0.2836105,-0.1908583
0.9163071,0.1901248,0.3422143,-0.06648575,0.2644913,-0.2055328
0.911565,0.2022095,0.3651998,-0.04284211,0.193936,-0.2277249
0.9179942,0.2111052,0.3781931,-0.009793198,0.1359099,-0.2268285
0.917234,0.2109241,0.3717897,0.01126977,0.107322,-0.2293655
0.9121104,0.2129985,0.375923,0.01810499,0.1167743,-0.2305837
0.9093365,0.2214577,0.3839077,-0.00171981,0.124864,-0.2218521
0.9039618,0.233632,0.3888283,-0.03418998,0.1094097,-0.2141986
0.9084778,0.2424963,0.396426,-0.03503058,0.123709,-0.1997166
0.913276,0.2399926,0.3907032,-0.002659319,0.1282179,-0.2002293
0.9036706,0.2375999,0.384611,0.04852997,0.1087181,-0.2192203
0.892664,0.2491827,0.3828599,0.08430512,0.08334326,-0.2331402
0.883093,0.2617104,0.3747396,0.08941625,0.04306288,-0.2459271
0.8793409,0.2702494,0.3777267,0.1081655,0.04413284,-0.2598968
0.8814843,0.278931,0.3830181,0.126135,0.05605702,-0.2813965
0.8818687,0.286156,0.3826594,0.09891992,0.0311921,-0.2879791
0.8906347,0.2943814,0.3863182,0.0529034,0.03126553,-0.2595048
0.903929,0.2906614,0.3846567,0.02885551,0.07275276,-0.2424498
0.9044202,0.2817037,0.383729,0.04141928,0.1296883,-0.2515986
0.8909,0.2859985,0.3859152,0.05999456,0.1424973,-0.2548848
0.8756743,0.293073,0.3839613,0.04911393,0.07697834,-0.2422857
0.8736308,0.300178,0.3848379,0.03974586,0.02913903,-0.2268305
0.8831284,0.2974427,0.3854728,0.04353396,0.05190188,-0.2236355
0.8868869,0.2905041,0.3878729,0.05185469,0.08549928,-0.2441847
0.8757162,0.3069729,0.3983783,0.07313965,0.09270037,-0.2890838
0.8635576,0.3278398,0.4053986,0.06792506,0.07277347,-0.308571
0.8638797,0.3372234,0.4009799,0.05180165,0.04861998,-0.2802132
0.8639021,0.3386614,0.394054,0.05809721,0.06038182,-0.2632954
0.8548183,0.3350149,0.3945741,0.04884893,0.07857174,-0.2748877
0.844544,0.3425237,0.3977476,0.04469323,0.06931386,-0.2785722
0.8389687,0.3548166,0.3997887,0.04677969,0.08148684,-0.2736856
0.8413582,0.366382,0.4010931,0.03437241,0.09961263,-0.2787056
0.8421468,0.3732123,0.3992566,0.03756309,0.0944772,-0.282468
0.8323233,0.3704448,0.3999301,0.03919609,0.103222,-0.2805222
0.821219,0.3801922,0.4014125,0.04317828,0.1033286,-0.2854453
0.8159453,0.3899071,0.4027299,0.05081852,0.0949089,-0.2887461
0.8209303,0.3880506,0.4071886,0.02746589,0.1023967,-0.2949693
0.8295862,0.3953887,0.4059505,0.007995709,0.1136683,-0.3042779
0.8289321,0.4031391,0.4044895,0.01626248,0.1315956,-0.302717
0.824355,0.4082925,0.4078264,0.02559997,0.1261044,-0.2984708
0.8147788,0.4160617,0.4090014,0.02347603,0.1135325,-0.2794805
0.8038893,0.4267772,0.4156795,0.02151189,0.1260858,-0.2463192
0.8005669,0.4479794,0.4325024,0.02076779,0.119402,-0.2232471
0.7930329,0.4712353,0.4476931,0.006984937,0.09403781,-0.1812879
0.7883025,0.4924506,0.4456983,-0.01674068,0.04271101,-0.101536
0.7867291,0.5174337,0.4360599,-0.05923195,-0.06431855,-0.008422075
0.7741765,0.5422135,0.4273079,-0.09562245,-0.1320131,0.09343647
0.7667636,0.5375526,0.4015222,-0.07647458,-0.04767977,0.1451491
0.7495806,0.5046851,0.3943665,-0.04635127,0.04156705,0.1014861
0.7104546,0.4934371,0.4377563,-0.04887011,-0.07549308,0.06737171
0.7056316,0.4892202,0.468015,-0.04428431,-0.2397104,0.0624852
0.7405863,0.4774649,0.4532828,-0.02856765,-0.2797282,0.03456415
0.7622213,0.4638552,0.4426269,-0.004256549,-0.276005,0.03908722
0.7645818,0.4186688,0.455144,0.06249187,-0.2572008,0.03165181
0.7656526,0.3947811,0.4627453,0.1186584,-0.2658607,-0.03399417
0.776726,0.4180193,0.4636058,0.1222184,-0.2920887,-0.09414951
0.7936644,0.4316113,0.4591801,0.1063874,-0.282844,-0.1203326
0.8007077,0.4331423,0.4393356,0.07337397,-0.2677124,-0.08722775
0.8055961,0.4179833,0.4299545,0.05882197,-0.1931557,-0.06564955
0.8129917,0.3994081,0.4201752,0.07002267,-0.1312206,-0.08372268
0.8124574,0.4094866,0.4054341,0.06813857,-0.1486461,-0.0639436
0.8066825,0.4286475,0.4130405,0.06767858,-0.1392827,-0.05935256
0.8033759,0.444448,0.4055181,0.06245683,-0.1350573,-0.05826665
0.8010838,0.4555554,0.3976966,0.05377435,-0.141605,-0.01797822
0.8007976,0.4692908,0.3958936,0.05263475,-0.1145569,0.03014791
0.8071858,0.5006802,0.3528943,0.04783033,-0.05130789,0.1179888
0.8087903,0.5204345,0.3299502,0.0484301,0.04961786,0.1821994
0.7989414,0.5145228,0.3456672,0.04511705,0.08080049,0.1694412
0.7790488,0.5260294,0.3526795,0.02556729,0.03788079,0.1479883
0.7619677,0.5393589,0.3575754,-0.006380228,0.03478415,0.1353857
0.7745595,0.5210043,0.3602034,-0.02922304,0.07946837,0.1237559
0.7897113,0.5063435,0.3661186,-0.02780597,0.1217625,0.1126359
0.7825693,0.4915029,0.377248,-0.02632786,0.1348376,0.1080912
0.7794289,0.4751993,0.3886422,-0.02573969,0.1349323,0.1021034
0.7753267,0.4750024,0.4033066,-0.01802549,0.1403724,0.08336636
0.7689456,0.4643439,0.4143518,-0.008994652,0.1531552,0.07935632
0.7737304,0.45898,0.4205053,0.0004710097,0.170434,0.08726126
0.7756894,0.4604177,0.4238684,-0.001417439,0.1836762,0.08619869
0.7742729,0.4541715,0.4332494,-0.01327426,0.1796541,0.07920802
0.7685694,0.4638491,0.4402741,-0.02660387,0.1513047,0.07837486
0.7539263,0.4727304,0.4458589,-0.03184154,0.1177719,0.09550426
0.7454524,0.4794015,0.4584338,-0.01585784,0.09977897,0.1180914
0.7395937,0.4941886,0.4554215,0.0002408314,0.09717354,0.1309368
0.7325766,0.4993395,0.4511566,-0.002664323,0.08287384,0.1437595
0.7345804,0.4998204,0.4507702,-0.005189491,0.04443069,0.1524922
0.7364364,0.4983813,0.4417903,0.0003676999,-0.009922501,0.147239
0.7431196,0.5010619,0.4428896,0.001364437,-0.06013973,0.1497188
0.75892,0.5068769,0.4411817,-0.004293242,-0.06317135,0.1475196
0.7590545,0.5049837,0.4352796,-0.01987539,-0.02999584,0.1230859
0.7514446,0.5050614,0.4345782,-0.05001187,0.005500554,0.1079903
0.7526663,0.5022507,0.4329182,-0.0822359,0.02405888,0.1070178
0.7499182,0.4974559,0.4400071,-0.1039182,0.01933052,0.1178675
0.7451784,0.4960319,0.4444173,-0.1129373,0.01671329,0.1375724
0.7411204,0.4889978,0.4466309,-0.1055256,0.01388499,0.1531343
0.736353,0.4857154,0.454369,-0.08690435,0.03944658,0.1584587
0.7445914,0.488818,0.4531218,-0.07961329,0.08760356,0.1450289
0.7633037,0.4878287,0.4460459,-0.09708216,0.08698895,0.1430471
0.7732876,0.4768242,0.4406409,-0.1100514,0.07783589,0.1469675
0.7628699,0.4576821,0.448052,-0.07437678,0.08147379,0.1298333
0.7389585,0.4478834,0.4601658,-0.02236738,0.05984882,0.1137928
0.7212966,0.4554293,0.4572123,-0.01562103,0.03034714,0.1031562
0.7194662,0.4695915,0.4562855,-0.02650739,-0.02001019,0.1134818
0.7293738,0.4813108,0.4585429,-0.0241105,-0.09346052,0.1318665
0.7432328,0.4832633,0.4533172,-0.02353724,-0.1187354,0.1394236
0.7596447,0.4708735,0.4530279,-0.01182878,-0.06023154,0.156758
0.7653976,0.4623154,0.460574,0.004593403,-0.005094487,0.1481472
0.7481298,0.466829,0.4707626,0.0007448211,-0.02281376,0.1311316
0.737757,0.4668229,0.4735635,-0.0002937228,-0.05011247,0.143554
0.7442337,0.4669359,0.4642501,0.01411621,-0.0612563,0.1426641
0.7434612,0.4739358,0.4556109,0.0183096,-0.07384909,0.1392964
0.7393713,0.4777472,0.4549827,0.01164174,-0.06856683,0.1448086
0.7389643,0.4771748,0.4595589,0.007074571,-0.07324306,0.1389866
0.7429262,0.4755787,0.4609432,0.003080002,-0.08519625,0.1394265
0.7524624,0.4784954,0.4529643,0.008280783,-0.06041902,0.1432887
0.7566382,0.4808848,0.4479453,0.01452309,-0.03363539,0.1412514
0.7494448,0.4813842,0.4609564,0.005192299,-0.03425993,0.1375063
0.7390862,0.4863067,0.4784254,-0.004066665,-0.04587175,0.1315866
0.734107,0.4857547,0.479307,-0.005443595,-0.05787026,0.1342716
0.7279384,0.4791217,0.473986,-0.003950641,-0.06679996,0.1379343
0.7270761,0.4748506,0.4714841,-0.0001098887,-0.08650046,0.1303576
0.7411615,0.4755129,0.4651637,0.001456371,-0.09832048,0.1277544
0.7502275,0.4773229,0.4634845,-0.001272963,-0.0815742,0.1350017
0.749028,0.473041,0.4656738,-0.006889726,-0.07023278,0.1426869
0.7450944,0.471901,0.4659854,-0.008411187,-0.07081228,0.1429373
0.7385348,0.4785851,0.4717732,-0.006755776,-0.07109726,0.1287533
0.7366988,0.4865245,0.4731112,-0.007912326,-0.07512258,0.1144634
0.744133,0.4910412,0.4664841,-0.007213051,-0.07194576,0.1151508
0.7536517,0.4854654,0.4645014,-0.006586212,-0.06028761,0.1198637
0.7497667,0.4772498,0.4671345,-0.008966259,-0.05367388,0.1204295
0.7426146,0.4741977,0.4736763,-0.01168075,-0.06120695,0.1231153
0.742964,0.4757615,0.4773726,-0.01594108,-0.07458822,0.1237243
0.7372092,0.4796456,0.4703082,-0.01797568,-0.08108946,0.1204368
0.7373908,0.4776503,0.4621338,-0.01053871,-0.08658969,0.1226649
0.742035,0.4771938,0.4617248,-0.00251395,-0.08250229,0.1220942
0.7400855,0.4817676,0.4660526,-0.01045458,-0.06775366,0.1181398
0.7459744,0.4816807,0.4665636,-0.02054993,-0.0612058,0.1199297
0.7472989,0.4803951,0.4619962,-0.0184034,-0.05461858,0.1175347
0.7412805,0.4786591,0.4580079,-0.0179899,-0.05325991,0.1131692
0.7391414,0.4786285,0.4585589,-0.01580862,-0.06576264,0.1096222
0.7350761,0.4817071,0.4642079,-0.01104207,-0.07226546,0.1049573
0.7390453,0.4828151,0.4695584,-0.01291743,-0.07288362,0.1111046
0.744591,0.4848924,0.4708499,-0.01035684,-0.07069353,0.1206772
0.7425438,0.4800937,0.4690033,-0.01002484,-0.06835453,0.1235003
0.7474036,0.4678299,0.4697691,-0.01342697,-0.06993474,0.1244088
0.7513502,0.4635847,0.4720015,-0.009491667,-0.06399666,0.1206425
0.7440336,0.4688199,0.4692951,-0.009946831,-0.06099192,0.1150397
0.7347228,0.4776905,0.4689746,-0.009935518,-0.06922578,0.1121246
0.732023,0.4814949,0.4700775,-0.006820365,-0.07552912,0.1056705
0.7383834,0.4826522,0.4672159,-0.008522184,-0.07393024,0.100848
0.7496452,0.4902668,0.4618413,-0.008567045,-0.06853092,0.1055907
0.7570528,0.4939469,0.454739,-0.01183639,-0.06121114,0.1106983
0.7519036,0.4850095,0.4585935,-0.01343069,-0.04575175,0.1126603
0.7397844,0.4732468,0.4679811,-0.01126346,-0.04392066,0.1131832
0.7338547,0.4721508,0.4684747,-0.01282489,-0.0657754,0.1120039
0.73652,0.4768487,0.4671779,-0.008171529,-0.07980425,0.1156757
0.7437564,0.4774466,0.4626381,-0.00474395,-0.07913978,0.1175381
0.7477725,0.4780719,0.4590845,-0.0095061,-0.06904901,0.112698
0.7476206,0.4778884,0.466914,-0.01759655,-0.06362211,0.1070855
0.7487282,0.4773523,0.4737377,-0.02421651,-0.07630838,0.100485
0.7496871,0.4782687,0.4693913,-0.01405991,-0.08094881,0.1029305
0.7519039,0.4767344,0.4603009,-0.002527349,-0.06282694,0.1091008
0.7533572,0.4742611,0.4568238,-0.007995767,-0.0465378,0.1056068
0.7448068,0.4716848,0.4642645,-0.01110907,-0.06027381,0.1056448
0.7352246,0.4736025,0.4739455,-0.00754358,-0.08122592,0.1073338
0.7389627,0.4792046,0.4719934,-0.008012375,-0.07728753,0.1056855
0.742183,0.4822166,0.4685757,-0.01045019,-0.06699929,0.1068391
0.7343042,0.4876463,0.474287,-0.01689524,-0.05813017,0.1003723
0.7345108,0.4906258,0.473357,-0.02270965,-0.05610788,0.09459667
0.7484569,0.4854624,0.467284,-0.01440977,-0.05634249,0.1050721
0.7567507,0.4780677,0.4629213,-0.005663755,-0.0442052,0.1124115
0.7430969,0.4717084,0.4590572,-0.008980771,-0.0541594,0.1011101
0.7265573,0.4742483,0.4636119,-0.007024815,-0.07853574,0.09113653
0.7375026,0.4801725,0.4653037,-0.001391284,-0.08258062,0.09656587
0.7451373,0.4799305,0.462415,-0.00863756,-0.07387445,0.09907958
0.7324198,0.4875931,0.4638192,-0.01703886,-0.059571,0.09805412
0.7350321,0.4958708,0.4610679,-0.01510683,-0.05713515,0.1055298
0.7489039,0.4856935,0.4576829,-0.01272028,-0.05192532,0.1053644
0.7574507,0.4742815,0.4567729,-0.01205413,-0.04032094,0.09646003
0.751346,0.474119,0.4631667,-0.01085469,-0.05734984,0.09149812
0.7358797,0.4755637,0.4735212,-0.009447911,-0.07248209,0.08806856
0.7375478,0.4759902,0.4690214,-0.006506726,-0.0723263,0.08584049
0.7384878,0.4775436,0.4645259,-0.009450781,-0.07244797,0.08133941
0.7365859,0.4819104,0.465709,-0.01282025,-0.06188807,0.0818743
0.7489134,0.4855325,0.457506,-0.005562743,-0.05602599,0.09792257
0.751675,0.4806682,0.4562261,-0.000346193,-0.0518735,0.1078474
0.7434755,0.4716246,0.4664893,-0.003051728,-0.04861446,0.09320435
0.7362637,0.4697737,0.4703253,-0.00435721,-0.0630258,0.07710995
0.7371442,0.4756068,0.4637298,-0.003435669,-0.0718372,0.08301541
0.7408582,0.4862014,0.4583567,-0.005733394,-0.05630553,0.0863478
0.7307156,0.5007012,0.4683601,-0.0140266,-0.04073238,0.07760741
0.7308468,0.5064876,0.4758308,-0.02079209,-0.05770577,0.08205214
0.7500319,0.4949527,0.4605216,-0.01462851,-0.06858814,0.08857518
0.7611606,0.4797429,0.4506035,-0.005899229,-0.0355335,0.09095826
0.7440419,0.4732643,0.4642813,-0.009242006,-0.01734666,0.09146488
0.7196636,0.4745074,0.4749313,-0.01016343,-0.04304304,0.0812677
0.7299979,0.4818805,0.4703838,-0.006640152,-0.07078866,0.07956857
0.7398184,0.4888342,0.4679592,-0.01023936,-0.07328312,0.08258999
0.7389511,0.4856544,0.4659901,-0.009466865,-0.06367985,0.08403134
0.7551931,0.4779273,0.4562982,-0.008054383,-0.04896575,0.09072156
0.7452979,0.4718643,0.4573397,-0.01107721,-0.03243912,0.08315249
0.7254642,0.468128,0.4694862,-0.00781393,-0.04804596,0.07277273
0.7291815,0.4737263,0.475271,-0.001355702,-0.07237982,0.0728807
0.734335,0.4804731,0.4723937,0.004960831,-0.07015503,0.07588117
0.745432,0.4838585,0.4657584,-0.001188996,-0.0500371,0.07995257
0.7440886,0.4971489,0.4650377,-0.0166861,-0.02273356,0.06988659
0.7379664,0.5033352,0.4630397,-0.01650304,-0.03660595,0.06239589
0.7504382,0.4848561,0.4598278,-0.007810539,-0.05692063,0.07920998
0.7484137,0.4671449,0.4660551,-0.002481061,-0.03300021,0.09135861
0.7354187,0.4680231,0.469452,-0.00482356,-0.03514264,0.07927926
0.7274391,0.4744714,0.4742926,-0.01138486,-0.06023788,0.06675395
0.7304702,0.4767127,0.476539,-0.006245667,-0.06898551,0.07061119
0.7425537,0.4782508,0.4693698,0.001210845,-0.06059522,0.07249322
0.7394542,0.478388,0.4694063,0.002776709,-0.03405844,0.07128819
0.7419358,0.4767385,0.4649274,-0.003722433,-0.0332676,0.07484473
0.7470082,0.4767546,0.4639513,-0.01322035,-0.04407312,0.07275592
0.7385472,0.4736575,0.4738578,-0.003041089,-0.04327039,0.0717144
0.7417937,0.4715887,0.4718371,0.005497297,-0.0495467,0.07042859
0.7377505,0.4791299,0.4725449,-0.005832595,-0.04519918,0.06230279
0.7245837,0.4905884,0.4770419,-0.01311098,-0.04611081,0.05608045
0.7274489,0.4968221,0.475077,-0.01482002,-0.04781171,0.05551753
0.7446384,0.4894114,0.4687988,-0.01460566,-0.02616256,0.06639925
0.7635618,0.4759909,0.4574693,-0.01315598,-0.01505159,0.07479393
0.746865,0.4717527,0.4643442,-0.01395042,-0.03391607,0.06596602
0.7255792,0.4744331,0.4741285,-0.008067169,-0.07025708,0.05921885
0.7415345,0.4780716,0.4669925,-0.00331005,-0.07789089,0.06184047
0.7434809,0.4803479,0.4674047,-0.01075049,-0.04203161,0.0615278
0.7325911,0.4882038,0.4675927,-0.01737277,-0.0202359,0.059543
0.7372523,0.5001005,0.4643374,-0.01264577,-0.04077296,0.06452905
0.7413408,0.4957405,0.4641587,-0.005471809,-0.05860301,0.06693172
0.7476505,0.4790583,0.454993,-0.004671201,-0.02723546,0.05644493
0.7456389,0.4676019,0.4531133,-0.01041492,-0.007435177,0.04455923
0.7322083,0.4680002,0.4687443,-0.01621445,-0.04052202,0.04322743
0.728242,0.4780051,0.4802693,-0.006318997,-0.05621007,0.05353366
0.7316718,0.4845697,0.4724495,0.003996023,-0.04182759,0.05964954
0.7368853,0.4897367,0.4629596,-0.01069871,-0.0345584,0.05033354
0.7389023,0.4933661,0.4680608,-0.02239982,-0.04016671,0.04326485
0.7494137,0.4859868,0.4636116,-0.01710496,-0.03814868,0.04879365
0.7674129,0.4775908,0.4552303,-0.01793418,-0.01887703,0.05174821
0.756361,0.4715045,0.4669525,-0.01928902,-0.01381704,0.04454294
0.7351785,0.468881,0.4758053,-0.01095203,-0.03656936,0.04162332
0.7324957,0.4726719,0.4742142,-0.0003464522,-0.06027383,0.0458258
0.7336588,0.4766863,0.47404,0.002994168,-0.04348327,0.04691024
0.7378841,0.4884618,0.4717303,-0.009439675,-0.01932104,0.04587177
0.7386544,0.4990306,0.4678019,-0.02084947,-0.03054082,0.04572172
0.7427741,0.4904967,0.4625794,-0.009991728,-0.02248752,0.05015711
0.7533477,0.4755025,0.4594969,-5.003848e-05,-0.009686594,0.05422025
0.7425043,0.4672472,0.4606842,-0.006576856,-0.02113228,0.04959322
0.7302999,0.4719966,0.4639329,-0.005834131,-0.03118249,0.04228485
0.7339843,0.4812141,0.4682566,-0.001643258,-0.0508221,0.03879207
0.7329339,0.4801395,0.4687874,-0.007398289,-0.03863517,0.04361951
0.7302983,0.484307,0.4734728,-0.01416242,-0.01438013,0.04853638
0.7303706,0.4932431,0.4808221,-0.01860531,-0.03815837,0.04168421
0.7369968,0.4897882,0.4711494,-0.007063519,-0.04039401,0.03782522
0.7477948,0.4837111,0.4574091,0.008457889,-0.01119124,0.04790689
0.745466,0.4752786,0.4606513,-0.004466111,-0.00127326,0.05402326
0.7361619,0.4662707,0.4700452,-0.01325609,-0.01787505,0.04429501
0.7316697,0.4667984,0.4752295,0.004857874,-0.04948948,0.03583845
0.7324745,0.4728312,0.474058,0.01177525,-0.05022079,0.03798178
0.7346798,0.4877336,0.4701001,-0.0007946815,-0.03777974,0.03281802
0.7346587,0.4967699,0.4710764,-0.01101095,-0.04146002,0.02412612
0.7417447,0.4909834,0.465231,-0.01031441,-0.03437379,0.03304744
0.7503062,0.4838963,0.4561253,-0.00721942,-0.02062764,0.04553645
0.7428489,0.4719847,0.464194,-0.009748461,-0.006851779,0.04443672
0.729492,0.4710707,0.4782908,-0.01019559,-0.01569348,0.03852808
0.7251343,0.479794,0.4845396,-0.009329733,-0.04343929,0.0334141
0.7300182,0.4790503,0.4780308,-0.006774211,-0.04111759,0.03262185
0.7361666,0.488607,0.4673783,-0.002018931,-0.0255527,0.03339705
0.7355619,0.4995937,0.4717821,-0.009706735,-0.0147817,0.03059334
0.7423145,0.4943709,0.4711421,-0.01789584,-0.01185475,0.03159371
0.7548911,0.4853271,0.4591973,-0.01268513,-0.0167867,0.03282366
0.7486149,0.4751808,0.4596102,-0.008579607,-0.006685506,0.03133276
0.736206,0.471021,0.4645391,-0.006109498,-0.007480597,0.03211381
0.7324048,0.4749252,0.4699453,-0.001547543,-0.02242274,0.03230335
0.7315615,0.4782699,0.4762766,-0.001206723,-0.02677067,0.03107408
0.7348578,0.4826921,0.4774306,-0.002742476,-0.02142528,0.02361417
0.7335437,0.4902129,0.4798186,-0.002939562,-0.007774166,0.01696698
0.7339295,0.4938122,0.476087,-0.002027899,-0.01181598,0.02489984
0.7457229,0.4863297,0.4656877,0.0004879892,-0.01500122,0.03557039
0.7492511,0.4767317,0.4620546,0.001334256,-0.003734797,0.03625945
0.7338026,0.4752092,0.4705219,-0.001695477,-0.01361732,0.02553529
0.7133439,0.4754295,0.4872656,-0.003746315,-0.02637146,0.01665957
0.7163082,0.4747105,0.4894162,-0.0008029555,-0.03875257,0.02663247
0.7378527,0.4836674,0.4723486,0.001767565,-0.04152787,0.03840288
0.7480761,0.4964501,0.457783,-0.003065289,-0.01128196,0.03548044
0.7484941,0.4956649,0.4582958,-0.01170126,0.01131965,0.0286718
0.7400984,0.4899621,0.4692162,-0.019705,0.01453574,0.01940641
0.7323654,0.4874177,0.4744638,-0.02316194,0.007409947,0.008534581
0.7340378,0.4822811,0.4753465,-0.0138407,-0.003145496,0.007424775
0.7326814,0.4786347,0.4749371,-0.002340434,-0.004336317,0.007756351
0.7355662,0.4760916,0.4719588,-0.003013421,-0.00638277,0.005287416
0.7369345,0.4753366,0.4743541,-0.006117302,-0.002713607,0.01252011
0.7323783,0.4795067,0.4743441,-0.005431968,-0.001899945,0.02096439
0.7303069,0.4806136,0.4743131,-0.005604025,-0.006855718,0.02315206
0.7254706,0.4810454,0.4782736,-0.00587739,-0.005990769,0.02365692
0.7259294,0.4857168,0.4769617,-0.004498685,-0.01333433,0.02397481
0.7270547,0.4881761,0.4783869,0.001173713,-0.01506509,0.02902928
0.7294647,0.4868018,0.4788666,0.00747989,-0.011965,0.03209897
0.7379226,0.483446,0.4739912,0.004601285,-0.01178056,0.02997096
0.7341248,0.4824098,0.4730727,0.001457308,-0.003282753,0.02904928
0.7310612,0.4829179,0.4731192,0.008571307,-0.004742971,0.02640919
0.7350208,0.4803986,0.4721344,0.01102292,-0.007095307,0.02272741
0.7318859,0.4805618,0.4707985,0.001390539,-0.0008255879,0.01833111
0.7285719,0.4834517,0.472961,-0.006537244,-0.002912634,0.0111293
0.7256523,0.487084,0.476197,-0.00564756,-0.007911446,0.005085664
0.7285124,0.4904935,0.4704443,-0.004696877,-0.009242627,0.005953558
0.7438055,0.4883863,0.4613694,-0.009058131,0.002509454,0.008911015
0.7539582,0.4864336,0.4573629,-0.009373345,0.0169412,0.006285468
0.7428187,0.4862835,0.4641534,-0.00844575,0.01018314,0.007584569
0.7254974,0.4855106,0.4771064,-0.01080699,-0.00362501,0.01285927
0.72567,0.4867321,0.4828684,-0.007470533,-0.008290471,0.0173629
0.7281096,0.4869901,0.4860821,-0.006402371,-0.002573658,0.02019466
0.7220796,0.487447,0.489074,-0.00848747,0.005187137,0.00869697
0.7252226,0.4874911,0.4872264,-0.005290735,-0.001925828,-0.002086987
0.7341964,0.483247,0.4811796,-0.005629874,-0.008066569,0.003036082
0.7427476,0.4773297,0.4710827,-0.009007908,0.003595821,0.006217453
0.7431177,0.4733866,0.469,-0.009911727,0.006549743,0.007901229
0.7268391,0.4757171,0.4771073,-0.003192928,-0.01049376,0.01662787
0.7171743,0.4798749,0.4826713,0.009088658,-0.02717296,0.02129834
0.7243763,0.4835224,0.4853294,0.008527316,-0.02876199,0.01361448
0.731219,0.4921757,0.4811645,-0.001763168,-0.02171105,0.006231517
0.7307058,0.4951566,0.4730676,-0.007367851,-0.02044899,0.01121023
0.7318137,0.4890993,0.4729805,-0.006034841,-0.0117936,0.01837214
0.737862,0.484687,0.4742571,-0.002893614,0.005725211,0.02038696
0.7371016,0.4797785,0.474375,-0.004389475,0.01049016,0.01565024
0.7322657,0.4776859,0.476445,-0.002066532,-0.000218433,0.005738072
0.7286473,0.4820406,0.4765357,0.002256015,-0.01730924,0.003735233
0.7258716,0.4867419,0.476025,0.0008209524,-0.01774809,0.005240321
0.7279126,0.4927811,0.4749489,-0.0002005498,-0.00630394,0.002970118
0.7294996,0.4943532,0.4747527,-0.008552269,0.004015782,0.005190992
0.7322793,0.4892036,0.4776392,-0.02091952,0.02281354,0.005083084
0.7316428,0.4879645,0.4803812,-0.02349471,0.02070459,-0.001530442
0.7272236,0.4875865,0.4825236,-0.0248921,0.006111479,-0.004038877
0.7326264,0.4835367,0.4830715,-0.01983704,0.01079671,0.002986985
0.7338134,0.4814265,0.4841202,-0.004789407,0.01074564,0.01273361
0.7268986,0.4842433,0.4878261,-0.00209896,0.009216256,0.01058914
0.7241554,0.4875532,0.48712,-0.00552268,0.001100463,0.008635641
0.7254935,0.4851675,0.4831293,-0.000309206,-0.01823352,0.0180292
0.7305968,0.4835746,0.4840939,0.0005192158,-0.01454357,0.02202591
0.7311362,0.4860462,0.4889345,-0.0008869998,-0.008003921,0.02145896
0.7303116,0.4872149,0.4923851,0.001065956,-0.01128914,0.0161092
0.733018,0.4890821,0.4887478,0.001475055,-0.004411144,0.003734801
0.7321887,0.4875206,0.4827607,0.004070369,0.002027726,0.0002106222
0.7284955,0.4823994,0.4846184,0.004471155,0.003428428,0.004754756
0.7236319,0.4812951,0.4853118,0.006062303,-0.006027086,0.009174997
0.7267115,0.4808969,0.4809296,0.01185091,-0.01837534,0.01153526
0.730555,0.4828737,0.4804372,0.01055598,-0.01350899,0.01247897
0.7209793,0.4871147,0.4812795,0.01028668,-0.01345586,0.01536945
0.7166256,0.4863468,0.4808412,0.01530711,-0.02713417,0.01936749
0.7253012,0.4858753,0.4741616,0.01704567,-0.0320776,0.02241642
0.733922,0.4883527,0.4625504,0.01469773,-0.02623582,0.02071538
0.7341297,0.4892662,0.4617682,0.009392806,-0.0204341,0.01934607
0.7284481,0.4890405,0.4708247,0.007717492,-0.02094212,0.01962412
0.7283546,0.4888161,0.4795177,0.008258181,-0.02232666,0.01324932
0.7339769,0.489832,0.4822066,0.003578879,-0.01745788,0.007235933
0.7378838,0.49054,0.4780059,-0.003745597,-0.006684628,0.005415313
0.7305009,0.4892519,0.475848,-0.01008673,0.004201764,0.002767604
0.7207297,0.4880315,0.4773332,-0.01211182,-0.003438659,-0.0001826918
1.005716,0.0716683,0.1131201,-0.116317,0.01946317,-0.1937547
1.012918,0.0757813,0.1018713,-0.1384633,0.007498952,-0.1835225
1.010869,0.07341254,0.0887151,-0.1486971,0.02036055,-0.1826593
1.008708,0.06431621,0.08905286,-0.138379,0.03567409,-0.1739521
1.021949,0.05414953,0.08677505,-0.1189738,0.05152857,-0.1630031
1.026446,0.04474184,0.080859,-0.1180489,0.06654751,-0.164692
1.026053,0.03915988,0.07930173,-0.1257224,0.07234674,-0.1815245
1.025734,0.0375614,0.07420592,-0.1239773,0.09000401,-0.2036288
1.020129,0.03434242,0.074816,-0.1318934,0.1031271,-0.2155085
1.022936,0.03050249,0.07981868,-0.1228777,0.1001008,-0.2086556
1.020492,0.02860664,0.0737274,-0.09715185,0.1107757,-0.2001183
1.017825,0.03034562,0.07056378,-0.0898754,0.1170708,-0.2031963
1.021186,0.03990795,0.07705576,-0.09178191,0.1058577,-0.210879
1.020559,0.04709299,0.07886628,-0.09609486,0.1007758,-0.2250228
1.025088,0.04410584,0.07900306,-0.08820246,0.1057452,-0.2258762
1.025137,0.04213792,0.08107454,-0.07117886,0.1146529,-0.2118576
1.020371,0.04822308,0.08203508,-0.05707969,0.1177789,-0.209031
1.018423,0.05707578,0.08069198,-0.04570845,0.1177042,-0.2034291
1.017958,0.06223674,0.07940908,-0.0554996,0.1217259,-0.200371
1.022615,0.06550958,0.08740205,-0.06379248,0.1272446,-0.2036
1.021952,0.0673005,0.09476845,-0.06037686,0.1321174,-0.1955586
1.018014,0.06675696,0.09068407,-0.05509161,0.1359756,-0.1943113
1.016117,0.0664295,0.08506252,-0.03604873,0.1453165,-0.1930751
1.014684,0.06554561,0.08297767,-0.03134347,0.1500357,-0.183662
1.016242,0.06672558,0.08550295,-0.03365719,0.1415144,-0.1794842
1.014745,0.07332917,0.08863779,-0.02527825,0.1280076,-0.1750272
1.014972,0.08475007,0.08585644,-0.03393567,0.1129197,-0.179298
1.016188,0.09206685,0.08330589,-0.04574472,0.1035844,-0.183113
1.014308,0.09116514,0.08548057,-0.05335576,0.09916749,-0.1677668
1.015835,0.08921676,0.08712492,-0.0658432,0.103774,-0.1549255
1.015317,0.08293126,0.08824663,-0.06696812,0.1169868,-0.1577676
1.014582,0.07835904,0.08984218,-0.05343809,0.1219208,-0.1631038
1.015083,0.08203524,0.0892492,-0.04036322,0.1235436,-0.1622371
1.013765,0.08279907,0.09232463,-0.04588667,0.1211118,-0.1602828
1.017586,0.08241002,0.09724839,-0.05811909,0.1163204,-0.1554077
1.018916,0.08532273,0.096687,-0.06282999,0.1218304,-0.1447336
1.009199,0.09146039,0.09521216,-0.06702656,0.1211578,-0.137179
0.9989565,0.09816965,0.09154755,-0.06548671,0.1020998,-0.1302938
1.001461,0.09566665,0.08744826,-0.07160137,0.07303013,-0.1209506
1.011692,0.08842002,0.09080797,-0.08773868,0.05990835,-0.1153111
1.015119,0.08397779,0.09498789,-0.08867997,0.07724037,-0.1159682
1.013146,0.07940662,0.0945529,-0.08629865,0.08714621,-0.1161723
1.009825,0.07749119,0.09422835,-0.09298701,0.07436678,-0.1137667
1.00918,0.08270045,0.09431443,-0.1003752,0.06642496,-0.1149921
1.013455,0.08925278,0.09249017,-0.1079088,0.06381662,-0.1096533
1.017205,0.08888116,0.09169623,-0.1146183,0.05971283,-0.1028936
1.019768,0.08208549,0.09441292,-0.1187358,0.05967126,-0.1083872
1.018506,0.07538891,0.09795262,-0.1182655,0.05879221,-0.1104099
1.019737,0.07471983,0.09868256,-0.1161435,0.05589981,-0.1067606
1.023377,0.08200929,0.0973034,-0.1086762,0.05517854,-0.1046743
1.019025,0.09164048,0.09294434,-0.09897105,0.05300749,-0.1009663
1.017895,0.09467221,0.08220658,-0.1053036,0.05071671,-0.09797095
1.015588,0.09050311,0.07641357,-0.1143591,0.05291348,-0.1000185
1.009502,0.08598938,0.08324703,-0.1141698,0.05766695,-0.1056777
1.013348,0.0838874,0.0896704,-0.114089,0.06157357,-0.1061165
1.013347,0.08300591,0.0905247,-0.1124743,0.06189192,-0.1063041
1.011914,0.08407678,0.0884514,-0.1109547,0.060198,-0.1098782
1.018207,0.08437162,0.08465309,-0.1042934,0.0627292,-0.1081484
1.020243,0.07862802,0.08342187,-0.09636291,0.07140667,-0.1079094
1.019843,0.07130765,0.08209896,-0.1042431,0.07896332,-0.1126875
1.019003,0.06846124,0.08060747,-0.1114091,0.07919289,-0.1172336
1.019412,0.0685872,0.08386939,-0.1039075,0.07825304,-0.1187819
1.021099,0.07140831,0.08549715,-0.0990256,0.08018332,-0.1165716
1.019588,0.07487365,0.08383274,-0.09960786,0.07765394,-0.1158989
1.01758,0.07427296,0.08506148,-0.09308379,0.0748794,-0.1169412
1.013264,0.07349513,0.08507391,-0.08435716,0.08256314,-0.1198494
1.012694,0.07580326,0.0838598,-0.07989876,0.08936768,-0.123071
1.016064,0.07530076,0.08420075,-0.07497995,0.08739022,-0.1218409
1.016663,0.07471176,0.08166855,-0.07293337,0.09022362,-0.1203685
1.019935,0.07996813,0.07951497,-0.07040595,0.09925771,-0.1176374
1.017847,0.08783526,0.0806152,-0.06244736,0.09929538,-0.1086221
1.013719,0.0941493,0.08596971,-0.06120797,0.08261448,-0.100027
1.020408,0.09218283,0.09363028,-0.06055044,0.06718095,-0.1010917
1.023848,0.0876507,0.09204068,-0.04792123,0.07474728,-0.1035306
1.018742,0.08872875,0.08881026,-0.03623218,0.08493615,-0.09820702
1.012309,0.08764513,0.09222251,-0.03330927,0.07999868,-0.09300195
1.008255,0.08945316,0.09110234,-0.0352514,0.0811508,-0.08521391
1.011378,0.09455701,0.089471,-0.03430658,0.08242584,-0.07714344
1.015682,0.09557839,0.08947706,-0.02526842,0.06851875,-0.07798921
1.017335,0.09952612,0.08708507,-0.02017576,0.05650194,-0.07527929
1.020165,0.1002856,0.09196947,-0.02473954,0.04983358,-0.07233105
1.020305,0.09869589,0.09769586,-0.03120696,0.04536593,-0.07599543
1.017147,0.1029673,0.09550507,-0.03235029,0.04259074,-0.07437854
1.013001,0.1030472,0.09406963,-0.02964065,0.03743484,-0.07131439
1.005542,0.1036167,0.092864,-0.03142956,0.03729972,-0.06847238
1.003265,0.1063548,0.09079378,-0.03295116,0.04041152,-0.06061412
1.007062,0.09964,0.09256803,-0.03368374,0.04234936,-0.05136149
1.004459,0.09133488,0.0965117,-0.03645494,0.03856054,-0.04258825
1.004775,0.08908542,0.09913544,-0.03480192,0.02819238,-0.03996582
1.014188,0.09136627,0.09492286,-0.03377675,0.02521042,-0.04140776
1.020185,0.09461046,0.08465884,-0.0371168,0.02557717,-0.03925151
1.019152,0.09446618,0.07936016,-0.04710932,0.02283272,-0.04270557
1.016385,0.09355197,0.08098213,-0.06123844,0.020701,-0.0501226
1.018487,0.09015163,0.08131211,-0.06467777,0.0219573,-0.0482177
1.018982,0.08650824,0.07980242,-0.06938792,0.02962359,-0.04538744
1.016106,0.09086744,0.08085304,-0.0868397,0.03706818,-0.04624287
1.016338,0.09504953,0.08185762,-0.09626773,0.04280526,-0.044326
1.013024,0.09214765,0.08206046,-0.09700556,0.04245052,-0.04470175
1.012638,0.08872203,0.08410816,-0.09669656,0.0393971,-0.04672842
1.014332,0.08763525,0.08531488,-0.0888742,0.04417226,-0.04893982
1.009282,0.09084207,0.08544333,-0.08797871,0.04342853,-0.05707305
1.009241,0.09944824,0.0858095,-0.09519921,0.04490495,-0.0628306
1.009831,0.1045439,0.08677524,-0.09628071,0.05296329,-0.05814975
1.006368,0.1027227,0.09057505,-0.09471757,0.04642869,-0.05285559
1.006573,0.1005989,0.09203942,-0.08565357,0.03477785,-0.05314919
1.011504,0.09447835,0.08660562,-0.07823772,0.02650475,-0.05490427
1.019949,0.08412021,0.08065962,-0.08437115,0.02559994,-0.05812984
1.021151,0.08257971,0.0782242,-0.09050153,0.03657969,-0.0587614
1.019524,0.08630428,0.07587436,-0.09216428,0.04425308,-0.0543933
1.022151,0.08419606,0.07426734,-0.08910133,0.05043898,-0.05068657
1.01928,0.08144649,0.07699666,-0.08658591,0.05268666,-0.04353488
1.015036,0.07873592,0.07879508,-0.08639398,0.0457896,-0.0389273
1.012314,0.07496707,0.07809074,-0.07801285,0.04505607,-0.04490254
1.013697,0.07805365,0.08129099,-0.06755328,0.04824796,-0.04864181
1.018602,0.08084273,0.08465262,-0.06434403,0.05317915,-0.05180614
1.013802,0.07903602,0.08319027,-0.06437,0.06117812,-0.06016998
1.009993,0.08274018,0.08084742,-0.05790295,0.06475483,-0.06249606
1.01194,0.08644349,0.08054838,-0.05141579,0.06516545,-0.05642317
1.00946,0.08569623,0.08263508,-0.05278709,0.06107819,-0.05264688
1.012739,0.08716818,0.08847755,-0.04855536,0.06081708,-0.05713612
1.02015,0.08994941,0.09380992,-0.03929143,0.07299707,-0.05955225
1.02037,0.09080377,0.09206322,-0.02906013,0.08325132,-0.05485543
1.013836,0.09066193,0.09034096,-0.02018237,0.0806044,-0.05199388
1.007319,0.09286709,0.09254624,-0.02348825,0.07471057,-0.05165988
1.01095,0.09595672,0.09145992,-0.02640563,0.07545856,-0.05048611
1.014543,0.09730409,0.09076654,-0.02419707,0.0695025,-0.04734121
1.009626,0.09889976,0.09277717,-0.02849719,0.05662812,-0.04386026
1.009243,0.09955795,0.09318565,-0.03030269,0.04860687,-0.04351323
1.012583,0.09987599,0.09569807,-0.02614041,0.03915733,-0.04323793
1.014594,0.1019654,0.1012559,-0.02448374,0.0362586,-0.04004434
1.017071,0.1019337,0.1018815,-0.02742663,0.03938705,-0.03504094
1.016277,0.1007915,0.0942658,-0.03200071,0.0381089,-0.02877861
1.013674,0.1026294,0.09004633,-0.02967511,0.03778744,-0.02419841
1.012361,0.1032552,0.09551697,-0.01958833,0.03422845,-0.02452295
1.013912,0.1023804,0.09826827,-0.01289115,0.03354974,-0.02593237
1.017423,0.1030256,0.09258179,-0.01977381,0.04276894,-0.02572996
1.015491,0.1027058,0.08637774,-0.02924688,0.05157488,-0.02263085
1.008909,0.1028517,0.0878789,-0.02456502,0.05277664,-0.01225225
1.004455,0.1038996,0.09371275,-0.02308579,0.04157397,-0.00349035
1.007648,0.1041847,0.09422959,-0.02912039,0.02917206,-0.004931256
1.014842,0.1035601,0.09349738,-0.02551407,0.02786798,-0.005532283
1.01375,0.09945234,0.09420483,-0.02649217,0.03307446,0.0006960512
1.009365,0.09603954,0.09169187,-0.03332839,0.03690941,0.004594075
1.008096,0.09816282,0.09089263,-0.03558004,0.03301219,0.003378698
1.00761,0.1014087,0.09250534,-0.04215412,0.02534576,0.004434819
1.010399,0.1017481,0.09233086,-0.04950823,0.01684964,0.006969404
1.012146,0.1011407,0.09368906,-0.05348249,0.01110025,0.005517666
1.013834,0.1018947,0.09657132,-0.0544153,0.013133,-0.0005200005
1.014991,0.1031207,0.09928289,-0.05772133,0.01287737,-0.006960051
1.011066,0.1046486,0.1007588,-0.06681765,0.01205365,-0.00444511
1.01124,0.1045502,0.09756124,-0.06568365,0.014964,0.001387878
1.01192,0.1031869,0.09479934,-0.05957654,0.01076321,0.001210858
1.010223,0.1023798,0.09633092,-0.05857941,0.005303102,0.001877636
1.012651,0.09910858,0.09839571,-0.05638485,0.004806111,0.00248232
1.012944,0.09769964,0.09937459,-0.05821581,0.002578643,0.001707524
1.013036,0.1000887,0.09829115,-0.05849665,-0.002905232,0.002260215
1.014563,0.09952328,0.09833742,-0.05103778,-0.009220433,-0.0002178489
1.013455,0.0959238,0.09828512,-0.045425,-0.008545033,-0.0003992469
1.013355,0.09112115,0.09313183,-0.04580754,-0.005394103,0.0002431925
1.014478,0.08791024,0.08777906,-0.04871813,-0.007814015,-0.006139713
1.017526,0.08741844,0.08704396,-0.04695555,-0.004164709,-0.009492226
1.019912,0.08709712,0.09141386,-0.044748,0.003967791,-0.00787956
1.018001,0.08830651,0.09338598,-0.04350152,0.006476415,-0.009935382
1.015957,0.09031646,0.0864996,-0.0381548,0.006141795,-0.01282659
1.0148,0.092074,0.08122329,-0.0372137,0.005408942,-0.01180022
1.014699,0.0923825,0.0839112,-0.03645309,0.009148116,-0.01097923
1.013977,0.09087982,0.08622077,-0.03160913,0.01622326,-0.01319179
1.01163,0.09221522,0.08415771,-0.03006016,0.02100531,-0.01234037
1.012835,0.09386954,0.08461541,-0.02743623,0.02049892,-0.01113996
1.015815,0.09344409,0.08738901,-0.02670566,0.0153122,-0.01449206
1.016824,0.09067847,0.08739218,-0.03023874,0.01957049,-0.01948514
1.015845,0.08704481,0.088887,-0.03004407,0.03536455,-0.02521618
1.012787,0.09405527,0.0928448,-0.02224616,0.04692833,-0.02207835
1.011859,0.1025358,0.09705162,-0.009584924,0.03951874,-0.01377832
1.013018,0.09922161,0.09690169,-0.006745551,0.0221958,-0.01325906
1.013296,0.09861024,0.09289247,-0.01072687,0.02083826,-0.01121309
1.014137,0.1006161,0.09288413,-0.008611795,0.02215978,-0.01040104
1.013906,0.0976235,0.09067919,-0.008624584,0.02026612,-0.01152941
1.01284,0.09866027,0.08951357,-0.009577976,0.0267829,-0.00299055
1.013532,0.10217,0.09530197,-0.008679688,0.02249462,0.002386861
1.014895,0.105678,0.09735133,-0.01155766,0.01617233,0.002649701
1.015776,0.1095951,0.09810174,-0.01260653,0.01489127,0.00498477
1.015225,0.1060158,0.1000057,-0.0123909,0.009349716,0.004544499
1.01464,0.1020604,0.09978147,-0.01365343,0.01232688,0.005749027
1.013823,0.1048258,0.09354753,-0.01157847,0.01271347,0.009273175
1.011778,0.1046151,0.0837006,-0.005398971,0.009090652,0.01559867
1.011895,0.1033788,0.08665155,4.397633e-05,0.001310254,0.02244393
1.011311,0.1045653,0.08987769,-0.001502076,-0.02933192,0.02503898
1.008758,0.1031044,0.08365457,-0.004001239,-0.05312856,0.02976942
1.009927,0.1023338,0.08441899,-0.003299868,-0.04526459,0.02817754
1.012487,0.1037084,0.08450205,-0.009841977,-0.02965533,0.02247407
1.014344,0.1062667,0.08214441,-0.01982888,-0.02115687,0.0295639
1.015443,0.1089368,0.08438759,-0.02374491,-0.01489153,0.03840571
1.011682,0.1051619,0.08546282,-0.02519105,-0.01812311,0.04150293
1.008494,0.09732073,0.08878357,-0.02498074,-0.03053417,0.04201101
1.011935,0.09190644,0.09012038,-0.02541551,-0.03118265,0.03966171
1.015818,0.08805036,0.0871186,-0.02896549,-0.01833161,0.04022783
1.017299,0.08804244,0.08778613,-0.03033377,-0.001742841,0.03897814
1.017629,0.09523869,0.08713751,-0.0307122,0.000876049,0.03470112
1.013601,0.1027859,0.08509748,-0.03019907,-0.007640462,0.03388089
1.008457,0.101976,0.0861657,-0.02441157,-0.002146699,0.03324304
1.009315,0.09722396,0.08555126,-0.0182904,0.0003127715,0.03326208
1.01178,0.09575382,0.08347689,-0.01689904,-0.0004544486,0.03098739
1.012469,0.09459279,0.08304952,-0.02116104,0.003955795,0.02431504
1.016358,0.09324313,0.08447544,-0.0277732,-0.0008173505,0.01822229
1.019135,0.09327589,0.08820359,-0.03044902,0.002049375,0.01386294
1.016147,0.09094561,0.08814418,-0.03256393,0.003810605,0.01526829
1.014254,0.08747265,0.08257801,-0.03643495,-0.00437774,0.01618751
1.015468,0.08569689,0.08127577,-0.03507354,-0.00642621,0.01245268
1.015595,0.08420118,0.08315498,-0.02641313,-0.01009914,0.006559573
1.014953,0.08197922,0.0834083,-0.01962699,-0.007961214,-0.003804484
1.015534,0.07894882,0.08315452,-0.02326202,0.001506496,-0.004539469
1.016326,0.07781193,0.08080354,-0.02573115,0.01437341,-0.0001009084
1.015815,0.0830677,0.08161487,-0.01588877,0.02568008,-0.001416455
1.012462,0.09206745,0.0873782,-0.008641852,0.01251992,0.002995945
1.008861,0.09491425,0.09107883,-0.011819,-0.0003533741,0.0004885148
1.012735,0.09229888,0.09049008,-0.01271721,0.007887784,-0.00662836
1.017631,0.09224161,0.08775621,-0.009912474,0.01668388,-0.002455139
1.014935,0.09323861,0.08684132,-0.01047464,0.02458684,-0.003422552
1.014386,0.09324669,0.08615035,-0.01189732,0.02624895,-0.008303186
1.016293,0.09332848,0.08566117,-0.01330508,0.0247652,-0.008487742
1.014416,0.09432837,0.08807271,-0.01505491,0.03115573,-0.007085993
1.013045,0.09520944,0.09034489,-0.01177398,0.02829001,-0.0006617698
1.010606,0.09398329,0.09179567,-0.005939161,0.02066746,0.004987372
1.008674,0.09483188,0.08949525,-0.003467896,0.0216297,0.008123361
1.011266,0.0972895,0.086028,-0.00379997,0.02349487,0.008223189
1.012484,0.09749775,0.08978232,-0.005046765,0.02959327,0.003350402
1.012754,0.09743013,0.09612825,-0.005609655,0.0330319,0.001990559
1.0146,0.09754546,0.09987934,-0.00636187,0.03005017,0.001976067
1.015181,0.09756273,0.09932561,-0.006028707,0.03100995,0.00186896
1.013792,0.0965971,0.09572281,-0.004843724,0.02698139,0.002194416
1.012017,0.0953998,0.09382711,-0.005245142,0.01950728,0.0009473398
1.014047,0.09531062,0.09006645,-0.003160947,0.01643917,0.004162465
1.016179,0.09564782,0.08608995,-0.001701063,0.01945315,0.006365668
1.013161,0.09730844,0.08566442,-0.002634132,0.0267402,0.006706642
1.011637,0.09756988,0.08858308,-0.001803964,0.02327613,0.007853251
1.012773,0.09812066,0.09635926,-0.00283494,0.02069005,0.006792218
1.012574,0.10113,0.0974364,-0.003346929,0.02366705,0.01050134
1.012216,0.1016873,0.09260161,-0.00478543,0.01509744,0.01119491
1.011798,0.1016351,0.09235276,-0.009996114,0.008349999,0.00852554
1.011783,0.102226,0.08989658,-0.0108954,0.008315168,0.009446009
1.012629,0.1023211,0.09163197,-0.01015229,0.008765394,0.004999247
1.01279,0.1005827,0.09796499,-0.01201199,0.01009784,0.005492578
1.012269,0.09706901,0.09866602,-0.01403717,0.006290333,0.01150128
1.012469,0.09760522,0.1016046,-0.01465002,0.00156846,0.01223344
1.012536,0.09868059,0.1035087,-0.01431947,-0.001790065,0.01389601
1.011392,0.1008034,0.1006297,-0.01589485,-0.003416451,0.01520662
1.010917,0.105724,0.09989351,-0.01585812,-0.003756549,0.01599714
1.01109,0.1025522,0.1014737,-0.01475858,-0.007841222,0.01724582
1.010956,0.09709453,0.1038466,-0.01270274,-0.01190622,0.01696087
1.010651,0.09617275,0.1017276,-0.00333544,-0.01764793,0.01487765
1.011104,0.09368763,0.0958329,0.003514201,-0.02276963,0.01038104
1.013206,0.09438556,0.08909768,-0.00505014,-0.01580979,0.008892643
1.013832,0.09810113,0.08560121,-0.01621564,-0.002322109,0.01178125
1.012814,0.09938674,0.09089318,-0.01265061,0.0003108608,0.01552185
1.010739,0.1015761,0.09323002,-0.008079502,-0.008371897,0.01537486
1.007296,0.1028782,0.09025916,-0.009688034,-0.01264396,0.01355636
1.00931,0.1002269,0.08920548,-0.005174189,-0.01030367,0.01313796
1.014744,0.09669013,0.08698094,-0.005545889,-0.007549502,0.008195489
1.01544,0.09379069,0.08836884,-0.009056629,-0.005477901,0.005125694
1.013266,0.09165894,0.09289563,-0.006466253,-0.0004062484,0.00594838
1.010011,0.09371363,0.09524382,-0.007890392,0.01021379,0.004796435
1.008803,0.09932513,0.09931833,-0.006032382,0.01398854,0.00660384
1.011012,0.09950244,0.1010285,-0.00347997,0.005683012,0.007130558
1.013197,0.09745707,0.09367198,-0.007797018,-0.0005330735,-0.0005301036
1.016133,0.09951123,0.08590707,-0.008883324,0.003296961,-0.007822442
1.015893,0.09943882,0.09015335,-0.009209373,0.007833077,-0.004043765
1.013055,0.09963177,0.09805564,-0.009878721,0.009517942,0.001867054
1.013471,0.09988585,0.09823655,-0.009811305,0.0143277,0.001344263
1.013207,0.09775937,0.09543256,-0.009683451,0.01542957,0.00430468
1.013627,0.09971506,0.09238803,-0.007204551,0.01460556,0.005752735
1.014914,0.1004961,0.09513844,-0.004878991,0.01413433,0.00298758
1.014106,0.09859597,0.1012846,-0.001675758,0.006909136,0.005269745
1.015311,0.09935275,0.09920201,-0.001504775,0.005908959,0.004507839
1.013985,0.1019472,0.1000597,-0.002258442,0.01085408,0.00335936
1.011162,0.1050927,0.1081896,0.001362022,0.01090492,0.008754484
1.01285,0.1028458,0.1121104,0.001130477,0.009137578,0.01317745
1.012805,0.09975181,0.1083122,0.0006111684,0.001858228,0.01732099
1.012196,0.1021022,0.1013228,0.002223598,-0.00276972,0.01903143
1.013936,0.1033218,0.09971075,0.000947222,0.004405926,0.01786545
1.014901,0.1060268,0.09537569,0.001246998,0.009506304,0.02179391
1.015632,0.1087221,0.09094816,0.001453856,0.00320505,0.02517372
1.01548,0.1021673,0.09868665,0.000918668,-0.002086615,0.0207066
1.015918,0.09585632,0.1019299,0.00294649,0.004421153,0.01455921
1.016842,0.09906389,0.09972151,0.003112286,0.00697661,0.0124833
1.014852,0.1026193,0.1028705,-0.001748444,-0.001274116,0.011441
1.013125,0.1025852,0.1048866,-0.006840469,-0.007171317,0.01140197
1.013884,0.1026859,0.1046087,-0.00476136,-0.009713757,0.01463174
1.013326,0.0994806,0.1028079,-0.0002273114,-0.01068285,0.01664418
1.009193,0.09473186,0.1007128,0.0006034531,-0.01035128,0.01930614
1.005928,0.09473591,0.09801127,0.002979736,-0.009783353,0.02448191
1.008544,0.0988751,0.09743564,0.00405051,-0.009410677,0.02235295
1.012558,0.103042,0.1001877,-0.001719844,-0.008997669,0.01249152
1.013846,0.1018225,0.0989744,-0.009506413,-0.004514514,0.006367072
1.015266,0.1008585,0.09995945,-0.01240373,0.00401119,0.008631564
1.014091,0.106008,0.1029268,-0.01016139,0.01163921,0.01166048
1.010417,0.1086797,0.1049748,-0.01062293,0.004228723,0.00892057
1.011909,0.1072549,0.1096188,-0.01070818,-0.01153256,0.009022663
1.014369,0.1043119,0.1053139,-0.004067491,-0.01095873,0.01581157
1.013645,0.1002093,0.100742,0.002432488,-0.008015534,0.02101446
1.013706,0.0977454,0.107273,0.004543765,-0.01212145,0.02152662
1.011923,0.09648927,0.1094703,0.0003759379,-0.01380985,0.01552247
1.009468,0.09728159,0.1061704,-0.00432118,-0.01853039,0.01032133
1.009551,0.09768232,0.1055017,-0.001943685,-0.01838952,0.01230387
1.009757,0.09666739,0.1090877,-0.0003739396,-0.01628735,0.01019521
1.010199,0.09772422,0.1118373,0.001519374,-0.01947785,0.005600003
1.011397,0.09813311,0.1064045,0.006567874,-0.01416617,0.005129966
1.013028,0.09949467,0.1006956,0.005532661,-0.00808515,0.001652131
1.012868,0.1035569,0.09989417,0.003974238,-0.008656387,-0.001592821
1.011874,0.1058834,0.09923222,0.007621148,-0.007543699,0.003271738
1.012864,0.103624,0.101439,0.009345778,-0.006056193,0.009969248
1.012544,0.0996513,0.1058081,0.01012898,-0.004768317,0.01148875
1.012179,0.1012575,0.1046551,0.01139443,-0.003182456,0.01169377
1.01287,0.102378,0.1028552,0.01129944,-8.972747e-05,0.01305421
1.011907,0.09922288,0.1050616,0.01192867,0.002797738,0.01480847
1.010742,0.09923944,0.1037872,0.01142594,4.612998e-05,0.01687573
1.009499,0.09907963,0.101745,0.009964398,-0.005575977,0.01650645
1.010181,0.1006964,0.1016371,0.01028566,-0.009184316,0.01445969
1.011994,0.1045417,0.1010149,0.01149815,-0.008323702,0.01258257
1.010917,0.1035109,0.1036425,0.01229486,-0.008578125,0.01190045
1.010801,0.1038248,0.1048541,0.01095672,-0.01541595,0.01286384
1.011551,0.1047761,0.104137,0.01024798,-0.02033054,0.01451427
1.010813,0.1026723,0.1054946,0.009177705,-0.01950836,0.01943243
1.011173,0.102672,0.1031885,0.006265379,-0.01830837,0.02458501
1.011239,0.1028593,0.09789763,0.007748589,-0.01705992,0.02510447
1.010906,0.1026549,0.09586119,0.009632132,-0.01558796,0.0250142
1.011463,0.1029567,0.09855071,0.01098912,-0.01748658,0.02551743
1.011748,0.1027822,0.09914925,0.01557997,-0.02051491,0.02382026
1.011853,0.1035896,0.09599356,0.016653,-0.02007719,0.02326702
1.011041,0.1033799,0.09603284,0.01485488,-0.01917705,0.02743798
1.010862,0.101618,0.09751617,0.0119718,-0.01880838,0.03085274
1.012398,0.100579,0.09912102,0.007664158,-0.01728237,0.02865492
1.012149,0.09969528,0.09916044,0.007217961,-0.01661631,0.02637055
1.009742,0.09826168,0.09771794,0.009020544,-0.01928145,0.02691479
1.007588,0.09815588,0.09916428,0.008733733,-0.02064588,0.02334589
1.007732,0.09949486,0.09865331,0.005818152,-0.009953851,0.01940722
1.008152,0.1002533,0.09811067,0.003486607,0.0003223491,0.02571968
1.00688,0.101684,0.09870881,0.005372118,-0.01039748,0.03107752
1.009867,0.1021868,0.09547372,0.00740804,-0.02599805,0.0251208
1.015277,0.101565,0.09374596,0.006394442,-0.02787244,0.02103959
1.015903,0.1029579,0.09486294,0.006552076,-0.02323568,0.02387057
1.015089,0.1013482,0.09771927,0.007773878,-0.01783423,0.02452866
1.015203,0.09873769,0.1012925,0.006056443,-0.01406457,0.02354974
1.015135,0.1001569,0.1018973,0.004527497,-0.01255312,0.02410155
1.014314,0.09920754,0.1011707,0.003868019,-0.008310758,0.02339439
1.012545,0.09700295,0.09988501,0.0008794876,-0.005222887,0.0223754
1.012243,0.0971716,0.09776288,-0.001313514,-0.00695176,0.01963498
1.012608,0.09683448,0.0948627,-0.0005800683,-0.006976756,0.01390456
1.012477,0.09550956,0.0939626,0.002110727,-0.005143384,0.01034063
1.012358,0.09440976,0.09682637,0.003954878,-0.00474452,0.007785052
1.011536,0.0968502,0.0991896,0.004892819,-0.004422784,0.007621808
1.010905,0.1001414,0.1015688,0.006387769,-0.005119876,0.01104558
1.01081,0.09968124,0.1035476,0.001597813,-0.007172704,0.01087066
1.010375,0.1003482,0.1035952,-0.003879251,-0.007995879,0.01006955
1.009622,0.1012403,0.1060305,0.001421775,-0.008635925,0.01049145
1.010547,0.09841168,0.1095284,0.007316248,-0.009558429,0.008635605
1.01284,0.09668356,0.1083615,0.007634842,-0.007229757,0.007960156
1.013569,0.09571101,0.1044528,0.007090342,-0.005726469,0.007990565
1.014355,0.09360848,0.1031139,0.006196725,-0.01054348,0.00747627
1.015735,0.09449561,0.1031642,0.007622219,-0.01389369,0.007190525
1.016,0.09591064,0.1033947,0.009558108,-0.009192822,0.007655198
1.015039,0.09633727,0.1023982,0.009388772,-0.003535394,0.01111466
1.012818,0.0993077,0.09844189,0.009691389,-0.00200326,0.01370509
1.011126,0.1006353,0.09654971,0.009163738,0.0003718457,0.01125581
1.009911,0.0983111,0.09717406,0.007282265,0.001877255,0.008344382
1.009708,0.09785249,0.09833396,0.004812734,-0.001035334,0.008773422
1.011753,0.0992146,0.09909905,0.0022632,-0.002006319,0.006669215
1.012787,0.09862845,0.09806107,0.001431106,-0.00175453,0.002312668
1.011577,0.09817042,0.09804992,0.002069127,-0.002016487,0.003844848
1.009694,0.09852293,0.09794817,0.003155826,-0.001307716,0.005162727
1.009355,0.09577051,0.0989958,0.002340005,-0.005931227,0.003402643
1.010229,0.0934547,0.1021746,0.002690217,-0.01233062,0.004356496
1.010445,0.09447909,0.1037029,0.009825334,-0.01400059,0.003749792
1.011914,0.0947411,0.1034811,0.01576291,-0.01582405,0.001692104
1.014221,0.09481603,0.09960514,0.01258387,-0.01615559,0.0009010622
1.016572,0.09725976,0.09763234,0.008979556,-0.006597664,0.001049028
1.017015,0.1011464,0.1009613,0.01158704,0.003889582,0.003182948
1.013057,0.1041343,0.1010473,0.01130272,-0.003168526,0.002635568
1.009858,0.1058618,0.09690679,0.006197362,-0.01251056,2.624629e-05
1.0093,0.1051672,0.09292565,0.004322678,-0.007329811,0.0003307129
1.009279,0.1019085,0.0947802,0.004116793,-0.004731012,0.001482285
1.008329,0.1003884,0.1002056,0.003497795,-0.003904876,0.002365977
1.006973,0.09802598,0.1019096,0.0002871912,-0.0004713009,0.004471448
1.011229,0.09505984,0.1019295,-0.004524928,-0.002360555,0.005909725
1.016257,0.09603172,0.1004064,-0.003651643,-0.0008291749,0.00392707
1.015673,0.09597822,0.09849577,-0.001142173,-0.0006178079,0.002554221
1.016343,0.09547881,0.09708629,0.001082794,-0.003895101,0.002809468
1.017378,0.09658876,0.09713971,0.003452358,6.789963e-05,0.002226213
1.015065,0.09733926,0.102559,0.001581275,0.002423586,0.005269471
1.013848,0.09922615,0.1054619,0.0005987414,0.001649075,0.006981219
1.012706,0.09896144,0.1040407,0.002504902,0.001065268,0.005537921
1.009938,0.09793875,0.1040147,0.00484617,-0.0008071576,0.007887354
1.008441,0.09925095,0.1028233,0.007612028,-0.001723963,0.006544945
1.008044,0.09942998,0.0980122,0.008026594,-0.005831419,0.005382728
1.008859,0.1000532,0.0914727,0.005934264,-0.007373501,0.009040652
1.011975,0.1002463,0.09315796,0.00367092,-0.003833058,0.007188464
1.016632,0.09865216,0.1012193,0.004125832,-0.001141988,0.006506533
1.019035,0.09853326,0.1046295,0.005540799,0.002907623,0.005482035
1.01527,0.09877916,0.1050793,0.003726619,0.003574443,0.001396109
1.012335,0.09945621,0.1044773,0.002860317,0.002242147,0.004448033
1.014492,0.100598,0.1073992,0.003876417,0.000953362,0.004352303
1.015108,0.1008295,0.109807,0.002847544,-0.004967518,0.003161548
1.014709,0.101552,0.1061011,0.001358723,-0.007925132,0.008790156
1.013906,0.1012618,0.1063376,-0.0007449978,-0.005873856,0.01047867
1.011325,0.09913958,0.1034525,-0.002419328,-0.003556389,0.008957943
1.010507,0.09730777,0.09808328,-0.002243867,-0.004076731,0.004642966
1.009775,0.0967674,0.1015467,-0.00252499,-0.005065351,-0.000646768
1.00908,0.09759148,0.09967478,-0.0004365934,-0.002121449,-0.001766066
1.010203,0.09858961,0.09810155,0.002020147,-0.002853272,-0.0008856612
1.010079,0.1006069,0.1081421,0.002675721,-0.007141246,0.001784768
1.011154,0.1032975,0.1121955,0.005668707,-0.0104667,0.001513401
1.012741,0.1039082,0.1060414,0.007640444,-0.01194796,0.00136845
1.008919,0.1039675,0.09979004,0.01098268,-0.0132589,0.003012344
1.006466,0.1035612,0.09951437,0.01486452,-0.01749904,0.001523208
1.012311,0.102067,0.1001077,0.008413802,-0.01094749,0.003117707
1.017203,0.1018398,0.09863185,0.001012923,-0.002298737,0.003972918
1.013313,0.1012702,0.1030227,0.002143628,-0.008879841,0.003565815
1.008753,0.1000858,0.1040835,0.00199098,-0.01307004,0.007969371
1.008971,0.1002317,0.1029993,-0.003629851,-0.01528809,0.008873526
1.008385,0.1007476,0.1078608,-0.008806349,-0.02090562,0.008483079
1.008759,0.1009587,0.1103541,-0.007630503,-0.01728088,0.01365366
1.010439,0.09790632,0.1146481,-0.00141053,-0.0134317,0.01707786
1.008204,0.09306458,0.1127544,0.005125427,-0.0160434,0.01424494
1.006042,0.09219911,0.1047967,0.009998678,-0.0163588,0.009899936
1.005336,0.09189634,0.105601,0.01130852,-0.01717995,0.006725962
1.005704,0.09135816,0.1018446,0.01307726,-0.02058888,0.005636055
1.009099,0.09423856,0.09826654,0.01619591,-0.01903229,0.005031737
1.0121,0.09682595,0.09994673,0.01466538,-0.01446182,0.0005548291
1.013229,0.09778809,0.09732569,0.01314433,-0.01193906,0.0002697683
1.012267,0.09831482,0.09997004,0.01177351,-0.01018428,0.002006848
1.011141,0.09846058,0.1009818,0.006253391,-0.009755377,-0.003260293
1.011362,0.09896725,0.09897604,0.004864162,-0.008152175,-0.003905396
1.0104,0.09917971,0.1018363,0.005643937,-0.007361855,-0.002661549
1.009424,0.1020078,0.1012742,0.003633822,-0.009817008,-0.002855075
1.008206,0.1056023,0.1014596,0.00559652,-0.0100736,0.001592399
1.009135,0.104309,0.1027012,0.01018639,-0.009868939,0.0007525519
1.01344,0.1034135,0.1024293,0.01205365,-0.007756122,0.001152462
1.014665,0.1047139,0.1030923,0.008521004,-0.005181812,0.006601367
1.014685,0.1035404,0.09997608,0.002628024,-0.006636019,0.005638021
1.01483,0.1014405,0.09659153,0.002844286,-0.003025999,0.004413207
1.011662,0.100184,0.09434807,0.006239685,0.0001984621,0.005555924
1.008861,0.0999208,0.09401338,0.006870822,-0.002235097,0.007379688
1.010099,0.0984973,0.09720735,0.004505045,-0.0005638137,0.009786599
1.01243,0.09527028,0.09830402,0.001830108,0.001810935,0.006569545
1.011787,0.09540128,0.09894782,0.004901564,0.003037977,0.0004727172
1.012211,0.09740372,0.1000236,0.00809065,0.003101131,-0.003187709
1.013558,0.09983736,0.1043374,0.005465634,0.001096587,-0.004289665
1.012692,0.1040369,0.1107763,0.00588349,0.002397791,-0.002276733
1.013922,0.1023141,0.1079318,0.01095444,0.002529217,0.00102227
1.012092,0.09790397,0.1023075,0.01357336,0.001246031,0.002691807
1.007039,0.09878648,0.100749,0.009905045,0.00160199,0.003348593
1.006529,0.09869213,0.09928374,0.005051839,-0.001330091,0.003857187
1.007969,0.09807332,0.1000335,0.007428055,-0.005170011,0.00399763
1.012441,0.0982101,0.1004023,0.01054049,-0.006076069,0.003531907
1.01683,0.09638511,0.09973049,0.01139126,-0.003254678,0.0001331751
1.014698,0.09669017,0.1007875,0.01248146,-0.000360915,-0.00406399
1.012733,0.09826713,0.09987111,0.007101256,-0.001240003,-0.006612981
1.014019,0.1014617,0.09747425,0.003130639,0.001073523,-0.008005883
1.012863,0.1055644,0.09624964,0.003338774,0.0056443,-0.00130165
1.009003,0.1059539,0.09739255,-0.002154752,0.004234499,0.007802024
1.008192,0.1070223,0.1029157,-0.00394418,-0.001121958,0.004123721
1.011056,0.1073121,0.1069538,-0.001351204,-0.004955121,0.0006289528
1.013083,0.1044218,0.1023911,-0.001782569,-0.003923471,0.007359336
1.011076,0.1037153,0.09627886,0.0001526336,-0.003396744,0.008671528
1.008541,0.1027354,0.09693654,0.001767382,-0.01046594,0.006166058
1.010869,0.09979318,0.09970444,0.002452973,-0.01592199,0.006955521
1.012111,0.09788185,0.100652,0.00667993,-0.01252858,0.006306728
1.01137,0.09823682,0.1009964,0.01075536,-0.01028619,0.007469233
1.013054,0.09876338,0.09884048,0.01256419,-0.0139187,0.006403469
1.012632,0.09560177,0.09528302,0.01357524,-0.01653538,-0.003396605
1.012073,0.09343877,0.09555809,0.01188153,-0.01623834,-0.01574263
1.012535,0.09514243,0.09939539,0.00791426,-0.01685083,-0.02094496
1.009969,0.09729817,0.1044483,0.01162767,-0.02444498,-0.01590908
1.006519,0.09913265,0.1094643,0.020114,-0.04254395,-0.011229
1.005159,0.09785476,0.1081957,0.02192301,-0.05589896,-0.009493256
1.008185,0.09546209,0.101679,0.02057456,-0.05079015,-0.008435692
1.011092,0.09633342,0.0986099,0.01970806,-0.04673856,-0.008121311
1.009569,0.1004077,0.09782581,0.0248673,-0.05791645,-0.003278811
1.009588,0.1096424,0.09684123,0.03455156,-0.06976494,-0.002138935
1.012345,0.1161288,0.09494337,0.03626732,-0.07542429,-0.002647738
1.014838,0.1098213,0.09178229,0.0305984,-0.07057294,0.001638751
1.016646,0.1039936,0.09038218,0.01839195,-0.05545326,-0.0004736531
1.016236,0.1084686,0.08850708,0.006890623,-0.04938041,-0.0004001349
1.01599,0.109866,0.0830168,0.008398562,-0.05206405,0.007720818
1.018734,0.1072682,0.07617443,0.01418755,-0.05038729,0.01275662
1.020333,0.1069174,0.07481786,0.01543828,-0.04091796,0.01406956
1.018706,0.1027024,0.07531079,0.01412895,-0.02553657,0.01595446
1.016522,0.09934119,0.07060272,0.01012402,-0.02023722,0.02041374
1.014757,0.09888276,0.07222192,0.004060014,-0.02342041,0.01850799
1.015177,0.09605561,0.07806336,0.001941169,-0.01921224,0.01387094
1.017649,0.09480019,0.08017386,0.003441571,-0.01406895,0.01712276
1.018243,0.09239376,0.08337505,0.001974098,-0.01500908,0.02048715
1.017137,0.09106304,0.0803926,0.0007404421,-0.01568323,0.02405105
1.01637,0.09278581,0.07549693,0.001756959,-0.01126177,0.01963548
1.016133,0.09125473,0.07675774,0.003257128,-0.006886253,0.008535724
1.014845,0.09335402,0.08225607,0.006403263,-0.007818242,0.0113758
1.0114,0.09579643,0.09149449,0.008794651,-0.01964129,0.01375882
1.010612,0.09368322,0.08929206,0.01018897,-0.03252573,0.01310878
1.013351,0.09644001,0.08013168,0.01094015,-0.02067658,0.0203751
1.014406,0.1035438,0.07707046,0.01017087,-0.00955389,0.02039682
1.013565,0.1094229,0.0731611,0.009785287,-0.02725128,0.01743318
1.011894,0.1027202,0.07475753,0.009278117,-0.03845213,0.0177261
1.01152,0.08976621,0.07641266,0.008135321,-0.03045165,0.01499013
1.015503,0.09077448,0.07248602,0.007212257,-0.02028287,0.00827136
1.019617,0.09304571,0.07410221,0.00357351,-0.006050629,-0.0007987673
1.018536,0.09022955,0.07431037,-0.003114796,0.007032145,0.0003022461
1.017107,0.09024898,0.07609134,-0.006909081,0.01509106,0.003682074
1.019566,0.08742837,0.08168457,-0.006899928,0.02397604,-0.002513459
1.019724,0.08719312,0.07968517,-0.006854869,0.0243382,-0.006301812
1.017463,0.09100029,0.07598149,-0.007832996,0.01499606,-0.01071335
1.015531,0.09293187,0.07297105,-0.009963417,0.01305937,-0.01406038
1.012796,0.09615031,0.07009586,-0.0106411,0.02253005,-0.01121804
1.014011,0.09812529,0.07199481,-0.007805995,0.03310281,-0.0131154
1.016522,0.09762121,0.07709199,-0.005443455,0.03136784,-0.01094948
1.015963,0.09845676,0.08173282,-0.006496759,0.0197933,-0.004994057
1.014442,0.1001631,0.08288135,-0.006780086,0.01038713,-0.007162143
1.011466,0.09999106,0.08334313,-0.00298044,0.004273996,-0.005797519
1.011963,0.09874375,0.08349024,-0.0002399905,0.009744819,-0.002443022
1.013607,0.09871178,0.08248345,-0.001534058,0.01631554,-0.005266658
1.01174,0.09852274,0.08325814,-0.003338201,0.008969619,-0.006308265
1.012579,0.09974018,0.08388248,-0.005478821,0.006610749,-0.00425819
1.013306,0.1014381,0.08409839,-0.006993073,0.007802014,-0.0005023854
1.01403,0.1009724,0.0848534,-0.002794471,0.007383084,0.006074862
1.01806,0.09984675,0.08500459,0.001447847,0.01159753,0.008956061
1.018333,0.09788776,0.0845057,-0.004175526,0.009379837,0.003698925
1.015711,0.09832371,0.08463636,-0.009369249,0.006525211,-0.0004700706
1.013787,0.09933351,0.08485415,-0.005514811,0.00619574,-0.00228301
1.012649,0.09767433,0.08352117,-0.00500298,0.004025381,-0.007656566
1.013288,0.09682148,0.08246139,-0.009895395,0.007077872,-0.009979375
1.013134,0.09459394,0.08032048,-0.01019572,0.01109762,-0.008277117
1.011634,0.09356947,0.07927962,-0.002697449,0.01595542,-0.0003727602
1.008766,0.0947667,0.08271626,0.006322422,0.01752837,0.008308455
1.006468,0.09245132,0.08377239,0.004775826,0.006620835,-0.005510286
1.009493,0.09112067,0.08267391,-0.002879506,-0.001456927,-0.02085868
1.013452,0.09411778,0.08472913,-0.008302602,0.007830791,-0.007706641
1.012276,0.1005833,0.08885793,-0.01324907,0.01600358,0.006226955
1.009167,0.1064079,0.09165169,-0.009360519,-0.003473725,0.009500077
1.008097,0.1043862,0.08636269,-0.005206536,-0.0365097,0.01749247
1.0091,0.1009202,0.0791076,-0.01585762,-0.05496701,0.02446067
1.011206,0.1022038,0.08339079,-0.02244176,-0.06072139,0.04110405
1.013323,0.1040044,0.086372,-0.01591294,-0.07076409,0.06347252
1.019613,0.1050226,0.07884715,-0.007458791,-0.0782922,0.06266245
1.027594,0.100965,0.07563661,-0.002131232,-0.05039976,0.05803263
1.024143,0.09463467,0.074622,-0.002885796,-0.01372228,0.05775721
1.017751,0.09691845,0.07074266,0.0007190763,-0.0118044,0.04355714
1.017922,0.09812608,0.07014423,0.01492553,-0.01239723,0.03620189
1.01272,0.09179218,0.06948191,0.02074016,-0.002113721,0.03390486
1.006729,0.08769957,0.06950112,0.008122256,0.001350148,0.01790524
1.006484,0.08337212,0.07249034,-0.0004091177,0.0009449432,0.009046065
1.00988,0.07842747,0.07398382,0.01248057,5.24095e-05,0.01428707
1.020688,0.07405015,0.07206838,0.02280761,0.003503659,0.01393433
1.026962,0.06397853,0.06957163,0.01475325,0.004741404,0.002713621
1.025424,0.05714376,0.06983176,0.009939201,0.005892093,-0.007829498
1.024287,0.06753475,0.06879705,0.01078069,0.009633656,-0.01066996
1.020075,0.08640742,0.0680244,0.005160043,0.002173291,-0.01089991
1.019983,0.09381018,0.0728865,0.001286034,-0.002508417,-0.01412317
1.021245,0.09410912,0.07633523,-0.0004490557,0.004352188,-0.01819047
1.014874,0.09481235,0.07427683,-0.002032413,0.007581628,-0.0199139
1.010123,0.09074119,0.0724316,0.0008949942,0.002779642,-0.02281758
1.008711,0.09121593,0.07263477,0.001222149,-0.001594849,-0.02113698
1.010485,0.09271045,0.07053306,0.003226628,0.002311285,-0.01402266
1.014779,0.08931141,0.06824892,0.006803054,0.003407695,-0.01467154
1.019213,0.0893231,0.07029825,0.000641826,-0.001711816,-0.01572528
1.023735,0.08587298,0.07246914,-0.002691258,-0.002512269,-0.01363967
1.021665,0.08330849,0.07317477,0.001819675,0.001030832,-0.01539795
1.018673,0.08581918,0.07075176,0.004481815,0.005247655,-0.01549917
1.018277,0.08621103,0.06622825,0.004679259,0.003723156,-0.01695585
1.016339,0.08865979,0.06673206,0.003464472,0.002567208,-0.01871816
1.015043,0.09085042,0.06390553,0.004160095,0.008924795,-0.0168237
1.01058,0.09356557,0.05780021,0.005026159,0.01185696,-0.01801182
1.010754,0.09558267,0.06292991,0.004468505,0.01175332,-0.02275858
1.018453,0.09190956,0.06797895,0.001479815,0.01804543,-0.02744165
1.022063,0.09175528,0.06571565,-0.005486632,0.03211263,-0.0247581
1.02251,0.09572798,0.07096298,-0.007074909,0.0409516,-0.01617852
1.018417,0.09905675,0.07782201,-0.005255357,0.03373119,-0.0120197
1.014886,0.09947352,0.07463853,-0.007392085,0.02547641,-0.01224206
1.017256,0.09752247,0.07056231,-0.009196409,0.02304556,-0.01500044
1.016627,0.09768782,0.06960575,-0.01032091,0.02344794,-0.0155145
1.015058,0.09508045,0.07012483,-0.01248855,0.02995796,-0.01230552
1.013566,0.09143889,0.07802191,-0.01396632,0.03250765,-0.01014561
1.011386,0.09162364,0.08614173,-0.01043352,0.02801783,-0.007732808
1.011807,0.09153306,0.08445043,-0.004255132,0.0228178,-0.004500509
1.011583,0.09176111,0.07990485,-0.003104506,0.01489777,0.001637025
1.013772,0.09177467,0.0754906,-0.004697121,0.007681895,0.005455601
1.018269,0.09174934,0.07180731,-0.005757086,0.007956018,0.001871321
1.018198,0.09374222,0.07323749,-0.005164537,0.01238963,0.002249221
1.014964,0.09482889,0.07821716,-0.001806483,0.01256409,0.004880222
1.013231,0.09463406,0.08505501,0.001185376,0.01356497,0.003413405
1.014697,0.09420007,0.08821263,0.003448807,0.0179858,0.0002472141
1.015965,0.0944256,0.08403995,0.003351421,0.02055755,-0.005311987
1.015485,0.09416766,0.07351446,-0.001240913,0.02635867,-0.006789657
1.016843,0.09146631,0.06146568,-0.003418285,0.02631766,-0.005974157
1.018863,0.08961207,0.0648056,-0.001715934,0.0196436,-0.00790892
1.017814,0.09001714,0.07374231,-0.002319544,0.02024735,-0.008449809
1.015588,0.09122023,0.07312488,-0.003958106,0.02063147,-0.01010272
1.014218,0.09290275,0.08121792,-0.007281568,0.0236574,-0.01035518
1.013343,0.09496726,0.08592046,-0.01181839,0.02835599,-0.010254
1.014002,0.09460907,0.07919504,-0.009317575,0.02472438,-0.0127261
1.014171,0.09093533,0.08444347,-0.005909486,0.02393932,-0.01046095
1.013678,0.09023307,0.08639896,-0.008648446,0.02367402,-0.009353443
1.015027,0.09303538,0.08122865,-0.007938096,0.01829861,-0.01102194
1.015548,0.09521827,0.08075773,-0.002283026,0.01389117,-0.009712987
1.015194,0.09479787,0.07618134,0.002180124,0.01120494,-0.009005928
1.014793,0.09267376,0.07785121,0.002773436,0.009882193,-0.007499661
1.012502,0.09318403,0.08301224,-0.0009519452,0.007099375,-0.006650183
1.011292,0.09322377,0.08296583,-0.002659623,0.005695131,-0.004704718
1.015211,0.09259216,0.08458348,-0.001098527,0.005900798,-0.0006502528
1.019636,0.09341011,0.0839453,0.0002378756,0.006787445,-0.004651262
1.016624,0.0920148,0.08612472,0.00188902,0.009760697,-0.009578546
1.013423,0.09261542,0.08716303,0.0004932837,0.005469736,-0.00817344
1.016023,0.0958816,0.08224204,-0.001684603,0.001372628,-0.009513968
1.015225,0.0990881,0.08313835,-0.000332115,0.006658516,-0.01266372
1.012738,0.1018123,0.08392061,-0.0005590104,0.009432365,-0.01288424
1.012965,0.1004134,0.08240638,-0.002317884,0.008127413,-0.01273832
1.013797,0.09856095,0.08160422,-0.003308356,0.007454815,-0.01389137
1.015414,0.09866935,0.07799474,-0.002818155,0.008332649,-0.01411646
1.012054,0.09940239,0.07777993,0.002768191,0.007937931,-0.01007681
1.008481,0.09962415,0.08166052,0.007643588,0.002906907,-0.006080941
1.013718,0.09543726,0.08335491,0.00240343,0.001278874,-0.009920215
1.017754,0.09224292,0.07835372,-0.007318929,0.009072663,-0.01269377
1.015418,0.09631807,0.07248747,-0.008639633,0.01627628,-0.003943533
1.012811,0.1007461,0.07560011,0.0005409984,0.007694728,0.003226919
1.012462,0.09951386,0.07988412,0.008695031,-0.00622536,0.001263673
1.014314,0.09903414,0.07986578,0.005170365,-0.005635478,0.002114039
1.015754,0.1001731,0.07766313,-0.0004431646,0.002148502,0.005469739
1.014543,0.09767115,0.07348235,0.0002024217,0.00773976,0.002827778
1.013177,0.09734218,0.07454609,-0.002364242,0.007796789,-0.0004461391
1.014024,0.09679246,0.07732314,-0.00259027,0.006667941,0.001160468
1.014185,0.09097396,0.07659592,0.00128271,0.01127665,0.004373327
1.013496,0.08845733,0.0809922,-0.001374319,0.008096681,0.005306126
1.014128,0.09194468,0.0837239,-0.0007990865,0.0007266647,0.002594613
1.013887,0.09640696,0.0759959,0.002179864,0.0002515604,0.0002462328
1.01353,0.09596084,0.0695805,0.001438462,0.0005777067,-0.0009607444
1.013236,0.09551507,0.07170545,0.003000214,0.004747034,7.597632e-05
1.012221,0.0987539,0.07438144,0.003424423,0.006504473,0.004914806
1.013527,0.09658191,0.07523576,0.004644937,0.004607459,0.003314189
1.015325,0.09466259,0.0831686,0.003932648,0.007102578,-0.000940483
1.015416,0.09503385,0.0893587,-0.0004278917,0.007337486,0.0001350655
1.014927,0.09302768,0.08526306,0.001233024,0.008156261,0.0001428564
1.013402,0.09330127,0.08535174,0.001976458,0.008019803,0.00258749
1.012198,0.09127834,0.08706945,-0.0004061018,0.004944096,0.004757059
1.013187,0.09069117,0.08443419,-0.0008186601,0.006333225,0.002396419
1.014154,0.09297,0.08469053,-0.001661764,0.006119695,0.002381637
1.012087,0.09124274,0.08478903,-0.001380052,0.005398772,0.001747817
1.010572,0.09343333,0.08403409,-0.001070984,0.0065823,-0.0007759534
1.013213,0.09525307,0.08193561,-0.0009140638,0.006639936,-0.003678279
1.015608,0.09206911,0.07750069,-0.000576643,0.008379027,-0.007561196
1.015284,0.09201817,0.07549563,-0.0007736351,0.007227767,-0.008609219
1.014039,0.09503933,0.0729069,0.0003996688,0.002728794,-0.006600129
1.012737,0.0982469,0.06964716,0.001172322,0.001061329,-0.004937224
1.012209,0.09587177,0.07046791,0.0007363786,0.005686232,-0.005266053
1.012503,0.09343603,0.07164134,-0.001566235,0.0100578,-0.006168465
1.012646,0.0986831,0.07061075,-0.004422049,0.001458067,-0.005423936
1.012388,0.1006207,0.07208507,-0.004121666,-0.006762937,-0.002718244
1.013032,0.09624148,0.07583228,-0.002091894,-0.0009458098,-0.000147718
1.015276,0.09359831,0.07868704,-0.0006494959,0.002912461,0.001975997
1.017011,0.0968405,0.08275128,-0.001666565,0.0009501683,0.001301223
1.015094,0.100235,0.08585252,-0.004502214,0.001920332,-0.002749643
1.011828,0.09717272,0.08487813,-0.006042237,0.0001728299,-0.002765114
1.012257,0.09544313,0.0826752,-0.004004465,-0.003465533,-0.003880344
1.013022,0.09608769,0.08054155,0.001825794,-0.001814794,-0.006373755
1.01226,0.09435528,0.07801187,0.007371953,-0.0009066606,-0.004175197
1.013544,0.09327295,0.07595764,0.008653292,-0.002883294,-0.00720501
1.014448,0.09189343,0.07508147,0.00359299,-0.001587245,-0.00819022
1.014817,0.09227581,0.07534735,-0.0006007002,0.00231372,-0.002663039
1.016488,0.09733022,0.07711824,0.004912447,0.004049832,-0.001431358
1.017358,0.1011548,0.07767611,0.008763576,-0.002287372,-0.0006857487
1.018398,0.09884991,0.0774427,0.002394576,-0.007552173,-0.005032058
1.018988,0.09605197,0.08092411,-0.003160389,0.007175975,-0.009750528
1.015274,0.1003513,0.08727582,-0.001912195,0.02156344,-1.085894e-06
1.010754,0.1037153,0.09315225,0.003065638,0.009198473,0.0088808
1.012582,0.1014865,0.08808215,0.006104712,-0.005357281,0.006634557
1.016437,0.1006185,0.07552846,0.0002679171,-0.003105923,0.005556996
1.016493,0.09858847,0.07356973,-0.00774194,0.006588254,0.005633018
1.016067,0.09508364,0.07613965,-0.007427738,0.01616225,0.001712003
1.014991,0.093649,0.07878247,-0.006158105,0.01097851,0.00275186
1.014774,0.09294441,0.08417755,-0.005049783,0.00204646,0.007071133
1.015665,0.0938251,0.08592817,0.001537677,0.008042847,0.006818428
1.013055,0.09488936,0.08812523,0.002644533,0.006702646,0.008123929
1.012411,0.09449579,0.08871292,0.0003272869,-0.001172147,0.004964003
1.015432,0.09421589,0.08317321,0.003778783,-0.0002351295,-0.002188342
1.017522,0.09472812,0.07896572,0.004663045,0.0001103924,-0.001981615
1.01805,0.09543624,0.07991874,0.003165133,0.002605317,-0.003848276
1.017387,0.09607798,0.08181722,0.001528748,0.0022141,-0.004117282
1.017397,0.09682183,0.07978499,-0.0005849247,-0.00175067,0.002632847
1.014877,0.09654283,0.07929932,0.0005996531,0.00175936,0.003323184
1.010799,0.09672681,0.0803251,-0.002716396,0.005006563,0.001834265
1.009696,0.09830545,0.08091769,-0.007849544,0.009063548,0.002378208
1.010839,0.09812183,0.08398354,-0.006557478,0.009002664,0.00145176
1.014036,0.09416197,0.08020089,-0.006346211,0.003867878,0.0008939866
1.014544,0.09004465,0.07543882,-0.004339208,0.006664721,-0.0003349658
1.014766,0.09132926,0.07786388,0.0005544458,0.006276866,-0.001526468
1.01647,0.09272807,0.07555458,-0.0008777777,0.005338003,-0.002163753
1.014483,0.09094464,0.07211474,-0.002398015,0.008353542,-0.0010629
1.015208,0.09243356,0.07390914,-0.000236882,0.005986535,0.0008182814
1.015839,0.09618884,0.07535711,0.0007093686,0.007541451,-0.00013758
1.013484,0.1004855,0.07668619,0.002883716,0.008821592,-0.0004592515
1.014212,0.102239,0.07842434,0.00330913,0.005289494,-0.002769354
1.013171,0.09709458,0.07733286,-0.0003359906,0.004436698,-0.006052383
1.011036,0.09344415,0.07362041,-0.0009067343,0.003866816,-0.003094069
1.009575,0.09466268,0.07254306,-0.001073369,0.004838714,-0.001347726
1.01044,0.0958711,0.07741654,-0.00347467,0.004318892,-0.001645818
1.01596,0.09782371,0.08354272,-0.002536984,0.00237324,2.148865e-05
1.017513,0.099226,0.08285739,-0.001927115,0.003656571,-0.001559971
1.016319,0.09847204,0.08040729,-0.003475156,0.004713741,-0.002404274
1.015636,0.09744736,0.08314546,-0.004404865,0.005781406,0.0006834169
1.013871,0.09672731,0.08354852,-0.005519596,0.005117259,0.002910041
1.013866,0.0954127,0.08301292,-0.001758197,0.004319736,0.003267013
1.013765,0.09391771,0.08428553,0.003932765,0.004368407,0.002244207
1.014108,0.09480364,0.08413964,0.003016113,0.002170773,0.0006442162
1.014787,0.09749556,0.08462585,0.00273307,0.003530384,-0.001310509
1.014488,0.09921695,0.08016696,0.005886701,0.004092798,-0.002637487
1.01513,0.09874427,0.07571736,0.006299169,0.0003498634,-0.003820513
1.01597,0.09722251,0.0773225,0.005700851,-0.0002556448,-0.007039486
1.017277,0.0973097,0.07368834,0.00401096,0.002795689,-0.005570004
1.016412,0.09818716,0.06990198,0.001836463,0.004676485,0.003635113
1.014296,0.09769143,0.07505385,0.002643506,-0.004778568,0.008290672
1.014661,0.09350646,0.07913823,0.0009675652,-0.01256458,-0.001108994
1.01696,0.08976572,0.07343568,-0.006554778,0.003776608,-0.01131332
1.019591,0.09687289,0.07028191,-0.01180439,0.01884425,-0.004094674
1.013802,0.1049696,0.08214348,-0.006459053,0.008882586,0.003448613
1.006811,0.1010133,0.09031713,0.0004833443,-0.002669362,-0.00157713
1.011704,0.09664875,0.08128626,-0.002609852,-0.00255447,-0.0004887264
1.014582,0.0932699,0.07314813,-0.003477695,0.0006773284,0.001111174
1.012328,0.08728419,0.07701283,0.001995954,0.006239076,-0.002851036
1.014402,0.09265211,0.08064241,0.001650251,0.006625346,-0.00170835
1.015346,0.100213,0.07987825,-0.001962622,0.004159818,-0.001657651
1.014865,0.09659336,0.0813719,-0.004092097,0.008856776,-0.0007547636
1.015364,0.09637218,0.08063369,-0.002149277,0.006737093,0.002239829
1.013713,0.09861888,0.0814454,0.001481027,0.0006873868,0.0007880773
1.013548,0.09727233,0.08682224,-0.000563489,-0.0002294934,-0.001457573
1.015933,0.09909397,0.08689185,-0.0007814258,-0.001794598,-0.002888658
1.015315,0.0990302,0.08245613,0.001975301,0.00200953,-0.000566525
1.012905,0.09785644,0.07801888,0.002545794,0.001871657,0.0035649
1.012223,0.0995603,0.08175629,0.003465549,-0.004162089,0.006824417
1.012379,0.1001901,0.08780522,-0.0007202541,-0.002905965,0.007429002
1.013372,0.1010714,0.08385556,-0.005759946,-0.002179451,0.002981815
1.016081,0.09836975,0.08387943,-0.003473848,-0.002914327,0.003567504
1.018465,0.09398465,0.08594603,-0.001895468,-0.001436368,0.004645902
1.015605,0.09581814,0.08238549,-0.00147245,-6.428454e-05,0.00303889
1.010382,0.09690077,0.08167704,0.0008406517,4.777656e-06,0.005615127
1.011148,0.09613958,0.08013132,8.552499e-05,-0.0003061495,0.003653411
1.014479,0.09861943,0.07996942,-0.001056683,0.002625535,7.025328e-05
1.015446,0.09867776,0.08237258,0.0006335648,0.002834641,-0.001500765
1.014849,0.09508671,0.08437083,0.001416082,0.001465179,0.0003315025
1.013305,0.09184555,0.08935516,0.002275636,0.002137616,0.006685973
1.014701,0.08997639,0.0901206,0.0027949,0.0005377297,0.00419492
1.016341,0.09093663,0.08822488,0.0008895795,-0.0009806638,0.001353026
1.015482,0.09404236,0.0860698,0.0004367026,-0.003069755,0.003843642
1.016112,0.09651844,0.08042415,1.59935e-05,-0.004167851,0.002167586
1.015352,0.09535539,0.08356946,-0.0005963647,-0.0005508924,0.00160041
1.014606,0.09222925,0.08737877,0.0002500928,0.003141036,0.0005670232
1.016433,0.09210041,0.07710223,-0.00168295,0.001741606,-0.0003142412
1.017737,0.09182623,0.07069836,-0.003220952,-0.00308822,0.001357299
1.020086,0.0917553,0.07511742,-0.003018929,-0.004096755,0.0009220708
1.019607,0.09579808,0.0783391,-0.003707951,-0.002254043,0.0008947314
1.015608,0.09780461,0.08013415,-0.002253319,-0.001172103,-1.427681e-06
1.01406,0.09524055,0.08370192,-0.000253463,-0.001031816,-0.0007012639
1.013791,0.0913946,0.08501253,0.0001700948,-0.001047373,0.0006830965
1.015685,0.08947291,0.08003424,-0.0007325814,0.001081804,0.00121
1.017091,0.09085566,0.07580424,-0.003431987,0.0007807132,0.0008840812
1.013707,0.0927296,0.07690713,-0.005116429,-0.0007507247,-0.001293163
1.011532,0.0934456,0.07663559,-0.004392951,-0.001320475,-0.001309541
1.01245,0.09108337,0.07490555,-0.004131642,-0.002547535,-0.0002604957
1.012899,0.08930605,0.07601006,-0.003195772,0.004752424,-0.0001452975
1.012857,0.09088091,0.08042905,0.0008579215,0.01101795,0.002558374
1.015552,0.09115654,0.08363069,0.0026455,-0.001442064,0.0007644425
1.020484,0.09175311,0.0777897,0.0002871599,-0.01203176,-0.003949959
1.02067,0.09328214,0.07081554,-0.004406986,0.0005731357,-0.006617239
1.015179,0.09745549,0.07571704,-0.007858695,0.01537484,-0.005373528
1.010921,0.1034126,0.08143023,-0.003172776,0.01317881,0.002101029
1.012902,0.1010322,0.08009708,0.0008403647,0.004859438,0.003123826
1.015231,0.09720285,0.08113844,-0.002502478,-0.002677199,0.001040674
1.01237,0.09921356,0.08260891,-0.003406381,-0.009431596,0.001953523
1.011887,0.09876503,0.08286175,-0.0006036632,-0.01890561,-0.0001341744
1.013529,0.0974974,0.08226397,0.0002678227,-0.0261119,0.003065272
1.013835,0.09650135,0.07834741,-0.00223185,-0.01059953,0.006096477
1.015958,0.09335954,0.08002494,-0.00509298,0.007326484,0.003531397
1.015645,0.0940278,0.08627375,-0.004912878,0.003526527,0.001467227
1.01472,0.09539438,0.08804427,-0.001388872,-0.002628921,-0.001004982
1.016884,0.09378926,0.0802372,0.001986606,-0.005697083,0.001150826
1.017527,0.0943436,0.06934994,0.001050164,-0.005171518,0.004336567
1.017161,0.09355301,0.07404327,0.0003957696,-0.0007393673,0.006332693
1.015734,0.09050997,0.08084862,0.002473859,-0.001337341,0.0108713
1.014688,0.09015041,0.07963981,0.002718932,0.0004121476,0.009575276
1.016725,0.09108093,0.08471459,0.002087693,0.002091818,0.00420612
1.017717,0.09210118,0.08364823,0.001430005,0.002817466,0.001510673
1.017245,0.09179762,0.07909839,-0.0002346463,0.01049783,-8.805351e-06
1.016422,0.09124043,0.08165085,-0.00117506,0.0139364,0.000562025
1.01538,0.09203564,0.07833522,-0.0008670376,0.01175595,0.00277176
1.015374,0.09190469,0.07754935,-0.0009685767,0.01337464,0.002589528
1.015634,0.09331942,0.08104548,-0.003994503,0.01583183,-0.0002547985
1.017959,0.09454445,0.08098815,-0.006371991,0.01659047,-0.00260683
1.019579,0.09083,0.08374782,-0.004709711,0.02143509,-0.002940706
1.014847,0.08787487,0.0836844,-0.005478183,0.0269434,-0.002753743
1.009793,0.09100156,0.08260898,-0.006466392,0.02040958,-0.005996544
1.010793,0.09514497,0.08374728,-0.003257387,0.01090539,-0.008493811
1.012907,0.09406705,0.08032096,-0.00118409,0.01080804,-0.005822001
1.012687,0.09244473,0.07723628,0.001509114,0.01151401,-0.004741983
1.014227,0.09470024,0.07775717,0.00199965,0.009553458,-0.002702569
1.016106,0.09522427,0.08200809,-0.001820849,0.008118829,0.0003184262
1.015153,0.09380594,0.08376339,-0.001665297,0.008449096,-0.004012687
1.015061,0.09449552,0.08045181,0.0005923039,0.01136668,-0.007534248
1.015339,0.09497995,0.08255694,0.001540537,0.01395691,-0.006291427
1.014061,0.0953094,0.08451035,-0.002937924,0.01444884,-0.004192228
1.01278,0.09804202,0.08414867,-0.008954827,0.01226003,-0.001357189
1.012112,0.09939186,0.08574982,-0.003514219,0.008973174,-0.003785446
1.012227,0.09833829,0.08410931,0.0011265,0.007193883,-0.006775131
1.010856,0.09854802,0.08455814,-0.002107406,0.006716464,-0.004820942
1.009335,0.09876048,0.08545632,-0.001333314,0.006657649,-0.005308136
1.011789,0.09742498,0.08424581,-0.0002619588,0.004626485,-0.006440097
1.014854,0.09331788,0.08702709,-0.001133227,0.001618572,-0.005128
1.014002,0.08949548,0.08712745,0.0003507903,-0.001888862,-0.004419304
1.011397,0.09412386,0.08285891,0.001391177,-0.004452394,-0.005237859
1.010437,0.09983342,0.0793409,0.000921175,-0.0001619854,-0.007961086
1.010268,0.09711763,0.08081493,0.0008654456,0.002530518,-0.009006904
1.011883,0.09615883,0.08726112,0.001563188,-0.002208606,-0.008435638
1.015248,0.09927092,0.08967836,0.001264066,-0.003936891,-0.009487183
1.015155,0.09852158,0.08834233,-0.0002187638,-0.0009237897,-0.007799181
1.014058,0.09832512,0.08685078,-4.250955e-05,-5.853081e-05,-0.004843514
1.013357,0.0994766,0.08678737,0.003993015,-0.00778703,-0.004578013
1.010585,0.09991701,0.08570958,0.008061294,-0.01833256,-0.003837806
1.013152,0.1018098,0.07902274,0.006438686,-0.01753507,-0.004199351
1.01711,0.09937311,0.07734063,0.003315458,-0.006840154,-0.004649056
1.013944,0.09428109,0.08353132,0.002397101,0.003346675,-0.004265139
1.013175,0.09222228,0.08764796,-0.001362927,0.00564118,-0.00620455
1.015527,0.09173702,0.08587265,-0.007722085,0.004315836,-0.006267498
1.015209,0.09545335,0.08337601,-0.01179032,0.007737355,-0.006108119
1.015024,0.09958237,0.08717016,-0.01163203,0.008141591,-0.007402835
1.013483,0.09888289,0.0882011,-0.008743257,0.00446533,-0.006670855
1.012165,0.09795629,0.08484234,-0.006975965,0.006852946,-0.007051675
1.014669,0.09808559,0.08595995,-0.006371738,0.01175402,-0.005830338
1.017813,0.09813105,0.09058816,-0.004141523,0.01371434,-0.0007871661
1.017814,0.09946107,0.09659822,-9.435447e-06,0.01197994,0.002221425
1.01335,0.1005301,0.09541127,0.001847387,0.006917729,0.001012937
1.00998,0.09840748,0.09240111,0.0005169237,0.001452028,-0.0001912908
1.012617,0.09535406,0.09543191,0.001457409,-0.004536011,0.001595464
1.014736,0.09448964,0.09259209,0.002401796,-0.005101722,0.001414355
1.01099,0.09673316,0.09025469,0.00196486,-0.001037132,-0.0001914719
1.008497,0.09995885,0.09291226,0.003568038,-0.002695102,-0.0008205317
1.011333,0.09861802,0.09311336,0.003429834,-0.002095499,-0.002737335
1.013484,0.09679149,0.09423025,0.003160527,0.0004149259,-0.003053866
1.014087,0.09720005,0.09136274,0.00411339,-0.0009111299,-0.002830268
1.014191,0.09420484,0.08736524,0.002507801,0.003169724,-0.003033289
1.013499,0.09287521,0.09079552,0.001409276,0.004439618,-0.003264394
1.014055,0.09743547,0.09238019,0.0008289225,0.002383906,-0.004660463
1.013998,0.1034113,0.08823398,-0.0002564634,0.004562988,-0.003156531
1.013627,0.1046196,0.08464765,-0.002194416,0.002390296,-0.001399642
1.014318,0.09825625,0.0838778,-0.005724659,0.002162413,-0.0003731062
1.014654,0.09389695,0.08352679,-0.004717189,0.004321791,0.001254698
1.015172,0.09686218,0.08320545,-0.002388809,0.003732112,0.0003554719
1.013727,0.1019686,0.08495948,-0.004286416,0.006687966,0.0008275807
1.011585,0.1053579,0.08558353,-0.004371985,0.008375251,-0.002112116
1.012154,0.104671,0.08571278,-0.003636785,0.008824644,-0.007769319
1.011127,0.1033524,0.09005543,-0.003503696,0.006190035,-0.005181102
1.010069,0.1040838,0.09318316,-0.001754097,-0.0001992446,-0.003183863
1.015868,0.1026583,0.09148052,-0.001394916,0.002142878,-0.002558468
1.021515,0.1002263,0.09115839,0.001457634,0.004511372,0.001630605
1.017852,0.09945343,0.09216653,0.005830255,0.0005490019,-0.0007258894
1.013451,0.09485673,0.09147852,0.002223478,-0.003392284,-0.004627795
1.014115,0.0901468,0.09210623,-0.00477227,-0.009220834,-0.003172172
1.013,0.09502089,0.0945609,-0.006853821,-0.006706599,-0.003025527
1.012402,0.09954747,0.09593621,-0.003610286,-0.0004516104,-0.00350762
1.01329,0.09601386,0.09301147,0.0003670645,-0.004403505,-0.003917332
1.011792,0.09296484,0.08757464,-0.00134732,-0.003180105,-0.005389968
1.012562,0.09230306,0.08658321,-0.004182516,0.003694393,-0.003824911
1.012855,0.09548444,0.08872557,-0.002976522,0.003680331,-0.002189793
1.010357,0.1014165,0.09117313,-0.0004324514,-0.000969178,-0.003450558
1.008636,0.09988234,0.09491363,0.003901331,-0.007773171,-0.004649252
1.006692,0.09687743,0.09405524,0.005473933,-0.007159242,-0.004866549
1.010066,0.09943443,0.08734727,0.003270427,-0.00362457,-0.002655891
1.014433,0.0987929,0.08307901,0.004088711,-0.005121765,-0.002131701
1.011275,0.09806315,0.08422231,0.003800043,-0.001816752,-0.002662192
1.010338,0.1000631,0.08591989,0.002329798,-0.0009631836,-0.000115412
1.012847,0.098803,0.08486944,0.003096285,-0.001955653,-0.0009177129
1.013469,0.0975194,0.08422541,0.003136228,0.001209492,-0.001719758
1.014175,0.09715936,0.08357383,0.00647489,-0.002594545,-0.003040039
1.014135,0.09787403,0.08296254,0.009505021,-0.007133939,-0.00757169
1.01456,0.09901541,0.0865767,0.007623656,-0.009486426,-0.005273431
1.015732,0.09654909,0.08849152,0.009512699,-0.01064283,-0.001863059
1.015321,0.09551087,0.08714281,0.01221235,-0.00810123,-0.0002015591
1.015039,0.09773478,0.08757565,0.009732509,-0.01173428,0.001076853
1.015446,0.09923926,0.08746738,0.006456159,-0.01366815,-0.002158767
1.014912,0.09883909,0.08731275,0.003945362,-0.01112486,-0.001301811
1.013389,0.09787452,0.08779409,0.004391871,-0.01317074,2.268608e-05
1.011716,0.09824973,0.09132822,0.006947005,-0.01193294,-0.002066843
1.010439,0.09771296,0.09801339,0.009423907,-0.007378581,-0.001543895
1.010287,0.09753603,0.09774023,0.01304245,-0.003844791,-0.003152299
1.013309,0.09767605,0.09251102,0.009900645,-0.004228194,-0.005203145
1.018403,0.09742919,0.09053749,0.004500694,-0.007510578,-0.008072946
1.018578,0.1019882,0.08906065,0.009086242,-0.006644802,-0.0161603
1.014106,0.105762,0.0851132,0.01107314,-0.007351856,-0.02093793
1.011542,0.1038136,0.08226827,0.007583754,-0.008006066,-0.01833558
1.010722,0.10183,0.08513603,0.008115828,-0.007066097,-0.01616901
1.011896,0.101141,0.08877412,0.007680993,-0.008934579,-0.01910685
1.013124,0.1012725,0.08930773,0.007132502,-0.005338757,-0.021587
0.9357487,0.3200237,0.1790446,0.01399584,-0.08268975,0.2357789
0.9343469,0.3181865,0.180678,0.01967241,-0.09532535,0.2285293
0.9363414,0.3175503,0.1858445,0.02581461,-0.0990258,0.2255137
0.9387152,0.3193168,0.1933024,0.04632712,-0.09684306,0.2175417
0.937052,0.3248015,0.1950004,0.06597056,-0.0913181,0.2075101
0.9374235,0.3292717,0.191536,0.06025018,-0.08491668,0.2018674
0.9377606,0.3293661,0.1933592,0.03899281,-0.08073301,0.2026492
0.9372389,0.3263323,0.1933334,0.02449482,-0.07665723,0.2056416
0.9377089,0.3258469,0.1903356,0.03663104,-0.06414022,0.2101998
0.9368144,0.3250044,0.1925635,0.06056333,-0.04225603,0.231577
0.9349048,0.3227716,0.200584,0.08099245,-0.02071821,0.2524204
0.9326882,0.326314,0.2096714,0.1045127,-0.0151278,0.2510402
0.9338289,0.3319789,0.2024347,0.1115646,-0.01790266,0.2487011
0.934866,0.342674,0.1840297,0.08675929,-0.02065814,0.2590797
0.9298989,0.3554422,0.1765731,0.04575093,-0.02746536,0.2730558
0.9288787,0.3525749,0.1786623,-0.002450175,-0.006014806,0.2757364
0.9410494,0.333641,0.1873366,-0.03247778,0.03393287,0.2592239
0.9527227,0.3120874,0.1996856,-0.01490042,0.03273931,0.2235566
0.94355,0.3089982,0.2105238,0.02014928,-0.00618247,0.1831311
0.9253099,0.3266517,0.2117527,0.04162824,-0.04306699,0.1792873
0.9220006,0.3358239,0.1976907,0.05062686,-0.04071124,0.2105959
0.9332876,0.3271724,0.1883458,0.05700732,-0.01210947,0.2363279
0.9449208,0.3194534,0.1883385,0.06910642,-0.002187573,0.2511417
0.9412991,0.3152032,0.1932378,0.05464057,-0.003112681,0.2471359
0.9347957,0.3023154,0.2024518,0.03031234,-0.03106362,0.2223314
0.9391997,0.2938533,0.1978676,0.03939658,-0.08419319,0.208001
0.9365047,0.3017865,0.1932096,0.03365381,-0.09798101,0.2149
0.9352035,0.3100027,0.1934151,-0.001205484,-0.08033479,0.2329654
0.9429037,0.3156439,0.1852098,-0.03791184,-0.0651211,0.2448283
0.9449591,0.3154115,0.1909403,-0.06333254,-0.05142666,0.2443391
0.9468456,0.3033408,0.2036902,-0.05993762,-0.04632363,0.2382353
0.9441107,0.2990088,0.2137068,-0.05422582,-0.05431787,0.218496
0.9375543,0.302845,0.2307675,-0.04223188,-0.0712937,0.2000379
0.9322655,0.3057329,0.2335594,-0.02509951,-0.09065238,0.2014034
0.9233473,0.3126963,0.2238965,-0.03534279,-0.1096617,0.2069598
0.9227235,0.3134848,0.2179341,-0.04296079,-0.1171429,0.2163624
0.9252553,0.3033914,0.2125935,-0.0429461,-0.1149583,0.2309622
0.927318,0.2935857,0.2161862,-0.02294453,-0.1223616,0.221554
0.933606,0.2975547,0.2245709,0.03729011,-0.1349019,0.2014278
0.9349813,0.3196425,0.2286938,0.0847214,-0.1381609,0.2063403
0.9379122,0.3486202,0.235945,0.09004697,-0.114043,0.2020786
0.9381061,0.3642579,0.2347995,0.04415947,-0.05422851,0.185206
0.9314109,0.349531,0.2269081,-0.01569414,0.01767863,0.1811431
0.9286585,0.3316496,0.2334403,-0.02066075,0.04412265,0.1694456
0.9240143,0.3324265,0.2373053,-0.003110418,0.001084304,0.1724772
0.9195774,0.3326508,0.2334933,0.005692468,-0.05111441,0.1848705
0.9233324,0.332965,0.2354995,0.02622213,-0.08354223,0.1893013
0.9312657,0.3224895,0.2324737,0.03669205,-0.089463,0.2131316
0.9353308,0.3013524,0.2319237,0.02787941,-0.06122171,0.2162742
0.9331165,0.2967051,0.2383238,0.03058586,-0.05319789,0.1996038
0.9327408,0.2942732,0.2408996,0.03849794,-0.06721058,0.1987411
0.933852,0.2922067,0.2381935,0.0397226,-0.08067719,0.1919782
0.9327988,0.2955465,0.2243383,0.0488438,-0.09892341,0.1914587
0.9315019,0.2911069,0.2101615,0.05693953,-0.09249687,0.1962484
0.9304434,0.2919832,0.2082423,0.06579792,-0.08374979,0.1973575
0.9340788,0.2954467,0.2147305,0.07403969,-0.08960596,0.2046801
0.9440844,0.2937787,0.2201938,0.05768192,-0.08111234,0.2002308
0.9500372,0.295423,0.2189032,0.0436596,-0.07857073,0.1924637
0.9412885,0.2986178,0.224717,0.0512735,-0.07882425,0.1914179
0.9311687,0.3079531,0.2319434,0.05442415,-0.06517744,0.1867882
0.9341258,0.3178996,0.2269538,0.05050281,-0.05449585,0.1844796
0.9360754,0.3174673,0.2229635,0.04646111,-0.04568185,0.1822079
0.9359277,0.3131438,0.2230515,0.03348778,-0.03182945,0.1762825
0.9411219,0.3060476,0.222008,0.01236678,-0.010472,0.1688682
0.9404319,0.2961653,0.2229637,-0.001728009,-0.001363724,0.1624791
0.9384444,0.2890728,0.228265,-0.002379786,-0.01092456,0.1633456
0.939691,0.2826871,0.2322713,0.01332668,-0.004888277,0.1665458
0.9373573,0.2809332,0.2330106,0.02987928,0.00368808,0.1663436
0.9355887,0.2912748,0.2348648,0.02075931,-0.002360759,0.1633568
0.9324851,0.2989819,0.2345951,0.006032092,-0.01069257,0.1581976
0.9311774,0.2973689,0.2357333,0.003529613,-0.03238393,0.1579653
0.9332961,0.3000511,0.2351582,0.005859722,-0.04915131,0.1617853
0.9312194,0.3037214,0.2287137,0.01784793,-0.04773148,0.1582985
0.9334589,0.3059516,0.2291785,0.02772322,-0.04511141,0.1443167
0.9380681,0.313426,0.2326161,0.02893641,-0.04006255,0.1286577
0.9388171,0.3222899,0.234948,0.02806343,-0.04559721,0.1258232
0.9380581,0.3259223,0.2391374,0.01981775,-0.05396162,0.1270965
0.9313855,0.3253279,0.2414794,0.008241517,-0.0485186,0.1178574
0.9264075,0.3283425,0.2443153,-0.002697517,-0.0474027,0.1104995
0.9269023,0.3291152,0.242964,-0.01165067,-0.04940694,0.1061698
0.9313574,0.3246934,0.2399247,-0.02155097,-0.05735519,0.1069659
0.939936,0.3192971,0.2399649,-0.0279124,-0.06668756,0.1232317
0.9413099,0.3022853,0.238439,-0.01406779,-0.04883648,0.137252
0.9364818,0.2859357,0.2420114,-0.004866265,-0.03080749,0.1382716
0.9298506,0.285894,0.2465251,-0.01222366,-0.04602572,0.1293587
0.9239861,0.291644,0.247015,-0.009091537,-0.06750823,0.1217269
0.926456,0.2978406,0.2495544,0.0005207414,-0.07603237,0.1271625
0.9305159,0.2998791,0.250367,0.01057156,-0.07822413,0.1271292
0.9342307,0.3046279,0.2496747,0.01553125,-0.07329076,0.118058
0.9393989,0.3131303,0.2481958,0.01003664,-0.06464098,0.1127582
0.9367272,0.3090634,0.2471647,0.003629267,-0.04679739,0.1115152
0.9288686,0.3059992,0.2522153,-0.004803568,-0.02854942,0.1138665
0.9254307,0.3100386,0.2602211,0.0002953546,-0.04191295,0.1113581
0.9276388,0.3077267,0.2643485,0.01450263,-0.0552443,0.1077643
0.9315099,0.3068981,0.2607465,0.0127043,-0.04533136,0.1042863
0.9311662,0.3080905,0.2558591,0.01109181,-0.05189307,0.09763025
0.9304711,0.3088202,0.2498184,0.0100025,-0.05947313,0.1043222
0.9324263,0.3111511,0.2398992,-0.002903259,-0.04706507,0.1150113
0.929256,0.305226,0.2412056,-0.01515747,-0.04165072,0.1152294
0.9261105,0.2984377,0.2464693,-0.0179948,-0.04928403,0.1123427
0.9264772,0.3018017,0.2433057,-0.009141373,-0.06562637,0.1038986
0.9217569,0.3053206,0.2455438,0.0004199683,-0.08335253,0.09483284
0.9189701,0.3086985,0.2458344,0.008179044,-0.08541742,0.09370666
0.9270139,0.3155723,0.240629,0.01383531,-0.07049722,0.09400603
0.9389914,0.315741,0.2441825,4.147401e-05,-0.05385307,0.09282908
0.941377,0.309725,0.2462382,-0.0163861,-0.0409101,0.09748424
0.9317828,0.3072881,0.2452423,-0.01596893,-0.03103218,0.1040372
0.9238915,0.3077292,0.248144,-0.01206095,-0.03486808,0.1018843
0.9238234,0.3070647,0.2521011,-0.001153799,-0.0441851,0.1003985
0.9252203,0.3061773,0.2587077,0.01758836,-0.04955076,0.1025866
0.9248211,0.3112212,0.2571763,0.02063314,-0.05603441,0.1033433
0.9285728,0.3173678,0.2502049,0.01131616,-0.05041468,0.108662
0.9344198,0.3116487,0.2494036,0.007119232,-0.03947652,0.1110989
0.9332426,0.305189,0.248449,-0.002628335,-0.03447738,0.1092891
0.9300573,0.3074709,0.2516766,-0.01027421,-0.02377247,0.1087514
0.925721,0.3081341,0.2572419,-0.001575608,-0.02319586,0.1055254
0.9199062,0.3073977,0.2601416,0.007692413,-0.03051662,0.1094621
0.9210036,0.3052935,0.2611518,0.01851192,-0.02539266,0.114398
0.9254591,0.3019604,0.2559878,0.02374955,-0.02410452,0.1066849
0.9285265,0.3060494,0.2546665,0.0171812,-0.02459386,0.09984409
0.9284225,0.310066,0.2557782,0.01593729,-0.0245635,0.09282053
0.9246011,0.3062659,0.258415,0.006284613,-0.03892688,0.08056244
0.9224853,0.3048068,0.2672206,-0.003914326,-0.05135647,0.07802129
0.9207733,0.30878,0.2659385,0.000806501,-0.05784656,0.0812715
0.9210466,0.3101401,0.2626779,-0.002260582,-0.06496222,0.07756519
0.9252121,0.3064334,0.2657455,-0.004203977,-0.06466327,0.07476858
0.9257092,0.3017477,0.2666898,0.001919137,-0.06769263,0.074007
0.9253376,0.3004617,0.270493,0.008151611,-0.07894233,0.06848591
0.9270827,0.3022536,0.2687152,0.01836962,-0.0792884,0.06608928
0.9262893,0.3045796,0.2626298,0.01797938,-0.0636611,0.06819004
0.9259608,0.3078709,0.2624092,0.01755093,-0.05554372,0.07222613
0.9261943,0.308507,0.2613391,0.03129683,-0.06829988,0.07709023
0.9265987,0.3034086,0.2590154,0.03670673,-0.08233561,0.07510078
0.9301335,0.3009227,0.2552309,0.03481953,-0.07959205,0.07396933
0.9306484,0.3066477,0.2542129,0.03052365,-0.06874882,0.07665972
0.9256577,0.3120459,0.2574401,0.01762309,-0.06192442,0.07611691
0.9221674,0.3099682,0.2577382,0.008684003,-0.05917863,0.07713804
0.9242185,0.3087249,0.2597978,0.004941046,-0.06846506,0.07582203
0.9289544,0.3124997,0.2590883,0.009296217,-0.07822832,0.0703755
