accx,accy,accz,gyrox,gyroy,gyroz
0.8845955,0.4235529,0.2160278,-0.03788964,-0.102434,0.1991802
0.8861683,0.4243199,0.2131487,-0.04249238,-0.09086525,0.1911639
0.8897953,0.4239948,0.2148766,-0.04465764,-0.06948697,0.1823402
0.8940908,0.4215728,0.2152383,-0.04518324,-0.03665798,0.1785923
0.8892424,0.4225736,0.2174298,-0.04567058,-0.02245004,0.1733814
0.8806413,0.4261044,0.2180951,-0.04588778,-0.04368742,0.1689208
0.8790642,0.4294063,0.2176357,-0.04929737,-0.05312938,0.1708231
0.8792961,0.4349199,0.2201361,-0.05179298,-0.05759894,0.1714243
0.8771719,0.4353081,0.222187,-0.05119488,-0.0610278,0.1702693
0.8778449,0.4341169,0.2229937,-0.05035125,-0.04686507,0.1682493
0.8800546,0.4400243,0.2180119,-0.0509855,-0.04275184,0.1661577
0.8808225,0.4382839,0.211887,-0.05083351,-0.03949613,0.1687253
0.8804273,0.43176,0.2181301,-0.04996698,-0.03725218,0.1702278
0.8782984,0.4311089,0.2245161,-0.05007223,-0.0447759,0.1621618
0.8762383,0.430094,0.2236425,-0.05000152,-0.0424268,0.1531115
0.8751536,0.4335542,0.2267698,-0.05094616,-0.04543842,0.1551213
0.8746283,0.4398509,0.2277923,-0.05161796,-0.0482712,0.1595024
0.8738188,0.4427768,0.2250239,-0.05268808,-0.04486338,0.1612132
0.8715306,0.443132,0.2264156,-0.05617774,-0.04981586,0.166055
0.8710865,0.4406663,0.2251197,-0.05600437,-0.04866557,0.1655259
0.8752997,0.4416459,0.2222289,-0.05315978,-0.04863403,0.1609458
0.8788788,0.4425416,0.2234589,-0.052097,-0.05173443,0.1615504
0.8751009,0.4420781,0.2212494,-0.04736086,-0.05156166,0.1617466
0.8697468,0.445328,0.2177288,-0.04139682,-0.05814288,0.1674411
0.8699389,0.444935,0.2184792,-0.04252289,-0.0603074,0.1784493
0.8706959,0.4431265,0.2201423,-0.04533767,-0.05984564,0.1779652
0.871475,0.4429524,0.2232605,-0.04502106,-0.06037576,0.1751005
0.8728836,0.4429278,0.2258398,-0.04652363,-0.06039461,0.1798975
0.8710767,0.4465143,0.2250186,-0.04902824,-0.06687736,0.1818978
0.8699372,0.4466463,0.2204851,-0.04975262,-0.06753056,0.1806075
0.8694033,0.4428277,0.2136729,-0.0501897,-0.06566802,0.1809628
0.8677071,0.4428477,0.215378,-0.05055621,-0.06776852,0.1833494
0.8696524,0.444012,0.2242871,-0.05069158,-0.06500925,0.1842279
0.8718619,0.4463498,0.2277007,-0.04993153,-0.06013436,0.1822549
0.8716119,0.449218,0.2247425,-0.04820725,-0.05479001,0.1816375
0.8749388,0.4454007,0.2150282,-0.0460144,-0.0556697,0.179616
0.8785781,0.4411827,0.2072124,-0.0437666,-0.06345831,0.1775022
0.8737719,0.444526,0.2136316,-0.04187666,-0.07118929,0.1805612
0.8682885,0.447288,0.2198321,-0.03952957,-0.0782844,0.1828149
0.8713666,0.4470819,0.2158064,-0.03957444,-0.07472012,0.1807965
0.8735716,0.4477276,0.2135452,-0.04257359,-0.06966546,0.1817407
0.8721503,0.4479417,0.2136748,-0.04332127,-0.07786181,0.1926693
0.8720569,0.448957,0.2115999,-0.03901988,-0.08596938,0.2040142
0.8692758,0.4502417,0.2131047,-0.03430893,-0.09468838,0.203409
0.8679534,0.4515967,0.2170313,-0.03837891,-0.1032509,0.2021399
0.8732475,0.4525702,0.2196043,-0.04321208,-0.09510193,0.2047041
0.8791582,0.4473448,0.2229783,-0.03951788,-0.08159822,0.1992496
0.8799069,0.4407911,0.2251289,-0.03742548,-0.0775545,0.1917042
0.8752346,0.4405055,0.2247748,-0.036038,-0.08382813,0.1880414
0.8713703,0.4417378,0.2198662,-0.03373853,-0.09468124,0.187212
0.870662,0.4429653,0.2154684,-0.03532375,-0.09425358,0.191724
0.872493,0.4436299,0.2182159,-0.03524628,-0.09031526,0.1923433
0.8760161,0.4407001,0.2176286,-0.03683462,-0.09288495,0.1908247
0.8769364,0.4400813,0.2163712,-0.03937673,-0.09224675,0.1904992
0.8777016,0.44338,0.2172044,-0.036981,-0.09297465,0.1847249
0.8775541,0.4450967,0.2106113,-0.03452346,-0.09520831,0.1851347
0.8753927,0.4440476,0.2057674,-0.02993821,-0.09536251,0.1867589
0.8767542,0.4403761,0.2045892,-0.02781448,-0.09375152,0.1813962
0.8780455,0.4379022,0.2013649,-0.03217347,-0.07720321,0.1769409
0.8794389,0.4386069,0.2008991,-0.03324691,-0.05832467,0.1679313
0.8825239,0.4381811,0.2038415,-0.03415632,-0.05945361,0.1626089
0.8815547,0.4362276,0.2068791,-0.03638922,-0.0618338,0.1592085
0.8789307,0.4357549,0.2071314,-0.03701798,-0.05421989,0.1501993
0.8772634,0.4380063,0.2070027,-0.04040441,-0.05260474,0.1508136
0.8770811,0.4419545,0.2069627,-0.04192824,-0.0488482,0.1503092
0.8775867,0.4466385,0.2066718,-0.04042542,-0.0389426,0.1457965
0.8756545,0.4482123,0.2080755,-0.04094138,-0.0424102,0.1485109
0.8753515,0.4446842,0.2101978,-0.04171719,-0.04542845,0.1471568
0.8764724,0.4427951,0.2134524,-0.04000964,-0.04077682,0.1466761
0.877295,0.4432979,0.2122953,-0.03431427,-0.04547429,0.1501527
0.8802717,0.4437729,0.2095754,-0.02913417,-0.04695264,0.150525
0.8812977,0.4449349,0.211816,-0.03158435,-0.04303282,0.1513558
0.881327,0.4447913,0.2112768,-0.03681668,-0.03987557,0.1492646
0.8832631,0.4459706,0.2104924,-0.03688995,-0.03414774,0.1473425
0.8829002,0.4475237,0.2119175,-0.0360629,-0.03681635,0.1463457
0.8795142,0.4445688,0.2121739,-0.03617217,-0.04144031,0.1422766
0.8757551,0.4418724,0.2154913,-0.03468744,-0.04210322,0.1433771
0.8762081,0.4428164,0.2172608,-0.03579183,-0.04745467,0.1461823
0.8800878,0.4420473,0.2138014,-0.03695926,-0.04824896,0.1460706
0.8819107,0.4373914,0.2114139,-0.03650344,-0.03699828,0.1416147
0.8814822,0.4350937,0.2120427,-0.03777494,-0.02557665,0.1295301
0.8773869,0.4381646,0.2113344,-0.03767843,-0.02825569,0.1231599
0.8731613,0.4435016,0.2090906,-0.03651623,-0.03484371,0.1254419
0.8741623,0.4473269,0.2114739,-0.03477322,-0.03364794,0.1283074
0.8748412,0.4462507,0.2148656,-0.0335949,-0.03493926,0.1315186
0.8733809,0.4448397,0.2146624,-0.03479988,-0.03673716,0.1325317
0.8719028,0.4460208,0.2143355,-0.03381376,-0.03690533,0.1333665
0.87014,0.4441617,0.2102491,-0.03248511,-0.03848673,0.1341443
0.8706068,0.4420369,0.2057818,-0.03262449,-0.037118,0.1347079
0.8714168,0.443455,0.2113697,-0.03171412,-0.03962416,0.1372751
0.8704456,0.4442042,0.2182821,-0.03214369,-0.04264317,0.1349918
0.8710081,0.4440278,0.2157277,-0.0330073,-0.04278375,0.1308486
0.872012,0.4427838,0.2095329,-0.03406055,-0.04581821,0.1305382
0.8725163,0.4399933,0.2072986,-0.03646794,-0.04491154,0.1299935
0.8750243,0.4398073,0.2140722,-0.03534058,-0.04725532,0.1328763
0.8789266,0.4407477,0.2231117,-0.03311362,-0.04986267,0.1365097
0.8816058,0.4400728,0.2192068,-0.03449192,-0.04193525,0.1324944
0.8797667,0.4405887,0.2121201,-0.03499001,-0.04089957,0.128745
0.8765515,0.4422369,0.2112192,-0.03414723,-0.04379986,0.1294859
0.8751812,0.4434283,0.2083831,-0.03133671,-0.04186303,0.1264836
0.8721545,0.4433666,0.2091657,-0.02696966,-0.04038391,0.118199
0.8721795,0.4426346,0.2099677,-0.02768961,-0.03595373,0.1119197
0.8751821,0.4430207,0.2085691,-0.02903213,-0.03611613,0.1156549
0.8751046,0.4423285,0.2146001,-0.0283791,-0.03722926,0.1211044
0.8763811,0.4410951,0.2162747,-0.02980753,-0.03423533,0.1157514
0.8762913,0.4423259,0.2144773,-0.02899948,-0.03824108,0.1121177
0.8744025,0.4445009,0.2124411,-0.02775614,-0.04001415,0.1142844
0.8781178,0.4462554,0.2031184,-0.02985137,-0.03516046,0.1103202
0.8810882,0.4448829,0.2029745,-0.03168416,-0.03249055,0.1071916
0.879502,0.4408063,0.2093376,-0.03217839,-0.03312861,0.1071168
0.877896,0.4399978,0.2114518,-0.02985373,-0.03680834,0.1073563
0.877383,0.4426748,0.2173037,-0.02563031,-0.03983981,0.1135292
0.8779658,0.4463808,0.219053,-0.0246794,-0.04234794,0.1178135
0.8776555,0.4477339,0.2154447,-0.02744089,-0.04052898,0.1142583
0.8768735,0.4441297,0.2136598,-0.02985136,-0.03013882,0.1037026
0.877029,0.440702,0.2113951,-0.02921283,-0.02122039,0.09162994
0.8765717,0.4400112,0.2096372,-0.02929605,-0.02096427,0.09119983
0.8743039,0.4409686,0.2078596,-0.03143271,-0.02438128,0.09572232
0.8709332,0.4446031,0.2085186,-0.02931913,-0.02416039,0.09631356
0.8711204,0.4473298,0.2129632,-0.02388379,-0.02566095,0.09856701
0.8756656,0.4466076,0.2169549,-0.02060727,-0.02844507,0.09768983
0.8784938,0.446896,0.2198921,-0.02121949,-0.02547417,0.09359749
0.8756035,0.4477386,0.2204392,-0.02397842,-0.02621661,0.09415899
0.8718461,0.4457598,0.2216272,-0.02384665,-0.02952426,0.09389326
0.8735061,0.4443681,0.22464,-0.0234408,-0.0294128,0.09298461
0.8736624,0.4436161,0.223438,-0.02428124,-0.0288398,0.0965679
0.8711587,0.4429733,0.2198101,-0.02281989,-0.0283136,0.09617321
0.8735986,0.4459421,0.2172636,-0.02236549,-0.03012617,0.08944983
0.8751977,0.4481968,0.215875,-0.02176381,-0.03086119,0.08523173
0.8747088,0.4472197,0.2167258,-0.02096936,-0.03259989,0.08933368
0.8754262,0.4465445,0.2169219,-0.02232197,-0.03323851,0.09452971
0.8748784,0.4455767,0.2153332,-0.02187492,-0.02595265,0.09053298
0.8759074,0.4438409,0.2149749,-0.02188951,-0.02089147,0.0873694
0.8769061,0.4431247,0.2146209,-0.02238681,-0.019851,0.08772063
0.8756092,0.4433132,0.2144002,-0.02125565,-0.021006,0.08371053
0.8737884,0.4424511,0.2156114,-0.02052779,-0.02346108,0.08217801
0.8717494,0.4415544,0.2151007,-0.01956543,-0.02364814,0.07858532
0.8740098,0.4418641,0.2131973,-0.02057935,-0.02456159,0.07224675
0.877866,0.4435508,0.21231,-0.02108365,-0.02288701,0.07601342
0.8772078,0.4465387,0.213148,-0.01949298,-0.02164882,0.07931613
0.8757421,0.4475198,0.2145296,-0.02024952,-0.02154562,0.07492258
0.8754408,0.4473718,0.2138505,-0.02008875,-0.01943822,0.07353604
0.8749268,0.4472381,0.2135594,-0.01982117,-0.02130257,0.07386562
0.8751645,0.4463516,0.2151337,-0.02097293,-0.02214773,0.07187394
0.8772842,0.4449523,0.2176485,-0.0193703,-0.02191905,0.07082838
0.8801414,0.4422318,0.2196562,-0.01829194,-0.02235628,0.07043687
0.8809952,0.4434649,0.2172672,-0.01843595,-0.02044067,0.07037209
0.8786994,0.4461097,0.21553,-0.01652019,-0.0214019,0.0734161
0.8741749,0.4455932,0.2159706,-0.01513638,-0.02239363,0.07602812
0.8709814,0.4476909,0.2130858,-0.01670416,-0.02434792,0.07376765
0.8723909,0.4470199,0.2142885,-0.01841677,-0.02625335,0.07051706
0.8757136,0.4418098,0.2177606,-0.01667293,-0.01946085,0.06765039
0.8766521,0.4396523,0.2161138,-0.01519572,-0.01295467,0.06260131
0.8756099,0.4409762,0.21649,-0.01601939,-0.01374455,0.05771342
0.8745868,0.4447728,0.215899,-0.01497409,-0.01617148,0.05499629
0.8748147,0.4468105,0.2125302,-0.01447358,-0.01589931,0.05421336
0.8754133,0.4465447,0.2127574,-0.0169297,-0.01275559,0.05444689
0.8747582,0.4442174,0.2146249,-0.01868695,-0.01084786,0.05310629
0.8749245,0.4405369,0.2193312,-0.01797861,-0.01358304,0.05234121
0.875297,0.444593,0.2235367,-0.01641236,-0.0169873,0.05256046
0.8741485,0.4504959,0.2219833,-0.01493929,-0.01353154,0.05110431
0.8730204,0.4499982,0.2184407,-0.01290986,-0.01094398,0.05182356
0.8727433,0.4490978,0.2162162,-0.01441083,-0.01566746,0.05446762
0.8752855,0.4479653,0.2153827,-0.019963,-0.01719463,0.05651789
0.8762062,0.4462268,0.2135899,-0.02226294,-0.01458977,0.05642592
0.8738753,0.4439795,0.2172446,-0.01944086,-0.0132715,0.0529683
0.87506,0.4424571,0.2263224,-0.01414615,-0.01428752,0.05230233
0.8746658,0.4462162,0.2276967,-0.01156232,-0.01598843,0.05273649
0.8726879,0.4491241,0.2208668,-0.01215043,-0.01531191,0.05281833
0.8749883,0.447917,0.2139135,-0.01232241,-0.0149398,0.05426343
0.875191,0.4473817,0.2161487,-0.01460401,-0.01433825,0.05121663
0.8737959,0.4469791,0.2207552,-0.01516977,-0.0142722,0.04996591
0.8735971,0.445681,0.2184075,-0.01232293,-0.01799079,0.05003053
0.8732846,0.4456266,0.2197205,-0.01114664,-0.01951067,0.04605864
0.8739541,0.448222,0.2201305,-0.01015208,-0.0168392,0.04556657
0.8733303,0.4501285,0.2182355,-0.01014003,-0.01530554,0.04470509
0.8725404,0.4500526,0.2204945,-0.01090126,-0.01723016,0.04499926
0.8724583,0.4497789,0.2190401,-0.01149727,-0.01854116,0.04787719
0.8728816,0.4478408,0.2187576,-0.01251253,-0.01652775,0.0471085
0.8751347,0.4458406,0.2184603,-0.01207808,-0.01568105,0.04992695
0.874787,0.4456685,0.2152655,-0.01200363,-0.01607725,0.05254296
0.8718098,0.447129,0.2164619,-0.01048782,-0.01604819,0.05042927
0.8693672,0.4495261,0.2138051,-0.007295094,-0.01811652,0.04913102
0.8688893,0.4501852,0.2089657,-0.005453987,-0.02213831,0.04719007
0.8710614,0.4492352,0.2107316,-0.004461902,-0.02471105,0.04564089
0.8719745,0.4483075,0.2154563,-0.007203242,-0.02334144,0.04606285
0.872235,0.4493891,0.2183462,-0.01098826,-0.02002471,0.04787529
0.8725803,0.4507117,0.2174806,-0.01170944,-0.01772427,0.0469321
0.8721742,0.4497221,0.2162265,-0.01061789,-0.01887988,0.04549678
0.8741876,0.4499073,0.2140296,-0.007255977,-0.02276748,0.04911777
0.8756578,0.450265,0.2131122,-0.005179578,-0.02619918,0.05046435
0.8750965,0.4493743,0.2168265,-0.00641024,-0.0290375,0.04985611
0.8757839,0.4483877,0.2215555,-0.008032386,-0.02304943,0.04807314
0.8765099,0.4464518,0.225322,-0.01021127,-0.006250129,0.04009845
0.8751469,0.4460496,0.2189244,-0.01201908,0.0007447617,0.03165727
0.8717564,0.4461087,0.2098485,-0.008513399,-0.01116809,0.02930149
0.8703624,0.4453795,0.2133522,-0.002837375,-0.02110529,0.03207716
0.8726551,0.4458841,0.2121736,-0.003803931,-0.0118177,0.03299009
0.8745883,0.444854,0.2063541,-0.007576131,-0.003597091,0.03284906
0.8745914,0.4430033,0.2130587,-0.009387215,-0.009634184,0.03107153
0.8751388,0.4438279,0.217848,-0.009690885,-0.009738607,0.02546823
0.8772466,0.4478648,0.2147099,-0.007668229,-0.01009398,0.02717606
0.8777655,0.4528498,0.2157378,-0.008981126,-0.01506853,0.03052528
0.8760195,0.4519007,0.2166946,-0.0119764,-0.008982533,0.03077509
0.8742533,0.4474698,0.2119614,-0.01127396,-0.007693961,0.03574507
0.8737605,0.4469032,0.2093847,-0.008919276,-0.01222738,0.03661984
0.8741224,0.4449191,0.2157449,-0.005031082,-0.01047985,0.03443781
0.8741037,0.4416333,0.2209943,-0.005213962,-0.0141589,0.03442641
0.8753128,0.443635,0.2133859,-0.007112827,-0.01688822,0.03328149
0.8752745,0.4463936,0.2059422,-0.004744585,-0.01329475,0.03291998
0.8734215,0.4468845,0.2086974,-0.006179036,-0.01107677,0.03006995
0.8737614,0.4451023,0.2096664,-0.008538434,-0.007948332,0.02674873
0.8737092,0.4422732,0.2101485,-0.008843229,-0.008445396,0.02620844
0.874694,0.4454267,0.2152175,-0.009447463,-0.01087187,0.02555774
0.8774361,0.449054,0.215517,-0.005288352,-0.009109509,0.02526331
0.8780416,0.4462332,0.2128697,-0.002505298,-0.007881528,0.02365237
0.8779889,0.4440584,0.2114518,-0.002605685,-0.005994553,0.02263639
0.8773444,0.4429331,0.2106484,-0.00132255,-0.005674288,0.02220472
0.8768629,0.4426413,0.2133553,-0.002369415,-0.008723372,0.01865284
0.8762411,0.4457286,0.2143756,-0.00260996,-0.008209744,0.01573137
0.8748221,0.4471496,0.2126976,-0.00291899,-0.004598949,0.01610707
0.8739414,0.4473066,0.2116678,-0.005272149,-0.0002810688,0.01687458
0.871331,0.4471285,0.2093887,-0.004759501,-0.0004158629,0.01526005
0.8701383,0.4448537,0.20973,-0.002576351,-0.004431983,0.01444023
0.871686,0.4432586,0.2130983,-0.001933423,-0.00351777,0.01456333
0.873954,0.4426025,0.2131764,-0.003086525,-0.002090507,0.01198353
0.8785211,0.4434551,0.2098479,-0.003306162,0.0001334856,0.01054069
0.8799713,0.4455387,0.209099,-0.003786922,0.003926741,0.01085599
0.8769862,0.4477397,0.2106165,-0.005091485,0.0002686555,0.01136191
0.8755036,0.449437,0.2111634,-0.00388514,-0.003317545,0.01251833
0.8753619,0.4475544,0.2127607,-0.004377832,-0.003349299,0.01185641
0.8737916,0.4462999,0.2111495,-0.004862304,-0.007151736,0.01038544
0.8715286,0.4466579,0.2083449,-0.003869134,-0.008738848,0.01042924
0.872754,0.4439514,0.2104893,-0.005902255,-0.002981199,0.01100148
0.876891,0.4413168,0.2121249,-0.006320299,0.008414732,0.009473536
0.8784885,0.440837,0.2143647,-0.006149456,0.016923,0.005974477
0.875588,0.4453613,0.2158883,-0.007392274,0.01154465,0.001921296
0.8721302,0.4518115,0.2121891,-0.007125725,0.004632015,-0.0007145573
0.8722979,0.4505931,0.2099436,-0.005660788,0.008000763,0.001526845
0.8742957,0.4483672,0.2102545,-0.001091037,0.007644357,0.00488995
0.8763892,0.449012,0.2098009,0.002038636,0.005183288,0.006285076
0.8769827,0.4461123,0.2099454,0.00169147,0.008530717,0.003301907
0.8753971,0.4438578,0.2121593,0.001853026,0.006408304,-0.002611627
0.8738067,0.444089,0.2134419,-0.0009171364,0.002289598,0.0001899921
0.8716003,0.4466883,0.2125741,-0.004097398,6.424811e-05,0.004568239
0.8721226,0.4518881,0.2146758,-0.00147034,-0.002429804,0.003733748
0.8757902,0.4507118,0.2164977,0.001323765,0.0007183392,0.005449423
0.8760714,0.4484956,0.2147073,-0.001409433,0.0005040318,0.005107481
0.872965,0.4520435,0.2149065,-0.003152391,-0.004160964,0.004927152
0.869624,0.4515871,0.2147469,-0.001950553,-0.005764923,0.006350638
0.8707563,0.450399,0.2120974,-0.002820247,-0.006346661,0.004308397
0.8747131,0.4503505,0.211535,-0.002963618,-0.002453584,0.003727256
0.8752951,0.4475191,0.2118232,-0.00417331,0.003854214,0.002511043
0.8759148,0.4485446,0.2119308,-0.007103637,0.010885,0.001709106
0.8752789,0.4492801,0.2128755,-0.006065153,0.01190674,0.002768511
0.8717284,0.4475643,0.2136343,-0.003951932,0.0003120102,0.001239393
0.8707744,0.4472223,0.2147986,-7.089291e-05,-0.00701527,0.001538064
0.873188,0.4455964,0.2156915,0.002751511,-0.004918718,0.002076668
0.87631,0.4472018,0.218302,-0.001776018,0.000193322,0.001729526
0.873996,0.4500571,0.2236616,-0.00268403,0.004340475,0.002669893
0.8677275,0.449242,0.2246033,0.0004057471,0.002529498,0.00193099
0.8649605,0.4499264,0.2233171,-0.001753308,0.0007000692,0.002180957
0.8683622,0.4499985,0.2257282,-0.001528736,-0.00186067,0.003503757
0.8761065,0.446888,0.2253632,3.793642e-05,-0.005806266,0.004277292
0.8775657,0.4452888,0.2231009,-0.002411972,-0.007363934,0.004575402
0.8751724,0.4465772,0.2234675,-0.001943521,-0.01068528,0.004533954
0.8755571,0.4478756,0.2204701,-0.001549927,-0.01306225,0.006318526
0.873817,0.4475324,0.2156364,-0.003864511,-0.01134399,0.00546009
0.873261,0.448673,0.2122376,-0.004278152,-0.006733038,0.002304207
0.8713566,0.4508858,0.2099142,-0.004934926,-0.003710987,-2.262081e-05
0.8695504,0.449736,0.212047,-0.004821185,-0.005680556,-0.004261031
0.8728438,0.4476839,0.2126958,-0.001796287,-0.005982894,-0.005851582
0.8724145,0.4472895,0.2101406,0.0002182266,-0.004934138,-0.004275567
0.8727092,0.4477838,0.2088279,-0.0006865483,-0.006295059,-0.001213374
0.8745515,0.4484321,0.2063891,-0.0009214997,-0.005271211,0.003205795
0.8730396,0.4452017,0.2082659,-0.001167352,0.001303471,-0.0009171688
0.8738235,0.4414628,0.2124912,-0.003782365,0.008632738,-0.008786357
0.8735178,0.4435732,0.2117608,-0.002655236,0.008377235,-0.01028498
0.8722343,0.4466455,0.2126428,-0.0001112699,0.005183306,-0.01199335
0.8712879,0.4486913,0.2140231,-0.0004757079,0.007189433,-0.01177953
0.8691864,0.4511476,0.2134918,0.0008508575,0.01001429,-0.007605847
0.869666,0.4507151,0.214689,0.001091603,0.01530061,-0.0064041
0.8705179,0.4469411,0.2155379,-0.0005051404,0.02168181,-0.006212451
0.8718685,0.4430939,0.2169801,-0.002218492,0.018263,-0.005799887
0.8725127,0.4441252,0.2173029,-0.004170694,0.01011004,-0.00529826
0.8700303,0.4478107,0.2153478,-0.002814628,0.00296076,-0.004427655
0.8690043,0.4489437,0.214339,-0.0005672253,-0.001487915,-0.004234373
0.8693373,0.4508678,0.2125781,0.0004584722,0.001508471,-0.0007174526
0.8696518,0.4523145,0.2152606,-0.0005376029,0.002722337,0.002635889
0.8694573,0.4524306,0.2202552,-0.003620832,-0.0002799103,0.0009648232
0.8692017,0.4528484,0.2179266,-0.003377571,-0.002323429,1.555873e-05
0.8702794,0.4488114,0.2163363,-0.002076554,-0.004574087,0.001378806
0.8719489,0.4458529,0.2155066,-0.0007193744,-0.001163459,0.001521275
0.874399,0.4474871,0.2109415,0.003252095,0.002473827,0.0005353312
0.8739539,0.4472216,0.2119501,0.004356317,-0.003181413,-0.0001343714
0.8720115,0.4461995,0.2137795,0.003870174,-0.008829458,-0.0007855478
0.8733517,0.4457471,0.2116323,0.004992414,-0.008318127,-0.0008826739
0.8740111,0.4466083,0.2125943,0.003812437,-0.006329277,-0.0009198886
0.8743982,0.4478163,0.2129599,0.002201031,-0.00597102,-0.001317664
0.8748966,0.4475621,0.2122662,0.002584416,-0.005914971,2.896503e-05
0.8722077,0.4498419,0.2146695,0.001906758,-0.005075906,0.001693662
0.8699769,0.4518134,0.2155985,0.0003501548,-0.002928468,0.00357354
0.870591,0.4488926,0.2141954,0.0002059081,0.0005637439,0.003991405
0.8719022,0.4462489,0.2124551,-4.824182e-05,0.002634299,0.0004607079
0.8731279,0.4489093,0.2113495,-0.0008046022,0.002131006,-0.003230157
0.8747054,0.4513466,0.2118336,-0.0004972399,-0.0008184965,-0.004748669
0.8738931,0.4495507,0.2111852,-0.0003962679,-0.004320163,0.0004521129
0.8716717,0.4497217,0.2083521,0.0001367367,-0.007257534,0.003825219
0.8730535,0.4505352,0.2084063,0.00183421,-0.009165572,-0.001065666
0.875015,0.4495698,0.2192161,0.001692789,-0.005043226,0.001702748
0.8767078,0.4498143,0.2306281,1.973983e-05,0.0001561334,0.002958567
0.8773038,0.4482863,0.2246549,5.584881e-05,-0.00212113,-0.000890626
0.875401,0.4464647,0.2162393,0.001570792,-0.004948977,0.004514419
0.8766711,0.4470593,0.2196071,0.003278236,-0.0063618,0.005265217
0.8770458,0.4465888,0.2215917,0.006248967,-0.01308418,0.003331587
0.8764547,0.4454013,0.2203614,0.0073242,-0.01728838,0.004965269
0.8787326,0.4456974,0.2184834,0.004178226,-0.01051848,0.002649815
0.876941,0.4461643,0.2135829,0.001945743,-0.0005413861,0.001058888
0.8733904,0.4461757,0.2115177,0.002125007,0.00319141,-0.006763552
0.8699836,0.448464,0.2120901,0.003492479,-0.0001184047,-0.01264121
0.867965,0.4512064,0.2110583,0.003988654,-0.004343445,-0.0008949527
0.8700998,0.4513512,0.2100216,0.003690319,-0.007950112,0.01164624
0.8686414,0.4529355,0.2136696,0.004613851,-0.01317155,0.01145432
0.8681974,0.4542693,0.2188356,0.00121652,-0.01434596,0.005759748
0.8740347,0.4496872,0.2168077,-0.00205296,-0.01122258,0.004680725
0.8777882,0.4453671,0.2154198,-0.0001045102,-0.009158347,0.005202402
0.8767991,0.4467596,0.2168721,-0.001277058,-0.007107439,0.005420647
0.8744688,0.4463736,0.2114572,-0.002894454,-0.006139181,0.007238304
0.8747104,0.4432007,0.206299,-0.00183603,-0.006478836,0.005047382
0.8734084,0.4444887,0.2064473,-0.0009171457,-0.005176638,0.002512886
0.8701667,0.445776,0.2072387,0.0008516891,-0.003833508,-0.0005165792
0.871215,0.4441675,0.2071153,0.002713382,-0.004222074,-0.004801797
0.8727848,0.4455149,0.2065668,0.004679132,-0.004683974,-0.004215802
0.8740791,0.4478356,0.2072039,0.004396346,-0.002661865,-0.003303755
0.8750285,0.447651,0.2066068,0.003355206,-0.00135376,-0.001885527
0.8747469,0.4467844,0.2052557,0.004194594,-0.003596508,0.0005202185
0.8765534,0.4471899,0.2057477,0.00342026,-0.003643601,-0.0007947103
0.8772596,0.447956,0.2077374,0.003634078,-0.003467386,-0.002579421
0.8767815,0.4486396,0.2112148,0.004296583,-0.005921709,-0.002503321
0.8756284,0.4506511,0.2118397,0.002877847,-0.005315428,-0.002263505
0.8739104,0.4500512,0.206569,0.002572255,-0.003788173,-0.002918795
0.8746904,0.4474441,0.2014727,0.001687688,-0.002903838,-0.003268868
0.8743933,0.4471948,0.206327,0.0007634364,-0.003545864,-0.003048307
0.8748695,0.4469627,0.2129958,0.001004798,-0.006341276,-0.001749343
0.8766925,0.447315,0.2091777,0.0004094298,-0.005288229,0.002106898
0.8758899,0.4474629,0.2084181,0.0006598082,-0.004500848,0.004127664
0.8756768,0.4462663,0.2113557,0.0006125728,-0.004183415,0.000314357
0.8750564,0.444884,0.2087643,9.802055e-05,-0.001134899,-0.004096591
0.8757355,0.4421493,0.2090248,0.0003186013,-0.00190949,-0.00209458
0.8790874,0.4425544,0.206807,-0.001332511,-0.001171409,-0.0003614758
0.8789404,0.4438335,0.2032912,-0.002508285,0.003439693,-0.00473386
0.8764194,0.4415372,0.2097329,-0.001140053,0.004649166,-0.008711646
0.8742313,0.4416196,0.2135183,0.001491184,0.004059677,-0.01240803
0.8745018,0.4428257,0.2062644,0.00423836,0.00373926,-0.01337059
0.8758763,0.4430503,0.1999092,0.003679242,0.003781439,-0.0109567
0.8753986,0.4434048,0.2031749,0.002528801,0.002748406,-0.01261496
0.8793622,0.4428934,0.2074154,0.003581182,0.002569536,-0.01303397
0.8834497,0.4440334,0.2082126,0.002796189,0.008339501,-0.01345341
0.8799718,0.4450822,0.2108979,0.002013594,0.01375823,-0.01753835
0.8770003,0.4453082,0.2099001,0.003432384,0.01216377,-0.01803515
0.8772803,0.4470596,0.2079704,0.00339361,0.009939545,-0.01825204
0.8751708,0.44724,0.2070242,0.001127046,0.01222172,-0.0182979
0.8716755,0.4451269,0.2016858,-0.001286977,0.01514675,-0.01733746
0.8720302,0.4426133,0.201896,-0.001666625,0.01766914,-0.02208452
0.8746549,0.4411796,0.2044866,-0.001651301,0.01803268,-0.02743583
0.8752478,0.4422155,0.2036646,-0.004107973,0.014347,-0.02745359
0.8751364,0.4454511,0.206287,-0.005364866,0.01276286,-0.02382473
0.8752205,0.4486851,0.2066613,-0.003627454,0.01222013,-0.01922991
0.8767071,0.448745,0.2072538,-0.00144527,0.01348454,-0.01535899
0.8782109,0.4471422,0.2112218,0.0001142565,0.01784913,-0.01348171
0.8754318,0.4453252,0.2099025,-0.0006189019,0.01582387,-0.01570199
0.8714511,0.4436622,0.209175,-0.001779475,0.01347434,-0.01762072
0.8700924,0.4444949,0.2122493,-0.0006418816,0.01380615,-0.01633919
0.8709877,0.4453461,0.2122867,0.0001848665,0.01158084,-0.01455691
0.8721246,0.4467344,0.2098248,8.785172e-05,0.01479326,-0.01120302
0.872538,0.4494538,0.2074715,0.0007307714,0.01940885,-0.009437067
0.8741602,0.44805,0.2077473,0.001107224,0.01970126,-0.01493133
0.8755101,0.446177,0.2073491,0.0004218741,0.01711666,-0.02092542
0.875079,0.4476034,0.2017543,0.0002245147,0.01117006,-0.01823998
0.8747924,0.447422,0.19843,0.0004954079,0.008170433,-0.01477309
0.8746955,0.4469966,0.2006519,-0.001726221,0.00619101,-0.01732413
0.8733188,0.4484129,0.2035199,-0.002783627,0.005891117,-0.0184678
0.8715442,0.4489956,0.2075128,0.0006327769,0.01284376,-0.01732824
0.8720542,0.4494867,0.2131508,0.001204759,0.01641273,-0.0141526
0.8723515,0.4502614,0.216173,0.001825743,0.0106351,-0.009495225
0.8700936,0.4495219,0.2124369,0.005589263,0.004311403,-0.0100984
0.8691202,0.4471979,0.206508,0.003940535,0.005049408,-0.01206233
0.8703038,0.4454192,0.2055874,0.002980995,0.005824281,-0.01193141
0.8712811,0.4473236,0.2071537,0.004165891,0.001655383,-0.01164572
0.8709044,0.4497451,0.209621,0.0007478669,0.002090897,-0.009815652
0.8705023,0.4485203,0.2120817,-0.0002604043,0.002954217,-0.008129556
0.8710971,0.4482827,0.2101023,0.001469783,0.0004355155,-0.00767534
0.8707945,0.4500146,0.2079111,0.002644428,0.0002901512,-0.008907642
0.8713862,0.4500728,0.2090411,0.002386331,-0.001304915,-0.01033516
0.8746424,0.4494537,0.2111295,0.0001688923,-0.0006874076,-0.01187334
0.8772987,0.4473848,0.2141357,-0.0009383893,0.003967231,-0.01525246
0.8758011,0.4455883,0.2137701,-0.002706121,0.006133448,-0.01620891
0.8702664,0.4494063,0.2080005,-0.002435628,0.006666571,-0.01704586
0.8674023,0.4539364,0.2022204,-0.001032828,0.008210262,-0.01685704
0.8712914,0.4527664,0.2003471,-0.002008706,0.01216857,-0.01240281
0.8752264,0.4502636,0.204278,0.000189017,0.01274205,-0.01157754
0.8729406,0.4496977,0.2098222,0.001766182,0.0111547,-0.01206604
0.8707953,0.4485734,0.2119603,0.0005963104,0.01287725,-0.01332472
0.8729837,0.446651,0.2122634,0.0004494878,0.008587796,-0.01582782
0.8723652,0.4460201,0.2140143,-0.0003586691,0.001892994,-0.009714034
0.871357,0.4491588,0.2163019,-0.0009195784,0.0005013205,-0.003074216
0.8720506,0.4526139,0.2094683,-0.001575395,0.0008238864,-0.004420133
0.870172,0.4497786,0.2006317,-0.001519684,0.003895204,-0.005681553
0.8706693,0.4474695,0.2061526,-0.0002193578,0.005853283,-0.002630402
0.8714311,0.4509401,0.2113207,0.0003882857,0.005979328,-0.001712303
0.8702392,0.4521817,0.2078562,0.002002074,0.004961074,-0.0055601
0.87134,0.4507239,0.2055584,0.003106353,0.001429671,-0.004872724
0.8720818,0.4495922,0.2019335,0.00331918,0.002558578,-0.003485051
0.8740418,0.44831,0.2047791,0.003275675,0.003746207,-0.00566642
0.8759837,0.4492809,0.2177155,0.001530267,0.002056315,-0.00737759
0.874727,0.4506575,0.2239884,0.001013963,0.004632502,-0.01237188
0.8748223,0.4500971,0.2175905,0.001262976,0.007115466,-0.01269267
0.8752724,0.4504555,0.2098374,0.0004055057,0.007742509,-0.00963958
0.8746419,0.4512099,0.2133181,0.000152894,0.007404579,-0.01057771
0.8739887,0.4504641,0.2179538,0.0009114105,0.006028523,-0.006322569
0.8720988,0.4507147,0.2154311,0.002225597,0.006556531,-0.003600644
0.8703844,0.452106,0.2162389,0.001941271,0.006047237,-0.005968145
0.8708064,0.452807,0.2154299,0.001371152,0.004538586,-0.005768762
0.8726488,0.4524709,0.213238,0.002424346,0.001670057,-0.006503046
0.8727214,0.4490067,0.2120792,0.002263026,-0.002242246,-0.006957503
0.8720101,0.4471746,0.2071989,0.001425525,0.0003662098,-0.007311739
0.8741755,0.4534574,0.2120915,-0.0005577538,0.003321457,-0.009521803
0.8755875,0.4588349,0.2181095,-0.002647015,0.0008708865,-0.0101529
0.8734327,0.4546506,0.2125743,0.001234712,0.0008088377,-0.009232063
0.8704826,0.4505468,0.2113715,0.005634815,0.0007152266,-0.006150622
0.8687025,0.4531366,0.2132203,0.002963383,-0.002367415,-0.002541946
0.8703249,0.4523026,0.2121093,-0.001327149,-0.002103919,-0.004033827
0.8753188,0.4482433,0.2115915,-0.003632777,0.003217273,-0.01000228
0.8790984,0.4486116,0.2108536,-0.003532869,0.008062805,-0.01367336
0.8783941,0.4487998,0.2112337,0.001535861,0.005988654,-0.01326604
0.876771,0.4493095,0.2123207,0.004860718,0.003743803,-0.01112898
0.878134,0.4506693,0.2135797,0.0007884319,0.008940121,-0.006138823
0.8772693,0.4496875,0.2143011,-0.002923878,0.01119253,-0.001330859
0.8726353,0.4498459,0.2132263,-0.001005468,0.007154427,-0.002375201
0.8699532,0.4492644,0.2107958,0.003106315,0.005847577,-0.005368892
0.8704216,0.4486216,0.2071981,0.004511848,0.008978711,-0.007080506
0.8722697,0.4516253,0.207295,0.003279524,0.01114721,-0.01197837
0.8717326,0.4545039,0.2136006,0.003081007,0.006234559,-0.01443023
0.8708125,0.4543699,0.2186912,0.003259796,0.001609435,-0.01034846
0.8721589,0.4517095,0.2167535,0.001685321,0.005122441,-0.009055862
0.8715086,0.4501789,0.2134567,-0.002295248,0.006422708,-0.008656364
0.8719861,0.4509041,0.2133324,-0.005300112,0.002619035,-0.006579569
0.8729772,0.4524394,0.2128802,-0.001904042,0.001117924,-0.004680409
0.8716036,0.4530909,0.2129359,0.001740276,0.001735034,-0.0005121417
0.8723991,0.4503126,0.2129471,-0.001941467,0.001641676,-0.0008006745
0.8724458,0.4475658,0.2117536,-0.004366207,0.0003743925,-0.001691736
0.8716348,0.4468094,0.2126635,-0.0006162637,0.0004188823,0.001647439
0.871699,0.4472395,0.211675,0.001874963,0.001923534,-0.0002904407
0.8709036,0.4485436,0.2093608,0.003461551,0.001365037,-0.002779094
0.8733919,0.4485847,0.2098792,0.004609307,-0.000859488,-0.003780722
0.8760126,0.4487115,0.2099612,0.00257351,-0.001797563,-0.006395136
0.8741075,0.4488403,0.2118202,0.002475336,-0.0008577823,-0.004799679
0.8728513,0.4492689,0.215077,0.003593703,0.001171175,-0.002784231
0.8736656,0.4507376,0.2156987,0.002529149,0.002944648,-0.001375958
0.8729281,0.4508246,0.2155241,0.0009641321,0.003140546,0.0005464783
0.8716266,0.4514355,0.2158748,-0.001978493,0.003432549,-0.002337327
0.8722971,0.4516059,0.2174643,-0.002965317,0.003809738,-0.004493308
0.8726456,0.4497192,0.2186622,-0.001132803,0.002018373,-0.003077792
0.8728242,0.4484865,0.2194872,-0.001864014,0.0005375389,-0.003458047
0.8737,0.4484246,0.2200703,-0.002916876,0.0005280234,-0.004130652
0.8715599,0.4503233,0.2185439,-0.002019902,0.0008237197,-0.003267256
0.8681924,0.450755,0.2171781,3.517389e-05,0.001032572,-0.002046604
0.8680755,0.4493742,0.2136426,0.001931837,-0.002432763,-0.00128158
0.8708636,0.4511557,0.2095193,0.0003238091,-0.008650505,-0.001829055
0.8733659,0.4515899,0.2091559,-0.0007202086,-0.008881467,-0.004631623
0.8732672,0.4491905,0.2097656,-0.00182295,0.001694861,-0.01073164
0.8727761,0.4484519,0.2151483,-0.005392148,0.01182185,-0.01604127
0.871237,0.4494408,0.2208388,-0.003428805,0.008302224,-0.01378468
0.867527,0.451474,0.218388,0.0005149683,0.003651273,-0.007576501
0.8673124,0.4517455,0.2142185,0.00229998,0.005962553,-0.004863965
0.8692487,0.4508465,0.2099268,0.003242015,0.003225204,-0.004229786
0.8696633,0.4507356,0.2081711,-0.0004157642,0.002292085,-0.003344106
0.8721127,0.4496534,0.2109369,-0.001450386,0.005198173,-0.002473137
0.8733145,0.4498093,0.2105859,0.001693779,0.001529795,-0.002323115
0.8724064,0.4503938,0.2105465,0.002518283,-0.001003871,-0.001243759
0.8740642,0.4496943,0.21111,0.005468598,-0.002503109,0.001600333
0.8736155,0.4500993,0.2089397,0.009132019,-0.002671358,0.001551855
0.8710103,0.450084,0.2106338,0.00568941,0.001748078,0.00152825
0.869852,0.4498239,0.2117911,0.0008036143,0.0005931521,0.0009088846
0.8692101,0.4501721,0.2096405,0.002584826,-0.0009164251,-0.001771122
0.8717075,0.4502525,0.2100258,0.002723483,-0.0007831888,0.001491608
0.8748716,0.4518031,0.211452,0.0007056128,-0.002859438,0.004125817
0.8751267,0.4530213,0.2132264,0.002434546,-0.002416034,0.003828614
0.8742193,0.4511157,0.2137601,0.0009923912,-0.004166174,0.001678854
0.8730754,0.4491227,0.2134867,0.0006289302,-0.003772311,-0.002568935
0.8736139,0.4499394,0.2146155,0.003798779,-0.001320853,0.00321159
0.8737714,0.4505079,0.2145532,0.004678943,-0.003927476,0.006671616
0.8725225,0.4499463,0.2141083,0.0051088,-0.004560521,0.0002985423
0.873228,0.4518624,0.209561,0.004130813,-0.004363641,-0.002339752
0.8746822,0.4535321,0.2033972,0.004555334,-0.003996191,-0.002557151
0.8754181,0.4521507,0.2068757,0.004024497,-0.003214489,-0.001242854
0.8750151,0.449726,0.210456,0.0002986626,-0.005068838,0.0005845085
0.874328,0.4472331,0.2078171,0.0006209727,-0.006042113,0.005369088
0.8735361,0.4474941,0.2105161,0.001081366,-0.006959764,0.008744659
0.871545,0.4495375,0.2153083,0.001252743,-0.004048466,0.002826935
0.8717352,0.4495432,0.213232,0.003920429,-0.001526917,0.0008830747
0.8719784,0.4498556,0.2075393,0.004628524,-0.005717877,0.001673023
0.8702953,0.4501078,0.2052797,0.00170936,-0.00636394,0.0004128618
0.8716751,0.4479051,0.2075651,-0.001694325,-0.005313521,0.003125996
0.872761,0.4464736,0.207418,0.00069262,-0.004406518,0.005020793
0.8710097,0.4465477,0.2062579,0.003195867,-0.002155135,0.004142963
0.8705472,0.4465942,0.208797,0.00209326,-0.004373845,-0.0001448071
0.8708772,0.4474996,0.2105101,0.002366033,-0.008043626,-0.003537651
0.8712526,0.4483928,0.2122667,0.0002401801,-0.01129504,-0.001173979
0.8725997,0.4479218,0.2136876,-0.001758465,-0.008361489,4.274654e-05
0.8739181,0.445193,0.2138372,-0.0005522244,0.001307824,-0.002626251
0.8730288,0.4427544,0.2168777,0.00100961,0.005100265,-0.004666144
0.8716404,0.4474161,0.2163286,0.003018178,0.003138958,-0.002782975
0.8732219,0.4541016,0.2103782,0.003209278,0.001242144,-0.001378458
0.8744052,0.4531612,0.2063862,0.002639543,0.002236261,-0.001658353
0.8745522,0.4500385,0.2079602,0.002040197,0.002233616,-0.001459878
0.8770843,0.4472469,0.2149011,0.001089654,-0.0004380524,-0.004235882
0.878371,0.4439728,0.217575,0.001814751,0.0007623458,-0.005364618
0.8765627,0.4491841,0.2122263,0.002007809,0.0009939563,-0.003286937
0.8746681,0.455747,0.205899,0.0007294237,0.0002364383,-0.002011127
0.8730212,0.4520508,0.2033074,-0.0004213815,0.001921715,-0.0004031387
0.8715686,0.4488259,0.2046181,-0.0003468946,0.002939252,-0.001536062
0.8711285,0.4486551,0.205701,0.0002235931,0.005395366,-0.002927334
0.8709455,0.4464102,0.2081899,0.001770867,0.004414109,-0.001339278
0.8710806,0.4470608,0.2106588,0.005594166,0.001445642,-0.000942
0.8736206,0.4476335,0.2077768,0.006006381,0.002651367,-6.56021e-05
0.8759663,0.446172,0.2059611,0.003862193,0.002066436,0.0009067237
0.8748816,0.447204,0.2082606,0.004283389,0.0008161418,0.0006632142
0.8734939,0.4480501,0.2124918,0.002576659,0.0005673879,0.001270136
0.8729127,0.4486983,0.2161814,-5.183411e-05,0.0003967538,-0.0001424924
0.8727203,0.4505527,0.2130788,2.376173e-06,0.001911783,-0.003814633
0.8738418,0.4505389,0.2082785,0.001424647,0.001993401,-0.007088129
0.8736083,0.4503627,0.208352,0.004022864,0.002327288,-0.00673748
0.8714247,0.4516855,0.2042836,0.00188605,0.00338071,-0.002689641
0.8705968,0.4505998,0.1987944,-0.0017819,0.003743243,0.0001575301
0.8716553,0.4482911,0.2066323,0.0003950262,0.005246369,0.002748294
0.8728402,0.4485788,0.2150026,0.0003891457,0.003758567,0.0008354532
0.8732003,0.4490847,0.2109374,-0.001125723,0.001566658,-0.006479846
0.8733853,0.4502147,0.2104803,-0.0001202746,0.003542624,-0.008069536
0.872873,0.4516097,0.214233,-0.001090238,0.003395745,-0.006198847
0.8708516,0.4487655,0.2122838,-0.0005203034,-0.001111267,-0.002823578
0.8703735,0.4463814,0.2126242,0.001252935,-0.003648943,0.001792112
0.8717334,0.4489868,0.2133962,0.0006457548,0.0011288,-5.331056e-05
0.8731888,0.4510779,0.2080427,0.0008081019,0.006664121,-0.001753576
0.8750554,0.4498494,0.2048734,0.001858991,0.002929372,-0.0001943423
0.8747178,0.4495581,0.2065614,0.001255993,-0.002680356,-0.001216695
0.8743485,0.4506665,0.2083334,0.0008147201,-0.003643434,-0.002003393
0.8754099,0.4506848,0.2093892,0.004399897,-0.002779136,-0.0009270656
0.8729758,0.4515475,0.2116752,0.005089005,-0.000218204,0.002368711
0.8713434,0.4512588,0.2148355,-0.001063259,-0.0001861575,0.004317162
0.8725824,0.4482051,0.213186,-0.00369999,0.001434705,-0.00231094
0.8721933,0.4470211,0.2097781,-0.002921941,0.008063794,-0.01042214
0.871955,0.4489292,0.2110763,-0.002688029,0.009174632,-0.008463209
0.8714459,0.4517904,0.2113335,-0.001054483,0.008684275,-0.002773038
0.8704355,0.4516942,0.209044,-0.0002744727,0.01050558,-0.001157481
0.8708463,0.4498681,0.2086359,0.0001684414,0.0091047,-0.001195645
0.8713103,0.4500992,0.2091654,-0.0001481371,0.007373405,-0.004746086
0.8725459,0.4498878,0.2089618,-0.0007049171,0.005092771,-0.007369571
0.8736211,0.4501166,0.2081437,-0.0001836712,0.004923736,-0.004872876
0.8711684,0.4513301,0.2079767,-0.0007358897,0.005944305,-0.003925462
0.8683937,0.4522368,0.2080017,0.003195617,0.0009776588,-0.001484611
0.8701749,0.453011,0.2080243,0.007061541,-0.002169754,0.002599945
0.8718782,0.4508799,0.208699,0.003202102,0.0002644071,0.00308573
0.870889,0.4489979,0.2086728,0.001054041,0.004251683,0.001744162
0.8733877,0.4489365,0.2094908,0.001152551,0.008637128,-0.001668819
0.8764225,0.4463155,0.2101713,-0.0006244538,0.01101207,-0.006639189
0.8758085,0.4432738,0.2075174,-0.001719077,0.01392383,-0.01220803
0.8758782,0.4427132,0.2061859,-0.00205676,0.01498853,-0.01301646
0.8750583,0.4444167,0.2076297,-0.0009209631,0.01039873,-0.0101908
0.8727811,0.4470467,0.2086977,0.001048375,0.004390428,-0.01181891
0.8733868,0.4494237,0.2101716,0.003534011,-0.00179541,-0.01035082
0.8736736,0.450688,0.2109727,0.00656619,-0.004935744,-0.00676202
0.8698384,0.4498998,0.213621,0.007495467,-0.005788704,-0.004160049
0.86503,0.449733,0.2183545,0.006045365,-0.01153059,0.003987439
0.8638392,0.450657,0.2170565,0.005517106,-0.01456639,0.008932567
0.8691268,0.4516356,0.2144628,0.005957631,-0.006076887,0.009722754
0.8743673,0.4529498,0.2156501,0.005143572,0.001592321,0.01034667
0.8714862,0.4511402,0.2139274,0.004056307,-0.00492026,0.006974099
0.8701873,0.4478424,0.2104159,0.001045632,-0.01314413,0.005828936
0.8761998,0.4475129,0.2056175,-0.001010392,-0.009808859,0.006099092
0.8791353,0.4475073,0.2012844,0.0007764772,-0.005000755,0.00163576
0.8777859,0.4480998,0.2062849,0.0003718127,0.0005941324,-0.005650828
0.8771458,0.4511311,0.2143244,0.0005698438,0.006628469,-0.01078052
0.8770614,0.4534438,0.2157833,0.002612666,0.003610925,-0.00637094
0.8763263,0.4555555,0.2127913,0.002281582,0.00414423,-6.608541e-06
0.8757551,0.4570791,0.2095709,0.003083844,0.008401603,-0.001354825
0.8753781,0.453574,0.2098896,0.00285621,0.005295267,9.554181e-05
0.8719943,0.4499361,0.2096561,-0.0009008951,0.002938687,0.00367216
0.8699725,0.4521763,0.2082414,-0.003270038,0.001273788,0.0006886665
0.8730992,0.4535528,0.2122623,-0.002266506,0.0007861239,-0.001059672
0.8752776,0.4501016,0.2172916,8.003485e-05,0.002306727,0.0001265263
0.8751843,0.4478778,0.2193803,0.0001403241,0.0009428359,-0.001029509
0.8748686,0.4487234,0.2160516,-0.00220826,0.002514365,-0.005140028
0.8744097,0.4505037,0.2095198,-0.003914834,0.004282696,-0.01064959
0.8724987,0.4520147,0.210333,-0.003033762,0.00294177,-0.01054894
0.870194,0.4537512,0.2099561,-0.0009433886,0.003376825,-0.005188759
0.8725571,0.4562105,0.2061447,-0.0005285478,0.003368181,-0.002032404
0.8757237,0.4542591,0.2086517,0.00183606,0.002796847,-0.002432342
0.8750364,0.450838,0.2088881,0.005636294,0.00205967,-0.003741486
0.8747315,0.451817,0.2090588,0.004063629,0.001675241,-0.003391683
0.8746943,0.4518368,0.2102937,0.0002461738,0.004796888,-0.003339718
0.872048,0.4532801,0.2042295,-0.001183177,0.00765935,-0.002738718
0.8690938,0.4554585,0.2025222,0.0008238272,0.005578743,0.001686277
0.8689354,0.4525521,0.2085403,0.003008381,0.001201462,0.005153694
0.8700657,0.4521069,0.213683,-0.002219287,-0.0005980162,0.004252978
0.8699086,0.4525211,0.2139719,-0.00733395,-0.0003308019,0.002765514
0.8694726,0.4504114,0.2127724,-0.004267757,-0.001492943,0.00303371
0.8696621,0.4506601,0.2166482,-0.001615273,-0.004606224,0.001852247
0.8711682,0.4499603,0.2162956,-0.001718153,-0.005604773,0.001146524
0.873158,0.4497139,0.2131423,-0.001942192,-0.002257858,0.004348194
0.8728116,0.4514064,0.2140659,-0.003148035,-0.0002753553,0.005440413
0.8720205,0.4513871,0.2113349,-0.001407946,-0.001192508,0.004997988
0.872387,0.4513038,0.2088064,0.001669606,-0.001870417,0.004703012
0.8730549,0.4504891,0.2076543,0.001257058,-0.004159078,0.002101996
0.8740279,0.4495827,0.206757,0.002012191,-0.01015659,0.002787421
0.8738054,0.4501152,0.2090797,0.005799826,-0.01847729,0.005189394
0.8742379,0.4500273,0.2099669,0.00812034,-0.02162308,0.006992367
0.875565,0.4503127,0.2100864,0.007004412,-0.01447961,0.008946218
0.8749309,0.4527099,0.2092749,0.004263591,-0.007202081,0.004265297
0.8748073,0.4577549,0.2085969,0.001613401,-0.009425721,-0.001026136
0.8752182,0.4606385,0.2079741,-0.0008248679,-0.01135833,-0.001300841
0.8748647,0.4554941,0.2040132,0.0002311982,-0.00845017,-0.001349167
0.8750449,0.4487094,0.2021976,0.002023658,-0.01065435,0.001249936
0.8751909,0.447682,0.2024102,0.0001927935,-0.01405541,0.003006087
0.8758568,0.449133,0.2035924,0.0004673803,-0.01914226,0.00599218
0.8767034,0.4496112,0.2066563,0.002388035,-0.02787592,0.01342592
0.8760999,0.4500765,0.2110013,0.006040679,-0.0285323,0.01414477
0.8746054,0.4502024,0.2134911,0.01218244,-0.03416429,0.01640264
0.8740392,0.4498096,0.2086697,0.01092075,-0.04599035,0.02278069
0.8754639,0.4500383,0.2083078,0.006396228,-0.03818722,0.02210574
0.8772046,0.4491975,0.212167,0.00446738,-0.01967213,0.02382106
0.8770946,0.4454087,0.2113405,0.0001469207,-0.01205053,0.02388239
0.8735421,0.4417734,0.2146206,0.002310706,-0.02313298,0.0166586
0.8701558,0.4425107,0.2148697,0.01307431,-0.03929635,0.01156018
0.8749165,0.4436951,0.2106768,0.01850307,-0.03435274,0.006718578
0.8812621,0.4408178,0.2083634,0.01588931,-0.02617355,0.003672369
0.8792862,0.4401942,0.1994837,0.01192818,-0.02770737,0.000522602
0.8780748,0.4447666,0.1944386,0.01164291,-0.02197169,-0.002898547
0.8796057,0.449884,0.1976674,0.01260083,-0.02239143,0.002724389
0.8761305,0.453324,0.1958678,0.01218707,-0.02455017,0.00995508
0.8739434,0.4549073,0.1925634,0.01266984,-0.01824051,0.01098437
0.8752124,0.4568358,0.1907872,0.009394494,-0.02146937,0.01036944
0.8751303,0.4578118,0.187338,0.002453957,-0.02396823,0.01196525
0.874934,0.4573033,0.1864479,-0.0028204,-0.02837412,0.01518689
0.874932,0.4580345,0.1885975,-0.006425966,-0.04091034,0.02473646
0.8754432,0.4547116,0.1900476,-0.00579659,-0.03998375,0.03934377
0.8766192,0.4493282,0.1945432,-0.00463633,-0.03692726,0.04086065
0.8772991,0.4491036,0.2014775,-0.004671262,-0.03945105,0.03966041
0.8765161,0.4487059,0.2034903,-0.0008415673,-0.03843872,0.04733219
0.8758988,0.4456437,0.2041192,-0.0003565906,-0.0407045,0.04541407
0.8779098,0.4419172,0.2041439,-0.005386072,-0.04008196,0.04136145
0.8798988,0.4364125,0.1994722,-0.009805245,-0.02689491,0.03883358
0.8835832,0.4318443,0.1942461,-0.01359082,-0.01265389,0.02793031
0.8880293,0.4288912,0.1902589,-0.009407883,-0.01385791,0.02130019
0.8869917,0.4257955,0.19004,0.003874329,-0.01878971,0.01768724
0.8852283,0.4288735,0.1944548,0.01265665,-0.01659249,0.01322995
0.8830807,0.4364883,0.1970715,0.01555546,-0.02235268,0.01486738
0.8790021,0.438156,0.1966859,0.01664964,-0.03148848,0.01830893
0.8803531,0.4391849,0.1962526,0.01551248,-0.03786519,0.01759009
0.8829459,0.4421861,0.1966441,0.01309986,-0.03961104,0.0122307
0.8831961,0.4411333,0.1964277,0.008296984,-0.02790515,0.009455696
0.8852822,0.4389242,0.1956314,0.003748185,-0.019422,0.006935096
0.8842874,0.4367857,0.1957482,0.0007256143,-0.01910802,-0.0004865527
0.8821637,0.4364449,0.1955478,0.000201282,-0.01910074,-0.005311163
0.8842017,0.4357142,0.1938951,0.001866567,-0.02026388,-0.007890573
0.8854477,0.4319664,0.1913843,-0.00191091,-0.01284091,-0.01226936
0.8870608,0.4335319,0.1899265,-0.003946989,0.001241093,-0.02078185
0.8875841,0.4370572,0.1884308,0.0003829747,0.01028922,-0.02520006
0.8824507,0.4382041,0.1860196,0.001289869,-0.0003637894,-0.01859931
0.879723,0.4416366,0.1871605,0.0002386853,-0.01719956,-0.01612828
0.8832718,0.4437742,0.1910216,-0.002004911,-0.00785113,-0.01867647
0.8870001,0.4431595,0.1932879,-0.005723248,0.00644122,-0.01927382
0.8865119,0.441653,0.1934526,-0.007499249,0.01427361,-0.01926447
0.8854969,0.4404044,0.1923762,-0.008151218,0.02048917,-0.01549923
0.8875373,0.4403046,0.191295,-0.004980503,0.01522113,-0.0152602
0.8873861,0.4401847,0.1899274,-0.00135496,0.02285489,-0.01973252
0.8845559,0.4413673,0.1898214,-0.002987179,0.0331275,-0.02172037
0.8800066,0.4423709,0.1908447,-0.003919004,0.02548728,-0.02443496
0.8768209,0.4434366,0.1900652,-0.002261178,0.02245454,-0.02521568
0.8822671,0.4458408,0.1909807,-0.002286588,0.02085571,-0.02323084
0.8869738,0.4453268,0.1951263,-0.003079229,0.02654802,-0.02384972
0.8835534,0.4438803,0.1973696,-0.004851942,0.04263931,-0.02485501
0.8791615,0.4442523,0.1934067,-0.008223616,0.04429759,-0.02708219
0.8753002,0.4437615,0.1876196,-0.009524875,0.03681041,-0.02920331
0.8739369,0.443039,0.1868106,-0.009766028,0.02609611,-0.02620371
0.876466,0.4446607,0.1812878,-0.00887376,0.01415313,-0.02059064
0.8769225,0.4467393,0.1745477,-0.005154108,0.01378111,-0.01083924
0.8762407,0.4458436,0.1860783,-0.004542329,0.01856793,-0.004070383
0.8782437,0.445356,0.199455,-0.004398265,0.018803,-0.009201801
0.8792186,0.4468163,0.1978976,-0.001405161,0.01588266,-0.01178212
0.879267,0.4483323,0.1962613,-0.002242118,0.01283548,-0.008154587
0.8812173,0.4507359,0.1982361,-0.00323855,0.01034833,-0.004061884
0.8824241,0.4503629,0.1996773,-0.002748051,0.008808358,0.001511711
0.8820354,0.4482627,0.2011911,-0.005359994,0.008853974,0.0007518397
0.8817167,0.4482393,0.2001428,-0.005442731,0.01239915,-0.002049498
0.8807621,0.4459345,0.1996218,-0.001841961,0.01986355,-0.00291681
0.8758128,0.44359,0.2022484,2.93255e-05,0.01898818,-0.006282687
0.8697709,0.4453299,0.203214,0.0008359038,-0.0001475198,-0.0005794736
0.8706946,0.4464925,0.2008186,0.00185477,-0.02510818,0.009208641
0.8751948,0.4453299,0.1965989,0.001647193,-0.03056281,0.008882973
0.8790185,0.4438415,0.1932354,0.002616397,-0.01588359,0.006677396
0.8828593,0.4427438,0.1949478,0.005036017,-0.004721183,0.005351316
0.8820239,0.4440187,0.1967446,0.003900989,-0.003022103,0.002504925
0.879312,0.4496261,0.1931834,0.001618529,-0.01663796,0.0007627195
0.8808235,0.4537598,0.1897579,-0.002492138,-0.02862896,-0.002998124
0.8868846,0.4481376,0.1865177,-0.01184877,0.005649457,-0.008576797
0.8928205,0.4396896,0.1842517,-0.0171704,0.04342845,-0.01229412
0.8850079,0.4401422,0.1893175,-0.0153365,0.02856932,-0.01558377
0.8724861,0.4455836,0.1951342,-0.01095689,0.009322636,-0.01689544
0.8743432,0.448276,0.195998,-0.006601876,0.01127598,-0.009779882
0.8770397,0.4476624,0.1967062,-0.006829853,0.0170015,-0.0001568804
0.8764692,0.4455717,0.1953539,-0.008124034,0.03215491,-0.0003909605
0.8806779,0.4422699,0.192888,-0.003850831,0.03359665,-0.002932531
0.8805164,0.4357193,0.1989502,0.008332343,0.01559248,0.000300916
0.8796891,0.4335639,0.2057943,0.02516668,0.003506819,0.0002380855
0.8827945,0.4432427,0.2016385,0.02508412,-0.003837043,-0.006650451
0.8863318,0.4557265,0.1960596,-0.002278216,0.01109737,-0.02202149
0.8902597,0.4600061,0.1945475,-0.02075051,0.03772355,-0.03408281
0.8824214,0.4472349,0.1960996,-0.0005021429,0.0328516,-0.01594653
0.8707893,0.4330565,0.1994528,0.0267159,0.006563021,0.006845679
0.8752023,0.4418321,0.1944643,0.02649735,-0.01649609,0.001424745
0.8799529,0.4512162,0.189297,0.01734667,-0.01486557,0.0003372307
0.8770523,0.4522729,0.1942701,0.01076001,-0.01350746,0.007746577
0.8746284,0.4620079,0.1965744,-0.004766669,-0.03814607,0.002680254
0.8702941,0.4632122,0.1955438,-0.01513954,-0.03250117,0.007264354
0.8754901,0.4563748,0.1973798,-0.01280134,-0.008902717,0.01598384
0.8865888,0.4533227,0.1991544,-0.009441893,-0.0001152616,0.01444187
0.8843432,0.4455685,0.2004466,-0.006563319,0.01519747,0.01753514
0.8791921,0.4453585,0.1985357,-0.004889573,0.01013243,0.01875214
0.877384,0.449922,0.1948043,-0.004485441,-0.002358395,0.01667738
0.8766158,0.4467758,0.1944127,-0.006635123,-0.0002871339,0.01467154
0.8790177,0.44815,0.1951856,-0.01177593,0.004470282,0.009804187
0.8774551,0.4470021,0.1929995,-0.01413477,0.02204634,0.01117086
0.8771371,0.4412872,0.1890726,-0.0103946,0.02024826,0.01131667
0.8790174,0.4432825,0.1897387,-0.003229006,0.007100886,0.009984937
0.8778169,0.4437878,0.1943715,-0.0005995265,0.01098461,0.01285753
0.8795371,0.4431973,0.1968012,0.0003528439,0.006980478,0.01007599
0.8786988,0.445314,0.1971553,0.004694174,0.007938195,0.008095134
0.8766346,0.4442617,0.1974688,0.007981226,0.006230652,0.008476754
0.8784358,0.4442165,0.1967515,0.00778596,-0.005624078,0.007710968
0.8776379,0.4449616,0.1942263,0.006125646,-0.004985529,0.01058453
0.8779235,0.4450612,0.1924876,0.006874628,-0.006553831,0.01044512
0.879936,0.4462625,0.1929432,0.002211423,-0.004611139,0.005931466
0.8807289,0.4455418,0.1942842,-0.005372293,0.0001386161,0.002742312
0.8810307,0.4437956,0.1947696,-0.003058129,-0.0035373,0.00442849
0.8800441,0.4423482,0.1940258,-0.0008189487,-0.005637282,0.007711338
0.8812276,0.4409882,0.1934914,-0.002240322,-0.01113313,0.006221261
0.8834994,0.4401268,0.1919246,-0.004596401,-0.01026719,0.00610046
0.8850911,0.4399022,0.1912818,-0.008462901,-0.00636285,0.00820345
0.8848885,0.4404116,0.1929198,-0.004927004,-0.009865418,0.01036942
0.8817993,0.4394054,0.1933925,-0.0003698519,-0.009277756,0.01349615
0.8820978,0.4385249,0.1943539,-0.001570251,-0.01151166,0.01262396
0.883446,0.4399699,0.1960952,-0.001154216,-0.01241138,0.01069586
0.8825671,0.4404357,0.195643,-0.001351125,-0.007810834,0.007352491
0.8844112,0.439337,0.1921504,-0.002455127,-0.006181398,0.002971274
0.886381,0.4387283,0.1894809,0.0007321272,-0.002627353,0.004666124
0.8857517,0.4396929,0.1902114,0.003250167,-0.003455221,0.00497516
0.8842765,0.4408213,0.1886008,0.002172843,-0.007352882,0.001542346
0.8824983,0.4398387,0.1869381,-0.0007002845,-0.006498652,-0.001506145
0.8827074,0.4382851,0.1894969,-0.004577388,-0.006882353,-0.004703002
0.8872234,0.4370245,0.1911376,-0.003717409,-0.00471221,-0.003803015
0.8916819,0.4362466,0.191044,-0.001093125,0.0001046494,-0.002721001
0.8887653,0.4362687,0.1908956,-0.002472211,0.003742579,-0.004308464
0.8834936,0.4358763,0.1913473,-0.002445248,0.007921595,-0.004763271
0.8828528,0.4361308,0.1926451,-0.001100186,0.006471674,-0.008136175
0.8818424,0.4366812,0.192917,-0.0009476023,0.004251766,-0.01225198
0.8812048,0.438152,0.1897584,-0.002173846,0.007348055,-0.01035511
0.8827333,0.4422877,0.1841493,-0.004243729,0.007625459,-0.008313597
1.041485,0.02293028,0.01446129,-0.1282493,0.01216663,-0.2401044
1.031611,0.02516033,0.01522761,-0.1307003,0.008533327,-0.2406723
1.01353,0.03396974,0.01789612,-0.1358421,-0.00269049,-0.241491
1.010591,0.03999044,0.01591942,-0.1367466,-0.02724453,-0.2289323
1.020908,0.03779659,0.02087579,-0.1472021,-0.03981167,-0.2246198
1.033652,0.0351895,0.02129349,-0.154945,-0.006706403,-0.2239737
1.039802,0.03655009,0.0209627,-0.1506783,0.03600063,-0.2230291
1.032026,0.03705964,0.02702226,-0.1518011,0.03826813,-0.2231263
1.024965,0.03901043,0.02141561,-0.1592132,0.02335798,-0.218934
1.027018,0.04267717,0.01290163,-0.1675273,0.02353182,-0.2166644
1.02722,0.0382965,0.01119386,-0.1774339,0.02985084,-0.2139209
1.025273,0.03339757,0.009892509,-0.1786526,0.03564236,-0.2110238
1.028473,0.03395374,0.01093329,-0.1671878,0.04133979,-0.2090495
1.034751,0.03088658,0.009571372,-0.1619261,0.05961168,-0.2047562
1.040059,0.02654792,0.008867403,-0.1700969,0.0906944,-0.2047863
1.036948,0.02106375,0.01149987,-0.1790847,0.0977919,-0.2159109
1.026598,0.01375778,0.01320763,-0.1859433,0.09351508,-0.2437257
1.022869,0.01320008,0.01937317,-0.1890468,0.1037599,-0.2714161
1.020314,0.01776536,0.02335797,-0.1875111,0.09840331,-0.2716433
1.017631,0.02436327,0.02336999,-0.1852357,0.08944821,-0.2533725
1.021019,0.03096921,0.02604509,-0.1818804,0.1026006,-0.2370909
1.021421,0.03041616,0.02475937,-0.1773774,0.1172168,-0.2289071
1.024404,0.02979888,0.02247495,-0.1724116,0.1376372,-0.2268945
1.029474,0.03684447,0.02241071,-0.1685418,0.1543345,-0.2206215
1.028379,0.04460573,0.02109331,-0.163436,0.1344627,-0.2112682
1.026616,0.0498596,0.01957884,-0.1610782,0.1094581,-0.2088762
1.022056,0.04662235,0.0155308,-0.1670306,0.1108486,-0.2067661
1.02006,0.03702715,0.01397842,-0.1706299,0.1143334,-0.1997023
1.021551,0.03585891,0.01796173,-0.16702,0.1131624,-0.187082
1.019234,0.03481436,0.02402797,-0.1572915,0.1192179,-0.1660886
1.020276,0.03028111,0.0315607,-0.1462562,0.1235787,-0.1576936
1.024109,0.03615198,0.03056698,-0.1398922,0.1207449,-0.1709468
1.027357,0.05036883,0.02614166,-0.1344478,0.1158132,-0.1761389
1.027421,0.06229665,0.03119756,-0.1398905,0.1055931,-0.1646012
1.025662,0.05654414,0.03505363,-0.1504617,0.09410654,-0.1567506
1.030615,0.04013213,0.03623875,-0.1417749,0.09963861,-0.1586884
1.031971,0.03549147,0.03657807,-0.1301434,0.1160648,-0.160367
1.023218,0.03542703,0.03134773,-0.1262182,0.1204259,-0.1585931
1.013359,0.0367618,0.02994016,-0.1169896,0.1153096,-0.153672
1.01087,0.04076322,0.03166392,-0.1182949,0.102633,-0.1433661
1.018391,0.04111976,0.03198674,-0.1259922,0.0869779,-0.1374696
1.023426,0.0405798,0.03250397,-0.1210695,0.08811271,-0.136757
1.023948,0.03605713,0.03146887,-0.1175873,0.09356461,-0.134102
1.025693,0.03510238,0.03325442,-0.1127254,0.09387768,-0.1390259
1.024751,0.03938395,0.03571365,-0.1067958,0.09719069,-0.1459717
1.023878,0.03849047,0.03889572,-0.112556,0.08546797,-0.1424987
1.023623,0.0383481,0.04358727,-0.1143573,0.06445029,-0.1394908
1.02308,0.0345845,0.04175677,-0.1145116,0.06414871,-0.1456275
1.023288,0.03037559,0.04103399,-0.1239176,0.08134142,-0.155656
1.022456,0.03540678,0.04521344,-0.1296801,0.1031477,-0.1596349
1.022852,0.04030025,0.04963756,-0.1214136,0.1170741,-0.1516503
1.021935,0.04582186,0.05502572,-0.1041607,0.1081782,-0.1364602
1.018862,0.05121328,0.05337969,-0.09299269,0.09172276,-0.1236589
1.018076,0.05057803,0.04585929,-0.08974911,0.08118768,-0.120228
1.019657,0.04829036,0.04257914,-0.09339734,0.0729523,-0.1228022
1.022609,0.04852035,0.04223771,-0.09773374,0.07631382,-0.1201305
1.022773,0.05003678,0.04266822,-0.09377501,0.07810077,-0.1123481
1.021536,0.04979935,0.04503539,-0.09692181,0.07123948,-0.1066407
1.022619,0.05024627,0.04722848,-0.102537,0.07131047,-0.1030648
1.022397,0.04952912,0.04855784,-0.09856116,0.06423662,-0.1022374
1.023016,0.0459925,0.05139433,-0.09706011,0.05704388,-0.09911411
1.025138,0.04112574,0.05234408,-0.09451236,0.06415966,-0.09329963
1.0244,0.03697365,0.05122602,-0.08742304,0.06686842,-0.09289711
1.021225,0.03991711,0.05503312,-0.0838485,0.06408925,-0.09106605
1.017457,0.04142135,0.06121559,-0.08381824,0.05962054,-0.08856162
1.018541,0.03834614,0.06318082,-0.08319456,0.05545371,-0.09028012
1.02517,0.03991108,0.06001853,-0.08194312,0.05587488,-0.09000741
1.028803,0.04374034,0.05623358,-0.08237073,0.05571955,-0.09008788
1.025487,0.04877322,0.05576989,-0.08010471,0.05595288,-0.08907779
1.020876,0.04950956,0.05410131,-0.07594705,0.05727984,-0.08522088
1.02196,0.04455765,0.05305538,-0.0740651,0.06024976,-0.0823296
1.023195,0.04289525,0.0553229,-0.07594014,0.06270166,-0.07996976
1.020665,0.04193594,0.05578039,-0.08360105,0.06114786,-0.08034875
1.018923,0.04126899,0.0604679,-0.08637691,0.05642623,-0.08436374
1.016231,0.04270023,0.06796198,-0.0773876,0.04904676,-0.08681099
1.01743,0.04518891,0.06713976,-0.06752032,0.04814329,-0.07830306
1.021373,0.04913105,0.06253588,-0.06585772,0.05262778,-0.06501439
1.018983,0.04829373,0.05615261,-0.0694354,0.05526678,-0.06432469
1.018781,0.04478831,0.04945499,-0.07243384,0.05945746,-0.07381326
1.02134,0.04410451,0.05217593,-0.07357635,0.06103393,-0.08094529
1.023183,0.04304843,0.05743831,-0.06825414,0.05851971,-0.07659408
1.02724,0.04473657,0.05607491,-0.06225762,0.05635042,-0.06864483
1.022898,0.04879149,0.05858385,-0.06679356,0.05430567,-0.06974168
1.01464,0.04905407,0.06506236,-0.07051334,0.05361322,-0.06945496
1.015442,0.04815089,0.0644866,-0.06681455,0.05414782,-0.0662997
1.019212,0.04727833,0.06399894,-0.06265565,0.0522577,-0.06643772
1.021758,0.04371592,0.06530606,-0.05928063,0.04519914,-0.06556379
1.021403,0.03945147,0.06020811,-0.06241869,0.03745262,-0.06664204
1.019844,0.03796687,0.0550241,-0.06999865,0.03642952,-0.06621043
1.021358,0.03977583,0.05476629,-0.070644,0.03856451,-0.06258327
1.021165,0.04278352,0.05682128,-0.06775938,0.03661698,-0.06256078
1.021165,0.04499301,0.05923467,-0.06620113,0.03382895,-0.0612437
1.022523,0.04413432,0.06149965,-0.06122363,0.03107053,-0.05860954
1.019371,0.04202328,0.06116387,-0.05538879,0.02606198,-0.05826351
1.018201,0.04316735,0.05822621,-0.05558025,0.02651718,-0.05679681
1.02459,0.04342991,0.05897283,-0.05685578,0.03328318,-0.05680328
1.030875,0.04150938,0.05865528,-0.05433868,0.03922393,-0.06236657
1.030017,0.04173693,0.05634085,-0.05391701,0.03907483,-0.0692059
1.027565,0.0428836,0.05751024,-0.05466847,0.03189635,-0.06771333
1.028608,0.04776979,0.05687489,-0.05305556,0.02916177,-0.05875492
1.025997,0.05360263,0.05809282,-0.05221952,0.03487738,-0.05267466
1.022641,0.05148329,0.06193762,-0.050316,0.04377077,-0.05090234
1.021291,0.04792296,0.06240422,-0.04691072,0.04930925,-0.05040425
1.016858,0.04707948,0.06083154,-0.04437296,0.0434001,-0.04772876
1.018165,0.04547899,0.05710609,-0.04363828,0.03666267,-0.04267186
1.022189,0.04728247,0.05703509,-0.0444969,0.03648953,-0.04126433
1.020468,0.04989658,0.05950339,-0.0436939,0.03639686,-0.04238998
1.021588,0.04833013,0.05925524,-0.04349768,0.0369478,-0.04379465
1.023045,0.04802085,0.06170641,-0.04159901,0.03598811,-0.0430776
1.021726,0.04846416,0.06338556,-0.03762966,0.03445172,-0.03481161
1.022392,0.04748162,0.0624193,-0.03950072,0.0347,-0.02739493
1.022276,0.0489968,0.06313996,-0.04031318,0.03412476,-0.02900719
1.022045,0.04984613,0.06351969,-0.03830657,0.03521166,-0.03059618
1.022079,0.04859493,0.06344754,-0.03820006,0.03514993,-0.02710198
1.020258,0.0478509,0.06553685,-0.03676802,0.03137862,-0.02597481
1.018993,0.04669743,0.07047807,-0.03799135,0.02708707,-0.02617444
1.019413,0.04715078,0.07295209,-0.03921028,0.01981857,-0.02338313
1.02085,0.04819639,0.06966458,-0.03566429,0.01023926,-0.02215901
1.021913,0.04946927,0.06672127,-0.03225717,0.006229165,-0.02021331
1.022413,0.05186156,0.0666873,-0.03065936,0.01128692,-0.0167915
1.022056,0.04894126,0.06261255,-0.03015285,0.01597741,-0.01236035
1.020126,0.04462533,0.05617135,-0.02882841,0.01340853,-0.005627364
1.019419,0.04617847,0.05939253,-0.0274133,0.01179993,-0.005835852
1.021089,0.04809731,0.06392774,-0.02528516,0.008995489,-0.005969138
1.022953,0.04853646,0.06181015,-0.02108168,-0.001341628,-0.0005391813
1.022478,0.04742073,0.06410877,-0.02086371,-0.006599733,-0.001758524
1.021581,0.04298651,0.0649224,-0.0232115,-0.001420678,-0.003434975
1.022649,0.04159605,0.06165578,-0.02301643,0.004763558,-0.005047834
1.022236,0.04704459,0.06286582,-0.02348011,0.006375465,-0.009601377
1.021875,0.0518654,0.0625794,-0.02398727,0.00156621,-0.003863683
1.023006,0.04915318,0.06096325,-0.02201762,-0.004253037,0.00403994
1.023729,0.04469895,0.05774287,-0.02133746,-0.00361379,0.002590212
1.025218,0.04333825,0.05226156,-0.02192019,-0.00144723,-0.001512885
1.023258,0.04091882,0.05471395,-0.02064918,-0.0006065459,-0.007135348
1.019187,0.04115272,0.05835623,-0.01952553,0.003359355,-0.009276302
1.019318,0.04368186,0.05721577,-0.01807074,0.004217,-0.003757969
1.020506,0.04266692,0.05862962,-0.01572573,0.001405395,-0.001711523
1.021046,0.04307966,0.05971593,-0.01499183,0.001618035,-0.005633901
1.021367,0.04416713,0.06211273,-0.01507067,7.977612e-05,-0.006943254
1.022303,0.0460276,0.06706087,-0.01524309,-0.0003618439,-0.002013656
1.024363,0.05018525,0.06580291,-0.01485202,0.001582397,0.006461415
1.023645,0.04818062,0.0637751,-0.01430499,-0.0005508394,0.009490898
1.022146,0.04398721,0.06507441,-0.01373869,-0.0007998377,0.004185177
1.022358,0.04280985,0.06268955,-0.01167845,0.000478646,0.001425039
1.021692,0.04253528,0.06157958,-0.009051993,-7.83241e-05,0.009582112
1.020455,0.04457291,0.06270864,-0.006803899,-0.0004414706,0.01719604
1.019058,0.04400187,0.05936501,-0.007729969,-0.004063895,0.01219795
1.019185,0.04045734,0.055408,-0.009547298,-0.007135571,0.008910421
1.021446,0.03751409,0.05135399,-0.009574349,-0.005916481,0.01376323
1.023559,0.03459714,0.0478419,-0.01106128,-0.004735104,0.01265817
1.025743,0.03365668,0.05201183,-0.01093196,-0.004308827,0.006229104
1.025142,0.0355421,0.05805846,-0.01144952,-0.002384693,0.001289689
1.022357,0.03956668,0.05745657,-0.01358902,0.0004843845,0.0015275
1.02215,0.03982647,0.05593033,-0.01315008,0.003151573,0.004864689
1.022118,0.03746798,0.05655478,-0.01420158,0.009814756,0.003309943
1.022155,0.03867172,0.05367099,-0.0137044,0.01591086,0.002420153
1.02253,0.03735741,0.04706283,-0.01236964,0.01382989,0.002299158
1.022216,0.03670329,0.04159829,-0.01345473,0.01488316,-0.0009032805
1.024207,0.03868609,0.0438432,-0.01322062,0.02387138,-0.001683376
1.025968,0.03759322,0.0503973,-0.0153263,0.02804421,-0.006698916
1.026372,0.0381093,0.05070769,-0.01516612,0.02593228,-0.01186871
1.026446,0.03689979,0.05186586,-0.01060573,0.02647085,-0.007574533
1.024292,0.0350647,0.05439078,-0.01044638,0.02691475,-0.006085485
1.022526,0.03789965,0.05174539,-0.01122096,0.02200942,-0.007993653
1.021313,0.03860716,0.05371886,-0.009344629,0.01859466,-0.006757709
1.020191,0.03924076,0.05795868,-0.006862092,0.0188678,-0.006220503
1.020807,0.04181064,0.05958067,-0.004361065,0.01851078,-0.004814092
1.020178,0.04526487,0.05813714,-0.003655907,0.01746027,-0.003749184
1.019037,0.04867479,0.05203353,-0.003324566,0.01524199,-0.005091826
1.02075,0.04614261,0.05113215,-0.002668106,0.0111158,-0.003157847
1.023139,0.04345419,0.0504856,-0.006673924,0.008063705,9.292354e-05
1.024004,0.04309837,0.04893003,-0.01116133,0.0129009,-0.0003638293
1.023553,0.04088104,0.05415593,-0.006574459,0.02001636,-0.001148139
1.022451,0.04160054,0.05564468,-0.001554299,0.01897434,-0.004861579
1.022058,0.04321396,0.05541769,-0.002308674,0.01849675,-0.009328013
1.022221,0.04318523,0.05615666,-0.001573019,0.01899451,-0.001815932
1.022225,0.04507853,0.05440301,-0.004012895,0.01409019,0.007432485
1.022101,0.04669961,0.05431306,-0.009633621,0.01055411,0.005279351
1.021435,0.04729711,0.05220237,-0.008422244,0.007359559,0.003516096
1.021477,0.04757074,0.05193767,-0.005626115,0.007531266,0.006887168
1.02244,0.04748574,0.05296856,-0.006107803,0.0114358,0.007977571
1.02226,0.04953335,0.05033874,-0.005371412,0.009083893,0.008481729
1.020933,0.05027229,0.05163104,-0.004530808,0.009571328,0.009874461
1.019865,0.04602422,0.05284386,-0.002822842,0.01341421,0.008477661
1.019912,0.04293781,0.05288791,0.0009185558,0.01137194,0.01041359
1.020349,0.04378526,0.05588234,0.003558227,0.006991539,0.01761349
1.020505,0.04416384,0.05649488,0.006570754,-0.0007292886,0.02090509
1.021605,0.04423836,0.05558181,0.007414737,-0.003403858,0.0175789
1.022861,0.04409729,0.05479504,0.00532188,0.003249111,0.01048312
1.022187,0.04072333,0.05386484,0.006225767,0.005977808,0.008813851
1.021847,0.03784917,0.05256711,0.007073841,0.003391223,0.01128308
1.022618,0.04138328,0.05260439,0.008449596,-0.0006220944,0.01090069
1.022065,0.05013537,0.05619938,0.01151863,-0.005038394,0.01676064
1.022099,0.05626035,0.05756809,0.01031427,-0.008979527,0.02584153
1.022506,0.05229639,0.05581191,0.01010098,-0.01026693,0.02836936
1.02195,0.0446944,0.05106523,0.011717,-0.008203749,0.02405904
1.022356,0.04401605,0.04408327,0.01056572,-0.00787201,0.01915063
1.022444,0.04650165,0.04345273,0.01068164,-0.009031547,0.02199716
1.022942,0.04728462,0.04647667,0.01089426,-0.01371799,0.02493834
1.024272,0.04584481,0.04778916,0.0123074,-0.01932591,0.02863354
1.024279,0.04366065,0.04902553,0.01447803,-0.01756239,0.03565733
1.024394,0.04641218,0.04883327,0.009931641,-0.0162664,0.03551753
1.024508,0.04917646,0.04826188,0.005179729,-0.01760088,0.03467917
1.025398,0.0474628,0.0485693,0.005634275,-0.01788208,0.03689749
1.028126,0.04666136,0.04781609,0.004763278,-0.01888667,0.03734413
1.028828,0.04540066,0.0467694,0.00374588,-0.01393331,0.03697225
1.024954,0.0433739,0.04722068,0.005037819,-0.008437317,0.03452428
1.020507,0.0417095,0.04746377,0.00446506,-0.01307419,0.03348708
1.021901,0.03907174,0.04680493,0.003793139,-0.01673124,0.03610075
1.024588,0.03711895,0.04643837,0.004978831,-0.01273457,0.03774037
1.023959,0.03505905,0.04559389,0.004180511,-0.008298295,0.03374999
1.025148,0.03481995,0.04578162,0.004281085,-0.001509312,0.02735696
1.024474,0.03699515,0.04725433,0.007218008,0.00547693,0.02425016
1.021613,0.03736391,0.04800658,0.009745518,0.00165022,0.02015867
1.021324,0.03903331,0.04826632,0.01160657,-0.006414121,0.01635665
1.015503,0.04499419,0.04949761,0.01184087,-0.02277962,0.01812181
1.00482,0.05153478,0.05653537,0.0141422,-0.06995841,0.0308497
1.002492,0.05417114,0.06235456,0.02055019,-0.1237193,0.05952452
1.015514,0.05107944,0.05006081,0.02273546,-0.1377487,0.08364428
1.033739,0.04678335,0.02920583,0.01497926,-0.1133749,0.08726596
1.03767,0.04532299,0.02425817,0.002429009,-0.07217157,0.08162309
1.031189,0.04545538,0.03597526,-0.003722551,-0.03780533,0.07558357
1.028275,0.04623698,0.04516448,-0.005092335,-0.03909755,0.0738035
1.027545,0.04517396,0.04163847,-0.008315919,-0.04733464,0.07155507
1.02677,0.04076686,0.03669401,-0.007280355,-0.02680817,0.0677905
1.024512,0.03426919,0.0335516,-0.003881306,-0.0210279,0.0693588
1.021082,0.0279213,0.02632727,-0.004345485,-0.03488175,0.0667696
1.021639,0.02250092,0.02497067,-0.002514819,-0.03862829,0.0609468
1.023231,0.01386974,0.02475221,0.004555772,-0.04077333,0.05141773
1.021752,0.0108318,0.01981696,0.0106036,-0.01319013,0.02153051
1.021979,0.01572684,0.02266516,0.009544585,0.0216861,-0.008161869
1.022835,0.01201885,0.02340834,0.007284896,0.01639051,-0.01193512
1.021692,0.009319136,0.02072194,0.01141473,0.02097854,-0.02064162
1.022391,0.01402583,0.02517566,0.01522897,0.03869607,-0.04205768
1.022438,0.0152213,0.02831813,0.02063596,0.03603433,-0.03635264
1.022152,0.01968063,0.03229211,0.03271008,0.0312185,-0.03239331
1.024414,0.02441143,0.03266049,0.04032187,0.03165306,-0.04802463
1.02534,0.02828202,0.02576466,0.0425857,0.04915016,-0.04008049
1.024985,0.03581323,0.02457556,0.04629077,0.071916,-0.03729825
1.023936,0.03869437,0.02710736,0.04688414,0.05959609,-0.04162907
1.023234,0.04527709,0.03389261,0.04008803,0.0396487,-0.02300908
1.023828,0.05690154,0.04009098,0.02984465,0.03903497,-0.01478191
1.023497,0.06172128,0.03645905,0.0193364,0.02829252,-0.007782278
1.023996,0.06374134,0.03506601,0.008800388,0.01851055,0.008768781
1.025472,0.0635529,0.03766487,0.005100457,0.02578508,0.02207762
1.026768,0.0604731,0.03776427,0.001247418,0.02765465,0.03635891
1.026805,0.0578956,0.03666185,-0.01312127,0.0215675,0.03870061
1.025457,0.05153797,0.03436942,-0.02072496,0.01314452,0.03431927
1.024325,0.04122293,0.03284623,-0.01897023,0.007595126,0.02940635
1.020536,0.03413446,0.03185984,-0.02150253,0.008145757,0.02805441
1.018028,0.02916444,0.02900249,-0.02230249,0.01730886,0.02989688
1.019914,0.02296889,0.02823605,-0.01722098,0.03191628,0.02022363
1.020209,0.02172593,0.03407706,-0.0095662,0.03195005,0.01171919
1.021695,0.02214307,0.04104828,0.001233651,0.03553831,0.004737653
1.024922,0.01867841,0.04597382,0.01349653,0.05638752,-0.005226319
1.024896,0.02065889,0.04754258,0.02172573,0.06682505,-0.01486175
1.025491,0.02493419,0.04452973,0.02569258,0.06434908,-0.02595931
1.026658,0.02549193,0.04603508,0.03111974,0.05696717,-0.02767457
1.023625,0.03396135,0.04772393,0.03564549,0.04869875,-0.02683629
1.02101,0.04413343,0.04606396,0.03700424,0.04511514,-0.02548086
1.021983,0.04181293,0.04724533,0.03870858,0.04707564,-0.01937418
1.020506,0.04330264,0.04637176,0.03858424,0.04870899,-0.01459284
1.016532,0.05722064,0.05076583,0.03770449,0.0326113,-0.006318121
1.015158,0.06377953,0.05782629,0.03706735,0.004860914,0.00286683
1.016001,0.06334441,0.05337248,0.03274295,-0.02067707,0.01567975
1.020216,0.07019755,0.04406556,0.02429247,-0.03519535,0.03163683
1.029305,0.07391499,0.03610255,0.009376435,-0.02380655,0.03721713
1.035445,0.06585214,0.03640327,-0.005088237,-0.01058103,0.0386445
1.033591,0.05696854,0.03979043,-0.01233538,-0.0144988,0.04315402
1.030621,0.05152043,0.03652353,-0.01814186,-0.01460784,0.03776468
1.026054,0.04165196,0.03919044,-0.01678299,-0.01183579,0.02506254
1.018334,0.02686572,0.04299131,-0.01137844,-0.00788208,0.02768196
1.019237,0.02247157,0.04086068,-0.01080269,0.01004362,0.03053502
1.021469,0.0290006,0.04358806,-0.005578528,0.02436164,0.02134281
1.013457,0.02954215,0.04989534,0.002858122,0.01930413,0.02002731
1.011189,0.03088925,0.05572336,0.01300372,0.01650096,0.02029253
1.017757,0.03864425,0.05395875,0.0222472,0.0255188,0.02246669
1.025218,0.04213742,0.04854621,0.02146471,0.02710544,0.02735716
1.031934,0.04617175,0.05218601,0.02209477,0.01915763,0.02410621
1.029863,0.04994579,0.05115689,0.02030223,0.01642717,0.02227309
1.028723,0.04869427,0.04258954,0.01176676,0.02677681,0.01499373
1.034919,0.04676521,0.03651495,0.0126818,0.04492663,0.002312509
1.033761,0.0404546,0.0328454,0.01313471,0.05626938,-0.001808345
1.025295,0.03391857,0.03778825,0.007669858,0.063428,-0.004676006
1.0155,0.03528508,0.04221324,0.006437538,0.06675697,-0.007992379
1.011733,0.03891985,0.04471703,0.01115358,0.0569156,-0.005147135
1.015707,0.04022736,0.05662234,0.02035275,0.05148914,-0.0002120936
1.018333,0.04547906,0.0643853,0.02404252,0.05729365,-0.004456921
1.026968,0.05143013,0.06652739,0.02890864,0.06517302,-0.01081972
1.034402,0.04825348,0.06804223,0.03683264,0.07081826,-0.01075544
1.023701,0.04780036,0.06562427,0.03193863,0.05467897,-0.01160249
1.015999,0.05180472,0.06657351,0.02468362,0.03183341,-0.009368251
1.023608,0.05106499,0.06554175,0.01990484,0.03452036,-0.006403407
1.026186,0.05173085,0.05967979,0.01383402,0.04148957,-0.005740167
1.017528,0.05176866,0.05869955,0.01341191,0.03704943,-0.004150397
1.011094,0.05270192,0.06414026,0.01167883,0.03262625,-0.004553997
1.012633,0.05504403,0.0699092,0.008980854,0.02137517,-0.001646511
1.015849,0.05202716,0.06513804,0.009682931,0.009482016,-0.0003651206
1.01702,0.05063781,0.05945432,0.009294164,0.009190929,0.001420585
1.016003,0.05192121,0.06346987,0.009337461,0.00202418,0.008865665
1.015132,0.05429885,0.06300776,0.005055438,-0.01163337,0.00666978
1.018746,0.06012649,0.06001943,-0.005261804,-0.01620705,0.003971205
1.024139,0.06359475,0.0599788,-0.01201046,-0.01598036,0.007530667
1.02591,0.05958459,0.05721432,-0.009737873,-0.009865465,0.00859188
1.023696,0.05259571,0.05698673,-0.004658375,-0.0007898583,0.01584577
1.02108,0.05073405,0.05662882,-0.003449534,0.004388024,0.02241716
1.020562,0.0494265,0.05389401,0.002559674,0.005217757,0.01945448
1.020783,0.04591575,0.05381303,0.01168173,0.002623403,0.01738362
1.020754,0.04621377,0.05457169,0.01288758,0.001605029,0.01809304
1.019965,0.0493594,0.06141059,0.007322117,-0.001711173,0.0181957
1.019401,0.05263042,0.06963023,-0.0002981256,-0.001548424,0.01929257
1.021248,0.05185626,0.06799586,0.001308082,0.002830204,0.02135008
1.022939,0.05046113,0.06548301,0.009729667,-0.00155174,0.02018213
1.022628,0.05304748,0.06595242,0.01459048,-0.001656883,0.01688451
1.024202,0.05243972,0.067378,0.018537,0.003792521,0.01539311
1.028444,0.04975095,0.07070962,0.01961377,0.004845473,0.0159332
1.028617,0.04909115,0.06976629,0.02144959,0.003126573,0.01951454
1.020146,0.05240995,0.0682625,0.02279192,-0.01071068,0.02322938
1.010387,0.05771356,0.06934234,0.01846496,-0.03124635,0.0260516
1.010455,0.05565825,0.06686824,0.01678673,-0.04283315,0.02850538
1.017755,0.05326837,0.06406723,0.01508936,-0.04315612,0.02675888
1.021143,0.05486798,0.06213321,0.01196187,-0.04350358,0.02349701
1.020325,0.05265769,0.06100833,0.009727984,-0.04333252,0.02008109
1.020968,0.0512531,0.06042377,0.004956125,-0.02898511,0.01671536
1.022955,0.05069683,0.05553218,0.002034647,-0.02265068,0.01885757
1.023565,0.0492228,0.0541604,0.004638515,-0.02882865,0.02150191
1.020967,0.05033497,0.05674778,0.009175977,-0.02824578,0.01956744
1.018396,0.0499146,0.05510747,0.006895912,-0.03126816,0.01872124
1.019475,0.04877586,0.05532314,0.003338789,-0.03059451,0.01540406
1.021089,0.04887991,0.05613978,0.004696847,-0.02311329,0.005249063
1.021659,0.04932859,0.05497547,0.003683027,-0.01876045,0.001518825
1.02254,0.0514415,0.05624654,0.007287896,-0.01410524,0.01131537
1.022412,0.05158488,0.0578652,0.01302488,-0.01565622,0.01955794
1.021852,0.04998299,0.0613178,0.01499901,-0.0147409,0.01591059
1.022087,0.04904204,0.06334248,0.0191745,-0.00726275,0.0119949
1.01959,0.04796451,0.05942893,0.0188923,-0.00283986,0.01351592
1.014196,0.04798437,0.05723889,0.01652753,-0.0004201585,0.0123445
1.011185,0.04803836,0.05843633,0.01388508,-0.007750839,0.01231479
1.013302,0.04921652,0.05868458,0.008556448,-0.02081421,0.01442032
1.019035,0.05270027,0.0573783,0.009708842,-0.03120999,0.01518835
1.023812,0.05470114,0.05541475,0.01096693,-0.03551297,0.0216148
1.024451,0.05371092,0.0551565,0.007887474,-0.02975686,0.02871649
1.022031,0.0519464,0.05696485,0.006758188,-0.02768681,0.02954415
1.020408,0.05202822,0.05636274,0.004635777,-0.0272207,0.02787676
1.019307,0.04961622,0.05400861,0.003037161,-0.02465899,0.02709194
1.017155,0.04429491,0.05548102,0.002816873,-0.02957162,0.02823281
1.01867,0.04374641,0.05595195,0.000342633,-0.0290626,0.02629801
1.022991,0.04431952,0.05398707,-0.0003522229,-0.01511227,0.02137932
1.027638,0.04387714,0.0521382,0.002242639,0.004959061,0.01722959
1.030095,0.04528733,0.04942878,0.007068954,0.01476755,0.01717147
1.024202,0.0454969,0.05509332,0.01418029,0.008434434,0.02061212
1.019204,0.04774987,0.06137001,0.01616504,0.00858926,0.01934499
1.020814,0.05070726,0.05726398,0.01357361,0.01140159,0.01904587
1.020299,0.05001657,0.0553267,0.01224716,0.006535144,0.01944907
1.019242,0.05046591,0.0538191,0.007410926,0.00554142,0.01406279
1.0212,0.04990226,0.05185827,0.003580518,-0.002243272,0.01443071
1.023008,0.04701555,0.054021,0.004280145,-0.01766077,0.01703068
1.022323,0.04693541,0.05136786,0.003758665,-0.02290578,0.01511313
1.021879,0.0484089,0.04986377,0.004415608,-0.02350309,0.01812817
1.023546,0.04890727,0.05264308,0.001251463,-0.02917484,0.02474845
1.023245,0.04854893,0.05116833,-0.00534112,-0.03393441,0.03055204
1.020491,0.04851958,0.05098255,-0.005904044,-0.03356897,0.0338212
1.01695,0.04909566,0.05341013,-0.008263658,-0.03584005,0.03173805
1.01688,0.05030198,0.05438255,-0.01553433,-0.03902422,0.03108847
1.023492,0.05197436,0.05599963,-0.02010807,-0.03709977,0.03583326
1.028336,0.04805124,0.05504936,-0.01668091,-0.03554118,0.03834378
1.027112,0.03304496,0.05419019,-0.002752046,-0.02480044,0.03609489
1.027488,0.01880298,0.05996266,0.01087529,0.002455532,0.02983732
1.03251,0.02700104,0.06411028,0.01247526,0.0207209,0.01560591
1.03569,0.04969344,0.06144436,0.0107211,0.01541183,-0.004373876
1.033033,0.0589019,0.05771241,0.01638463,0.01070144,-0.01424409
1.021531,0.05059612,0.05429112,0.0177692,0.01156653,-0.003430799
1.008184,0.03541267,0.04824087,0.01613867,-0.003069667,0.004936563
1.014063,0.02880588,0.04438552,0.02102652,-0.01277976,-0.006169815
1.023299,0.03528601,0.04949585,0.01538505,-0.005294239,-0.0108492
1.016116,0.03884045,0.05347573,0.005333678,-0.009024826,-0.0005297642
1.017707,0.04088687,0.04997947,-0.0008525271,-0.02132207,0.004384733
1.025055,0.04593262,0.04645414,-0.0105126,-0.02780121,0.002419547
1.025046,0.04526389,0.04297359,-0.007504995,-0.0181325,0.002470768
1.029753,0.04383912,0.04003015,-0.004740949,0.008038415,0.004666888
1.030924,0.04744821,0.03899654,-0.01177047,0.01837522,0.004407971
1.02836,0.05024114,0.03972795,-0.01286984,0.009964727,0.002420875
1.02787,0.04936996,0.0451402,-0.01952212,0.008530416,0.00266993
1.02674,0.04802069,0.04991443,-0.02003499,0.02073074,0.005782115
1.027163,0.04477865,0.05132058,-0.004333108,0.03071534,0.01186938
1.019553,0.04098597,0.05459874,0.007907073,0.02125697,0.0137488
1.012841,0.04112869,0.0565398,0.0129379,0.009374953,0.01021596
1.019012,0.04315639,0.04992904,0.01148995,0.005413631,0.009302954
1.023561,0.04640149,0.04011955,0.01063844,0.002702845,0.007026102
1.024275,0.04326368,0.04228485,0.009506672,0.009396812,0.003303236
1.026577,0.03779641,0.0542447,0.00631436,0.01669313,0.003908989
1.027175,0.04360769,0.06090815,0.009903444,0.01563519,0.005215047
1.023829,0.04915855,0.05918596,0.0117765,0.01511518,0.005644328
1.022593,0.0511272,0.05302934,0.01247096,0.01491887,0.00678554
1.022625,0.05292977,0.05018694,0.01195401,0.01261955,0.006682876
1.016924,0.051255,0.05151306,0.006852072,0.008957309,0.004142551
1.014318,0.05190571,0.05194681,0.004952863,0.004471553,0.002443722
1.017219,0.04728546,0.0542555,0.00320277,0.001138957,0.00184112
1.019813,0.04021485,0.05618161,0.007603495,-0.0002986032,0.002884281
1.020396,0.04414894,0.05526302,0.0147859,-0.003203993,0.01057741
1.020406,0.04692045,0.05228955,0.01408341,-0.00914494,0.01620472
1.023457,0.04511256,0.04892886,0.01189837,-0.01083248,0.009198462
1.023374,0.04570199,0.04966872,0.008008997,-0.00572968,0.001113909
1.023127,0.04421913,0.04999255,0.008220533,-0.001355702,0.002898826
1.025521,0.0427308,0.04732521,0.009333916,-0.0008707861,0.006065706
1.024584,0.04575014,0.04547458,0.005817304,-0.001829057,0.006038723
1.024467,0.04858783,0.04649936,0.00704738,-0.002857472,0.007028192
1.021477,0.04813298,0.04976912,0.006370839,-0.004456595,0.007289055
1.016919,0.04831955,0.05200693,0.004352011,-0.006925471,0.008470286
1.018115,0.04845245,0.05247123,0.004958126,-0.007648829,0.009892564
1.019491,0.04474722,0.05257374,0.005849769,-0.007579241,0.009107728
1.020431,0.04258178,0.05546522,0.009776971,-0.009834108,0.01032993
1.021397,0.04651326,0.05599085,0.008821334,-0.0100138,0.008240467
1.021816,0.04988931,0.05326728,0.007213119,-0.00858699,0.004641553
1.023358,0.0469564,0.05445765,0.008976121,-0.009276251,0.006833973
1.023979,0.0443665,0.05259528,0.006762886,-0.008274623,0.0065399
1.023411,0.04666579,0.05029276,0.006657095,-0.008193785,0.002688127
1.022352,0.04797662,0.05094904,0.007346355,-0.01158416,0.001336204
1.021032,0.04852521,0.04882831,0.007145488,-0.0140321,0.004854415
1.01957,0.04910659,0.04991807,0.009660406,-0.01502449,0.00934006
1.019113,0.04665836,0.04927825,0.01008184,-0.01208671,0.006346452
1.020008,0.04392313,0.04736852,0.009165088,-0.005653127,0.001633598
1.02115,0.0407542,0.05150301,0.007380415,-0.001800839,-0.00153366
1.022403,0.0392811,0.0516988,0.004937052,-0.0001035898,-0.007189746
1.020724,0.04252642,0.04943738,0.005353316,0.0005714147,-0.006766725
1.018543,0.04555788,0.04757081,0.008512188,0.001026387,0.001504682
1.020453,0.04778718,0.04519192,0.01216055,0.00445107,0.006397592
1.021339,0.04706401,0.0494891,0.01072569,0.008581769,0.00135944
1.019274,0.04485637,0.05274652,0.006867619,0.007063205,-0.005574441
1.017703,0.04819966,0.04846171,0.004725096,-0.001726017,-0.004028753
1.017974,0.05047957,0.04314907,0.001924179,-0.009048746,-0.002629625
1.020382,0.04956184,0.04099694,0.002137818,-0.008630574,-0.003060533
1.022866,0.04903043,0.04526882,0.00171525,-0.008150704,-0.0005877421
1.024708,0.04635006,0.05283174,-0.001483342,-0.01091864,-0.003369056
1.025578,0.04590051,0.05660793,0.000453701,-0.01052234,-0.005025638
1.023856,0.0495954,0.05584477,0.002164932,-0.01025515,-0.004901257
1.02285,0.05214231,0.05495781,0.000846999,-0.01215859,-0.008418829
1.023112,0.04968504,0.05567884,0.0009155006,-0.005842043,-0.004940111
1.021833,0.0453599,0.05474449,-0.001627836,0.005149889,-0.002413915
1.021648,0.0453897,0.05290183,-0.003795798,0.009064743,-0.004882148
1.020877,0.04530725,0.05056032,3.183271e-06,0.006936249,-0.00373604
1.018737,0.04435039,0.04655649,0.003030649,0.004245313,-0.004119231
1.020406,0.0472976,0.04546665,-0.0009135148,0.004935381,-0.004527124
1.022523,0.04950971,0.04639201,-0.005316103,0.00681178,-0.004895809
1.022183,0.0482367,0.04585301,-0.005465793,0.007673545,-0.006398659
1.022066,0.04511057,0.04824956,-0.006437453,0.004357338,-0.00543244
1.021336,0.04237003,0.05309341,-0.004476732,-0.004076785,-0.005459108
1.020866,0.04315884,0.05510376,0.0003971926,-0.005833392,-0.005552345
1.022766,0.04716117,0.05327602,-0.001580665,-0.002539074,-0.004690946
1.025195,0.04997655,0.04825645,-0.00346572,-0.0002712451,-0.003807816
1.025413,0.04909624,0.04445484,-0.0009816616,0.003516789,-0.002456949
1.024656,0.04839755,0.04626437,0.0009426458,0.001764371,-0.001180891
1.024728,0.04861238,0.05114578,0.004868264,-0.003831453,0.0007618351
1.023328,0.04834038,0.05421174,0.005302013,-0.005941459,-0.0001695604
1.021855,0.04740689,0.05477706,0.002872001,-0.003676006,-0.003778516
1.023925,0.04406293,0.05557554,0.004499404,0.0008267355,-0.005630185
1.025749,0.04288251,0.05562472,0.002350298,0.001303063,-0.005338362
1.023708,0.04703718,0.05348758,-0.002603533,0.003469118,-0.003323351
1.021143,0.05155124,0.05220073,-0.005182539,0.008443901,-0.00163651
1.020539,0.05137792,0.05312201,-0.005993041,0.007725534,-0.001475209
1.020566,0.04862428,0.05463175,-0.001234204,0.008956708,-0.002342277
1.0201,0.04828894,0.05503809,0.002368849,0.01287649,-0.002769266
1.019337,0.04717733,0.05410972,0.0004220786,0.0103687,-0.003753994
1.020099,0.04660371,0.05393194,-0.0009260308,0.00881714,-0.006578705
1.021294,0.04888453,0.05534806,-0.001784144,0.01262189,-0.005239754
1.019868,0.04864213,0.05534419,-0.003471816,0.01425147,-0.0006945553
1.019237,0.04807618,0.05271122,-0.00630538,0.01347789,0.0006872833
1.021467,0.04714375,0.05062711,-0.006483128,0.01250918,-0.0001361691
1.022782,0.04493729,0.05107141,-0.001447932,0.01148632,-0.001188009
1.02233,0.04674031,0.0528534,0.002731879,0.01362054,-0.001982275
1.021908,0.05087842,0.0556387,0.003017181,0.01827861,-0.004941267
1.022361,0.05465002,0.05929311,0.001524136,0.01952636,-0.005955267
1.022339,0.05516649,0.05786345,0.00156626,0.01160363,-0.001046635
1.021979,0.05322154,0.05262439,0.001840509,0.00144309,0.0008935845
1.02242,0.05367315,0.05260692,0.00202308,0.002732743,0.003100276
1.022175,0.05100285,0.05448994,0.00392925,0.00541884,0.007197595
1.022118,0.04672871,0.05692801,0.002148065,0.001448574,0.0009078502
1.021871,0.04771895,0.06058184,-0.0003593801,0.003247787,-0.004748875
1.018661,0.04752988,0.0594584,0.001008019,0.005101246,-0.001009033
1.013744,0.04558066,0.05751616,0.001229821,0.004446993,-0.00128181
1.012007,0.04667552,0.05719356,0.000772791,0.008825776,-0.002584608
1.017057,0.04954451,0.05819187,0.001094922,0.007440379,0.0004571478
1.021463,0.0532488,0.06084618,0.002905673,0.000237978,0.002251957
1.019347,0.05299288,0.05920433,0.005127781,-0.007682858,0.00266316
1.01862,0.04827878,0.05585993,0.004238135,-0.012535,0.0004629952
1.020152,0.04640829,0.05271803,0.003279341,-0.006776026,-0.001396591
1.019978,0.04712513,0.04991171,0.002410818,-0.003021143,-0.002935316
1.022773,0.04820012,0.05113175,0.0003581468,-0.001003187,-0.009328321
1.026459,0.05082174,0.04928069,0.0005031931,0.00449733,-0.01054044
1.024831,0.05358806,0.04673758,0.001143672,0.001474314,-0.003950967
1.022397,0.05384087,0.05270569,1.997485e-05,-0.003086175,0.0001735365
1.022245,0.05365949,0.05778409,0.000360327,-0.004824225,0.001265383
1.021427,0.05580928,0.05563113,0.002793524,-0.004665594,0.0001288453
1.019643,0.05354783,0.05398822,0.003956055,0.002416817,-0.002794002
1.017948,0.04943221,0.05359127,0.003305143,0.005528711,-0.003555298
1.020111,0.05178222,0.05112284,0.002543506,-0.0001729596,-0.001212194
1.023534,0.05204312,0.05323559,0.003071291,-0.006790312,0.001648844
1.020418,0.05049078,0.05648557,0.004229805,-0.006942477,0.003485888
1.017999,0.05200248,0.04993772,0.004166193,-0.001924553,0.0007127881
1.020117,0.05123098,0.04527162,0.003134218,0.0002397245,-0.005665926
1.019669,0.05117447,0.05026615,0.0003763316,0.002181515,-0.004768365
1.019954,0.05177811,0.05288997,-0.001947359,0.003555916,-0.002207
1.021325,0.05102234,0.05126297,0.0002218804,0.002628033,-0.002160386
1.019804,0.05142482,0.05181675,0.003573263,0.001960928,0.003490759
1.019017,0.05047298,0.05354534,0.003017359,-0.001576874,0.003089532
1.020063,0.0499522,0.05312086,0.0001423001,-0.005535546,-0.0009853168
1.022222,0.05188467,0.05410502,0.0008737065,-0.007529559,-0.0005576555
1.024354,0.05334085,0.05588293,0.002712549,-0.00643891,-0.004629564
1.023905,0.05282406,0.05177391,0.001613916,-0.00329982,-0.002262972
1.023085,0.05141372,0.04752597,0.002834498,-0.004031507,0.00325617
1.023288,0.05190123,0.0484027,0.00428874,-0.003871174,-0.001024017
1.02109,0.05441421,0.04980432,0.003396329,-0.001971553,-0.001504185
1.018319,0.057703,0.05232831,0.002696997,-0.001578657,0.0005167269
1.019339,0.05708536,0.05693725,-0.001331434,-0.001110635,0.0004949316
1.020062,0.05172269,0.05797592,-0.003796716,-0.0032043,0.005915353
1.019323,0.05032211,0.05438003,-0.0003502987,-0.004836406,0.009908739
1.021337,0.05189433,0.05043996,0.001582294,-0.005642095,0.008036866
1.02295,0.05135802,0.04588361,0.0004630512,-0.00750572,0.006547065
1.022343,0.05126454,0.04508679,-0.001884013,-0.006837226,0.006338346
1.022897,0.05148353,0.05045282,-0.004022313,-0.006445336,0.003174856
1.024035,0.05135468,0.05238263,-0.004419933,-0.005873531,0.0002127518
1.023553,0.05158077,0.05121643,-0.003357006,-0.004523386,0.003819385
1.022403,0.05225279,0.05133246,-8.553286e-05,-0.005274743,0.01031474
1.022145,0.05309977,0.05127889,0.002047577,-0.005110334,0.0140352
1.022142,0.05283816,0.05199264,0.001376481,-0.004350482,0.01110478
1.021896,0.05223015,0.05300434,0.001904758,-0.003715625,0.005556769
1.020528,0.05093904,0.0546581,0.00343658,-0.001852761,0.005073246
1.019108,0.04872499,0.05482555,0.002696712,-0.001406094,0.004129042
1.021116,0.04914386,0.05483845,0.0006567074,-0.006735383,0.005119462
1.023372,0.05188833,0.05842633,0.00126689,-0.01603854,0.01010758
1.02302,0.05317949,0.05799857,0.00340255,-0.01847453,0.008074002
1.023344,0.05262426,0.05446952,0.003670368,-0.01345156,0.006812139
1.023161,0.05064033,0.0550015,0.003066801,-0.007965067,0.01020462
1.021644,0.0481075,0.05495342,0.003243388,-0.004657341,0.0094672
1.021394,0.04728107,0.051883,0.00357217,-0.01222145,0.00966917
1.019076,0.04938545,0.04980481,0.004335102,-0.02419946,0.01050227
1.015594,0.05435975,0.04886982,0.00612024,-0.02236402,0.01058353
1.018093,0.05700417,0.04809417,0.006041178,-0.01551152,0.01170366
1.021347,0.05431139,0.04992382,0.006186136,-0.01583998,0.01094067
1.02078,0.05074496,0.04928895,0.007941591,-0.02189678,0.0130574
1.022379,0.04754185,0.04519537,0.005102634,-0.0300724,0.01497342
1.023058,0.04688294,0.04630174,0.002236669,-0.02970172,0.01215559
1.021567,0.0482431,0.04832856,0.004132636,-0.02769,0.0114526
1.023569,0.047576,0.05020419,0.00502759,-0.0322598,0.0117531
1.025055,0.04874552,0.05289793,0.004652306,-0.03002723,0.01084295
1.024861,0.04914916,0.05117127,0.00345649,-0.02410599,0.01005991
1.025324,0.0470497,0.0524543,0.000445143,-0.0164293,0.009623286
1.024572,0.04844565,0.05393335,-0.001237598,-0.009423775,0.01102484
1.023933,0.04980446,0.05099255,-0.0005079526,-0.01836493,0.01357702
1.022667,0.04937509,0.05192396,0.001021001,-0.02532887,0.01539263
1.021539,0.04676815,0.05120037,0.00225409,-0.02015549,0.01107237
1.022194,0.04269686,0.04607454,0.001875819,-0.01751003,0.00380785
1.020482,0.04303997,0.04079348,-0.000332016,-0.01319788,0.002927862
1.019004,0.04190125,0.03759982,-0.003008943,-0.008940646,-3.39343e-05
1.021651,0.03941031,0.04177278,-0.004609666,-0.009319709,-0.006064022
1.024788,0.04355284,0.04571937,-0.00172586,-0.008015789,-0.00302607
1.025599,0.04754462,0.04416006,0.002974968,-0.004327231,0.001611668
1.02461,0.04677512,0.04422105,0.003548132,-0.0007407458,-0.001724521
1.023813,0.04356992,0.04390526,0.003208171,0.002680892,-0.008586737
1.022666,0.04046798,0.03971591,0.000304531,0.007408711,-0.01264959
1.021137,0.04189555,0.03765811,-0.005895863,0.01030186,-0.01344876
1.019707,0.04550942,0.04416076,-0.005944716,0.01232702,-0.01517186
1.017909,0.04813343,0.05135627,-0.003355042,0.01324532,-0.01405145
1.020188,0.05032119,0.04728631,-0.002674821,0.009551237,-0.009390736
1.023295,0.0500564,0.0431692,-0.000368373,0.01029481,-0.006787034
1.019504,0.04872763,0.04630942,-0.001618642,0.01495573,-0.00637161
1.016626,0.04862772,0.04570644,-0.004593288,0.01759816,-0.009362598
1.019368,0.04841998,0.04675139,-0.00307028,0.01894415,-0.01118575
1.020083,0.04870181,0.05009434,-0.0008396012,0.01681642,-0.009936447
1.019038,0.04909161,0.04610153,0.001884829,0.01829414,-0.009017677
1.019528,0.05014417,0.04388608,0.001880072,0.02351728,-0.007465866
1.019898,0.05215584,0.04538868,-0.003896488,0.02492431,-0.009694208
1.021103,0.05153275,0.04671015,-0.005977377,0.02037162,-0.01248551
1.022848,0.05087087,0.04971445,-0.003045821,0.01271595,-0.01318508
1.02242,0.05179969,0.04961299,-0.001036647,0.01496371,-0.01131452
1.021959,0.0512674,0.05170004,-0.001157285,0.01822375,-0.005096186
1.023357,0.05127034,0.05770014,-0.002323172,0.01494411,-0.00711914
1.023762,0.05124848,0.05772169,-0.001854608,0.01926972,-0.008159786
1.0226,0.04888211,0.05774896,-0.0022764,0.02203919,-0.0001441977
1.021952,0.04547158,0.06531564,-0.002417985,0.01754597,0.001602586
1.021959,0.04431996,0.07108694,1.149179e-05,0.009995556,0.001597147
1.021515,0.0489279,0.06498372,0.0001634849,0.0036252,0.001310903
1.020489,0.05326333,0.05516766,-0.0006864203,0.008561677,-0.0004266922
1.020643,0.05146929,0.05262107,-0.001314901,0.01273396,0.0004315791
1.0212,0.05047587,0.0515615,-0.0005750143,0.01543391,0.0002382291
1.020784,0.05171139,0.05250196,0.001497514,0.01646356,0.002742069
1.021713,0.04934822,0.05754276,0.0002350147,0.002343274,0.00292429
1.022683,0.04681151,0.05741747,-0.0003170121,-0.008474014,-0.001356212
1.022461,0.04717883,0.05536359,-0.001145991,-0.008560656,-0.002436662
1.023946,0.04781464,0.05308014,-0.004994977,-0.0009196054,-0.004932589
1.025454,0.04988021,0.04864118,-0.00590807,0.009985763,-0.008489601
1.024089,0.0527816,0.05199368,-0.004914127,0.00614753,-0.008070555
1.022055,0.05431095,0.05819154,-0.003598098,0.003688083,-0.005085362
1.021848,0.05548315,0.05872941,-0.002227294,0.007230969,0.0003323574
1.021358,0.05434138,0.05814377,-0.002365422,0.004212828,0.007027189
1.019522,0.05172379,0.05577457,-0.002190035,0.004898002,0.006390446
1.019482,0.05187625,0.05228139,-0.001854515,0.004435864,0.001694941
1.021361,0.05067016,0.05066987,-0.002033336,0.002847203,0.002079505
1.022775,0.04912864,0.05148195,-0.001913586,0.003730261,-0.001397823
1.022416,0.05351653,0.05397613,-0.0004212196,0.002099143,-0.002472721
1.021784,0.05402389,0.05542247,0.001589449,0.003950863,0.002042576
1.023011,0.04909376,0.05773066,0.002453014,0.004834201,-0.002430047
1.024953,0.04914148,0.06177764,0.002201047,0.004378628,-0.004685262
1.026426,0.04923268,0.06457084,0.0009777993,0.00609236,-0.00261578
1.024292,0.05106512,0.06231313,0.0005854025,0.006201634,-0.003707835
1.020637,0.0571435,0.05678863,-0.0001567824,0.007360511,-0.002649874
1.021834,0.05691321,0.05560757,-0.002229113,0.005821737,-0.003468913
1.021142,0.05294218,0.05388395,-0.002494543,0.002510364,-0.002339225
1.017177,0.05052561,0.04991202,-0.002861846,0.001240936,0.003335357
1.01788,0.05075527,0.05176041,-0.004279403,0.001131271,0.006542626
1.018571,0.05207043,0.05482615,-0.003568255,0.00373599,0.003264421
1.017594,0.04907404,0.05581418,-0.001498561,0.004216615,-0.00278211
1.019013,0.04803238,0.0562037,-0.0003577257,0.005564522,-0.0007218411
1.021615,0.04996071,0.05594761,-0.0008741843,0.007903464,0.0006705325
1.024558,0.05000417,0.05734295,-0.001976956,0.005795895,-0.002204586
1.024062,0.05044747,0.05728374,-0.002087361,0.004765672,-0.002170652
1.021359,0.05065576,0.05619556,-0.001692914,0.003451871,-0.005813609
1.021014,0.05162953,0.05588953,-0.001115431,0.002910338,-0.005652776
1.020755,0.05162094,0.05256857,0.0001158241,0.002797953,-0.0002215971
1.022214,0.05006123,0.05024694,0.0002703647,-0.001984219,-0.0001135209
1.023269,0.05102471,0.05227557,-0.001174272,-0.003564215,-0.0006908699
1.021328,0.05152296,0.05528546,-0.001692523,-0.00171255,0.0005527519
1.022361,0.05142892,0.0573722,-1.894833e-05,-0.003050967,0.004874072
1.022744,0.05147385,0.05549375,0.003233779,-0.01049739,0.008661253
1.021487,0.05076838,0.05198466,0.006286238,-0.01827883,0.003400462
1.023274,0.04953967,0.05292426,0.007415464,-0.01306615,-0.003184956
1.024637,0.04612925,0.05547133,0.00472239,-0.003697672,-0.004853156
1.026015,0.04518023,0.05743879,-0.0008341049,-0.001400051,-0.007256649
1.024812,0.04860132,0.05799563,-0.003662427,0.0002731948,-0.006430681
1.020279,0.05456281,0.05200782,-0.002806113,0.0007843196,0.0006681081
1.019241,0.0601811,0.04782279,-0.001096275,-2.369027e-05,0.002557572
1.020179,0.05659034,0.05644444,-0.0003477373,0.0005650158,-0.0003944449
1.022184,0.04942553,0.0647483,-0.0007162875,0.0006930594,-0.001872099
1.022571,0.04784627,0.06093951,-0.0002872324,0.003991474,-0.004098345
1.019726,0.0477045,0.05743802,-0.0003728736,0.007475927,-0.003440289
1.019268,0.0513246,0.05832304,0.0007031096,0.004069667,-0.00244824
1.019302,0.05603902,0.05279224,0.003726576,0.0002842423,-0.003541956
1.019635,0.05333886,0.04603934,0.002670881,0.001351148,-0.002506249
1.02082,0.05147734,0.04576689,4.388938e-05,0.003495325,-0.00267822
1.02189,0.05336079,0.04983102,-0.00175009,0.002340965,-0.002108704
1.024742,0.05183353,0.0562385,-0.004292013,-0.002328172,-0.0006011935
1.025035,0.05111313,0.05918264,-0.002785295,-0.005522335,-0.001102564
1.022712,0.05348269,0.05928637,0.001133343,-0.005246757,0.001309406
1.020033,0.05467311,0.05769729,0.002825748,-0.005848162,0.004438264
1.018438,0.05430543,0.05404483,0.002263324,-0.01041083,0.004735881
1.020079,0.05330246,0.05544775,0.0006245789,-0.01283929,0.004237972
1.020621,0.05180826,0.05596583,0.001427334,-0.01014596,0.003018069
1.021599,0.05019346,0.05197362,0.00237989,-0.00947199,0.002460081
1.023034,0.05108869,0.05097922,0.002266824,-0.01039294,0.002781852
1.021831,0.05233439,0.05153161,0.004159429,-0.009937457,0.0016654
1.022197,0.05062516,0.05339542,0.004644262,-0.01020796,0.00219229
1.022475,0.05021291,0.0548425,0.003602105,-0.01083123,0.004989821
1.021928,0.04939331,0.05361682,0.003152149,-0.01160254,0.003605437
1.022441,0.0478224,0.05290794,0.003043777,-0.01196484,0.003060664
1.02177,0.04990095,0.05301317,0.003851929,-0.0120835,0.006968449
1.020237,0.0504635,0.05344738,0.003243363,-0.01243011,0.006339331
1.018104,0.04925645,0.05139342,0.002889472,-0.01242868,0.004871828
1.01762,0.04830601,0.04991306,0.003477493,-0.01420447,0.005621443
1.019547,0.04562996,0.05132789,0.002396426,-0.01689838,0.004481151
1.020729,0.04572092,0.04895522,0.00213461,-0.01775686,0.004977306
1.021927,0.0480461,0.04952086,0.00182772,-0.01618636,0.004115944
1.022627,0.04877747,0.05655854,0.001485013,-0.01122529,0.002804617
1.022069,0.04777872,0.05897455,0.00324872,-0.005978352,0.004291285
1.022011,0.04569293,0.05504153,0.003595098,-0.005795978,0.002132864
1.021422,0.045592,0.0508304,0.002556528,-0.007629523,0.0003844485
1.021019,0.04589591,0.05125625,0.00152048,-0.00594009,-7.494477e-05
1.023444,0.04476552,0.05060748,-0.001105804,-0.003835798,-0.003487756
1.02602,0.04516438,0.04762593,-0.001755989,-0.000482276,-0.003621323
1.025209,0.04878138,0.05240086,-0.0002507197,0.00504701,-0.002019158
1.02399,0.05291129,0.05609384,-0.001018733,0.004537855,-0.0007012267
1.023269,0.05156221,0.05316799,0.000214272,0.004897504,0.001551517
1.019921,0.0484117,0.05223778,0.001873735,0.01040305,-0.002227176
1.01872,0.04877522,0.05116476,-0.0007714749,0.009423194,-0.007683367
1.022139,0.04847313,0.05093983,-0.0007773424,0.0106507,-0.00712933
1.024585,0.0484539,0.05247718,-0.0006101556,0.01820477,-0.01003765
1.02543,0.04919532,0.05501166,-0.002926096,0.01744148,-0.01665985
1.025145,0.04910313,0.06263939,-0.001427442,0.01149602,-0.0147644
1.02423,0.05097986,0.06624602,-0.0009052911,0.009337515,-0.008230678
1.02352,0.05290763,0.05805216,-0.003653906,0.01475853,-0.005642792
1.021644,0.05463931,0.05116353,-0.005285265,0.02332342,-0.007577771
1.021989,0.05528526,0.05604776,-0.005175219,0.02187477,-0.01045669
1.023811,0.05253778,0.06279608,-0.003292473,0.0165807,-0.007590039
1.023288,0.05159062,0.06309008,-0.002215136,0.01431461,-0.004862913
1.022807,0.05219574,0.05830448,-0.00286383,0.01014542,-0.007090776
1.021877,0.05204324,0.05191254,-0.003618687,0.009326744,-0.005973321
1.020954,0.05205081,0.05408397,-0.003447459,0.01001065,-0.003361724
1.021047,0.05117021,0.05856629,-0.0004057672,0.007382681,-0.00203236
1.020477,0.0512479,0.05638522,0.003356749,0.005785478,-0.000669033
1.020963,0.05159343,0.05796741,0.002671908,0.005499995,-0.001083962
1.020845,0.0508898,0.05786683,-0.001789177,0.006019605,-0.0006621201
1.01958,0.04968427,0.05594562,-0.003519151,0.004687246,-0.0006112839
1.019481,0.04819473,0.05924344,0.0006163787,0.002196238,-0.0006642123
1.019406,0.04948987,0.05758792,0.004402711,0.0005999806,0.0008298743
1.020615,0.05178153,0.0578917,0.0009465713,-0.002583607,-0.0001725166
1.02214,0.05256642,0.05876,-0.003035313,-0.002536438,-0.002066888
1.022312,0.0538612,0.05303527,-0.001219741,-0.002267685,-0.003215719
1.022386,0.0545746,0.0558393,-0.000873002,-0.006338218,-0.002324156
1.02201,0.05406437,0.06097974,-0.0009698084,-0.007495501,-0.000180829
1.022283,0.05352129,0.06159334,0.0001538533,-0.007908899,-0.000713954
1.022536,0.05162991,0.0620092,-0.003525326,-0.007365781,0.001576343
1.023051,0.04947363,0.05683745,-0.003535184,-0.0004756382,0.00505863
1.024815,0.05143237,0.0539982,0.002070494,0.003998339,0.003000696
1.024395,0.05386081,0.05606362,0.003291413,-0.001289868,0.001622854
1.023001,0.05134327,0.05548088,0.001811352,-0.008231081,0.002956772
1.022845,0.04883479,0.05500646,-0.0006701279,-0.008090875,0.002300883
1.023012,0.04852651,0.05664395,-0.002965654,-0.006182815,0.0002079115
1.02444,0.04832278,0.05977794,-0.00284582,-0.002835648,-0.002017855
1.027416,0.0488683,0.06242687,-0.002226717,0.007412433,-0.003763929
1.029528,0.04969294,0.06383621,-0.0009979142,0.01146532,-0.002861733
1.02657,0.05373277,0.06255488,-0.0008434099,0.006016053,0.0006272679
1.020954,0.05904195,0.05842925,-1.315857e-05,0.004313229,0.003137626
1.018273,0.05796219,0.05901927,0.002202043,0.004014063,0.0008295706
1.017061,0.05518788,0.06078195,0.0009802206,0.001724855,-0.002586787
1.017786,0.0541149,0.05830649,0.0007093165,0.001562351,-0.0005927683
1.019879,0.05149082,0.05816071,0.002363133,0.002989487,0.0009416346
1.019998,0.05074813,0.05704885,0.002264599,0.005721599,0.0004963007
1.022849,0.05028672,0.05334092,0.002625117,0.009190956,0.00321836
1.026525,0.04927446,0.05450213,0.001017989,0.008505974,0.003006083
1.024633,0.05166297,0.05757303,-0.001616887,0.005205909,0.0007725618
1.022577,0.05247743,0.0593952,-0.001804506,0.00522998,-0.001723262
1.022212,0.05130938,0.0585574,-0.001058092,0.003603447,-0.00637085
1.021826,0.04988682,0.05224206,0.001119208,0.0006598433,-0.002467048
1.022193,0.04785005,0.04885922,0.001815887,0.001821902,0.004195136
1.02041,0.05047292,0.05358914,-0.0006511611,0.001306075,0.002418291
1.01868,0.05255376,0.057351,-0.003163511,-0.0003328526,0.001819399
1.019869,0.05087164,0.05588467,-0.00439012,-0.0008545879,0.0004660094
1.021461,0.05105698,0.05664246,-0.003159784,-0.002028856,-0.005648138
1.022592,0.04977988,0.06050771,-0.00105455,-0.001231962,-0.005801373
1.022455,0.04785663,0.05937588,0.0004370607,0.0001227265,-0.00146923
1.021884,0.0494679,0.05507613,0.001074797,0.0006023898,0.0008029705
1.022354,0.05336165,0.0518569,0.001175462,-0.0008794175,0.003638669
1.022315,0.05661195,0.05056563,0.00216265,-0.004645003,0.005852196
1.022044,0.05510521,0.05400967,0.001818273,-0.006757177,0.003190722
1.022349,0.05302768,0.0568455,0.001649317,-0.005929966,-0.0001600946
1.02221,0.0546524,0.05698111,0.003192169,-0.004900441,0.002493269
1.021785,0.05542609,0.0573439,0.002881037,-0.008542544,0.007177026
1.020545,0.0553062,0.05653148,0.001094585,-0.01367894,0.008787807
1.01918,0.05594977,0.05773739,-0.0006770189,-0.01548945,0.008836558
1.021027,0.05451154,0.0608082,0.0001607786,-0.01639478,0.008608719
1.023235,0.05090898,0.0622344,0.00346298,-0.01536435,0.01136501
1.022153,0.04795114,0.05884715,0.004333639,-0.01321905,0.01502633
1.02179,0.05047179,0.05357678,0.001859491,-0.01234543,0.01539619
1.022632,0.05751575,0.05708445,-0.0009207372,-0.01427768,0.01534198
1.021905,0.05864935,0.06039348,0.001046161,-0.01829015,0.01217948
1.021213,0.05334022,0.0567037,0.004423229,-0.01722903,0.007954678
1.020783,0.04894009,0.05511974,0.003860279,-0.01508736,0.008869232
1.020725,0.04790842,0.05146232,0.002777907,-0.01684583,0.008996946
1.022705,0.04795118,0.04904597,-0.00105756,-0.01635263,0.007381864
1.02603,0.04715949,0.0533193,-0.004906662,-0.01461821,0.007270247
1.02845,0.0513939,0.05617331,-0.0007231812,-0.01400636,0.007913798
1.02627,0.05474559,0.05851693,0.004737871,-0.01355786,0.01227642
1.022666,0.05052639,0.05683737,0.005036088,-0.0130962,0.01626217
1.0236,0.04879582,0.04928649,0.002091579,-0.0113714,0.012424
1.024073,0.04660189,0.04739988,-0.0002069609,-0.009534722,0.005912383
1.02309,0.04267342,0.04917869,0.001486877,-0.007028713,0.002080313
1.023939,0.04364636,0.04967492,0.00288264,-0.003318605,0.001131395
1.023567,0.045973,0.05120067,0.000900975,-0.00139562,0.003393216
1.023422,0.04945124,0.0516529,0.0002485022,-0.003884366,0.00509132
1.023901,0.04952045,0.05153912,0.001693614,-0.00822269,0.006957015
1.02354,0.04675516,0.05206566,0.001906184,-0.0067819,0.008483305
1.024622,0.04926877,0.05174941,0.001042089,-0.002926103,0.005904586
1.025309,0.05110704,0.04958481,0.0004477818,-0.001363608,0.004932237
1.02496,0.05079468,0.04759586,0.001087621,0.003153999,0.003865733
1.024794,0.05018465,0.04877203,0.001461506,0.007499669,0.002088318
1.023713,0.04771348,0.04903034,-0.001150648,0.009933697,0.003037301
1.021646,0.04796515,0.0480901,-0.00337702,0.009373362,-0.001003127
1.020103,0.04794599,0.04910012,-0.002674158,0.002707893,-0.003511489
1.021007,0.04615743,0.0498436,-0.002620964,0.0001454592,-0.0007341543
1.022123,0.0476032,0.0518637,-0.003924105,0.00106182,-0.00254463
1.022124,0.0485235,0.05369598,-0.003970139,0.001295186,-0.003506551
1.02247,0.05060028,0.05257517,-0.003324429,0.004178059,-0.002232936
1.022099,0.0540994,0.0527248,-0.003183787,0.002603833,-0.002302845
1.022125,0.05005181,0.0539632,-0.002416827,-0.0004289665,-0.0009393145
1.022632,0.04671204,0.05427822,-0.0005900586,-0.0009828851,-0.0006137002
1.022899,0.04906664,0.05393042,0.002700492,-0.001646439,-0.0007908309
1.023801,0.04693144,0.0522372,0.004470734,0.0004852231,-0.0001395712
1.022874,0.04477726,0.05087622,0.002465703,0.0009462456,-3.032145e-05
1.021596,0.04613372,0.05124952,0.001811965,0.002176348,0.0009298343
1.022378,0.04646656,0.05169496,0.003151623,0.005258073,0.001066276
1.022723,0.04838856,0.05090396,0.004030268,0.003928697,0.0004473814
1.023807,0.05066374,0.04950589,0.002857886,0.00420139,0.002632634
1.025311,0.04927941,0.04808101,-0.0002190308,0.005050687,0.003594821
1.023229,0.04646568,0.04735817,-8.00102e-05,0.00162284,0.000708304
1.020324,0.04493331,0.04721071,0.0005879528,-0.002702992,-5.235516e-06
1.02043,0.04245694,0.0464608,0.0008164726,-0.005351082,8.492093e-05
1.020296,0.04127169,0.04751885,0.002820915,-0.005442536,-0.001019414
1.019662,0.04564435,0.05089169,0.001274597,-0.004821262,-0.0002075918
1.023302,0.04800625,0.05398977,-0.001605854,-0.000239449,-0.001566314
1.028188,0.04447956,0.0563763,-0.00346171,0.006186625,-0.004379863
1.027787,0.04290272,0.05600021,-0.003227634,0.005415501,-0.004964496
1.023658,0.04830896,0.05499405,-0.0006870046,0.004085683,-0.002384965
1.021203,0.05376281,0.05680163,-0.002521161,0.005435112,0.002470775
1.022025,0.05111787,0.05681924,-0.003518586,0.002734219,0.0007703915
1.022968,0.04837689,0.05398527,-0.001256183,0.002676796,-0.002867089
1.022832,0.04909192,0.05209439,0.001245229,0.007908735,-0.003983504
1.023766,0.04811271,0.05189329,0.004754897,0.01091145,-0.007768365
1.023674,0.04922251,0.0506736,0.0005322795,0.01139131,-0.004246768
1.021365,0.05165765,0.04758059,-0.004762114,0.006278165,0.001544514
1.020444,0.05342309,0.04806222,-0.001905142,-0.0003942679,-0.0005693506
1.020971,0.05527003,0.04930365,-0.001774817,0.003277649,-0.0007999777
1.021818,0.05539599,0.04618583,-0.002722563,0.007196948,-0.001444748
1.022558,0.0549878,0.04613029,0.0005203011,0.005338132,-0.004466873
1.022162,0.05112389,0.05060917,0.003192172,0.007811809,-0.00471844
1.022139,0.046817,0.05449024,0.004135777,0.007284417,-0.004392819
1.02198,0.04859553,0.0554408,0.003392688,-0.002709395,-0.002609323
1.020335,0.04972444,0.0526961,0.002699404,-0.01360291,0.0002588267
1.018972,0.04980107,0.04930777,0.002748384,-0.01979639,0.00583403
1.01955,0.0520942,0.04756976,0.002017148,-0.02006999,0.01287153
1.021642,0.05174767,0.04961628,0.0005653875,-0.01855979,0.01090006
1.022787,0.05075986,0.05128269,-0.001118897,-0.01640359,0.005201996
1.023354,0.05136105,0.0496828,-0.0001602133,-0.01000152,0.005181033
1.024664,0.04932481,0.05099309,0.001622216,-0.002036497,0.00519272
1.02498,0.04598104,0.05300982,-0.0002934498,0.0003796475,0.004729386
1.023267,0.04605322,0.05581337,-0.001932056,-0.006819306,0.004967049
1.021447,0.04952824,0.05742873,-0.001293494,-0.01304124,0.00394019
1.021791,0.05222127,0.0547358,-0.0007495391,-0.01120525,0.00551863
1.020907,0.04995508,0.05656592,6.374238e-05,-0.008558184,0.007234667
1.0185,0.04719377,0.05595977,0.0001606366,-0.007018151,0.006859807
1.019351,0.04891377,0.05195449,-0.0007497223,-0.01104999,0.006909908
1.020527,0.04911093,0.05277464,-0.001347375,-0.01621046,0.004982432
1.021676,0.04775986,0.05136687,-0.001212143,-0.01129201,0.003445729
1.024025,0.04812892,0.05180401,-0.001782259,-0.006601747,0.003911637
1.021385,0.0462124,0.05210843,-0.003212813,-0.007105696,0.004122172
1.018484,0.04328143,0.04892269,-0.002475702,-0.006203903,0.00417162
1.023185,0.04166645,0.04970972,-0.001843404,-0.005256218,0.003197201
1.02678,0.04355618,0.04810339,-0.001999981,-0.005036141,0.002725416
1.02472,0.04734918,0.04758268,-0.0002822701,-0.004107532,0.002563529
1.024456,0.04505178,0.05071965,-0.0001370164,-0.0020796,0.001201385
1.02556,0.04327534,0.05124132,-0.002728794,-0.0002894861,-0.0003342776
1.024794,0.04658313,0.0525418,-0.004191034,0.001525519,-0.0006387217
1.02452,0.04773378,0.05241555,0.001001831,0.002977258,0.0005919453
1.023289,0.04853517,0.05181884,0.006763932,0.00186728,-0.0006945186
1.020408,0.0472059,0.04838308,0.001119171,0.002993191,-0.005467904
1.019505,0.04346322,0.04326559,-0.004689173,0.008577448,-0.01058465
1.01956,0.04365919,0.046394,-0.00259901,0.01408644,-0.01284349
1.019561,0.04494447,0.04676346,-0.002918772,0.01692499,-0.01300687
1.021725,0.04868325,0.04537904,-0.004143051,0.01744741,-0.01439372
1.0246,0.05280672,0.05126451,-0.003081981,0.01779675,-0.01387485
1.025598,0.04882432,0.05333367,-0.003125454,0.01722474,-0.01393083
1.02496,0.04538192,0.05030436,-0.003514697,0.0171541,-0.01514738
1.024711,0.04771181,0.04773684,-0.005805057,0.01854556,-0.01336959
1.025261,0.04820169,0.04998706,-0.008404892,0.01827853,-0.01453638
1.024413,0.04999666,0.05294017,-0.005335365,0.019125,-0.01485985
1.022002,0.05610928,0.04978979,-0.001462432,0.01946606,-0.01123359
1.019332,0.05822438,0.04964549,-0.002666673,0.01517662,-0.009213758
1.018695,0.05558646,0.05258958,-0.003445167,0.007717404,-0.006514672
1.020711,0.05503405,0.05650509,-0.00273607,0.0002000715,-0.004930232
1.022998,0.05495415,0.06124919,-0.003660105,0.001498886,-0.004284652
1.025368,0.05142952,0.05739914,-0.00152578,0.01072937,-0.004204041
1.023723,0.04893542,0.05326168,0.00169938,0.0160789,-0.006401914
1.018262,0.05165366,0.05529467,-0.0003993202,0.01078161,-0.00571217
1.016406,0.05371286,0.05397326,-0.0008735654,0.0002228405,-0.003487
1.015045,0.05314335,0.05177355,0.001547711,-0.002619825,-0.001853854
1.014237,0.05549239,0.05233713,-0.001089711,-0.003116712,-0.001599115
1.01535,0.05637093,0.0539877,-0.003449148,-0.01074891,-0.001065809
1.013427,0.05479004,0.05926795,-0.003321783,-0.02705158,0.004290353
1.014889,0.05627511,0.06401506,-0.004450283,-0.05428179,0.006550123
1.019126,0.05743452,0.06126128,-0.002516152,-0.07892244,0.008622906
1.02035,0.0581253,0.05565287,-0.0001882967,-0.08793621,0.0258244
1.023735,0.0552627,0.04849282,-0.0001872912,-0.07312472,0.04194858
1.027586,0.04444393,0.03875568,-0.002219006,-0.04163961,0.02885388
1.027897,0.03716571,0.03998444,-0.005792549,-0.02896667,0.008207732
1.023716,0.03850709,0.04749624,-0.004340987,-0.03683053,0.006663357
1.01882,0.03839711,0.04539608,-0.0009740583,-0.04244407,0.0001252524
1.019111,0.03508643,0.04538344,0.002387149,-0.04284447,-0.01017845
1.020831,0.03779465,0.04806397,0.004488321,-0.03298136,-0.006395571
1.025178,0.04307881,0.04568374,0.002550514,-0.01345193,-0.007387537
1.032207,0.04408165,0.04502185,0.004380012,0.004125326,-0.009816351
1.032915,0.04802725,0.04078327,0.004043766,0.01256756,-0.006283463
1.028822,0.05390196,0.03609228,0.001329485,0.01393674,-0.006954649
1.025875,0.05874083,0.0339472,0.0009271143,0.01584105,-0.006957984
1.024288,0.05964173,0.03055606,-0.00594367,0.01931396,-0.008944517
1.023783,0.05253686,0.03609585,-0.009351635,0.02036854,-0.01207895
1.023655,0.04874919,0.04103731,-0.005992037,0.02019024,-0.01073345
1.022109,0.04678561,0.04132982,-0.004430198,0.02272255,-0.0109414
1.02011,0.04426707,0.04727388,-0.004285975,0.02020013,-0.01033679
1.019293,0.04805519,0.0502253,-0.00636604,0.012282,-0.0090899
1.020881,0.05199337,0.05097195,-0.006265721,0.009574037,-0.009683402
1.026029,0.05632539,0.05160343,-0.005459549,0.01134584,-0.0086699
1.028772,0.05452571,0.04920958,-0.003064779,0.01977859,-0.009540949
1.025868,0.04797745,0.04828047,0.001288493,0.02612104,-0.01035607
1.022891,0.05090457,0.04743495,0.001470428,0.01926175,-0.006516594
1.022435,0.05195346,0.04449529,0.005032551,0.01290427,-0.003143699
1.022436,0.05267311,0.04028394,0.005798923,0.01188729,0.0004531627
1.021823,0.0563741,0.04043581,0.0005684633,0.008572016,0.00276863
1.022387,0.0527108,0.04193471,0.001247319,0.004794239,-0.004383805
1.022601,0.05203449,0.04015326,1.866948e-05,0.005175895,-0.01275764
1.022704,0.05204526,0.04424709,-0.002491767,0.005191951,-0.0150981
1.02425,0.04976217,0.04868149,-0.001056727,0.003948385,-0.01463837
1.023051,0.05141526,0.05068514,-0.001488968,0.004420841,-0.009786489
1.02058,0.04884732,0.0544117,0.0004281019,0.002657688,-0.005402876
1.019406,0.04953725,0.05063784,0.005029586,0.005859275,-0.001299904
1.021149,0.05671566,0.04741974,0.00738354,0.011981,0.004376585
1.026167,0.0597556,0.04913779,0.004863474,0.01117051,0.004583126
1.026308,0.06069245,0.0463391,0.0003155026,0.009290451,0.004683039
1.021152,0.05957047,0.04526529,-0.0002132986,0.005644215,0.003521331
1.016436,0.05519291,0.04748861,-0.002792256,0.001437573,0.0007005922
1.016049,0.04970836,0.05278845,-0.006608357,0.0007197065,0.003106233
1.020228,0.05012055,0.05869968,-0.005716167,0.006081526,0.001310247
1.021558,0.05443052,0.05359548,-0.006169537,0.01302025,-0.0009156052
1.020472,0.05206245,0.04694204,-0.007794845,0.004378989,-0.0006336118
1.020152,0.05233225,0.0495007,-0.007383562,-0.004734388,-0.002253288
1.019576,0.05399765,0.05370016,-0.003589094,-0.0009353158,0.003629191
1.019756,0.05134806,0.05545069,0.002580954,-0.006095988,0.008771214
1.020057,0.0512956,0.05185321,0.001220862,-0.01464044,0.006538878
1.023975,0.04501183,0.04632422,-0.004926055,-0.01062772,0.00391067
1.029433,0.03995962,0.04811816,-0.004545089,-0.002510935,-0.001319638
1.02957,0.04742936,0.04922915,-0.001375983,0.009647462,-0.007219337
1.027871,0.05282848,0.04575189,-0.0002150433,0.02083005,-0.006784
1.023933,0.05276915,0.04769559,0.001909918,0.01432584,-0.001598362
1.019229,0.05384949,0.04982461,0.004497603,0.006497583,-0.0002718286
1.021239,0.0550515,0.04954048,0.004655085,0.01139438,-0.0003432462
1.022944,0.05264541,0.05084629,0.003548831,0.01124184,8.713353e-06
1.018111,0.05110315,0.04952857,0.00300506,0.01144606,-0.00310779
1.015605,0.05288866,0.04979471,0.001626781,0.01513168,-0.00479718
1.018662,0.05517768,0.05049941,0.00110971,0.009044753,-0.006513633
1.020377,0.05994899,0.04838171,0.004688767,0.003189191,-0.006533692
1.019476,0.05867985,0.04821749,0.006698849,8.220785e-05,-0.00481169
1.020209,0.05351747,0.04710438,0.002060727,0.002553351,-0.00668302
1.022825,0.05281196,0.05023799,-0.002210064,0.01308564,-0.005740999
1.025231,0.05122271,0.05884547,-0.000843495,0.01220302,-0.004640666
1.026416,0.05560928,0.05936376,-0.0007003325,0.004667438,-0.002922766
1.023953,0.06041696,0.05358497,-0.003919615,0.0007592727,0.001378076
1.020088,0.05597954,0.05167311,-0.003726262,-0.003464648,-0.0005855496
1.021522,0.05364565,0.05303054,-0.002941689,-0.003485795,-0.001488197
1.024148,0.05149152,0.05316461,-0.004050044,0.0004249126,0.0009260039
1.023271,0.04765072,0.05341507,-0.003517748,0.005688159,2.627055e-05
1.022736,0.0506675,0.05280868,-0.003638934,0.001082587,-0.0004661648
1.022428,0.05736239,0.04527851,-0.003451754,-0.01137704,-0.0001739976
1.024034,0.05871998,0.03842623,-0.003797068,-0.01249215,0.002571739
1.027776,0.05357986,0.04486437,-0.004593818,-0.008928149,0.006738285
1.028109,0.05036067,0.05321773,-2.98898e-05,-0.0006358415,0.005828693
1.026651,0.05374227,0.04931601,0.003643851,0.01011804,0.004317758
1.026135,0.05696514,0.04577113,0.001737472,0.006836187,0.004220053
1.025402,0.05344579,0.04645634,-0.002474898,0.005267378,-0.002616364
1.02217,0.05043199,0.04440532,-0.005755043,0.01284372,-0.01052046
1.018621,0.05118257,0.04757782,-0.002612537,0.01968005,-0.01086454
1.022486,0.04766064,0.05166311,0.005137541,0.02720251,-0.01478063
1.026732,0.0456324,0.0514268,0.01066227,0.02895096,-0.02046803
1.021877,0.05259979,0.05105303,0.008878188,0.02608681,-0.01069093
1.018215,0.0645849,0.0471627,0.002301748,0.02736347,0.008838662
1.019806,0.07424838,0.04399367,-0.006866675,0.02707912,0.02390462
1.019027,0.07575517,0.04620036,-0.02090901,0.01495692,0.028181
1.016477,0.07124099,0.05529422,-0.02790809,-0.02040379,0.02432284
1.015792,0.06416217,0.06278035,-0.02935868,-0.06630993,0.01876205
1.020352,0.05912481,0.0514978,-0.04303907,-0.07717795,0.005528872
1.026776,0.05474158,0.03796635,-0.06165632,-0.06214238,-0.004248891
1.025159,0.04672662,0.04189956,-0.0681147,-0.06908206,-0.001851527
1.020927,0.04186546,0.04815399,-0.05487626,-0.08614829,-0.009326137
1.020882,0.03748971,0.04807741,-0.03222445,-0.1062631,-0.01833931
1.020141,0.03260602,0.04655659,-0.01873145,-0.1260003,-0.0170024
1.019113,0.03445832,0.04357104,-0.01258084,-0.1121712,-0.02630455
1.017864,0.03456641,0.04454898,-0.005636359,-0.1004657,-0.04654305
1.017312,0.03316095,0.04751056,0.001290842,-0.1125797,-0.0636272
1.019023,0.0359684,0.0458088,0.001726751,-0.1102154,-0.07323811
1.018891,0.03651455,0.04906436,0.008538168,-0.1082983,-0.07605124
1.020427,0.03929011,0.051467,0.03476129,-0.1108828,-0.07314124
1.022752,0.04873414,0.04033352,0.04667763,-0.1044775,-0.07017825
1.020247,0.06268664,0.02866696,0.03236973,-0.1068781,-0.07529748
1.014376,0.07736954,0.02449497,0.01364658,-0.1103965,-0.08481844
0.9294012,0.347555,-0.1843692,-0.001305313,0.04260209,0.142357
0.9294414,0.3492597,-0.1855994,-0.004187219,0.04213557,0.1414121
0.9285887,0.3555552,-0.1851134,-0.003560917,0.04287485,0.1435412
0.9296041,0.3622638,-0.1893205,-0.002656745,0.04770831,0.1462589
0.9290949,0.3639146,-0.1900357,-0.003961804,0.05076397,0.1443487
0.9289139,0.3577221,-0.1888408,-0.006211099,0.05178323,0.1433362
0.929732,0.349833,-0.1909224,-0.006438331,0.05697569,0.1426837
0.9300982,0.3520252,-0.1917646,-0.006011768,0.06513349,0.138878
0.9323867,0.3546016,-0.1959851,-0.006723833,0.07513703,0.1364276
0.932096,0.3507818,-0.2014034,-0.007642372,0.07940089,0.1323616
0.9285591,0.3516714,-0.1953217,-0.008313002,0.07592752,0.1276923
0.9268092,0.3523204,-0.1850657,-0.008257257,0.07126217,0.1266926
0.9264193,0.3504592,-0.1830135,-0.008569577,0.06649891,0.124209
0.927434,0.3531381,-0.184635,-0.008856083,0.06351368,0.1258465
0.9296538,0.3552277,-0.1881133,-0.007515861,0.06181908,0.1296456
0.9292617,0.3565141,-0.193286,-0.006163054,0.06360394,0.1270022
0.926209,0.3577704,-0.1953318,-0.007029285,0.06829802,0.1280083
0.9258759,0.3554198,-0.1966614,-0.009268493,0.06843809,0.1309891
0.9278406,0.351531,-0.1974606,-0.01045432,0.06754024,0.1286977
0.9277376,0.3482394,-0.1971482,-0.01124247,0.06876059,0.1281451
0.9268093,0.3523734,-0.1974482,-0.01304183,0.06918628,0.1298549
0.9261843,0.3602156,-0.1969121,-0.01422743,0.06986528,0.130434
0.9261867,0.3587738,-0.1973774,-0.01301092,0.07197863,0.1302577
0.9259782,0.3570897,-0.1968269,-0.01382548,0.07458171,0.1306322
0.9226636,0.3593787,-0.1941652,-0.01914294,0.07508779,0.1326328
0.9218241,0.3570267,-0.1939049,-0.02090361,0.07404092,0.1362728
0.9313145,0.3536698,-0.1987314,-0.01669103,0.07572342,0.1398316
0.9414116,0.350563,-0.2052992,-0.01175527,0.08385005,0.1376563
0.9377685,0.350299,-0.2016903,-0.01097138,0.09452108,0.1316335
0.9310879,0.3527668,-0.1918924,-0.01447442,0.09450306,0.1293635
0.9315706,0.3508424,-0.1877331,-0.01591257,0.08569926,0.1290486
0.9296981,0.3507888,-0.1885346,-0.0163492,0.0815775,0.1277782
0.9285042,0.3517607,-0.1916977,-0.01643621,0.07852425,0.1245235
0.9302257,0.3508926,-0.1886061,-0.01508707,0.07390117,0.120397
0.9299253,0.354429,-0.1827916,-0.01551758,0.07338046,0.1197049
0.9312189,0.3548906,-0.1815648,-0.01379671,0.07319638,0.1185249
0.9295728,0.3523301,-0.1798771,-0.01176751,0.07222822,0.1173248
0.9282987,0.3530196,-0.1826281,-0.01128008,0.07406413,0.1204758
0.931052,0.352627,-0.1851283,-0.009369603,0.07646018,0.1205141
0.9295489,0.353079,-0.1827666,-0.01025147,0.07525695,0.1167606
0.9270735,0.3542894,-0.183835,-0.01169917,0.07040865,0.1155431
0.9242153,0.3536171,-0.1860627,-0.01264918,0.06812725,0.1149736
0.9241104,0.3539083,-0.1883092,-0.01320514,0.0692949,0.1127103
0.9274107,0.3564349,-0.1877795,-0.01081457,0.06738347,0.1115424
0.9263703,0.3577499,-0.1863508,-0.009140335,0.06488633,0.1109605
0.9289966,0.3535383,-0.1899901,-0.006922872,0.06626783,0.1064308
0.9316716,0.3505982,-0.1922461,-0.007519284,0.06760743,0.1027283
0.9276736,0.3520755,-0.1944819,-0.01123838,0.06816627,0.1039346
0.9246071,0.3536892,-0.1990904,-0.0108741,0.06814048,0.1056277
0.9232127,0.3583385,-0.2000522,-0.01320021,0.06727779,0.1066412
0.9262344,0.3611862,-0.1937353,-0.01662908,0.06883188,0.1060577
0.9292353,0.3583331,-0.1875,-0.01517437,0.07112997,0.1046274
0.9276091,0.3540936,-0.190369,-0.01463881,0.07265092,0.104263
0.9284192,0.3500164,-0.1916868,-0.0128324,0.07080051,0.104188
0.9297375,0.3510443,-0.1905504,-0.008223865,0.06279117,0.1043225
