accx,accy,accz,gyrox,gyroy,gyroz
0.7873638,0.4104304,0.4732112,-0.004033701,-0.1552454,0.1503906
0.7872865,0.4121585,0.4760389,-0.002834131,-0.1577591,0.1493786
0.7878707,0.4151119,0.4731766,0.000430541,-0.1582035,0.1460348
0.7885771,0.4107396,0.4705635,0.002149554,-0.1595037,0.1458812
0.789897,0.4085728,0.4720393,0.001155549,-0.1592687,0.14413
0.790829,0.411266,0.4694351,0.001093284,-0.1593327,0.1389774
0.7901055,0.4123411,0.4690211,0.004464681,-0.1625064,0.1386336
0.7902898,0.4130696,0.470883,0.007593046,-0.1631492,0.1391398
0.7918195,0.4146232,0.4700369,0.006089197,-0.1631953,0.1423024
0.7934975,0.4175004,0.4675481,0.005119216,-0.1603193,0.1474214
0.7946364,0.4189593,0.4644811,0.007168443,-0.1558555,0.1464572
0.7918442,0.4177353,0.4675391,0.007119726,-0.1574821,0.1459064
0.7891669,0.4179079,0.4713191,0.003682043,-0.156996,0.1459497
0.7912554,0.4176259,0.4688492,-0.002396724,-0.1504075,0.1436289
0.792433,0.4142862,0.4680344,-0.006561359,-0.1446688,0.143153
0.7911676,0.4114553,0.4679094,-0.004713897,-0.1447666,0.141942
0.7906742,0.4121309,0.4647346,-0.002867751,-0.1516603,0.1396154
0.7909658,0.4134241,0.4623703,-0.001105949,-0.1582292,0.1348505
0.7935728,0.4130413,0.462031,0.00552002,-0.1586702,0.1296536
0.7967887,0.4141643,0.4627388,0.008564701,-0.1556947,0.1320941
0.794303,0.4153298,0.4629911,0.005527874,-0.1536114,0.1366125
0.7902436,0.4151461,0.4643433,0.004615408,-0.1504566,0.1401118
0.7900135,0.416497,0.4674742,0.004146532,-0.1465634,0.1457816
0.7888876,0.4169187,0.4668279,0.00449591,-0.14807,0.1452409
0.7892491,0.4166561,0.4633081,0.007098595,-0.1523142,0.1414689
0.792224,0.4175754,0.4625073,0.006177378,-0.1546176,0.1443868
0.7917324,0.4172646,0.4626721,0.00481171,-0.1518871,0.1447681
0.791356,0.4165652,0.4622767,0.005893339,-0.1450842,0.141755
0.7924033,0.4159007,0.4625807,0.006533418,-0.1447711,0.1395145
0.7931473,0.4142795,0.4627565,0.007861945,-0.1491662,0.1343332
0.7951231,0.4125517,0.4632566,0.008065841,-0.151041,0.1365176
0.7948979,0.4128266,0.4640742,0.006677117,-0.1486514,0.1394877
0.7947233,0.4139076,0.4631022,0.005984735,-0.1399223,0.1304305
0.7965447,0.4124333,0.4621269,0.003990296,-0.1328885,0.124511
0.7953175,0.4114601,0.4634768,0.0008478447,-0.1307325,0.1243513
0.7927623,0.4117911,0.4643565,-0.0009785199,-0.1293771,0.1232882
0.7912266,0.4141933,0.4630623,-0.0007952282,-0.1269911,0.1218198
0.7911721,0.4183232,0.4602158,-0.001390066,-0.1229885,0.1167936
0.7922558,0.417405,0.4584325,-0.00470844,-0.1239535,0.1114674
0.7913298,0.4182882,0.4632183,-0.007253498,-0.1257151,0.1092018
0.7906738,0.4213203,0.4689343,-0.008118609,-0.124175,0.1072517
0.7920491,0.4145621,0.4660544,-0.005127052,-0.1244456,0.1036628
0.7952732,0.4083796,0.4637345,0.001283465,-0.1217131,0.1016512
0.7995687,0.4111322,0.4671474,0.001361746,-0.1187126,0.1025403
0.7982957,0.4124289,0.4670105,-0.001659298,-0.1190076,0.1019945
0.7931934,0.4110044,0.4653654,-0.001286533,-0.1174315,0.1018095
0.7909005,0.4120662,0.4638028,-0.002452707,-0.1154988,0.1037255
0.7910864,0.4130999,0.4604479,-0.002952113,-0.1139247,0.1061756
0.7920014,0.4154327,0.4607182,-0.001831421,-0.1125866,0.1090574
0.7898264,0.4196621,0.4584654,-0.002542252,-0.1105079,0.108631
0.7881644,0.4172808,0.4541011,-0.003859589,-0.105041,0.105599
0.7911322,0.4140249,0.4598427,-0.006396119,-0.1000212,0.1061936
0.7922486,0.4151113,0.4669037,-0.009893022,-0.09812593,0.1072104
0.7917795,0.4137291,0.4674835,-0.01195983,-0.09708346,0.1045498
0.7924819,0.4153009,0.4684507,-0.007548398,-0.1016449,0.1014922
0.7932538,0.4179915,0.4690911,0.0003885103,-0.1134685,0.09843539
0.7932189,0.4158558,0.4661184,0.0008842771,-0.1182048,0.09876112
0.7917205,0.4145597,0.4627448,-0.0007476219,-0.1146738,0.1018239
0.7919293,0.4127921,0.4642899,-0.0008934499,-0.1131748,0.1009317
0.7935167,0.4122424,0.4671876,-0.004606236,-0.1097015,0.09975576
0.7941039,0.4156803,0.467586,-0.006171985,-0.1054428,0.09915405
0.7913533,0.4170522,0.4708461,-0.005707778,-0.1056778,0.09753173
0.7871517,0.4150115,0.4715984,-0.003724454,-0.1055944,0.09593387
0.7894445,0.4129694,0.467023,0.001127236,-0.1036161,0.09256758
0.7936899,0.413805,0.4654746,-0.0004751682,-0.1022727,0.08994738
0.7955223,0.4144919,0.4626174,-0.003883683,-0.1012412,0.08975005
0.7963079,0.4137203,0.457269,-0.002002606,-0.1008632,0.09098729
0.7924819,0.4160074,0.4565188,0.0006918374,-0.1026823,0.09188801
0.7896786,0.4183029,0.4610157,0.005315797,-0.1029774,0.09213854
0.790378,0.4176526,0.4686193,0.005444004,-0.09876083,0.09033842
0.7899909,0.4153678,0.4726445,0.0008334619,-0.0937537,0.08561935
0.7893563,0.4127668,0.4704734,0.001241623,-0.09300606,0.08491587
0.7876625,0.4131454,0.4669564,0.001059494,-0.09563843,0.08570119
0.7880805,0.4144628,0.4642834,-0.0003513484,-0.09418193,0.0857306
0.7932047,0.4143912,0.4620316,-0.0007900944,-0.09115737,0.08810393
0.797315,0.4140894,0.4602907,-0.001274473,-0.08991872,0.08707248
0.7959561,0.4136534,0.4595869,0.003042621,-0.08631962,0.08557336
0.7919784,0.415245,0.4597286,0.004424567,-0.08656621,0.08487518
0.7909814,0.4175993,0.4617523,-0.0007029288,-0.08999032,0.0800471
0.7895878,0.4177804,0.4630145,-0.003532473,-0.09053464,0.07553575
0.7863742,0.4156411,0.4614017,-0.002287435,-0.09114223,0.07412219
0.7860633,0.4123966,0.4606389,-0.0005269573,-0.08607401,0.07378829
0.7877913,0.4118155,0.4601777,-0.002602579,-0.07749727,0.07117908
0.7896967,0.4118021,0.4604593,-0.004132499,-0.07662055,0.06854487
0.7890611,0.412205,0.4641174,-0.002641424,-0.07842804,0.06918747
0.7883927,0.4158537,0.467133,-0.0007900949,-0.07945729,0.07029221
0.7905582,0.4164319,0.4628965,0.001959822,-0.08047844,0.07118371
0.7912329,0.4170749,0.4574727,0.001281803,-0.07569162,0.06990462
0.7915032,0.4206836,0.4619326,0.0003601207,-0.06793818,0.06853642
0.7898301,0.4185665,0.4661729,-7.353576e-05,-0.06514959,0.06899703
0.7860451,0.4159997,0.4647113,-0.004956968,-0.06649322,0.06646374
0.7857325,0.417035,0.4658126,-0.007379639,-0.06662051,0.06484477
0.7860532,0.4165032,0.4662095,-0.006965574,-0.0643342,0.06715655
0.7852335,0.4166127,0.4665362,-0.005963993,-0.06319023,0.07022703
0.7848516,0.4170509,0.4673116,-0.00434846,-0.06447783,0.07179336
0.7862468,0.4173207,0.4676525,-0.00323995,-0.06814993,0.06950825
0.7884423,0.4184965,0.4749398,0.0009038623,-0.07320211,0.06728476
0.7874958,0.4181145,0.4818148,0.002198647,-0.07398413,0.06654214
0.7870253,0.4172519,0.4780908,-0.001063549,-0.07060127,0.06523034
0.7879579,0.4155958,0.4696744,-0.003681131,-0.06735971,0.06493801
0.7874714,0.4129971,0.4645525,-0.006632033,-0.06352727,0.06347929
0.7883509,0.4147677,0.4637266,-0.005099876,-0.06264917,0.06042624
0.7893373,0.4196181,0.4620664,-8.498086e-05,-0.06613468,0.05832122
0.7888134,0.4188718,0.460187,0.002274132,-0.06696061,0.05771186
0.7887913,0.4126484,0.4632215,0.002256857,-0.06403638,0.05825647
0.7889725,0.4122093,0.4664422,0.001132358,-0.0608519,0.05728903
0.7888814,0.416984,0.4669087,0.00247928,-0.05954474,0.0561746
0.7888476,0.4170398,0.4694615,0.003400312,-0.05904552,0.05677554
0.7889275,0.4176947,0.4702808,0.00162216,-0.05807093,0.05677051
0.7888858,0.4191952,0.4697208,0.0005538698,-0.05915784,0.05763411
0.7888555,0.4161056,0.4748198,-0.001841069,-0.05937051,0.05749699
0.7889376,0.4166919,0.4771839,-0.001894943,-0.05762507,0.05313892
0.789208,0.4181796,0.4716609,0.001133035,-0.05753976,0.05168062
0.7906858,0.4173302,0.4675956,0.0005359097,-0.05788307,0.05341117
0.7922307,0.4179196,0.4689519,-0.0006646217,-0.05967971,0.05137114
0.7920235,0.415984,0.4687139,-0.001077363,-0.06136499,0.050795
0.7920007,0.4163692,0.4653035,-0.001391428,-0.06001694,0.05172846
0.7926187,0.4175217,0.46726,0.002060341,-0.05904473,0.04991987
0.7914068,0.4158251,0.4711621,0.005719933,-0.05917034,0.05219153
0.7902403,0.4171065,0.4722322,0.0051863,-0.06094797,0.05374393
0.7906761,0.416914,0.4721778,0.003982208,-0.06401253,0.04968476
0.7909546,0.4171125,0.4696666,0.003686892,-0.06216214,0.04749689
0.7915484,0.4181898,0.4710389,0.0005551388,-0.0550629,0.04572938
0.789718,0.4141332,0.4750604,-0.001821352,-0.0524552,0.04434837
0.7851452,0.4117428,0.473798,0.001867224,-0.05743408,0.04319258
0.7841415,0.4144245,0.468597,0.00459896,-0.06010428,0.03838721
0.7859722,0.4185337,0.4654618,0.002847453,-0.05631266,0.03686132
0.7873769,0.4204359,0.4689973,0.002282151,-0.05151529,0.04163213
0.787838,0.4208385,0.4729877,0.002975788,-0.05010994,0.04581177
0.7873012,0.4208374,0.4770954,0.001850482,-0.05430771,0.0459509
0.7875363,0.4176509,0.4777066,-0.001250564,-0.0583821,0.0465842
0.7875792,0.4153886,0.4696492,-0.004321269,-0.05323521,0.0487513
0.7873608,0.4140195,0.4685961,-0.004263779,-0.04579945,0.04683428
0.7876442,0.4123097,0.4700077,-0.002591342,-0.04572626,0.04523341
0.7873996,0.4149697,0.4675872,-0.001915292,-0.04650712,0.04418099
0.7875271,0.4175013,0.4682692,0.0002827726,-0.04661081,0.03849251
0.7877265,0.4150691,0.4652167,0.001080283,-0.04918244,0.03574411
0.7882957,0.4131744,0.4664969,-0.0002865596,-0.05134748,0.03531747
0.7896246,0.4167602,0.4728782,0.003471965,-0.05505696,0.03350664
0.7907078,0.4197897,0.4744947,0.00841814,-0.0572334,0.03145974
0.7920235,0.4194731,0.47248,0.01245369,-0.05431834,0.02248784
0.7918412,0.4211389,0.464546,0.01764319,-0.04545292,0.01275247
0.7903258,0.4214022,0.4592135,0.01808188,-0.03242798,0.01182724
0.7903502,0.4196456,0.4599319,0.01963371,-0.02868788,0.01230434
0.7911941,0.4175624,0.4589904,0.02173609,-0.02065,0.009264196
0.7906479,0.4114498,0.4544574,0.008856294,-0.0003637393,0.004861143
0.7856068,0.4085026,0.4539158,-0.01201019,-0.001067219,-0.0005440799
0.7802829,0.4143319,0.4643482,-0.01964277,-0.01651854,-0.004544028
0.7839975,0.4205629,0.4731777,-0.01074818,-0.02276009,-0.0009462885
0.7884794,0.4218811,0.4770136,-0.004682423,-0.02378756,0.009120917
0.7851519,0.4217259,0.4796025,-0.01017824,-0.02336438,0.01694039
0.7835898,0.4231534,0.4817005,-0.01134085,-0.03127439,0.01568291
0.7838484,0.4243857,0.4860802,-0.009878727,-0.03516248,0.01298894
0.7822824,0.4245634,0.4833264,-0.01413368,-0.02326351,0.02253325
0.782891,0.4259291,0.4801656,-0.01443996,-0.01678687,0.03083053
0.782424,0.4263462,0.4808151,-0.01125883,-0.01933766,0.03117698
0.783884,0.4225774,0.4720556,-0.00364918,-0.0260836,0.03539084
0.787762,0.419576,0.4634279,0.0105482,-0.03612063,0.03355423
0.7851394,0.4219774,0.4669818,0.0157126,-0.04867261,0.02967888
0.7808662,0.4276666,0.4753946,0.01032025,-0.05744369,0.03475413
0.7786248,0.4321261,0.4790948,0.003203662,-0.0516684,0.039948
0.778909,0.4305274,0.479865,-0.004607379,-0.04808952,0.04473041
0.7841368,0.4257971,0.4777337,-0.004354498,-0.04874637,0.04397787
0.7873658,0.4244023,0.4702176,0.001261966,-0.04211395,0.0378331
0.7884555,0.4238276,0.4650791,-0.001628256,-0.03506761,0.03525815
0.7903993,0.4192623,0.4645897,-0.004376131,-0.02645732,0.03034598
0.7918705,0.4124489,0.4635586,-0.001851211,-0.0246999,0.02321207
0.79248,0.4107865,0.4583505,-0.0007079466,-0.0278775,0.01858949
0.7909795,0.4136086,0.458347,0.005351908,-0.0255002,0.01655074
0.7916239,0.4125327,0.4641419,0.009013834,-0.02999564,0.01379978
0.7917837,0.4131713,0.4637722,0.004521387,-0.03309958,0.008920743
0.7873169,0.4210055,0.4701292,0.004536809,-0.02848746,0.01468406
0.7826719,0.4282233,0.4796342,0.002940313,-0.02906894,0.02639107
0.7789191,0.4306105,0.4798239,-0.006347771,-0.02675631,0.02933447
0.7803701,0.4303361,0.4815594,-0.01304773,-0.01844704,0.03293651
0.7827745,0.4320786,0.4828571,-0.008072024,-0.01431909,0.03755438
0.7818407,0.4311687,0.4835728,0.001378303,-0.01760935,0.03411824
0.7859143,0.4233755,0.4819993,0.001593601,-0.02684052,0.02813387
0.7890068,0.4162228,0.4752604,0.004540468,-0.03437247,0.0244065
0.7885034,0.4105683,0.4695129,0.01025486,-0.03741889,0.02340157
0.7908309,0.4088778,0.4632954,0.007003436,-0.03654365,0.02261833
0.7923113,0.409522,0.4638454,0.007106569,-0.03048934,0.01983002
0.7911129,0.4094635,0.4684686,0.007612631,-0.02663016,0.0190334
0.7876716,0.4169261,0.46964,0.004385401,-0.03013229,0.02075124
0.7846484,0.4238162,0.4716915,0.004889254,-0.03326175,0.02110902
0.7832336,0.42568,0.4747534,0.002461255,-0.02620501,0.02050149
0.7820495,0.4269951,0.4809706,-0.002908674,-0.01501613,0.02030615
0.7844509,0.4246909,0.4790936,-0.005751204,-0.01155852,0.01934751
0.7885208,0.4227172,0.4711842,-0.001515852,-0.01402524,0.01779163
0.7898645,0.4173785,0.4707989,0.007781677,-0.0192522,0.01529101
0.7901251,0.4134494,0.4655807,0.01047589,-0.0240448,0.01255743
0.7909011,0.4165306,0.4601572,0.009106367,-0.02667553,0.01147075
0.7906742,0.4151134,0.4614219,0.008335858,-0.02920117,0.01114185
0.7894966,0.4156616,0.4617084,0.005377761,-0.02774662,0.01317234
0.7871486,0.4186176,0.4638865,0.001543641,-0.02301473,0.01607937
0.7848098,0.419605,0.4662016,-0.0001635209,-0.01534122,0.01561877
0.7864122,0.4245017,0.4695678,-0.000638256,-0.005445436,0.01559165
0.7866742,0.4239196,0.4715406,-0.003618482,-0.00380433,0.01646664
0.785274,0.4197766,0.4717196,-0.002276727,-0.009646273,0.01487384
0.7868822,0.4193524,0.4756561,0.003484898,-0.01385369,0.01600444
0.78707,0.4182446,0.4704468,0.003743797,-0.01671843,0.01752846
0.7883493,0.4162827,0.4605915,0.003578122,-0.02203301,0.0119027
0.7901475,0.4128332,0.4605558,0.004136229,-0.02768869,0.008552959
0.7901055,0.4130449,0.4622773,0.00333175,-0.02785724,0.01020959
0.792163,0.4152332,0.4635133,0.002918669,-0.02233552,0.009992685
0.7911816,0.4133168,0.4665829,-0.002665359,-0.01392833,0.01072051
0.7892475,0.4150231,0.470495,-0.007593651,-0.003768149,0.00767484
0.7907049,0.4185399,0.4722106,-0.004266224,0.000401656,0.002132228
0.7901805,0.4206637,0.469696,0.0001477109,-0.006342109,0.002574623
0.7890977,0.4232817,0.4689307,0.0008015003,-0.01073574,0.003542008
0.7888739,0.4213483,0.468158,0.001577246,-0.007608084,0.003657743
0.7884737,0.4193155,0.467165,0.003294146,-0.008379031,0.003336198
0.7882128,0.4183974,0.4690135,0.001136611,-0.0119873,0.003142536
0.7870031,0.4142914,0.4678919,-0.003752482,-0.01171222,0.007741485
0.7863916,0.415349,0.4657301,-0.009373049,-0.00705636,0.01244285
0.7862074,0.4216481,0.4665349,-0.01165402,0.00167545,0.01254667
0.7857844,0.4242969,0.470801,-0.008230381,0.007347735,0.01033184
0.7863074,0.423157,0.474923,-0.007953899,0.004205233,0.009109586
0.7861728,0.4203058,0.4738165,-0.008295772,-0.001589747,0.007453116
0.7858853,0.4169839,0.4750952,-0.00547928,-0.007687009,0.005223956
0.7863327,0.4158362,0.47535,-0.002429952,-0.01331892,0.005314502
0.7863718,0.4172975,0.4693925,0.002370631,-0.009562424,0.004706683
0.7878436,0.4183388,0.4655144,0.0004630352,-0.004725495,0.004558839
0.7895836,0.4181658,0.4625299,-0.00422009,-0.008281242,0.004283786
0.7887685,0.4187306,0.4638247,-0.001494538,-0.00695974,0.001139124
0.7874908,0.4211384,0.4670865,-0.001061935,-0.001621008,0.000896726
0.7865439,0.4227131,0.466318,-0.001699588,0.001401682,0.004656568
0.7857319,0.4185529,0.4690867,-0.0002030645,0.004319572,0.008191095
0.7862708,0.4148873,0.4693135,-0.001633665,0.002154621,0.004584333
0.7872222,0.4169995,0.4653519,-0.001647574,0.0001845726,-0.002134697
0.7875981,0.4171572,0.4637319,-0.001962095,-0.0005849427,-0.001488453
0.7876316,0.4159034,0.4650766,-0.003193702,-0.004350867,-0.0005340141
0.7873905,0.4159222,0.4700784,-0.0021541,-0.003753348,0.0008540603
0.7874707,0.414249,0.4694242,-0.003134262,-0.002806404,0.004282339
0.7876242,0.4148106,0.4658919,-0.003734727,-0.003388177,0.001597233
0.7873853,0.4184982,0.4653264,-0.002549801,-0.001761945,0.0001893215
0.7873527,0.4203491,0.4650903,-0.0014837,-0.001155723,0.002878906
0.7866677,0.4194747,0.4699562,0.0009753741,0.0002753128,0.004292906
0.7857296,0.4189906,0.4737252,0.004472563,-0.0006040875,0.005670435
0.7864561,0.4190695,0.4738738,0.009387275,-0.004120108,0.006659877
0.7880694,0.4158462,0.4732186,0.008381239,-0.003691171,0.008306049
0.7892996,0.4125891,0.4693562,0.002995934,-0.002345686,0.008439003
0.7887841,0.414076,0.4680121,0.002846959,-0.002548827,0.005692134
0.7867143,0.4163507,0.4702929,-0.0008041248,-0.003664125,0.002550645
0.7857287,0.4168047,0.4734093,-0.003277763,-0.007371136,-0.001063745
0.7867147,0.4164765,0.4719153,-0.0003095661,-0.00967272,0.0009826148
0.7898734,0.4147703,0.4664089,-0.003857184,-0.004332687,0.005046832
0.7927383,0.4132616,0.4649027,-0.005151297,-0.001608995,0.0003480374
0.7914233,0.4142103,0.4646259,-0.00355047,-0.0103487,-0.004225438
0.7883105,0.4161457,0.4656787,-0.0009893025,-0.01794847,-0.004820616
0.7870286,0.4186043,0.4660576,0.006499766,-0.01876396,-0.005205873
0.7872858,0.4221573,0.4661123,0.00347781,-0.0152003,-0.0001294471
0.7881491,0.4244681,0.4694476,-0.0002378283,-0.01028933,0.004329353
0.7889019,0.4235804,0.4683555,0.005570826,-0.009854803,0.005435664
0.7890159,0.4205227,0.4690406,0.005656296,-0.01346901,0.01034895
0.7882895,0.4169276,0.4718298,0.006380847,-0.0196117,0.01490488
0.788434,0.4141975,0.4676758,0.01095181,-0.02088047,0.01742278
0.7895486,0.4152247,0.4656334,0.01390486,-0.01921527,0.01860683
0.7889041,0.4185106,0.4667941,0.01549895,-0.01964624,0.01592498
0.7894084,0.4202262,0.4668784,0.01058733,-0.01261601,0.0124386
0.7911038,0.420444,0.4664623,0.003868179,-0.006372285,0.01082644
0.7902079,0.4176886,0.4651511,-0.002375218,-0.002099139,0.008704537
0.7914836,0.4162154,0.4635863,-0.008526868,0.0115242,0.002278612
0.7952196,0.4164958,0.4605509,-0.009309003,0.02240409,-0.001937128
0.7972747,0.4113088,0.4570887,-0.01022758,0.02327761,-0.001227234
0.7972617,0.4086128,0.4545554,-0.008904956,0.0180111,-0.006855031
0.7939789,0.410097,0.4600499,0.0003434587,0.009713555,-0.01068803
0.791293,0.4125069,0.4690375,0.0051495,-1.245457e-05,-0.004057374
0.7910757,0.4187267,0.4660839,0.0009908829,-0.001473517,-0.001570015
0.7898106,0.4165828,0.465405,-0.00325546,0.01368698,-0.004188659
0.7875964,0.41191,0.4707108,-0.003822841,0.02154918,-0.004394631
0.7866077,0.4150766,0.4678458,0.0004398767,0.01574565,-0.003361783
0.7870251,0.4141131,0.4694299,0.006241312,0.01255784,-0.0009100165
0.786108,0.4149531,0.4729688,0.005987782,0.009952641,0.0006828798
0.786839,0.4182567,0.4686427,0.002630326,0.01046512,-0.0003402203
0.7902051,0.4160552,0.4690741,0.001178719,0.01122625,-0.003840947
0.7902385,0.4165461,0.4699449,-0.0008199972,0.009039661,-0.008145402
0.7884107,0.4171169,0.4666175,-0.0007320446,0.007503341,-0.007837575
0.7868318,0.4161778,0.4659314,0.0008290516,0.004597172,-0.003979894
0.7862197,0.417034,0.4654528,9.178433e-05,0.005761407,-0.003976
0.7864954,0.4164869,0.4663732,0.0009654973,0.006325247,-0.00622639
0.7858039,0.4159442,0.4672367,0.000447067,0.002991454,-0.004338921
0.7873187,0.4128891,0.4667614,-0.002322318,0.002093391,-0.004185681
0.7891289,0.4080115,0.4673231,-0.001156203,0.0007692462,-0.006036184
0.7896785,0.4079265,0.4662338,0.001182719,-0.0003211305,-0.004815607
0.7908452,0.4107852,0.4682326,0.001806103,0.0009161147,-0.006292144
0.7901516,0.4125796,0.4718242,-0.00312891,0.008042457,-0.007579596
0.7895234,0.4137618,0.4704506,-0.009373873,0.01536537,-0.0102074
0.7877679,0.4181583,0.4666063,-0.004182631,0.01056944,-0.0162182
0.7841053,0.4242114,0.4615362,0.001270241,0.005389862,-0.01400482
0.7844465,0.4248277,0.4589602,-0.001664293,0.007753277,-0.01021078
0.7865204,0.4226201,0.4601793,-0.001264407,0.007285546,-0.009611712
0.7880979,0.4228245,0.4644562,-0.000638842,0.005782052,-0.005616719
0.7904014,0.4196778,0.4684211,-0.004630872,0.007530102,-0.002839213
0.7907067,0.4143148,0.4665137,-0.006490078,0.006971481,-0.001832457
0.7894182,0.4146655,0.4656871,-0.004965835,0.005981098,-0.002179253
0.7880152,0.415382,0.4655372,-0.000802646,0.0071178,-0.003432846
0.7868466,0.4172345,0.4627665,0.003357344,0.006426156,-0.002804594
0.7871611,0.4228424,0.4629153,0.002424091,0.005709902,-0.003428454
0.7863266,0.4214819,0.4635821,-0.001167831,0.004592541,-0.004374581
0.784459,0.4190182,0.4665058,-0.001214178,0.002657876,-0.004760154
0.7861187,0.4210832,0.4707736,0.0006798237,0.002364458,-0.00574379
0.788571,0.4188595,0.4681245,-0.0006455765,0.00266344,-0.007047821
0.7899464,0.4174661,0.4657019,-0.003163244,0.006120346,-0.009518436
0.7910124,0.417026,0.47101,-0.004504471,0.00924912,-0.008961204
0.7899034,0.4139686,0.4756659,-0.002567413,0.006809482,-0.006925744
0.7903121,0.4151423,0.4741128,0.002860771,0.00351113,-0.007604798
0.791642,0.414761,0.4694717,0.0035111,0.003457784,-0.006561267
0.7914465,0.4110104,0.4650859,0.001173568,0.008085716,-0.006815125
0.7916921,0.4112798,0.4659681,0.001481937,0.01179688,-0.01062712
0.7897017,0.4128908,0.4680396,0.001661461,0.007875868,-0.01223869
0.7881745,0.4144181,0.4658946,0.002116524,0.003998191,-0.01057105
0.7890763,0.4142887,0.4665257,-6.72032e-05,0.007925847,-0.005244668
0.7892582,0.4133539,0.4671918,-0.003529026,0.01117965,-0.001279307
0.7906848,0.4152385,0.4650396,-0.002339818,0.009494073,-0.004311371
0.7921742,0.4155526,0.4659278,-0.0007456982,0.009812335,-0.007255913
0.7918672,0.4148595,0.4679089,-0.001620533,0.008989249,-0.00688843
0.7913607,0.4144397,0.4709895,-0.003603695,0.005494314,-0.007795183
0.7915161,0.4125121,0.473337,-0.00449389,0.003227796,-0.007723438
0.7910207,0.412238,0.4705026,-0.003520824,0.001644556,-0.006504521
0.7896964,0.4131616,0.4658152,-0.001878375,0.004807827,-0.00830158
0.7897961,0.414954,0.4650209,0.001920258,0.00809593,-0.009324534
0.7878765,0.4166564,0.4689653,0.00506854,0.004357939,-0.00933456
0.7856592,0.4152278,0.4712194,0.004223018,0.0008410615,-0.01076905
0.7896058,0.4144538,0.473228,0.002795239,0.002994261,-0.0104516
0.793309,0.414878,0.4726015,0.002205613,0.01197411,-0.0111636
0.7913535,0.413401,0.4662647,-0.0005421077,0.02078798,-0.01291948
0.7890846,0.4131459,0.4685484,-0.00284987,0.01652906,-0.01338695
0.7889329,0.4159578,0.471373,-0.002139625,0.009027009,-0.01401965
0.7886515,0.4199994,0.4669827,-0.00232653,0.01111792,-0.01225699
0.788907,0.4229551,0.4656438,-0.002029369,0.01149877,-0.01088933
0.7884474,0.4215155,0.4619252,-0.001315364,0.009729217,-0.01145802
0.7849602,0.4172052,0.4637907,-0.002333709,0.01091855,-0.009820956
0.7827982,0.4142039,0.4689864,-0.003184614,0.005998063,-0.005086069
0.7851122,0.4135198,0.4630697,-0.00507248,0.002769181,0.0003351132
0.7891868,0.4135921,0.461611,-0.005412106,0.008155377,-0.001147405
0.7902709,0.4124882,0.4660234,-0.003913822,0.01107988,-0.004044155
0.7890757,0.4147493,0.4671341,-0.002282438,0.008229852,-0.0005060945
0.7890049,0.4183346,0.4671344,0.0008940916,0.005350629,-0.0004422782
0.7887774,0.416021,0.4666864,0.0007253355,0.007181258,-0.002860034
0.7898443,0.4143006,0.470174,0.0003428266,0.007982298,-0.002788823
0.7908263,0.4141019,0.4717839,0.00238299,0.006303307,-0.00373284
0.790302,0.4131588,0.4687483,0.0002609429,0.005980976,-0.003282906
0.7922,0.4144527,0.4685978,0.000677973,0.003535549,-0.004321514
0.7936268,0.4138389,0.4682019,0.007353997,0.004663728,-0.008533476
0.7925757,0.4140325,0.4653048,0.0103114,0.009610466,-0.01114253
0.7901962,0.4171137,0.4626462,0.006140616,0.01096788,-0.01208433
0.7880445,0.4184607,0.4606893,0.001526483,0.009656966,-0.01208129
0.7887922,0.418506,0.4613201,0.003397532,0.007598433,-0.01327206
0.7892765,0.4175783,0.4661526,0.00515885,0.00857041,-0.01318846
0.7886618,0.4180575,0.4695155,0.002228137,0.00861545,-0.01015721
0.7887117,0.4188466,0.4687262,0.002402362,0.006758966,-0.008846882
0.7880865,0.4192999,0.4711601,0.0017112,0.008450734,-0.007906042
0.7873581,0.4217109,0.474838,-0.001554561,0.00733058,-0.007079133
0.788246,0.420886,0.4725717,-0.0005427912,0.002334034,-0.004774594
0.7898152,0.4190409,0.4680028,0.0002479691,-0.001205074,-0.0002763368
0.7902576,0.4187138,0.4659618,-0.0002351906,0.0009903716,0.0003466774
0.7901692,0.4160111,0.4657426,0.0005383898,0.005083581,-0.00275884
0.7888579,0.4135134,0.4666806,0.0005132853,0.001334368,-0.008957267
0.7880799,0.411103,0.4673033,0.0009826244,-0.0003577028,-0.01051748
0.789528,0.4109737,0.4661513,0.004160674,0.004105039,-0.001811821
0.7888663,0.4153747,0.4666607,0.00731757,0.006379947,0.002403721
0.7884302,0.4175947,0.4672968,0.00498516,0.007745476,-0.003144196
0.7896255,0.4164626,0.4669932,0.0006261944,0.003732624,-0.008273045
0.7894483,0.4143061,0.469044,-0.00200952,-0.001040354,-0.006326131
0.7910749,0.4125162,0.4699507,-0.003522969,0.002748751,-0.003566522
0.7933444,0.4131905,0.4708575,-0.001714341,0.006067701,-0.004783028
0.7941521,0.4169099,0.4714142,-0.001081576,0.005018647,-0.00327321
0.7922859,0.4208183,0.4693778,-0.0002906548,0.0008234865,-0.003910007
0.7878981,0.4188122,0.4701242,0.003364554,-0.004433008,-0.006189658
0.788558,0.4157531,0.4700299,0.001691565,-0.002948123,-0.00453362
0.7912826,0.4170292,0.467166,-0.00128076,0.001041423,-0.003328201
0.7925201,0.4165674,0.4665377,-0.00121289,0.00369615,0.0008218105
0.7951993,0.4154067,0.4690003,-0.001459914,0.00832443,0.003123419
0.7930331,0.4154248,0.4739657,9.201877e-06,0.007682941,0.0003612763
0.789955,0.4148986,0.474859,0.000635222,0.004728571,-0.0007816722
0.7913217,0.4160605,0.4686109,0.0005030974,0.006895046,-0.0007678439
0.7904078,0.4180125,0.463286,0.001181159,0.004193396,0.0005617892
0.7905656,0.4199776,0.4655543,0.0006509233,0.0003180063,-8.633337e-05
0.7925573,0.4197363,0.4688641,0.002335249,0.001559727,-0.0006196128
0.7914937,0.4164736,0.4676421,0.003451676,0.001159105,-0.0009774917
0.7913826,0.4146495,0.4695949,0.0007771428,0.00390704,-0.005902397
0.7920356,0.4132304,0.4706531,-0.0007201461,0.00638131,-0.007237424
0.7912634,0.412627,0.4681425,0.0009471443,0.003524928,-0.005429039
0.7908017,0.4132863,0.4687528,0.004045688,0.003798187,-0.004488184
0.7901107,0.4142451,0.4635011,0.00493603,0.004250008,-0.004302024
0.7902083,0.4183556,0.4571829,0.00456013,0.003569781,-0.004740545
0.7913,0.4189619,0.4608469,0.004538112,0.005634555,-0.001459078
0.7907396,0.4154958,0.4634859,0.001574983,0.007722333,0.0002590471
0.7891399,0.4164995,0.4628188,-0.003103149,0.009986978,-0.001578891
0.7888403,0.4174709,0.4634764,-0.005977996,0.01315955,-0.003360457
0.7908975,0.4171028,0.4630434,-0.005106125,0.01771478,-0.005809655
0.7933133,0.4182735,0.462435,-0.002514164,0.02098425,-0.007874348
0.7929717,0.4173664,0.4635059,-0.001281355,0.02027863,-0.008404685
0.7910266,0.4158628,0.4650085,0.001023251,0.01973855,-0.005407516
0.7899996,0.4158518,0.4648659,0.00346778,0.01799321,-0.003076887
0.7913291,0.4152524,0.4645962,0.002481795,0.01397104,-0.003084867
0.7940977,0.4145555,0.4666207,-0.001393195,0.0127132,-0.003103242
0.7942106,0.4137916,0.4689551,-0.004795206,0.01336466,-0.005428341
0.7904244,0.411939,0.4692305,-0.002549272,0.01206761,-0.007089226
0.7859344,0.4120667,0.4683268,0.001512122,0.005938182,-0.008885234
0.7857082,0.4133701,0.4653108,0.0005774454,0.0001807361,-0.00918778
0.789636,0.4130204,0.4626251,0.000608404,0.003970876,-0.006951185
0.791925,0.4140705,0.4700554,0.0005794227,0.008853787,-0.008730281
0.7919163,0.4143814,0.4796163,-0.002777915,0.006672546,-0.008488914
0.7915723,0.4127364,0.4765846,0.0006549991,0.005706032,-0.007457499
0.7916855,0.4115386,0.4719527,0.004328073,0.007223417,-0.00988331
0.7927992,0.4091455,0.470156,0.001095284,0.009717486,-0.009152708
0.7923072,0.4103238,0.4630094,0.001307777,0.01374847,-0.007984291
0.7886394,0.4141715,0.4603165,0.002763027,0.01032919,-0.00665771
0.7852681,0.4141656,0.4620335,0.002543589,0.004033762,-0.005448553
0.7881414,0.4150602,0.4598043,0.0026119,0.005521902,-0.005406495
0.7921354,0.4176914,0.4610569,0.001500033,0.007051895,-0.002954729
0.7888952,0.4194927,0.4635583,0.001294212,0.007443055,-0.002910823
0.7868796,0.4207138,0.4647736,-0.0008543793,0.009541013,-0.00342792
0.7885004,0.4193408,0.4687599,-0.004608139,0.009960388,-0.003244121
0.7889962,0.4165702,0.4688645,-0.00503046,0.01085157,-0.007464138
0.791611,0.4144255,0.4677029,-0.004257596,0.01132926,-0.008851751
0.7917384,0.4147531,0.4688433,-0.003747875,0.01085053,-0.002859892
0.790125,0.4149957,0.4686452,-0.002152586,0.007286314,0.00255313
0.792215,0.4122158,0.4728899,-0.0001784614,0.001076499,-0.001161165
0.7918362,0.4128043,0.4764663,-0.0004796119,0.002681626,-0.006784874
0.7899912,0.4165965,0.4710027,-0.002592822,0.005569283,-0.004913913
0.7895271,0.4185675,0.4672683,-0.003422136,0.003881391,-0.002681385
0.7884081,0.4177731,0.4681224,-0.001129149,0.006883611,-0.0009909753
0.7890394,0.4152447,0.4664932,0.002979601,0.009171353,-0.0007617512
0.7902747,0.4149831,0.4659701,0.003736057,0.008128199,-0.005128446
0.7911339,0.4143304,0.4673123,0.00214487,0.01142998,-0.006341232
0.7920127,0.4146841,0.4665041,0.001121944,0.01370759,-0.005297592
0.7907064,0.4180899,0.4664145,-0.0007781373,0.007677508,-0.003230303
0.789762,0.4172265,0.4670472,-0.0007939765,0.002264779,-0.001204337
0.7902812,0.4184657,0.4673031,0.0007149857,0.008536202,-0.005029008
0.7892543,0.4224107,0.4711612,0.001015353,0.01322511,-0.007386476
0.787789,0.4192278,0.4751306,0.0004648198,0.004155996,-0.003909183
0.788097,0.4156417,0.4739276,-0.001329106,-0.001826315,-0.0002887166
0.7894077,0.4141877,0.4723754,-0.0007570769,0.002823613,-0.001391062
0.7899944,0.4131094,0.4722952,-0.0003724325,0.005696501,-0.005343983
0.7900334,0.4143325,0.4705994,-0.003445981,0.004378223,-0.004943835
0.7894776,0.4139366,0.4710658,-0.003473149,0.004537313,-0.002392621
0.7875794,0.4137236,0.4727598,-0.004496373,0.007072473,-0.001899901
0.7873883,0.4151534,0.46934,-0.005416178,0.00807387,-0.004380522
0.7896098,0.4155119,0.4667724,6.375407e-05,0.005850245,-0.00710952
0.7901978,0.416292,0.4690884,0.001924325,0.001039295,-0.003954459
0.7877327,0.4168658,0.4718337,0.002675034,-0.003481525,-0.001579371
0.7857428,0.4163359,0.4746165,0.007370965,0.00158951,-0.005533118
0.7894247,0.4148558,0.4748974,0.008251639,0.008993417,-0.00774996
0.7931919,0.4132758,0.4736817,0.003190572,0.003195501,-0.005543105
0.7897601,0.4137836,0.474587,-0.002782924,-0.001633554,-0.004411348
0.7878922,0.4142434,0.4733088,0.002822307,0.001752757,-0.005635669
0.7912388,0.4136535,0.4688559,0.008680194,0.002350119,-0.006627803
0.7917983,0.4142674,0.4653304,-0.0005677357,0.006945981,-0.009319791
0.7886508,0.4157879,0.4661061,-0.007169139,0.01030994,-0.0123936
0.7856673,0.4176197,0.4683329,-0.00688607,0.00144025,-0.009201971
0.7861583,0.419628,0.4687533,-0.004000813,-0.006878615,-0.002592159
0.7893299,0.4212414,0.4712582,0.001898784,-0.006234857,0.0004152571
0.7910674,0.4205966,0.4709522,0.002156094,0.001244597,-7.075381e-05
0.7913686,0.4167682,0.46788,-0.0004367354,0.007061774,0.0002305172
0.7912321,0.4142398,0.4690505,-0.00338517,0.005817934,0.001028785
0.78988,0.4149874,0.4654542,-0.00682915,0.005962617,-0.00478249
0.7874588,0.4148336,0.4611451,-0.006343319,0.008419419,-0.01106077
0.7868231,0.4134038,0.4671668,-0.002795898,0.007651263,-0.005498885
0.7876581,0.4136828,0.4724583,0.001679051,0.005353427,-0.0002894726
0.7856424,0.4143154,0.4728585,0.001829175,0.002873236,-0.003346631
0.7847901,0.4136496,0.4724976,-0.0004890757,0.0001833674,-0.001520404
0.7893606,0.4138229,0.4692303,6.909667e-05,0.001572523,0.001458842
0.7928166,0.4146828,0.469823,2.369434e-05,0.005021629,-0.00304573
0.7902653,0.4163097,0.4803879,0.0001431275,0.003750895,-0.004594269
0.7873633,0.4186334,0.485589,0.0007907403,0.002292828,0.002156732
0.7890002,0.4164752,0.4727258,0.0005321031,0.002387721,0.006291396
0.7886349,0.4130288,0.4591319,0.001563556,0.002137054,-0.001407292
0.7865741,0.4139134,0.4621568,0.001530046,0.004259208,-0.009879436
0.7887678,0.4149072,0.4713757,-0.001388781,0.004858196,-0.006982633
0.7894042,0.4171264,0.4766351,-0.004020974,0.004074363,-0.004037238
0.7883055,0.4203948,0.479387,-0.003524675,0.005069647,-0.006509634
0.7882544,0.4180288,0.4718592,-0.002136292,0.006273792,-0.006058511
0.7870883,0.4159334,0.4623601,-0.001967387,0.006735934,-0.002361353
0.7874147,0.4205632,0.4671944,0.0001986192,0.001788572,-0.0003458584
0.7874446,0.4230629,0.4693921,0.001442945,-0.003253022,-0.003839345
0.7852571,0.4184731,0.4664027,-0.0006790749,0.001544789,-0.0051839
0.7834361,0.4152438,0.4698278,-0.0009292105,0.006401535,-0.002686157
0.7835335,0.417593,0.4715342,-0.0003589643,0.004634809,-0.003664688
0.7871599,0.4185048,0.473345,0.000667066,0.00474858,-0.002429552
0.7900742,0.4147408,0.4713546,0.002955924,0.005795892,-0.003567985
0.7892206,0.4120341,0.4657991,0.002069507,0.005047597,-0.008509281
0.7892061,0.412327,0.4700852,0.001161461,0.007742692,-0.009232528
0.7906634,0.4128368,0.4718259,0.001780804,0.01025532,-0.009207209
0.7896202,0.413411,0.4661791,-0.0006373967,0.00876976,-0.006994222
0.7882579,0.4144167,0.4644701,-0.002654977,0.005754054,-0.00658444
0.7902089,0.4161969,0.4648901,-0.001311656,0.003563946,-0.005473594
0.7916641,0.4197239,0.4648332,0.0002383827,0.003399087,-0.001249632
0.7916516,0.4246629,0.4638873,0.001558935,-0.004699283,-0.00296651
0.7911702,0.4266299,0.4664812,0.006578431,-0.01761084,-0.0003394781
0.7878698,0.4210105,0.4741589,0.0140551,-0.01854163,0.001961976
0.7854393,0.4144839,0.4770099,0.0136303,-0.01291103,-0.004267784
0.7877727,0.4131373,0.4706286,0.002849696,-0.003801179,-0.01031119
0.7909359,0.40827,0.4619562,-0.005843601,0.007891024,-0.01738248
0.7900237,0.4025835,0.4621794,-0.003811602,0.005255524,-0.01740776
0.7870258,0.4114515,0.4692415,0.001677745,-0.004904114,-0.009169662
0.7855434,0.4247508,0.473786,0.00354839,-0.005228523,-0.001585336
0.7848016,0.4260055,0.4776152,0.004362093,-0.000977679,0.001638766
0.7846863,0.4219579,0.4807775,0.001242538,0.002935979,0.0004399411
0.7837661,0.4201197,0.4801829,-0.003961648,0.002316348,0.002770921
0.7831948,0.4224142,0.4742254,-0.003300903,-0.001242416,0.00436866
0.7853945,0.4241187,0.4666034,-0.003551492,0.001502085,0.005506172
0.7865822,0.4186785,0.4655647,-0.004775669,0.0001521796,0.006973991
0.7865931,0.4149929,0.4674941,-0.001098316,-0.006804866,0.003704044
0.7880457,0.4167427,0.4685303,0.0003200219,-0.008580967,0.005086121
0.791176,0.4171877,0.4698422,-0.0009324425,-0.005728415,0.00444954
0.7923512,0.4160333,0.4699709,-0.002731665,-0.0002354925,0.001891971
0.7893697,0.4150884,0.4710228,-0.004363378,-0.003842643,0.005625989
0.7882671,0.4154635,0.4727738,-0.00129653,-0.009170394,0.003592087
0.7888912,0.4167829,0.4722031,0.001453571,-0.005798266,0.002468447
0.7878056,0.4172471,0.4695812,0.0007003633,-0.009260284,0.005602419
0.786582,0.4159559,0.4670775,0.002279437,-0.01002935,0.004496664
0.7864872,0.4146808,0.4652777,0.006935216,-0.004834472,0.004705199
0.7879739,0.4138684,0.4653129,0.009493424,-0.006229638,0.005070705
0.7879174,0.4135839,0.4683723,0.009308661,-0.005689678,0.006487024
0.7880625,0.4161946,0.4694379,0.009223725,-0.004527706,0.007518989
0.7904482,0.4176257,0.4658301,0.008229375,-0.005225669,0.001744018
0.790717,0.4181344,0.4616202,0.007339655,-0.004897277,-0.0003343891
0.7909461,0.4202061,0.4617857,0.006673563,-0.005080647,0.002067865
0.7917197,0.418951,0.4636968,0.005280516,-0.004448209,0.0007077149
0.7898996,0.4163983,0.4628745,0.004910866,-0.004947903,0.004011524
0.7883729,0.4149814,0.4640073,0.003400997,-0.005254878,0.007911517
0.7896444,0.4158183,0.4645739,7.406741e-05,-0.005872918,0.002584565
0.7909924,0.4185495,0.4628856,-0.003295197,-0.006907665,0.000421105
0.7901191,0.4175808,0.4634554,-0.003197881,-0.00446915,0.002239522
0.7898339,0.4151029,0.4622787,-0.001218997,-0.002450137,0.001946444
0.789756,0.4134095,0.4619736,-0.00357163,-0.002808484,0.005236348
0.7885546,0.4131018,0.4637619,-0.003257715,-0.003311447,0.007590708
0.7898799,0.4132362,0.4652371,1.673205e-05,-0.002327087,0.007374822
0.791795,0.4097859,0.4702318,-7.93966e-05,-0.001325871,0.007312494
0.7917374,0.409649,0.4717024,0.0005300021,-0.0009483466,0.005631771
0.7916913,0.4132047,0.4667367,0.0003460521,0.001863123,0.004671573
0.7916095,0.4133612,0.4630083,0.0009280917,0.003388097,0.0023424
0.7920279,0.415318,0.4631941,0.001839211,0.003975725,-0.002346076
0.7935189,0.4180649,0.4662493,-0.002382122,0.005849952,-0.006258403
0.7950699,0.4164176,0.46659,-0.004617581,0.006050133,-0.007434258
0.7950972,0.4161166,0.4673865,-0.003794336,0.008600262,-0.005866824
0.7931577,0.417324,0.4708269,-0.004192275,0.01241513,-0.00525917
0.7918524,0.416354,0.4676158,-0.006113795,0.01440801,-0.005882466
0.7913314,0.4165536,0.4650284,-0.007561821,0.01493774,-0.007494562
0.7883613,0.4170288,0.4678211,-0.002382613,0.008215877,-0.008666989
0.7846837,0.4168423,0.4673993,0.002466464,-0.002122398,-0.006647075
0.7856753,0.4195227,0.4679352,-0.0002222833,-0.004504746,-0.004092246
0.7883124,0.4211727,0.4673323,-0.004173912,0.005432583,-0.003190362
0.7907475,0.4182544,0.4601942,-0.006226569,0.01510247,-0.004047084
0.7958441,0.4154807,0.4561797,-0.006502751,0.01049748,-0.004605424
0.7946257,0.4168327,0.4615406,-0.00725114,0.007095948,-0.003381589
0.7895846,0.4188833,0.468199,-0.007109873,0.01035625,-0.0005286923
0.7901644,0.4176393,0.4655394,-0.001779563,0.004977111,0.004332747
0.7869349,0.416353,0.4632119,0.002412729,-0.0007923158,0.005667331
0.7845679,0.4164426,0.4663707,-0.0006454279,-0.001421603,0.00138428
0.7883392,0.416242,0.46496,-0.005136802,-0.00267551,-0.001157079
0.7887323,0.4141951,0.4664342,-0.005235717,-0.00127418,-0.0001899382
0.7906821,0.4113416,0.4668241,-0.004803577,0.001795295,-0.0001335923
0.7927808,0.4125575,0.4580233,-0.005430786,0.006585478,-0.001324999
0.7911538,0.4140941,0.4549923,-0.003687688,0.00911277,-0.00197279
0.7917431,0.4130194,0.4605124,5.611025e-05,0.003220303,-0.001089031
0.791787,0.4115438,0.4662011,0.004700765,-0.001447006,0.002147206
0.7914759,0.4091724,0.4644786,0.004721795,-0.0005781373,0.002940323
0.7915231,0.4118889,0.4618088,0.0006428137,-0.001573367,-3.109698e-05
0.7896773,0.4184679,0.4685364,0.0008747472,-0.004475302,-0.001333166
0.7884936,0.4204227,0.4725727,0.0008050557,-0.003392406,-0.00321416
0.7889738,0.4192159,0.4733657,-0.000188413,0.002085811,-0.003506859
0.7910433,0.4168608,0.4736327,0.001316403,0.009510217,-0.0007401826
0.7921399,0.4144538,0.4691992,-0.0002365254,0.01455148,-0.002536961
0.7912764,0.4132281,0.4676907,-0.001408769,0.009894416,-0.003729346
0.7898321,0.4122484,0.4685197,-0.003140208,0.002666563,-0.00327427
0.7882827,0.4105596,0.4696704,-0.007545653,0.0007813417,-0.004005955
0.7887998,0.4099936,0.4681334,-0.00570857,0.001251608,-0.00166112
0.7892409,0.4140015,0.4654267,-0.001785956,0.003811233,-0.0030414
0.7886168,0.4153581,0.4691123,0.0001224515,0.002597575,-0.005007451
0.7888016,0.4128234,0.4698311,0.0009617807,0.0001578594,-0.00321464
0.7878585,0.4152592,0.4671999,-0.001162512,0.001172775,-0.004682573
0.7862462,0.4176664,0.4664639,-0.0002943199,-0.0001925213,-0.004346335
0.7858066,0.4198161,0.466456,0.0002446431,0.0003875292,-0.002173815
0.786526,0.4231135,0.4691607,-0.001156115,0.0001162238,-0.001320946
0.7880214,0.4187887,0.4696996,0.001572965,-0.00312624,-0.001087403
0.7896411,0.4146573,0.4693892,0.002723347,-0.002480666,-0.00283454
0.7909676,0.4173777,0.4689386,0.002912499,-0.00110705,-0.002269241
0.7918094,0.419011,0.4654388,0.00328713,0.002054206,-0.001863031
0.7916559,0.4187011,0.4637853,0.001555245,0.002769505,-0.002722411
0.7896302,0.4160959,0.4673452,0.001838188,-0.00288532,-0.002769153
0.788259,0.4116439,0.4767353,0.001584361,-0.006236724,-0.004191031
0.7889756,0.4117379,0.4807549,0.0004400842,-0.005026926,-0.004340377
0.7890285,0.4134766,0.4741215,-0.001716641,0.000558312,-0.008330145
0.7887699,0.4118997,0.4692357,-0.005410099,0.004757011,-0.01337776
0.7889318,0.4115693,0.4686831,-0.005082212,0.002878869,-0.009421842
0.7887015,0.4129869,0.4655977,-0.00389742,-0.0005083479,-0.00584076
0.7881931,0.4159318,0.4605651,-0.002427103,-0.001795066,-0.004674177
0.7880848,0.4205449,0.4626581,0.0009730504,0.0005796408,-0.002647308
0.7890847,0.4196169,0.4676738,0.0007335931,0.001850447,-0.002427781
0.7893837,0.4164732,0.4684749,-0.001679239,0.003617231,-0.000142098
0.7894318,0.4157645,0.4706658,-0.00344268,0.006627867,-0.0009826831
0.7906751,0.4137332,0.4692514,-0.003571677,0.006052744,-0.002268045
0.7901268,0.4136452,0.465377,-0.001377558,0.007764379,0.002679704
0.7880933,0.4142481,0.4665127,-0.00117152,0.008724574,0.003787899
0.7880973,0.4136948,0.4670858,-0.002078273,0.007611587,0.00471854
0.7917521,0.4148759,0.4660284,-0.002034677,0.01008007,0.004664831
0.795874,0.4147543,0.4638464,-0.006233521,0.01301781,-0.001523891
0.793193,0.4144954,0.4626659,-0.01033016,0.01797153,-0.001046244
0.7870674,0.4156642,0.466775,-0.006149874,0.0216331,0.003173905
0.7859272,0.4161483,0.4707667,-0.003459673,0.0221922,0.006239174
0.7887328,0.4159445,0.4681989,-0.008598181,0.02025366,0.006983989
0.7922937,0.414501,0.4649893,-0.01099578,0.01151777,0.00244392
0.7916719,0.412429,0.4681126,-0.005831837,0.004631418,0.001942574
0.787129,0.4105358,0.4687502,0.002075857,0.001188663,0.001712318
0.785529,0.4108302,0.4662476,0.005989609,9.345408e-06,3.309646e-05
0.7858058,0.4128321,0.4676846,0.003362242,0.00254385,-5.772546e-05
0.7862226,0.4133889,0.4700067,0.001408576,-0.001367006,-0.004250299
0.7854119,0.4142866,0.4730831,0.004470854,-0.004215366,-0.006664896
0.7839157,0.4150565,0.4721234,0.00731427,-0.003078915,-0.00564015
0.7863392,0.4151154,0.4692203,0.00713969,-0.008027029,0.002333296
0.7910661,0.4154819,0.4715449,0.002622125,-0.007037698,0.01261868
0.7957903,0.4141777,0.4707087,-0.00357378,-0.002194175,0.005278263
0.7938718,0.4135076,0.4683254,-0.002521945,-0.001104252,-0.003922674
0.7865076,0.4142704,0.4678681,-0.001601926,0.006742237,-0.0005239765
0.7854822,0.4146855,0.4654781,-0.005614237,0.01015383,0.000133926
0.7863682,0.4159482,0.4642634,-0.001501264,0.005451139,0.001436229
0.7870288,0.417011,0.4638313,0.00394531,0.005272765,0.005948692
0.789141,0.4174165,0.4657026,0.002882943,0.001656218,0.003162519
0.7883531,0.4168357,0.4688271,0.003391682,-0.00204875,-5.604745e-05
0.7872937,0.4157083,0.4694446,0.003571877,-0.000552066,0.001097808
0.7856007,0.4152427,0.4723022,0.004110576,-0.004047865,0.0007330442
0.7857371,0.4137942,0.4746888,0.005456366,-0.00667011,0.001182756
0.7880927,0.4150747,0.4731645,0.002714189,-0.003823637,0.002540282
0.7878772,0.4180209,0.4715148,0.0001020359,0.0004870236,0.003391057
0.7882492,0.4164871,0.4704839,-0.0001483172,0.004076163,0.003989453
0.7866375,0.4161007,0.4706648,0.0005354913,-9.541004e-05,-0.001837566
0.7848685,0.4173441,0.471089,0.0008165073,-0.00668027,-0.007500656
0.7859314,0.4162747,0.4707328,-0.001613068,-0.005865344,-0.0007227163
0.7844704,0.4166799,0.4706099,-0.006184754,-0.003437673,0.005144399
0.7852393,0.4162053,0.4700184,-0.008765785,-0.0002370981,-0.002900753
0.7870442,0.4127644,0.4696809,-0.005386159,0.004987713,-0.008836838
0.7857072,0.4109791,0.4719783,-0.0006572383,0.001450326,-0.005225395
0.7867987,0.4141739,0.4745228,0.002326239,-0.00561589,-0.004773029
0.7899018,0.4185172,0.4721864,0.003682994,-0.004875738,-0.005427726
0.7925261,0.4168488,0.4676905,0.001290514,-0.003725055,-0.003874809
0.7915446,0.4154959,0.465961,0.0005795836,-0.001918203,-0.005226342
0.7871801,0.4176566,0.4660289,0.0009217894,0.001459757,-0.005258214
0.7858,0.4160415,0.4653545,-0.002047455,0.002079116,-0.004548666
0.7876673,0.4144953,0.4644734,-0.004252603,0.01010412,-0.005763824
0.7893894,0.4140021,0.469663,-0.004116406,0.02109934,-0.005499
0.7870195,0.4131332,0.4766831,0.0009128121,0.01699568,-0.004718
0.7830069,0.4146858,0.4753379,0.005274007,0.003701745,-0.001753468
0.7834875,0.4154402,0.4727021,-0.0001259792,-0.002688253,0.001343201
0.7852897,0.4186819,0.4699884,-0.005018028,0.001106264,-0.002645309
0.7864728,0.42246,0.4648231,-0.002462585,0.00600775,-0.007421531
0.7867404,0.419723,0.4680044,-0.0008878137,0.003525899,-0.006043467
0.7865486,0.4185341,0.4716503,-0.002076438,0.00234249,-0.003456052
0.788789,0.4196613,0.4683284,-0.001811595,0.006329654,-0.0006415212
0.7883518,0.4173442,0.4705874,-0.001601081,0.005575457,0.002668938
0.7856196,0.4145886,0.4764834,-0.0008190568,0.004277817,0.0003831835
0.7851715,0.4127896,0.4793356,0.001147987,0.002244391,-0.003251383
0.7844606,0.41302,0.4759541,-0.0014584,-0.003061465,-0.001720308
0.7849644,0.4149029,0.4691815,-0.00456261,-0.00123807,-0.000679295
0.7869819,0.4142093,0.4713726,-0.003886717,0.0008941283,0.000165662
0.7886675,0.4121428,0.4732434,-0.003963208,-0.0008747092,0.002265148
0.7895181,0.4125164,0.470675,-0.001921572,-6.211942e-05,0.001496674
0.7882231,0.412756,0.4732236,0.001306699,0.0001275601,0.000632512
0.786641,0.4124566,0.472844,0.000294238,0.0007281055,0.001448205
0.7841046,0.4145955,0.4736168,-0.0005560328,0.0001486413,0.003667342
0.7827942,0.4157765,0.4765476,0.0008511742,-0.004314236,0.006752182
0.7863747,0.4150932,0.4722918,0.0004903204,-0.007338814,0.007088773
0.7883775,0.4143184,0.4708897,-0.0003191236,-0.003646872,0.00488162
0.7864868,0.4138801,0.4707822,0.001149943,0.0006577738,0.000847159
0.7855496,0.4159439,0.4688537,0.004244687,-0.005928409,-0.002270715
0.7865607,0.4180008,0.4712607,0.007189817,-0.01080315,-0.001403047
0.7881394,0.4175082,0.4722108,0.004638391,-0.004125509,-0.001236728
0.7886328,0.415886,0.4735102,9.265561e-05,-0.0001793221,-0.00115692
0.7861589,0.4148079,0.4755067,0.00226185,-0.001594341,0.0006453037
0.7821628,0.414717,0.4758677,0.004461288,-0.002976729,-0.0007062187
0.7828618,0.4150354,0.4785944,0.003136212,-0.005474913,-0.002559469
0.786125,0.4159529,0.4766576,0.002085046,-0.008006993,-0.003562176
0.7854509,0.416568,0.4735135,-4.976187e-05,-0.006756873,-0.003496188
0.7848977,0.4193003,0.4749878,-0.000593469,-0.004935852,0.00171813
0.7849191,0.422088,0.4722328,-0.0009875353,-0.008093906,0.004916975
0.7834736,0.4195094,0.471556,-0.003220055,-0.009985814,0.003615284
0.7841858,0.4176175,0.4751004,-0.001505173,-0.008119167,0.002659835
0.7859386,0.4173942,0.4738309,0.001948675,-0.00543571,-0.00025911
0.7891405,0.4157475,0.4698872,0.003307171,-0.000359676,-0.003788038
0.7926866,0.4149668,0.4650657,0.003571083,-0.000632626,-0.004164779
0.7903463,0.4135444,0.4655841,0.003023198,-0.0119275,-0.001662855
0.7873785,0.4137725,0.4685333,0.004202191,-0.02032812,-0.0008943278
0.7893555,0.4162785,0.4655926,0.005176978,-0.009753696,-0.001617334
0.7903284,0.4174615,0.4673951,0.003478234,0.008759485,0.0007871282
0.7893555,0.4196529,0.4721245,0.002885404,0.01278533,0.001564369
0.7874851,0.4222332,0.4738637,0.00327175,0.005139659,0.001546425
0.7825126,0.4213234,0.474105,0.003687861,-0.008514638,0.005940123
0.7810883,0.4175723,0.4691471,0.005807417,-0.02091539,0.008567801
0.7853239,0.4151065,0.4678825,0.008450517,-0.01282056,0.00617393
0.7865964,0.4134589,0.4701856,0.007649989,0.0007399696,0.001671117
0.7842667,0.4083983,0.4690581,0.000550312,8.615303e-05,-0.004391148
0.78292,0.4066378,0.468682,-0.006946312,9.930575e-05,-0.00732452
0.7851505,0.4144403,0.4682046,-0.008754841,-0.0001285964,-0.003257596
0.7884917,0.4204203,0.4705853,-0.008910341,-0.004356888,-0.0007254614
0.7893234,0.4164972,0.4740604,-0.00816655,0.0001473761,-0.003601807
0.7894976,0.4140524,0.47416,-0.001324432,0.003852193,-0.004966509
0.785415,0.4202876,0.4746035,0.007180891,-0.0003403214,-0.004660744
0.7802051,0.4259367,0.4737643,0.009716502,-0.005659362,-0.003638895
0.7843016,0.4263304,0.4746895,0.00964612,-0.01020955,0.001587582
0.7882675,0.4230429,0.4770548,0.007122498,-0.001751571,0.006964422
0.7854808,0.4192003,0.4760064,0.0008730819,0.01219184,0.005701936
0.7855926,0.4203049,0.4761747,-0.0004167542,0.009456211,0.003861143
0.7869118,0.420074,0.475884,0.001282309,0.0009252683,0.007151212
0.7859823,0.4166449,0.4739078,0.0002468,-0.002504699,0.008429082
0.7879061,0.4182681,0.4730248,0.000938316,-0.00397522,0.007370962
0.7897537,0.4196721,0.4701084,0.00158979,-0.003274268,0.00748649
0.7887171,0.4186103,0.4683585,0.0008943828,-0.004223411,0.006502438
0.7887141,0.4174291,0.4705988,0.0006515425,-0.0040655,0.005441989
0.7890794,0.4123815,0.4731569,-0.00125812,-0.002269346,0.003147084
0.788801,0.4096094,0.4750144,-0.003180883,-0.002111107,0.001302271
0.7888988,0.4129095,0.4721553,-0.0041341,-0.0002045649,0.001837271
0.7888973,0.4185462,0.4674043,-0.003076091,-0.00288887,-0.001571598
0.7890739,0.423165,0.4693715,-0.0009286956,-0.006865661,-0.005315403
0.7897641,0.4187513,0.4709458,-0.00215363,-0.002187478,-0.003955381
0.7903808,0.4122962,0.4702069,-0.003130024,0.001667035,-0.002328491
0.7891519,0.4152793,0.4731009,-0.00290699,0.002144904,-0.001065186
0.786579,0.415814,0.4723969,-0.002263738,0.002420886,0.002414482
0.7854338,0.4123716,0.4694094,0.001573375,0.0007897313,0.005984574
0.7852156,0.4155736,0.4701608,0.004239266,-0.001018025,0.00760343
0.7848345,0.4180969,0.4717832,0.005062188,-0.003156643,0.007225141
0.7855647,0.4186697,0.4744906,0.005410174,-0.002996564,0.002088719
0.7872643,0.4200711,0.4742579,0.002958918,-0.00308793,-0.002828955
0.7872003,0.4172464,0.4728434,-0.001049444,-0.005099177,-0.0003077426
0.786465,0.4158972,0.4757301,-0.003866526,-0.001739328,0.002633905
0.7880727,0.4170257,0.4746514,-0.003023089,0.004596573,0.001400425
0.7896967,0.415803,0.470042,-0.003817441,0.01323844,-0.004213824
0.7900102,0.4131986,0.4686644,-0.007265293,0.01874567,-0.0119747
0.7883536,0.4099599,0.4693093,-0.00584865,0.01084391,-0.01345982
0.7839567,0.4109942,0.4700038,-0.003950573,0.002597948,-0.01286194
0.7826335,0.4140789,0.4699784,-0.003229845,-0.003979584,-0.01127369
0.785497,0.415393,0.4738164,-0.001601303,-0.01350516,-0.001226228
0.7867651,0.4197379,0.4769336,-0.003013298,-0.008236245,0.004220913
0.785559,0.423773,0.4701914,-0.004736762,0.004507409,-0.0003440437
0.7831682,0.423943,0.4648856,-0.007043696,0.007792055,-3.778395e-05
0.7812904,0.4218723,0.4709239,-0.009141305,0.009245994,0.004171188
0.7818576,0.4181226,0.4760098,-0.005738675,0.007928867,0.00591078
0.7836283,0.4159657,0.4714224,-0.002184606,0.001349576,0.005422519
0.7854406,0.4172091,0.4691797,-0.001044192,-0.00388845,0.003627401
0.787473,0.4189449,0.4725984,-0.0002119683,-0.003887854,0.004147239
0.7880548,0.4183277,0.4742158,-0.001394997,-0.0007481018,0.004277928
0.7867803,0.4193329,0.4774476,-0.00319249,-0.003812396,0.003696581
0.7857083,0.421971,0.4791862,-0.002941049,-0.008293643,0.00456494
0.7844338,0.420751,0.4778681,-0.001223222,-0.008134015,0.003907875
0.7842069,0.4197815,0.4773282,-2.523123e-05,-0.007194978,0.003913105
0.7853191,0.4187264,0.4739838,0.002125053,-0.003060229,0.004427053
0.7843428,0.4158787,0.4731109,0.00370084,-0.004208799,0.004734614
0.7835932,0.4181557,0.4710497,0.002925282,-0.009023614,0.00699057
0.7836811,0.420802,0.4646552,0.003530241,-0.007784859,0.007357019
0.7837477,0.4192717,0.4687383,0.002451914,-0.008951755,0.004340823
0.7853357,0.4200061,0.473703,0.002401102,-0.008393101,0.002258174
0.7848496,0.4215641,0.4706262,0.005176796,-0.006679631,0.005255589
0.7836616,0.420695,0.4732584,0.0036319,-0.009729689,0.009165018
0.7825436,0.4205972,0.4785708,0.005303484,-0.01230861,0.008606592
0.7800418,0.4207673,0.4796134,0.006853394,-0.01677783,0.00855469
0.7830188,0.4183599,0.4735921,0.001404085,-0.01446171,0.009331462
0.7873274,0.4148052,0.4644831,-0.001164186,-0.007475318,0.007211558
0.7860941,0.4133501,0.4665519,-0.004237555,-0.006322402,0.002987862
0.785675,0.4156193,0.4670536,-0.005588186,-0.002645056,-0.001512283
0.7865124,0.417724,0.4595352,-0.003064651,-0.002117672,-0.0004165241
0.7864701,0.4164857,0.4624915,-0.005206087,-0.002896018,0.00369351
0.7887604,0.4170047,0.4652551,-0.004041304,0.002062063,0.004721113
0.7912254,0.4206895,0.4623594,7.991575e-06,0.001109677,0.007515671
0.7899433,0.4223581,0.4655021,0.001828698,-0.001475492,0.008958409
0.7870246,0.4187059,0.4675524,0.004089799,-0.003233958,0.006063853
0.7856231,0.4131308,0.4697066,0.004849473,-0.01073656,0.004401439
0.7858496,0.4131228,0.4708843,0.008644039,-0.01903016,0.003591319
0.7868078,0.4146283,0.4675638,0.01140437,-0.02520825,0.005184868
0.7887554,0.4128651,0.4680204,0.009549421,-0.02562788,0.004659408
0.7936672,0.4136361,0.465766,0.01145723,-0.02193338,-8.106301e-05
0.7967945,0.4142739,0.463525,0.01306723,-0.01732562,-0.003421869
0.7913585,0.4119655,0.466208,0.01228325,-0.01092383,-0.01185686
0.7867931,0.4131147,0.4651497,0.01282596,-0.01228709,-0.01491639
0.790225,0.4187404,0.4653527,0.01248935,-0.01529954,-0.008898632
0.7920729,0.4244691,0.4650653,0.007580541,-0.01056521,-0.01184066
0.7898365,0.426047,0.4641117,-0.002819946,-0.00823461,-0.01136367
0.7874855,0.4240054,0.467007,-0.008181268,-0.00521946,-0.004735501
0.785466,0.421045,0.4661848,-0.005019058,0.001362168,-0.003159137
0.7871872,0.4168167,0.4666555,-0.003989703,0.008965457,-0.002222045
0.7910087,0.4131514,0.4674605,-0.004456982,0.01570144,-0.005911194
0.7912697,0.4120363,0.4655408,-0.0001679438,0.01035904,-0.006842074
0.7900487,0.4132439,0.4674572,0.003148257,0.004742165,-0.005095606
0.7900353,0.4146062,0.4666022,0.002318894,0.007210179,-0.006434444
0.7902519,0.4137512,0.4667709,0.006693903,0.002131973,0.0009382988
0.7887795,0.4142973,0.4711488,0.01533325,-0.01117097,0.005491696
0.7846329,0.417868,0.4729114,0.02157462,-0.03193684,0.001839376
0.7813936,0.420288,0.4747398,0.03129289,-0.05484434,0.001173496
0.7814834,0.4198758,0.4745664,0.04083883,-0.07388453,0.0003749927
0.7834555,0.4187928,0.4716736,0.03895726,-0.08097082,0.001060377
0.7872821,0.4196164,0.4640131,0.02712175,-0.04816139,0.003319159
0.7916185,0.4199644,0.4559991,0.008755543,-0.001379706,0.005786574
0.791072,0.4201784,0.457451,-0.00748257,0.01510564,0.009476731
0.7879905,0.4234085,0.4557694,-0.009346741,0.01834124,0.0108058
0.78949,0.4251611,0.4525345,-0.004375609,0.01752378,0.009529191
0.7914283,0.4235624,0.4556865,-0.003303731,0.01464812,0.006067913
0.7932455,0.4180321,0.452921,-0.004889893,0.01969003,0.001910678
0.7953264,0.4118167,0.4512762,-0.009580424,0.02280046,-0.002707361
0.7913334,0.4162072,0.4562338,-0.01443085,0.025941,-0.005528288
0.7889903,0.4251886,0.4571083,-0.01552344,0.03098853,-0.004513601
0.7907995,0.4274731,0.4584773,-0.01638841,0.03674122,-0.00698371
0.7898396,0.4266572,0.4620123,-0.02100585,0.04906482,-0.01038087
0.7877533,0.4258734,0.4652256,-0.02579359,0.05067888,-0.006187962
0.783423,0.4264216,0.4730222,-0.02483452,0.03179072,0.00100649
0.7808936,0.4264597,0.4786456,-0.02355229,0.01506221,0.003988628
0.784091,0.4230315,0.4787948,-0.02399367,0.0175437,0.002548475
0.7865496,0.4177607,0.4781455,-0.02187844,0.03116948,0.001561247
0.7862976,0.4123088,0.4753658,-0.02142392,0.04102743,0.002627591
0.7859837,0.4112335,0.475738,-0.02051741,0.04116057,0.00293275
0.7871723,0.4118893,0.4766592,-0.01517421,0.02867998,0.004255624
0.7878199,0.4101913,0.4738001,-0.01211191,0.01532555,0.006931255
0.787399,0.4117402,0.475299,-0.01365626,0.01544484,0.006409386
0.7875407,0.4133652,0.4765247,-0.01371922,0.01050687,0.006306443
0.7874309,0.4136329,0.4747668,-0.008295503,-0.006498471,0.009077919
0.78757,0.4147436,0.4717188,-0.002667466,-0.01131108,0.0081206
0.7874938,0.4132863,0.4662345,-0.001641503,-0.005822973,0.004093742
0.7874139,0.4138192,0.4681797,0.002202576,-0.00758698,0.0008359342
0.7874709,0.4145003,0.4717964,0.009044111,-0.01560775,-0.0002575975
0.7864601,0.4131492,0.4701869,0.009732881,-0.02405561,0.001958352
0.7859188,0.4143678,0.4726613,0.01166654,-0.02861466,0.005249041
0.78602,0.4126035,0.4731871,0.01640422,-0.02820877,0.007722626
0.7865775,0.4072862,0.4710195,0.0149014,-0.02337501,0.005997308
0.7879307,0.4040282,0.4741088,0.01587331,-0.01371197,0.001064979
0.7890978,0.4092217,0.4785701,0.01799886,-0.009239909,-0.002700894
0.7882046,0.4178193,0.482406,0.01644848,-0.01288778,-0.004393615
0.7858313,0.4163204,0.4788404,0.01808547,-0.01243622,-0.002646446
0.7858977,0.4183914,0.4716318,0.01522016,-0.008999035,-0.003186909
0.7866062,0.4264352,0.4748424,0.00752061,-0.003701265,-0.004493172
0.7865429,0.4246599,0.4768954,-0.0003072401,0.005091452,2.451101e-05
0.7872275,0.4224724,0.4732209,-0.007638337,0.005497137,0.001492731
0.7870007,0.4210614,0.47247,-0.01210894,0.001154954,-0.004665223
0.7894782,0.4165384,0.471995,-0.02082079,-0.005192585,-0.02160072
0.7969192,0.4148252,0.4760642,-0.02252348,-0.02452714,-0.05288071
0.8046422,0.4130173,0.4785174,-0.01826084,-0.03048676,-0.08853431
0.8073281,0.414816,0.4700919,-0.02984266,0.02070805,-0.1026811
0.8017908,0.4225809,0.459769,-0.04613816,0.114762,-0.06633279
0.7886135,0.4354916,0.4566546,-0.05487524,0.1580987,-0.01046416
0.7681981,0.4460339,0.4702131,-0.04762685,0.09440804,0.01006802
0.7564867,0.437924,0.4863541,-0.03108079,0.01775584,0.007567362
0.767189,0.4263667,0.4841559,-0.02835238,0.005918951,0.003719292
0.7793222,0.4238595,0.4787527,-0.02162236,0.007759163,-0.001465033
0.7836237,0.417635,0.480139,-0.007904182,-0.0002849002,0.00108851
0.7855506,0.4070831,0.484147,0.00576064,-0.01814213,0.004448881
0.7824674,0.391906,0.491119,0.03158985,-0.0608929,0.00230718
0.7865732,0.3842568,0.4916399,0.04036786,-0.07857795,-0.001419137
0.7916486,0.3925119,0.4813755,0.03171284,-0.04745939,-0.007468061
0.7867,0.3984655,0.4721898,0.0346172,-0.01710859,-0.003945254
0.7840333,0.4080188,0.4723306,0.03595162,-0.01321543,0.00588494
0.7795802,0.4237511,0.47505,0.03665409,-0.02524738,0.01076816
0.7770898,0.4304077,0.4735325,0.0396098,-0.03260282,0.0166277
0.7811555,0.43526,0.470636,0.02927132,-0.02788692,0.01311085
0.7806524,0.4379446,0.466471,0.01108237,-0.01608055,0.004081511
0.7834192,0.436161,0.4625633,-0.002608506,0.003539547,0.004703616
0.7874445,0.4355813,0.4613319,-0.01178253,0.02047671,0.002507024
0.786964,0.4330523,0.4576293,-0.02228242,0.02093755,0.001506401
0.7866792,0.4361364,0.45748,-0.03092176,0.018486,0.005428124
0.781829,0.4409818,0.4647169,-0.03591477,0.02098776,0.003709444
0.7798318,0.4351911,0.47029,-0.0390006,0.009259125,0.002797057
0.7846153,0.4266096,0.4764877,-0.03447891,-0.00619699,-0.00186859
0.7873722,0.4178364,0.4803914,-0.0256612,-0.008903364,-0.008197015
0.7872183,0.4109792,0.4827579,-0.01392926,-0.01391354,-0.001769291
0.7862074,0.407995,0.4898462,0.0003697046,-0.01989882,0.006895023
0.7870567,0.4026351,0.4875958,0.01176877,-0.02028023,0.01074541
0.7870307,0.4029549,0.4831863,0.02280644,-0.02133366,0.01218036
0.7864672,0.4070554,0.4848136,0.02432993,-0.02496809,0.008056002
0.7882041,0.4048717,0.4773045,0.02439554,-0.02529454,0.003273665
0.7883927,0.4054769,0.4721376,0.03939631,-0.01567216,0.002816417
0.7887586,0.4082202,0.4749521,0.04185577,-0.006745262,0.002287819
0.7883698,0.4116543,0.4721977,0.03432996,-0.007592107,-0.002845387
0.7867786,0.4204967,0.4658761,0.03699917,-0.008046555,-0.01006109
0.7876759,0.4242225,0.4611275,0.03044826,-0.003741299,-0.01472702
0.7874834,0.4253226,0.463497,0.0241973,-0.008338537,-0.01500524
0.7863613,0.4300152,0.468641,0.02440952,-0.0190294,-0.01353215
0.7862087,0.4298163,0.4678713,0.01740217,-0.01963837,-0.01420213
0.7869692,0.4285484,0.4675554,0.0135654,-0.01567863,-0.01510795
0.7890917,0.4304278,0.4664642,0.00389803,-0.008836453,-0.01541733
0.7904206,0.4303373,0.4619325,-0.01259592,-0.003343515,-0.01505556
0.7921621,0.4277755,0.4603262,-0.01805024,-0.004937732,-0.01129785
0.7934144,0.4258714,0.4594641,-0.01873926,-0.001124314,-0.007093309
0.791075,0.4279412,0.4607112,-0.01988145,0.003183088,-0.00624818
0.7885441,0.4295826,0.4673366,-0.01945925,0.004188301,-0.005790317
0.7886306,0.4251185,0.4720845,-0.01732473,0.005901521,-0.00272927
0.7888113,0.4197281,0.4714357,-0.01658078,0.007035225,-0.001202703
0.7868163,0.4172956,0.4699019,-0.01499685,0.01297509,-0.002197005
0.7847965,0.4145178,0.4716803,-0.009689624,0.01457001,-0.001605399
0.7852588,0.412878,0.474278,-0.009332943,0.009809992,-0.002252699
0.7865747,0.4142221,0.4768886,-0.00565067,0.008197436,-0.002083941
0.7860991,0.4150298,0.4786487,0.002670145,0.007580813,0.004870883
0.7848389,0.4179291,0.4737043,0.003881687,0.007649171,0.0116405
0.7846813,0.4224882,0.4678765,0.00861802,0.002752,0.01195541
0.7846427,0.4213226,0.4660391,0.01319524,-0.005014014,0.009860271
0.7849046,0.4194676,0.4669034,0.009252749,-0.008184312,0.008707657
0.7857414,0.4203087,0.4693475,0.009165355,-0.01369862,0.005247557
0.7862118,0.4174287,0.4671987,0.008963699,-0.01638685,-0.005981784
0.7870378,0.416377,0.4647938,0.002585161,-0.01135258,-0.02225258
0.789494,0.4225849,0.4643584,-0.0006991452,-0.006370836,-0.03081696
0.7923805,0.4294698,0.4653395,0.001747524,-0.0003053065,-0.02692388
0.7903298,0.4321364,0.4718186,0.006002823,0.005596958,-0.02261461
0.7860253,0.4303941,0.4743789,0.006446062,0.0093481,-0.02157941
0.7845229,0.4298051,0.4730434,0.003220925,0.009820953,-0.01516471
0.7784193,0.4313314,0.4730986,0.002248375,0.002715725,-0.008388361
0.7729827,0.4293692,0.4721285,0.003682563,-0.005418395,-0.008632405
0.7793633,0.4258648,0.4749596,0.005773006,-0.01120166,-0.009623032
0.7863889,0.4223854,0.4773631,0.005726493,-0.01124388,-0.008799156
0.78681,0.4201159,0.4746377,0.005910701,-0.004553567,-0.007210917
0.786696,0.4179762,0.4709187,0.009734282,-0.002559201,-0.002323952
0.7867674,0.4140605,0.4680011,0.01194064,-0.0004600931,0.002084209
0.7858497,0.4176528,0.4675393,0.01529365,-0.0002430878,0.002700547
0.7845833,0.4235739,0.4666952,0.01934628,-0.005971646,0.004823316
0.7828663,0.4250171,0.4662181,0.01855429,-0.005901084,0.009975762
0.7816796,0.4307165,0.4680644,0.01814542,-0.01019198,0.01193023
0.783541,0.431918,0.4675285,0.01605616,-0.01500696,0.01002875
0.786298,0.4267246,0.4643561,0.01203215,-0.009495174,0.009074323
0.7873007,0.4251058,0.4624038,0.01194972,-0.007301958,0.007015433
0.7892638,0.4234072,0.466441,0.01101762,-0.007178801,0.004034991
0.7900391,0.4257016,0.4715321,0.006325291,-0.005391757,0.00379244
0.7898296,0.4294717,0.4681244,-0.002011784,0.00166771,0.003224225
0.7912147,0.4264867,0.4638589,-0.009463537,0.009916754,0.00122035
0.7856092,0.4264709,0.4654361,-0.007795407,0.003316557,-0.002726279
0.7772597,0.4314639,0.4706584,-0.005662484,-0.007634792,-0.005201349
0.7795818,0.434099,0.4765779,-0.009229664,-0.01229785,0.003622655
0.7862862,0.4320663,0.4711714,-0.01026447,-0.005422799,0.0160931
0.7910726,0.4290905,0.4588453,-0.01260049,0.01515631,0.01767058
0.7928404,0.4309072,0.456044,-0.01790223,0.02908527,0.01589944
0.7884032,0.4321588,0.4570847,-0.02050174,0.03175829,0.01965505
0.7834584,0.4312079,0.4578167,-0.02313768,0.03097409,0.02126598
0.7820581,0.4310635,0.4595708,-0.02306539,0.02980507,0.01993635
0.7857014,0.4271058,0.461074,-0.02216157,0.03236935,0.02076345
0.7904959,0.4231948,0.4677278,-0.02248123,0.03177729,0.02142318
0.7855427,0.4218562,0.4764257,-0.01660037,0.02750602,0.02175386
0.7805926,0.4189758,0.4822998,-0.01060268,0.02323113,0.02205751
0.7834543,0.4189023,0.4812871,-0.0100115,0.02316766,0.02432778
0.7839144,0.4212331,0.4744063,-0.01488708,0.03938059,0.02718852
0.7871118,0.4191972,0.4742844,-0.02294258,0.06212497,0.02219207
0.7927744,0.4146487,0.4756722,-0.02527321,0.07430514,0.009814241
0.7908226,0.413682,0.4723348,-0.0242001,0.07812479,-0.003979956
0.7881453,0.4156773,0.4694736,-0.02431747,0.07823717,-0.007448036
0.7844195,0.417548,0.4691775,-0.02607384,0.07156451,-0.001611512
0.7764667,0.4190608,0.477596,-0.02576167,0.05367469,-0.004381036
0.7729109,0.421138,0.4863145,-0.01930635,0.02416406,-0.008037289
0.7712911,0.4260024,0.4903479,-0.01210944,-0.009519673,-0.006778726
0.770737,0.4284436,0.4949797,-0.006957879,-0.02312789,-0.006574066
0.7770221,0.4234281,0.4897593,-0.00694417,-0.01809623,0.001203142
0.7818587,0.4171898,0.4827831,-0.006878618,-0.01967231,0.008239711
0.7808131,0.4153357,0.4827719,-0.00123276,-0.01485244,0.01051186
0.7802536,0.416943,0.477405,0.002715946,-0.008581606,0.01625997
0.7820716,0.4153974,0.470725,0.01188558,-0.02055422,0.016641
0.785141,0.4108092,0.4682201,0.02406105,-0.02822255,0.01481356
0.7867755,0.4090142,0.469967,0.02656729,-0.02719172,0.01471001
0.7876972,0.4086244,0.4727553,0.02434204,-0.01799221,0.00751307
0.7929315,0.4067269,0.471899,0.02079524,0.002320703,-0.001236304
0.7980211,0.4042101,0.4749551,0.01903543,0.008374497,-0.002912306
0.7906425,0.4104815,0.4752071,0.01764882,0.002797659,-0.0001815532
0.7789228,0.4224087,0.468376,0.01571559,0.000962005,0.0026574
0.7789059,0.4262197,0.4656843,0.01584187,-0.004928582,0.003558327
0.7777254,0.4291256,0.4671429,0.008087198,-0.01597174,-0.002968316
0.7734535,0.4322354,0.4727451,-0.0001276792,-0.01889617,-0.0101055
0.7803934,0.4296266,0.4767002,-0.001435207,-0.003646411,-0.005463676
0.7860558,0.4284782,0.474329,-0.005710371,0.009231371,-0.001529574
0.7853447,0.4278076,0.471625,-0.01028512,0.0007088443,-0.005440581
0.7856991,0.4262234,0.4681696,-0.01557679,-0.01038115,-0.009516521
0.7856366,0.4230097,0.4653415,-0.01892332,-0.012114,-0.01504399
0.788552,0.414856,0.4613591,-0.01657559,-0.0114751,-0.01690375
0.7925453,0.4119162,0.4590638,-0.01323442,-0.005054745,-0.01453454
0.7928842,0.4158667,0.4712965,-0.002085673,0.0007424942,-0.01527222
0.7889468,0.4168481,0.4871265,0.01174034,-0.01072611,-0.01206391
0.7820349,0.4180176,0.4863261,0.01349054,-0.01817005,-0.006879078
0.778897,0.4222942,0.478066,0.004447196,0.002298967,-0.006866141
0.7787378,0.4245567,0.4762888,-0.002014794,0.02002427,-0.002716796
0.7771206,0.4238331,0.4751834,0.00371819,0.009355635,0.00300481
0.775109,0.4230646,0.477686,0.01014745,-0.005639789,0.004099738
0.7744154,0.4238333,0.4822808,0.01036464,-0.01454295,0.007881355
0.7754725,0.4241706,0.4764055,0.009047781,-0.02671647,0.01102882
0.777065,0.4250096,0.4712078,0.003199813,-0.01967159,0.01203208
0.7817195,0.4277574,0.4696408,-0.003668754,0.005000288,0.01476983
0.7867384,0.4292468,0.4655698,-0.005981975,0.01375809,0.01184858
0.7850469,0.4305843,0.4679385,-0.006610136,0.004397132,0.007309559
0.7833306,0.43048,0.4710322,-0.00812277,-0.008556466,0.008657693
0.7846551,0.4282943,0.4688786,-0.01183227,-0.004828445,0.01150856
0.7828407,0.4301104,0.4681376,-0.01767785,-0.0001077972,0.01849209
0.7818377,0.430557,0.4688253,-0.02153193,-0.01010856,0.02387288
0.7824583,0.4251279,0.4706232,-0.02144831,-0.004580929,0.01852723
0.7815904,0.4201133,0.4746823,-0.0203366,-0.001894026,0.01455215
0.7833285,0.4172041,0.4780053,-0.01560824,-0.007923611,0.01656849
0.7856936,0.4162098,0.479092,-0.009682101,-0.0009447162,0.01634827
0.7864505,0.4151108,0.4780581,-0.0105559,-0.002063381,0.01464683
0.787398,0.4123513,0.4756673,-0.01005711,-0.00272074,0.01388002
0.7873501,0.410062,0.4778221,-0.002306222,-0.003087947,0.01399024
0.7873243,0.4092515,0.4807592,0.007969093,-0.01134884,0.01574732
0.7857976,0.4113299,0.4779992,0.01755357,-0.01031969,0.01663509
0.7834819,0.4170871,0.4760781,0.01903541,-0.008135175,0.01485158
0.783097,0.4240879,0.4741067,0.01496775,-0.004054459,0.0141102
0.7816205,0.4248481,0.4722082,0.01354061,-0.005210613,0.01442825
0.7814523,0.4212567,0.4708027,0.01174296,-0.01265765,0.01484825
0.7825573,0.4216808,0.4649988,0.008070604,-0.009880071,0.01639796
0.7816383,0.4218605,0.4648258,0.004916118,-0.01236331,0.01562325
0.7818934,0.4227674,0.4660013,0.004065427,-0.01953723,0.01403994
0.7821944,0.4245967,0.46059,0.00185134,-0.02729756,0.01348765
0.7822199,0.4217666,0.462538,-0.002744698,-0.03237839,0.01146798
0.785489,0.4195411,0.4667452,-0.001778766,-0.02186758,0.01007263
0.7904872,0.4166267,0.4661924,-0.0009810557,-0.01278743,0.009457954
0.7919285,0.4140312,0.4677491,-0.005379279,-0.008293545,0.008587909
0.7862197,0.4165835,0.4682352,-0.008498965,-0.007260916,0.007126217
0.7816218,0.4172019,0.4691646,-0.01125546,-0.01027351,0.005016982
0.7861179,0.4156217,0.4686734,-0.006162442,-0.00399195,0.005271108
0.7902929,0.4132143,0.4650595,0.005417962,-0.0003049435,0.006452684
0.7886635,0.4101522,0.4668408,0.006115471,0.001188873,0.004874194
0.7888331,0.4118061,0.4678142,0.003470174,0.006154092,0.0003043139
0.7908399,0.414802,0.4667505,0.003266301,0.009025976,-0.004857314
0.7901195,0.4156625,0.4668811,-0.0003146426,0.01763235,-0.00794792
0.7885649,0.4178827,0.462013,0.0002133558,0.02110359,-0.008575012
0.7884609,0.4212525,0.461406,-1.888531e-06,0.01969065,-0.004765041
0.7892542,0.4226185,0.4664575,-0.00480808,0.02275694,-0.0008418101
0.788587,0.420298,0.4693493,-0.003567573,0.01547499,-0.007156839
0.7862147,0.4162352,0.4750854,0.001759972,-0.003671906,-0.01576438
0.7832335,0.4145238,0.4791777,0.007476783,-0.0208178,-0.01588824
0.7816828,0.4144583,0.4790748,0.01232431,-0.01066935,-0.01689047
0.7863634,0.415676,0.4792766,0.0103092,0.01508145,-0.01730989
0.7904321,0.4213207,0.4758201,0.005985336,0.01602688,-0.01256204
0.7860744,0.4271054,0.4694717,0.006209414,0.01349046,-0.01375703
0.7832836,0.4264571,0.4649789,0.002176207,0.01715302,-0.01423391
0.786361,0.4209332,0.4656934,-0.007116259,0.01281644,-0.008981218
0.7885756,0.4166962,0.4672723,-0.009114778,0.01615029,-0.007960708
0.7890538,0.4150813,0.464255,-0.007509094,0.01430051,-0.01037571
0.7890773,0.4143193,0.4664478,-0.003188519,0.001585925,-0.01948462
0.787823,0.4179928,0.474828,0.00920193,-0.01251534,-0.0272363
0.7843911,0.4221305,0.4810252,0.01646246,-0.02406729,-0.01787618
0.7811165,0.4184944,0.4816931,0.01385595,-0.01676259,-0.008661314
0.7830266,0.4150954,0.4756466,0.006923815,-0.007267754,-0.01153738
0.785997,0.4188052,0.4737271,0.0006932437,-0.004524357,-0.006332322
0.7827318,0.4207113,0.4754567,0.005435264,-0.007406507,0.006564369
0.7806072,0.4187866,0.4725475,0.0120447,-0.0219808,0.00577914
0.7826655,0.4199891,0.4710167,0.01001283,-0.02233084,0.001208728
0.781875,0.4224702,0.4702484,0.01078149,-0.01783699,0.001696941
0.7816284,0.4240189,0.4698544,0.01169371,-0.02053419,-0.003127768
0.7823742,0.4242205,0.4697401,0.004648046,-0.0144237,-0.002699205
0.7817734,0.4237855,0.4686512,0.0005159727,-0.01333644,0.001104338
0.7831844,0.4282997,0.4700776,0.001756226,-0.01469519,0.0006483674
0.7850626,0.4313443,0.4698989,0.001373023,-0.01460368,0.005304139
0.7876095,0.4258861,0.4716714,-0.001674187,-0.01734743,0.005797272
0.7898347,0.4202355,0.4745887,-0.005102563,-0.01358694,0.003856559
0.7889097,0.4190933,0.4706666,-0.005986914,-0.0102164,0.006514819
0.7885058,0.4189331,0.4677072,-0.006224829,-0.005889781,0.003495703
0.7891393,0.4207604,0.4670791,-0.005650804,-0.003978456,0.0001265156
0.7887124,0.4246532,0.4656845,-0.004748043,-0.007007721,-0.002142622
0.7876814,0.4216215,0.4664388,-0.00489606,-0.000282821,-0.004104579
0.786622,0.4170825,0.4672379,-0.002611742,0.006312097,-0.0005793745
0.7864473,0.4201765,0.467032,-0.001063167,0.009913996,-0.0003540881
0.7868822,0.4200182,0.4690498,-0.0008268839,0.01438617,-0.003150638
0.7861759,0.4185863,0.4717222,-0.0007262156,0.01194384,-0.003169989
0.7859314,0.4211674,0.469154,-0.001899035,0.009537594,0.0005561872
0.7882769,0.420251,0.4663982,-0.002629492,0.007878357,0.006215518
0.7891114,0.41809,0.4672717,-0.00441704,0.005360497,0.003984348
0.7868007,0.416273,0.4675556,-0.003712964,0.003539202,-0.0006057381
0.7846365,0.4168552,0.4697149,-0.002613869,0.000413851,-0.001158232
0.7844092,0.419498,0.4700921,-0.001645752,0.003236786,-0.002877126
0.7861506,0.4183738,0.4666967,0.002461449,0.007827722,-0.002126845
0.7872683,0.4184522,0.466376,-0.0007682554,0.005250737,-0.00163447
0.7876246,0.4185726,0.4668266,-0.002330779,-0.001007921,-0.003166278
0.7875432,0.4180611,0.4664995,0.004776948,-0.01264257,-0.001981301
0.7861065,0.4232501,0.4668711,0.007104725,-0.02603066,-0.00299268
0.7851171,0.4272977,0.4665136,0.004361815,-0.02688372,-0.006084451
0.7844073,0.426729,0.4666863,-0.003263332,-0.01583676,-0.006632876
0.784589,0.4254791,0.4667834,-0.00896853,-0.003895265,0.0002787245
0.7852715,0.4234677,0.4664846,-0.007332115,0.001261133,0.01206056
0.7853013,0.4208753,0.46682,-0.006361552,-0.003739253,0.01339359
0.7868321,0.419909,0.4666086,-0.005934658,-0.005061221,0.009168361
0.7881399,0.4214172,0.4657258,-0.005545637,0.006354973,0.008949161
0.78897,0.4209513,0.462318,-0.002494215,0.01439641,0.005783453
0.7894482,0.4202499,0.4589462,0.002034174,0.0103615,0.00463051
0.788027,0.4210893,0.4642666,0.003149064,0.001328648,0.006982645
0.7868192,0.4187385,0.4745522,0.006814884,-0.005999797,0.005869041
0.7844489,0.417414,0.478423,0.01270093,-0.009300648,0.006252871
0.7837435,0.4184063,0.4763022,0.01836514,-0.00894008,0.006991138
0.786453,0.4189105,0.4756257,0.02310092,-0.007998531,0.005644169
0.7860695,0.4194716,0.4763788,0.02166696,-0.008108109,0.006417397
0.7871871,0.4172569,0.4732123,0.01867634,-0.003143502,0.006965103
0.7903831,0.4141916,0.4683402,0.01894293,0.001714335,0.006418593
0.7886591,0.41404,0.4669304,0.01346285,-0.002105543,0.003351949
0.7882791,0.4189088,0.4664427,0.004455679,-0.00608957,-0.001619339
0.7896377,0.4280276,0.4650956,0.005618875,-0.007136905,-0.0007540057
0.7884584,0.4328154,0.4659717,0.0112157,-0.009937517,0.0005866212
0.7879988,0.4307088,0.4682356,0.01314508,-0.01661338,-0.003385871
0.7847137,0.4292407,0.4681915,0.01190792,-0.02531336,-0.004702648
0.781111,0.4300279,0.4668409,0.008267042,-0.02712512,-0.003742617
0.7864815,0.426521,0.4665619,0.008674442,-0.02202255,-0.005578145
0.7926694,0.4213126,0.4665705,0.009469732,-0.02037015,-0.006746528
0.7906872,0.4195207,0.4663791,0.0073946,-0.02233153,-0.003891002
0.7891188,0.4187625,0.4640651,0.00534232,-0.02221369,0.0007386722
0.7915988,0.4201072,0.4595921,0.001539241,-0.0215821,0.004368976
0.7906344,0.4218953,0.4605256,0.002924045,-0.02003059,0.006614136
0.7892301,0.4239119,0.4683033,0.006847434,-0.01749206,0.006337404
0.7915157,0.426318,0.4728446,0.00703532,-0.01437732,0.006523601
0.7929498,0.424427,0.4711651,0.009334694,-0.004163531,0.008454535
0.7942458,0.4236801,0.468736,0.009124382,0.00888027,0.005876181
0.7924758,0.4239119,0.4650297,0.004948001,0.01386697,0.002069974
0.7877812,0.4219879,0.4615494,-0.002254186,0.01175135,0.000775879
0.7893166,0.4222323,0.4614246,-0.01327355,0.01181704,0.0005361645
0.7907398,0.4217855,0.4625647,-0.0147617,0.01718865,0.00386542
0.7886414,0.4230353,0.4663247,-0.01235721,0.02349685,0.004624747
0.7898634,0.426139,0.4692866,-0.01714082,0.03116445,0.002153721
0.7902286,0.4245631,0.4693169,-0.01677012,0.03402215,0.001227033
0.7906674,0.4212853,0.4683857,-0.01738355,0.03620966,-0.001090715
0.7922766,0.4176578,0.4643441,-0.02333757,0.0565568,-0.0007562409
0.7896554,0.4160239,0.465142,-0.02081923,0.0873161,-0.0006128929
0.7879939,0.4202664,0.4702995,-0.0208564,0.1087013,-0.005776609
0.7888273,0.4256098,0.4701268,-0.02832518,0.1104064,-0.009739432
0.7871706,0.4273986,0.4697658,-0.03066384,0.1049177,-0.008497004
0.7850741,0.4254316,0.4747732,-0.02824358,0.103573,0.001554173
0.7831104,0.4215201,0.4825704,-0.02288185,0.08511881,0.01423342
0.7778367,0.4184049,0.4853575,-0.01909044,0.05894369,0.01693625
0.774007,0.418861,0.4853916,-0.01794686,0.04953532,0.0130418
0.7800417,0.4190893,0.4909879,-0.01611861,0.05277272,0.01213206
0.7852076,0.4126741,0.4949208,-0.01398466,0.05647572,0.01346853
0.7776788,0.4066325,0.4923207,-0.00734771,0.04245917,0.01358726
0.7723616,0.4085687,0.4881079,-0.000991245,0.02381554,0.01425628
0.7766253,0.4132119,0.4843454,0.002218723,0.01627069,0.01332448
0.7783235,0.4163232,0.4819358,0.005560805,0.01299765,0.01186868
0.7776593,0.4173006,0.4828034,0.005018069,0.01181118,0.01239406
0.7801617,0.4150432,0.4840725,0.006338432,0.0004592829,0.01144088
0.7829462,0.4119951,0.4834824,0.01041209,-0.00861579,0.01141635
0.7836828,0.4111433,0.4832142,0.01000309,-0.006318937,0.009098403
0.7824574,0.4134799,0.4803351,0.007400623,-0.006327855,0.003570693
0.7810177,0.4165255,0.4781028,0.001759279,-0.004375471,0.002003766
0.7806312,0.4155143,0.4802273,-0.00371974,-0.006250195,0.000964522
0.7806156,0.4145651,0.4827211,-0.001403188,-0.009640913,-0.0002017698
0.7823578,0.4175619,0.4850403,0.003140284,-0.01329018,0.0005701333
0.7845271,0.4204135,0.4816953,0.004410535,-0.0192652,0.00333699
0.7841067,0.4226848,0.4770283,0.005244279,-0.0134506,0.005804432
0.7822636,0.4204791,0.4794306,0.00434251,-0.007296607,0.002637998
0.7797888,0.4142023,0.4799169,0.001605748,-0.005575845,-0.0006701854
0.7798871,0.4131309,0.4787541,-7.193099e-05,-0.008467005,-0.002544953
0.7813966,0.413932,0.4812804,-0.0007672693,-0.01696411,-0.003650193
0.7791637,0.4129315,0.4825818,0.001610198,-0.01469239,-0.001579324
0.7790237,0.4124162,0.4817119,0.002652119,-0.01430319,-0.00155109
0.7816861,0.412122,0.4808487,0.002174977,-0.01758359,-0.0004655595
0.7829402,0.4128787,0.4804342,0.007089792,-0.01391689,0.0004737001
0.7840347,0.4126281,0.4804455,0.009236628,-0.0135868,-0.0014371
0.7830866,0.4130972,0.4813796,0.0100206,-0.009645993,0.001625138
0.7830453,0.4146051,0.4841377,0.01359706,-0.003567122,0.001870704
0.7838879,0.4136488,0.4862047,0.009064495,-0.003139468,-0.00275154
0.7830235,0.4143131,0.4816554,0.004205981,-0.001401493,-0.001968377
0.7844309,0.4168351,0.474229,0.006529271,0.0008965803,0.0001116095
0.7851151,0.4185967,0.4749299,0.005659914,0.006240977,0.000288915
0.784671,0.4184015,0.4806089,0.0008135449,0.01111246,0.0009796094
0.7852503,0.4164471,0.4837539,-0.001927852,0.00585515,0.000362477
0.7835444,0.4166767,0.4833903,-0.0011192,-0.0006983281,-0.003656522
0.7809822,0.4169748,0.4791254,0.0006102055,-0.001432937,-0.006821117
0.7796357,0.4176239,0.4766574,-0.001118093,-0.002914914,-0.005641645
0.7795754,0.4204565,0.477877,-0.00771684,-0.003678653,-0.005122868
0.7806741,0.4201914,0.4780212,-0.01386755,0.0007233153,-0.006323416
1.001389,0.1091559,0.184598,-0.2437969,0.1234371,-0.2679775
0.9989804,0.1129803,0.1858435,-0.2461694,0.1222626,-0.2596618
1.000395,0.1129377,0.1900889,-0.239132,0.1184104,-0.2523826
1.002246,0.1087614,0.1940087,-0.230182,0.1136433,-0.2489569
1.002519,0.1080056,0.188762,-0.2307295,0.1153698,-0.2479536
1.001403,0.107771,0.1790677,-0.2300467,0.1153132,-0.2460374
0.9994444,0.1068994,0.1768182,-0.2247363,0.1107056,-0.2433502
1.001957,0.106068,0.182608,-0.2255759,0.1101591,-0.241907
1.005787,0.1067688,0.186875,-0.2238722,0.1156533,-0.2379574
1.00542,0.1094695,0.1871491,-0.2215318,0.1231861,-0.2347182
1.003158,0.1116032,0.1899994,-0.2225962,0.1230506,-0.2318142
0.9992102,0.1153412,0.1941842,-0.216748,0.1176201,-0.2265163
0.9957184,0.1166604,0.1936794,-0.2098153,0.1149865,-0.2230011
0.9962311,0.1167161,0.1939914,-0.2046242,0.1086599,-0.2166618
0.9998478,0.1186694,0.1955032,-0.201224,0.104132,-0.2101183
1.004332,0.1140536,0.1877679,-0.201391,0.1072058,-0.2097135
1.005103,0.1096429,0.1802018,-0.1987962,0.1089111,-0.2085574
1.002952,0.1105203,0.1831044,-0.1975914,0.110213,-0.2054063
1.00142,0.1096372,0.1847915,-0.1974756,0.1098604,-0.2023161
0.9985609,0.1104538,0.1824268,-0.1949146,0.1062397,-0.1964018
0.9978351,0.1116903,0.1832315,-0.1926764,0.1032937,-0.1889843
1.000437,0.110038,0.1845455,-0.1871926,0.09755495,-0.1850507
1.001027,0.1066448,0.1857541,-0.1833325,0.09527392,-0.182397
1.001426,0.1031526,0.1906294,-0.1833193,0.0997381,-0.1776023
1.001772,0.1058217,0.1932285,-0.1795904,0.1008062,-0.1757907
1.00077,0.1102912,0.1919568,-0.1757963,0.09820307,-0.175589
1.0007,0.1093835,0.1900241,-0.1740905,0.09048729,-0.1752157
0.9998268,0.1062269,0.185638,-0.1720424,0.08090627,-0.1789235
0.9996022,0.102271,0.1838023,-0.1719956,0.08251469,-0.1803364
1.000511,0.1004988,0.1820921,-0.1713499,0.08803569,-0.1760953
0.999724,0.1034758,0.1791136,-0.1685966,0.08799563,-0.173123
1.000128,0.1051131,0.1828565,-0.1683769,0.08691219,-0.1729022
1.001877,0.1038417,0.1843399,-0.1685816,0.08097175,-0.171344
1.005103,0.1044046,0.1815975,-0.1663072,0.07289873,-0.1672099
1.00906,0.1063743,0.1822368,-0.1655313,0.07475091,-0.1641934
1.007723,0.1082043,0.1828814,-0.164283,0.0782687,-0.1631568
1.00468,0.108889,0.1843178,-0.159738,0.07722206,-0.16218
1.003643,0.1071454,0.1842554,-0.1582662,0.07779456,-0.1600834
1.001599,0.1038115,0.1815255,-0.1583302,0.07091763,-0.1587024
1.001669,0.1008041,0.1798236,-0.1540716,0.06187971,-0.1630732
1.003486,0.103294,0.1750157,-0.1518726,0.0668866,-0.1668884
1.002802,0.1073573,0.1704409,-0.152181,0.07194131,-0.1607138
1.002768,0.1043102,0.1720399,-0.1501919,0.07078246,-0.1517568
1.004886,0.1020585,0.1741292,-0.149333,0.07252202,-0.1505313
1.005997,0.1039552,0.1737307,-0.1480936,0.07097149,-0.1542765
1.005855,0.1052562,0.1752816,-0.1458026,0.06541828,-0.1534394
1.006209,0.1086113,0.1773163,-0.1461336,0.06354091,-0.1497408
1.00692,0.1093095,0.1756898,-0.1500723,0.06633191,-0.148273
1.004864,0.1073401,0.173431,-0.1542585,0.07147772,-0.1431037
1.000543,0.1087619,0.1717707,-0.1480233,0.07608366,-0.1395763
0.9991783,0.1081426,0.1712781,-0.1391295,0.07812331,-0.1409465
1.000343,0.1058742,0.1709936,-0.1413573,0.07834457,-0.1359212
1.001068,0.104617,0.1679022,-0.1437872,0.08087751,-0.1355891
1.001878,0.1033954,0.168934,-0.1429411,0.08681991,-0.144175
1.004156,0.1044782,0.1742832,-0.1429044,0.09173863,-0.1472496
1.009082,0.1042058,0.1770027,-0.1403974,0.09199355,-0.1448473
1.012525,0.102792,0.1786742,-0.1394771,0.09101652,-0.1378749
1.010018,0.1036534,0.1797315,-0.1397735,0.09006312,-0.1349891
1.006262,0.1064061,0.1810461,-0.1370024,0.08110361,-0.1348897
1.004195,0.1113419,0.1824951,-0.1326647,0.07220831,-0.1291602
1.001973,0.1122391,0.1817706,-0.1287983,0.07582126,-0.1296012
1.002704,0.1101576,0.1808992,-0.1274714,0.08273203,-0.133783
1.005403,0.1110687,0.1794665,-0.1263776,0.08706434,-0.1382388
1.005245,0.1095404,0.1759769,-0.1243555,0.08706219,-0.138033
1.003909,0.1073487,0.1724732,-0.1224739,0.08061912,-0.1297608
1.002281,0.108504,0.1737903,-0.1180148,0.07420679,-0.1282001
1.002251,0.1089255,0.179545,-0.1133776,0.06965502,-0.1250077
1.003754,0.1098786,0.1832227,-0.1126304,0.06777772,-0.1212723
1.003254,0.1117501,0.1834049,-0.1139174,0.06985642,-0.1225641
1.003934,0.1113506,0.1796179,-0.115046,0.07443896,-0.1179533
1.002829,0.1104604,0.1765466,-0.1149472,0.07889957,-0.1171263
0.9991876,0.1102667,0.179761,-0.1134739,0.07417538,-0.1159293
1.000288,0.1086632,0.1816241,-0.1140269,0.06640558,-0.1114717
1.002163,0.1078531,0.1805757,-0.1162766,0.06840615,-0.1108056
1.002557,0.1095657,0.1818502,-0.113812,0.06917729,-0.1062342
1.001517,0.1098545,0.1822793,-0.110168,0.06633792,-0.1044651
0.9990579,0.1086835,0.1800084,-0.1092736,0.06870354,-0.1032824
1.000883,0.1083071,0.1789397,-0.1059297,0.06854481,-0.09726754
1.002111,0.1095874,0.1796202,-0.1037643,0.06463891,-0.09459616
0.9999733,0.1129438,0.179451,-0.1030052,0.06248639,-0.09225849
1.000001,0.1143419,0.1816571,-0.09866004,0.06166466,-0.08998646
1.001475,0.1117609,0.1846249,-0.09599142,0.06251334,-0.08943463
1.004332,0.1088353,0.1832196,-0.09537076,0.06295879,-0.09196225
1.00637,0.1096781,0.182864,-0.09467537,0.06132211,-0.09279693
1.004474,0.1128578,0.1838112,-0.09649621,0.05586194,-0.08529034
1.002418,0.1129926,0.1830874,-0.0976455,0.05268571,-0.08285169
1.001621,0.1120343,0.1829994,-0.09214066,0.05755444,-0.08507842
1.000302,0.1128507,0.1819996,-0.08245202,0.05841257,-0.08309914
0.9995694,0.1134537,0.1816775,-0.07877984,0.055756,-0.07998627
1.000303,0.1136643,0.1837561,-0.08211954,0.05752273,-0.07288613
1.001189,0.1123157,0.1839123,-0.08471369,0.05898552,-0.06870479
1.002369,0.1103245,0.183266,-0.08430491,0.06157586,-0.06938296
1.003287,0.1109764,0.1861384,-0.08574069,0.06290049,-0.06632989
1.001758,0.1116097,0.1889736,-0.08912851,0.05992464,-0.06362793
0.997609,0.1109411,0.1891975,-0.08611257,0.05618587,-0.06235108
0.9920349,0.1120252,0.1904384,-0.08027679,0.04833748,-0.06134001
0.9906819,0.112989,0.1906595,-0.07516806,0.03890362,-0.05978289
0.995815,0.1123444,0.188842,-0.06664954,0.03296883,-0.05710633
1.000409,0.1124468,0.1887753,-0.06178435,0.0306982,-0.05729752
1.002348,0.1126106,0.1889665,-0.0592995,0.03346814,-0.05869655
1.002824,0.1118728,0.1875418,-0.05725423,0.03714067,-0.05930915
1.003205,0.1098752,0.1827581,-0.06110785,0.03776839,-0.05762565
1.004762,0.1074921,0.1780541,-0.0638401,0.03834256,-0.05552622
1.003322,0.108723,0.1829072,-0.0645351,0.04108189,-0.05550629
1.00227,0.1118427,0.1882732,-0.06640152,0.04475606,-0.05462107
1.005085,0.1110574,0.1822577,-0.06813565,0.05008017,-0.05462385
1.005644,0.107594,0.178224,-0.06891311,0.05287925,-0.05134424
1.003427,0.1073809,0.1814103,-0.06634602,0.04528096,-0.04438619
1.000357,0.110005,0.1808687,-0.06498339,0.03640907,-0.04208148
0.9991442,0.111769,0.1802118,-0.06219963,0.03424454,-0.04023246
1.000457,0.1146098,0.1830617,-0.0544113,0.03055144,-0.03551819
1.000685,0.1159006,0.184585,-0.04980283,0.0269635,-0.03105245
1.003362,0.1143423,0.1850967,-0.04922334,0.03000321,-0.030776
1.006742,0.1148163,0.1852005,-0.04899887,0.03384508,-0.03217357
1.004691,0.1106451,0.1869819,-0.04610544,0.03348129,-0.02918596
1.001923,0.1034569,0.1891316,-0.04449444,0.03379582,-0.02921423
1.001026,0.1035556,0.1864597,-0.04640053,0.03508239,-0.0313021
0.9996274,0.1046235,0.1817647,-0.04557465,0.03408784,-0.02984392
1.000096,0.1045375,0.1771882,-0.04618204,0.03765044,-0.02947046
1.003238,0.1069336,0.1751972,-0.0467,0.04212919,-0.02982255
1.004969,0.1093638,0.1790313,-0.04722717,0.0393605,-0.03538331
1.00516,0.1106189,0.1832215,-0.05135961,0.0380385,-0.0420945
1.005081,0.1112795,0.1881867,-0.04691857,0.03771597,-0.03782626
1.00278,0.1130269,0.193341,-0.04146745,0.03450265,-0.03349116
0.9995026,0.1125324,0.1873555,-0.04413815,0.03122915,-0.03617788
0.9984262,0.1103943,0.1742735,-0.0442964,0.02780696,-0.03809892
0.9989112,0.1110706,0.1673669,-0.04570087,0.03496367,-0.03974551
0.998102,0.1113168,0.1712989,-0.04739539,0.04396226,-0.03899753
0.9966585,0.1110201,0.1852291,-0.0416743,0.03359481,-0.03302547
0.9961876,0.1107631,0.1957753,-0.03589779,0.0226129,-0.0274162
0.9979834,0.1092791,0.1936019,-0.03445922,0.02361098,-0.02267967
1.001141,0.1082759,0.1901463,-0.03404643,0.02292319,-0.02057314
0.9993945,0.1097369,0.1894781,-0.03213864,0.01972505,-0.02020146
0.9973118,0.112188,0.1843077,-0.03025438,0.0132912,-0.01621606
0.9995247,0.1111266,0.1827074,-0.03175988,0.008225539,-0.01690047
0.9998373,0.1104804,0.1873169,-0.03322609,0.01592368,-0.01806795
1.001631,0.1117477,0.188033,-0.03147343,0.02481177,-0.0119596
1.003076,0.1109876,0.1915212,-0.02968715,0.02340072,-0.009762922
0.9979263,0.1121089,0.1947027,-0.02790889,0.02102589,-0.009845663
0.9946425,0.1143285,0.1915216,-0.02553431,0.01924909,-0.009820124
0.9977996,0.1157133,0.1932478,-0.02465635,0.01131314,-0.01236832
1.001879,0.1162694,0.1917175,-0.02248746,0.005922326,-0.01341692
1.002661,0.1113603,0.1868257,-0.0189116,0.01167259,-0.01290711
1.002635,0.1070406,0.1860526,-0.01798308,0.01906813,-0.01071213
1.003018,0.1115707,0.182499,-0.01730116,0.01971318,-0.01082307
1.001349,0.1161274,0.1853824,-0.01682511,0.01902067,-0.01076685
1.000285,0.1136396,0.1892122,-0.01748889,0.02062331,-0.006554328
0.9998579,0.112571,0.1838064,-0.01597875,0.01785373,-0.004498073
0.9997245,0.1131192,0.1816095,-0.01532074,0.01054146,-0.003567173
1.000779,0.1101472,0.183492,-0.01561282,0.006639548,-0.003250446
1.001522,0.1106587,0.1877776,-0.01477271,0.008050359,-0.002081906
1.003301,0.1117616,0.1923829,-0.01642205,0.009894542,-0.0003019124
1.00307,0.1085577,0.1903846,-0.01786375,0.007898935,-0.001931727
1.001133,0.1079792,0.1844018,-0.01705595,0.007545202,-0.003618289
1.001754,0.1087837,0.1819413,-0.01601622,0.01036252,-0.00631836
1.00218,0.1100137,0.1858069,-0.01390738,0.008512483,-0.004649599
1.003104,0.1118987,0.1887624,-0.01228027,0.003312577,-0.0008997631
1.004269,0.1106885,0.1907742,-0.01248452,0.000804116,-0.006079265
1.004793,0.1090634,0.1942014,-0.01360217,0.00260449,-0.008352734
1.00587,0.1080485,0.191938,-0.0138468,0.003248798,-0.004285719
1.003551,0.107792,0.1876532,-0.01022665,0.001237981,0.001289816
1.000572,0.1082693,0.1857473,-0.004640003,0.001271027,0.009118167
0.99961,0.1082434,0.1829658,-0.002901326,0.0008553971,0.009722115
0.9980701,0.1100673,0.1814534,-0.002690441,0.003334681,0.003969727
0.9989564,0.1105849,0.1851961,-0.000438565,0.007416259,-0.0003352735
1.001726,0.1098409,0.1964515,0.0001286966,0.007016661,-0.001471607
1.003293,0.1116831,0.2044396,-0.0003707805,0.01027166,0.001409403
1.002988,0.1114272,0.1926811,-0.001573529,0.0140086,0.005561138
1.001356,0.110099,0.177389,-0.003370357,0.01032056,0.009404093
1.001283,0.1098075,0.1802808,-0.002272271,0.004988179,0.009110118
1.001506,0.1076903,0.1832794,-0.001920066,0.003183404,0.003626113
1.001217,0.1078923,0.1803947,-0.003825352,0.004366706,0.001940487
1.001571,0.1092812,0.1856052,-0.005460533,0.005267363,0.005338397
1.001108,0.1089187,0.1870346,-0.005607343,0.006155317,0.00714993
1.000111,0.1112605,0.1855901,-0.003353673,0.006398515,0.007509229
0.9982542,0.113599,0.1888469,2.967165e-05,0.006141629,0.009980198
0.9972934,0.1141076,0.1860937,0.003816504,0.005453952,0.01330158
0.9993588,0.1151651,0.1843008,0.00352262,3.477903e-05,0.01355189
1.000967,0.115224,0.1848413,0.0003776485,-0.003721496,0.01216903
1.002308,0.1153773,0.1812789,-0.001107235,0.0009066859,0.01100794
1.003521,0.1153655,0.1802167,-0.004695433,0.00695371,0.008276784
1.002521,0.1144764,0.1804243,-0.005883832,0.006929627,0.007155653
1.002559,0.1128748,0.181642,-0.003438636,0.003708783,0.009631434
1.003169,0.1101663,0.1830465,-0.003157727,0.0005445734,0.01157412
1.002849,0.1103549,0.1842907,-0.003191906,-0.006531692,0.009579735
1.004623,0.110173,0.1881709,-0.006030824,-0.01067273,0.007812689
1.00588,0.1074099,0.1880031,-0.007261446,-0.006387256,0.01165804
1.003412,0.109049,0.1858986,0.001430479,-0.00331698,0.0125653
1.000202,0.1105668,0.1835195,0.008172359,-0.003279416,0.01004157
0.999205,0.1083084,0.178647,0.002834265,-0.002420259,0.009759644
0.9993387,0.108054,0.1782003,-0.002333202,-0.001237959,0.006107346
0.9989748,0.1088633,0.1782471,0.002205726,-0.0005803818,0.006490634
1.001865,0.1100277,0.1754338,0.006862927,0.001405527,0.008827596
1.008433,0.1117287,0.1738159,0.008683078,0.005327924,0.003492169
1.010358,0.111266,0.1722704,0.009650855,0.005418668,0.002078164
1.004729,0.1108963,0.1751359,0.005448241,0.002130988,0.004302204
0.9990966,0.1125932,0.1798188,0.002959844,0.0009433874,0.006574799
0.9991894,0.1145761,0.1781165,0.002416377,0.002732174,0.009405725
0.9998809,0.115594,0.1788729,3.388317e-06,0.007119849,0.007480381
0.9979905,0.1145428,0.1838827,0.001216406,0.009425621,0.008653878
0.9982231,0.1132436,0.1837141,-0.0003929022,0.008797166,0.0154698
0.9982578,0.1139851,0.1828911,-0.003183278,0.01115576,0.02014675
0.9972435,0.114161,0.1843876,-0.0008042886,0.01323764,0.01890735
1.000801,0.113744,0.1866812,-0.001314219,0.01238871,0.01568142
1.004229,0.1149509,0.1897215,-0.001694543,0.0128132,0.01815648
1.002841,0.115403,0.1873873,0.001173463,0.00927343,0.02133905
1.002123,0.1139737,0.1838733,0.000859339,0.001767571,0.02269364
1.003037,0.1118028,0.1857324,-0.001217057,-0.001080243,0.02348577
1.001721,0.1100908,0.1868693,-0.0007093672,-0.001249641,0.02152835
0.9995673,0.1093694,0.1865549,0.00431333,0.0007385882,0.02178638
0.9984925,0.108599,0.1870919,0.00972045,0.003635816,0.02178792
0.9986253,0.1107163,0.1868952,0.01024649,0.003565456,0.01954595
1.001234,0.1147288,0.1873961,0.01229761,0.002949012,0.01792709
1.002367,0.1137883,0.1865312,0.0180793,0.001412446,0.01320071
1.000918,0.1104972,0.1800612,0.01826211,0.003414482,0.01124448
1.002313,0.1095141,0.1746992,0.01552669,0.007108195,0.01334312
1.003257,0.110269,0.1788241,0.01317288,0.005661786,0.01301264
1.00153,0.111764,0.1854646,0.007713395,0.004335438,0.01629151
1.001013,0.1112113,0.1883098,0.008273599,-0.001300529,0.01909436
1.000473,0.1109418,0.1929301,0.01131378,-0.008437643,0.0114069
0.9997897,0.1135537,0.1956842,0.008821497,-0.005004451,0.004597105
1.000113,0.115173,0.1935692,0.01115201,-0.001608006,0.01008573
1.000956,0.1154077,0.1943888,0.01272705,-0.004448194,0.01822748
1.001719,0.1144234,0.1923242,0.009754281,-0.005038231,0.0203396
1.001728,0.1132978,0.1826877,0.0112917,-0.003671056,0.02154207
1.003054,0.1137535,0.1754923,0.01168701,-0.001283353,0.02160979
1.004296,0.1121794,0.1768235,0.01115771,0.003334582,0.01944527
1.001632,0.1103499,0.1820532,0.01119865,0.002047984,0.01871448
0.9989701,0.1111226,0.1823568,0.007700167,-0.00363633,0.01743376
1.00131,0.1117282,0.1872981,0.005339741,-0.00383211,0.01644251
1.005038,0.1127461,0.2014865,0.002618155,-0.001485502,0.01536167
1.005426,0.114753,0.2101646,-0.0004025115,0.0004764863,0.01437016
1.003038,0.1160134,0.2136497,0.001643838,-0.003818096,0.0184608
1.000721,0.1160035,0.2054971,0.006949581,-0.011663,0.02482293
1.002794,0.1134834,0.1878059,0.0132893,-0.01052529,0.02965041
1.005255,0.1094448,0.183405,0.01679044,-0.01080194,0.0303926
1.00148,0.1082023,0.1818376,0.0154755,-0.01412409,0.03034286
0.9977147,0.1063061,0.1770092,0.01203654,-0.01220934,0.03226311
0.9972269,0.1024314,0.179637,0.008404237,-0.01214631,0.02908901
0.9986247,0.1050344,0.1791973,0.003429506,-0.01024735,0.02649004
1.001082,0.1100766,0.1760248,-0.001405444,-0.005705401,0.02613643
1.000014,0.1131447,0.1780071,0.00432467,-0.005130131,0.02258474
0.9993613,0.115305,0.1852467,0.0121907,-0.005290176,0.02250384
1.00065,0.1123575,0.1932919,0.008569071,-0.007310023,0.020648
1.000044,0.1115207,0.1911427,0.008742011,-0.01066187,0.01487497
1.001717,0.1125837,0.1879473,0.01401121,-0.008843668,0.01337901
1.003628,0.1101326,0.1907326,0.01317631,-0.004025898,0.01163705
1.002651,0.1112158,0.188452,0.01302062,0.001257939,0.009085595
1.002228,0.111592,0.186287,0.01254111,0.008286817,0.00936916
1.001151,0.1104482,0.1848475,0.01035213,0.007029082,0.01058296
0.9994299,0.1116433,0.180286,0.01126642,-0.005105027,0.01148757
0.9997348,0.1103371,0.182522,0.01084109,-0.0116443,0.01248589
1.000452,0.1083602,0.1849161,0.009012453,-0.006547014,0.01298692
0.9998203,0.1071279,0.1830452,0.009340549,0.00131916,0.01234101
0.9998438,0.1100155,0.1872366,0.01044271,0.002187536,0.01271338
1.000309,0.1152218,0.1913068,0.0119024,-3.580158e-05,0.01059444
0.999939,0.1132558,0.1894773,0.01321759,0.001737887,0.007471846
1.000939,0.1111543,0.185544,0.01221277,0.0019698,0.009392133
1.001803,0.1122269,0.1820145,0.01047572,0.002047148,0.01025278
1.001444,0.1107849,0.1831171,0.01142606,0.0002487437,0.0101588
1.002272,0.1114766,0.1851329,0.01224179,-0.004795668,0.01155295
1.002713,0.1151706,0.1846536,0.01172037,-0.004587918,0.01308008
1.001089,0.1167679,0.1858507,0.01255979,-0.005128032,0.0158985
0.9992737,0.1135209,0.1877919,0.01333861,-0.006607867,0.01333682
0.9998255,0.109712,0.1897755,0.0141881,-0.004600613,0.009024997
1.000721,0.1128726,0.1926895,0.01466664,-0.003872939,0.01078538
1.000501,0.11625,0.1926074,0.01398974,-0.0009098745,0.01199989
1.002062,0.1140018,0.187537,0.01452519,0.003068643,0.01284414
1.003516,0.1131121,0.1836642,0.01375689,0.005550379,0.01462605
1.003471,0.1124179,0.1881678,0.01126564,0.006289474,0.01210452
1.001141,0.1108741,0.1948898,0.0111126,0.0013154,0.01159139
0.9970863,0.1140864,0.1955112,0.01554066,-0.004095706,0.01826094
0.9981701,0.1182515,0.1942114,0.0222323,-0.007855559,0.02191938
0.9998153,0.1181061,0.1912443,0.02317915,-0.008005779,0.01974771
0.9977551,0.1145147,0.1871025,0.02112867,-0.001500202,0.01872245
0.9987148,0.110327,0.1861703,0.02044526,6.924857e-05,0.01851162
0.9994406,0.1091946,0.1824101,0.01594355,-0.003177191,0.01813774
0.9997615,0.1117676,0.1793547,0.01371807,-0.002690746,0.017408
1.002197,0.1148604,0.1824541,0.01593306,0.0006009159,0.01611579
1.000623,0.117071,0.1874641,0.01517264,0.006550837,0.01730207
0.9989087,0.1203985,0.1992718,0.01484968,0.007015557,0.02104912
0.9993927,0.1219095,0.2077326,0.01573942,0.001753417,0.02430068
0.9974143,0.1195996,0.2027241,0.01646192,-0.001742058,0.02361598
0.9970154,0.1162684,0.1986558,0.0201175,-0.007637824,0.02183722
0.999321,0.1101174,0.1964836,0.02356426,-0.01130815,0.02224471
1.000508,0.1061673,0.1934274,0.0239895,-0.009740504,0.02105315
1.000127,0.1091672,0.1930786,0.02333158,-0.009312135,0.02113254
0.9994884,0.1107854,0.1918377,0.02280496,-0.009926927,0.02324562
0.9992849,0.1117006,0.1921902,0.02163423,-0.0109163,0.02270689
0.9987584,0.1162479,0.192777,0.02116925,-0.01361896,0.02434921
1.000089,0.118502,0.1900091,0.02185631,-0.01737097,0.02817762
1.002156,0.1157832,0.1862982,0.01844908,-0.0156213,0.03017746
1.000523,0.112301,0.181967,0.0157393,-0.0125644,0.03237836
0.9992288,0.112739,0.1825815,0.01849401,-0.01585189,0.03343348
1.000333,0.1130927,0.1863933,0.0180799,-0.01571529,0.03253021
1.000241,0.110688,0.1882127,0.01810822,-0.01150088,0.02750945
1.000491,0.1113408,0.1930144,0.02154513,-0.008780366,0.02085478
1.000963,0.1124529,0.1942371,0.02282262,-0.009086389,0.02285579
0.9997528,0.1131485,0.190022,0.02686898,-0.01497536,0.02507226
1.000372,0.114071,0.1900939,0.02763274,-0.01839566,0.01991467
1.003968,0.1097758,0.190453,0.02363042,-0.01901824,0.01953207
1.006499,0.1054317,0.1894542,0.02692605,-0.02025796,0.02441506
1.005165,0.1031864,0.1870998,0.02960361,-0.01556552,0.02775126
1.001359,0.1005024,0.1804895,0.0278928,-0.01041604,0.02729288
0.9993368,0.1014186,0.1784922,0.02578643,-0.01114671,0.02210581
1.000844,0.1037378,0.184046,0.02018425,-0.01108975,0.01836565
1.003003,0.104483,0.1887819,0.0182374,-0.00683782,0.01874229
1.002668,0.1060566,0.1880081,0.01814242,-0.002839972,0.02005663
0.9999824,0.1134169,0.1873886,0.01463876,-0.004095065,0.02020878
0.9960531,0.1235883,0.1925642,0.01781298,-0.01316948,0.01962399
0.9934993,0.1239267,0.1951515,0.02322126,-0.02272521,0.01782224
0.9962574,0.1186158,0.190905,0.02083934,-0.01999434,0.01243861
1.000011,0.116208,0.1878676,0.01750673,-0.01590475,0.01041772
1.001147,0.1112987,0.1912994,0.01671196,-0.02081215,0.01237092
1.003742,0.1086993,0.1936846,0.01416831,-0.01902343,0.01194285
1.005222,0.110341,0.1863828,0.009999451,-0.01188335,0.01375637
1.005002,0.1086451,0.1809621,0.008547912,-0.008786872,0.01720485
1.005163,0.1108388,0.184558,0.008909051,-0.008697548,0.02063385
1.002357,0.1134428,0.1865695,0.00921807,-0.01248366,0.02420122
1.000337,0.1112636,0.1855165,0.01207833,-0.01058967,0.0228861
1.000126,0.1147261,0.1866797,0.01181324,-0.006548382,0.02108917
0.999401,0.1149905,0.1880586,0.01045543,-0.007863935,0.02206814
0.9999087,0.1121628,0.1857448,0.01651004,-0.003431664,0.02072983
0.9973606,0.1147176,0.1840693,0.02234576,0.0008249797,0.01934528
0.9954699,0.1113916,0.184622,0.02497979,-0.002502254,0.02286067
1.000866,0.1068648,0.1834515,0.02589155,-0.005263328,0.02618508
1.006215,0.1051252,0.1838291,0.02862504,-0.005591001,0.024863
1.00581,0.1034293,0.1833202,0.03718482,-0.007097936,0.02391419
1.002179,0.1073901,0.1797604,0.03805421,-0.01009,0.02374208
1.000471,0.1097171,0.1793865,0.02921144,-0.01184171,0.02005835
1.000584,0.1098209,0.1816493,0.02070934,-0.01391248,0.01646328
0.9998307,0.111685,0.1845965,0.01683257,-0.01330803,0.0174346
0.9995427,0.111568,0.1853514,0.01906223,-0.0103415,0.01728327
0.9981376,0.1126932,0.1846897,0.01617585,-0.01078417,0.01319936
0.9957457,0.1146704,0.1881033,0.009467332,-0.009649676,0.01056066
0.9957305,0.1150305,0.1911104,0.008628025,-0.009019679,0.01000878
0.9978627,0.1151469,0.1904682,0.006101659,-0.01135844,0.01075294
0.9992584,0.1154654,0.1880168,7.499337e-05,-0.01522018,0.009396718
0.9992728,0.1144533,0.1858468,-0.00366019,-0.02036879,0.00610707
1.00233,0.1103411,0.1829259,-0.001739518,-0.01760269,0.007109127
1.007408,0.1061886,0.176055,0.003740458,-0.01381503,0.008535243
1.008738,0.105152,0.1730816,0.004716182,-0.01520274,0.01069556
1.00745,0.1057022,0.1744926,-0.0004165695,-0.008880336,0.01377587
1.005415,0.1042038,0.1763258,-0.005407778,0.0009326794,0.01258641
1.00172,0.1046878,0.1855202,-0.00423018,0.007130862,0.01163272
0.9998825,0.1093913,0.1972235,-0.002289499,0.01388795,0.006726576
1.000222,0.1112756,0.203632,-0.002249134,0.01452567,0.0001869108
0.9981563,0.1135935,0.2050483,0.00183927,0.01020313,0.003547109
0.9980843,0.1163503,0.2030123,0.004382162,0.01087423,0.007999433
1.000606,0.1133394,0.2022945,0.00873663,0.005437558,0.00864946
1.000871,0.1114197,0.2025595,0.01864856,-0.004057155,0.009448608
1.002543,0.1126389,0.1994832,0.02043318,-0.001889984,0.01200358
1.00326,0.1116341,0.1907839,0.01998156,-0.0001283551,0.01692899
1.00136,0.1098339,0.1821204,0.02057035,0.002064175,0.01793565
1.001363,0.1105309,0.1821049,0.01305216,0.01132667,0.01637647
1.001123,0.112464,0.185072,0.01012706,0.01135386,0.01464349
1.0005,0.1126249,0.1867649,0.01212921,0.007779254,0.01258552
0.9997224,0.1115103,0.1925708,0.01343852,0.006494818,0.01419115
0.9987212,0.1107712,0.1947979,0.0194701,-0.002480915,0.01320335
0.9989632,0.1114386,0.1888594,0.01844112,-0.008797813,0.01059028
0.9993878,0.1131085,0.1885179,0.01457598,-0.005345285,0.008979165
1.00142,0.1140721,0.1903712,0.01536646,3.410151e-06,0.003498261
1.003241,0.1132717,0.1864346,0.007467931,0.005473028,0.004547941
1.004012,0.1120411,0.1887451,0.0004761709,0.008170788,0.008051657
1.004612,0.1133836,0.1922093,-0.0001705243,0.006126784,0.004661101
1.00194,0.1145547,0.1893765,-0.005340492,0.004049286,0.004136641
1.000251,0.113603,0.1901861,-0.008801079,-0.002554688,0.00341346
1.000371,0.11349,0.1914172,-0.007479596,-0.01331487,0.002361667
0.9993508,0.1122906,0.1921287,-0.007852542,-0.0129861,0.003562019
1.000107,0.1101982,0.1947803,-0.008796175,-0.004474667,0.001515175
0.9993451,0.1102974,0.1930197,-0.004694087,-0.0005066788,0.00161083
0.9979967,0.1107339,0.1914304,-0.0008424641,-0.0008106871,0.001758688
1.00039,0.1110275,0.1903023,-0.001399611,-0.002906,-0.001197798
1.002989,0.1121353,0.1861476,0.001397933,-0.002820332,-0.002940767
1.00485,0.1145307,0.1868422,0.004141428,-0.0005302787,-0.002496338
1.004205,0.1173055,0.1887505,0.003161882,0.002090807,0.001995435
1.001289,0.1155248,0.1867648,0.005184937,0.007143375,0.004105677
0.9994938,0.1123414,0.1877909,0.008553787,0.01015962,0.002426076
0.9978956,0.1141139,0.189859,0.008319158,0.009036629,0.003839836
0.9986234,0.1145722,0.1902097,0.007941423,0.006781726,0.005273693
1.000137,0.1127065,0.1909898,0.009379106,0.00480784,0.005488797
0.9995477,0.1129059,0.1918891,0.007655153,0.002916483,0.008831009
0.9993817,0.1127717,0.1971744,0.006276776,0.0007667859,0.01297771
0.9983342,0.1155974,0.2022121,0.008652346,0.003540526,0.01052683
0.9983969,0.1183229,0.1997667,0.01131005,0.005780646,0.006618813
0.9999274,0.115585,0.1982009,0.01300323,-0.0003186971,0.007518976
0.998992,0.1146348,0.199087,0.009428605,-0.004097622,0.00362103
0.9984586,0.1140524,0.198304,0.008150609,-0.0008980829,-0.001436159
0.9989343,0.113373,0.197539,0.01298104,0.0033407,0.001553982
1.000329,0.1164097,0.1927486,0.01210494,0.005317376,0.003645234
1.00216,0.1170697,0.1848359,0.01020149,0.003835123,0.001960544
1.000642,0.1163091,0.1847137,0.006792043,-0.0003424119,0.0008340848
0.9973328,0.1159546,0.1944981,-0.0004158602,-0.005262192,-0.0004843532
0.9941406,0.1147473,0.2042524,0.0005197333,-0.007091602,-0.0005171411
0.993772,0.1157536,0.2046999,0.0006925065,-0.006774185,0.0009448331
0.9966256,0.1172109,0.1970479,-0.004049606,-0.005084959,0.002031432
0.998263,0.1183567,0.1929718,-0.00465334,-0.0009911736,0.003733726
0.9989959,0.1185008,0.1980117,-0.005957453,0.001079143,0.004466882
0.99816,0.1169484,0.2016386,-0.00573519,0.0008933053,0.00404783
0.9979832,0.1159886,0.1980017,-0.004162119,0.0006534531,0.005358715
1.000459,0.114813,0.195342,-0.005591869,0.001407303,0.006512587
0.9998346,0.1156408,0.195089,-0.003998227,0.001620722,0.00785638
0.9987365,0.1161968,0.1924508,-0.001968322,-0.001555547,0.007336059
0.9988973,0.1137217,0.1920356,-0.001350867,-0.00554151,0.001352419
0.9980404,0.1128689,0.1930337,9.683365e-05,-0.00934863,-0.001446238
0.9987915,0.1107947,0.1902337,0.0001737413,-0.008819569,0.003229897
0.9979903,0.1101633,0.1914197,0.001598939,-0.005053531,0.008827953
0.9970387,0.1137658,0.1971421,0.00546187,-0.007456096,0.00931223
0.997866,0.115013,0.1988938,0.01258973,-0.01302484,0.009276022
0.9967083,0.1168049,0.1954712,0.02043366,-0.01836638,0.01755471
0.99703,0.1156801,0.1912262,0.02154948,-0.02013183,0.02295788
0.9971418,0.1109864,0.192829,0.02079172,-0.01772058,0.01710143
0.9967845,0.111604,0.1943135,0.0205875,-0.01908053,0.01255807
0.9997677,0.1104528,0.1919734,0.01772264,-0.01872044,0.01490717
1.000435,0.108764,0.1933712,0.01832291,-0.01747471,0.01649383
0.9997355,0.111716,0.1936413,0.02101813,-0.02039109,0.01543727
1.000059,0.1129695,0.1935669,0.0204579,-0.0199421,0.01682515
0.9988749,0.1143242,0.1969665,0.01841899,-0.02049439,0.01555822
0.9984694,0.1141381,0.1968821,0.01452046,-0.02152366,0.01154044
0.9989041,0.1122607,0.196156,0.0111057,-0.01722722,0.009783809
1.000409,0.1127489,0.1956789,0.00968513,-0.01350852,0.006611786
1.001726,0.1124692,0.1912141,0.01088077,-0.01167565,0.00957567
0.9995853,0.1131753,0.1879154,0.01531335,-0.0154345,0.0157803
0.9979976,0.1132043,0.1910952,0.01410032,-0.02098276,0.01455306
0.999659,0.110166,0.1950023,0.009664461,-0.01825747,0.01474891
1.001527,0.1091408,0.1934726,0.009097293,-0.01518842,0.01481741
1.001544,0.1097515,0.1957888,0.008014326,-0.01231523,0.01093726
1.001047,0.1101179,0.1998477,0.007461022,-0.006015888,0.01067277
1.000634,0.1103251,0.1934385,0.005658332,-0.006503036,0.01101945
0.9996376,0.110562,0.1867757,0.004332461,-0.01132176,0.006336397
0.9997239,0.1106872,0.1871913,0.006948138,-0.01199339,0.002930343
0.9993928,0.110858,0.1886965,0.007767134,-0.009625129,0.005766225
0.9982817,0.1115997,0.1894151,0.009711627,-0.006513771,0.005202028
1.000021,0.110931,0.1903651,0.008821243,-0.006643444,0.001476075
1.003206,0.1106886,0.1942611,0.004509506,-0.006211031,0.001171166
1.004697,0.1106704,0.1978588,0.004856092,-0.0007147166,-0.0008853339
1.003284,0.1094385,0.1968794,0.002433601,0.0009581561,-0.0007127665
1.001127,0.1115029,0.1959286,0.001790924,-0.002648637,0.0007929614
1.001103,0.1134277,0.197571,0.00574477,-0.007943961,-2.347464e-05
1.000482,0.1121087,0.1968123,0.005547211,-0.01281784,0.001889594
0.9983245,0.1114547,0.1914377,0.006295378,-0.006384719,-0.0007605378
0.9965503,0.1110014,0.1855994,0.005137726,0.003583633,-0.005113851
0.9966045,0.1109531,0.1839673,-0.000800144,0.004060603,-0.00610739
1.00194,0.1116562,0.1888819,-0.007461212,0.01126533,-0.01077984
1.007104,0.1128056,0.1934767,-0.01218491,0.02148943,-0.01273006
1.00252,0.1146117,0.1914638,-0.007752277,0.01401042,-0.01207548
0.9977857,0.1153926,0.1891019,-0.004019023,0.005649489,-0.01525729
1.002245,0.116887,0.1884533,-0.007744497,0.007208438,-0.01764073
1.004269,0.1182144,0.1872472,-0.008505621,0.007973305,-0.01874325
1.001855,0.1142088,0.1871928,-0.009694706,0.01489766,-0.02049931
1.002934,0.1090847,0.1877474,-0.01233683,0.02822533,-0.02022917
1.002577,0.1093595,0.1884425,-0.01096444,0.03584646,-0.01525144
0.9987292,0.1111555,0.1931664,-0.008831429,0.03094801,-0.00874178
0.9936894,0.1111683,0.2031336,-0.005510123,0.01147392,-0.004547576
0.991095,0.1117053,0.2077432,-0.002310275,-0.004215933,-0.002687668
0.9981071,0.1137357,0.2025117,-0.004081333,0.0009079051,-0.003572328
1.005135,0.1160636,0.199655,-0.007687108,0.01079058,-0.004139621
1.002579,0.115527,0.2012161,-0.009053263,0.01424117,-0.002211234
0.9999352,0.1136436,0.1982065,-0.008779087,0.02182845,-0.001471478
1.000026,0.1141684,0.1941399,-0.008021002,0.01962204,-0.003277483
0.9988035,0.1151631,0.1962627,-0.00622071,0.002541073,-0.003820352
0.9978624,0.1173095,0.1997769,-0.0002328185,-0.003385987,-0.002197301
0.9960411,0.1198911,0.2018739,0.009840573,-0.008632635,-0.001434798
0.9942503,0.1193327,0.2038125,0.01688384,-0.01891973,-0.0008794244
0.9977674,0.1183754,0.2019489,0.0178737,-0.0200963,-0.00274035
1.001708,0.1177862,0.198639,0.01572188,-0.02028764,-0.006012447
0.9998709,0.1168965,0.1959144,0.0112251,-0.01279163,-0.002145974
0.9982643,0.1167101,0.193025,0.006882966,-0.003852777,0.001088148
0.9991792,0.1164254,0.1943538,0.005222756,-0.003049783,-0.004093783
0.9992873,0.1162498,0.196589,0.002479745,8.050081e-05,-0.006590632
1.000164,0.1139264,0.1954196,-0.001695747,-0.002080992,-0.00312346
1.000428,0.1107074,0.194785,-0.003035501,-0.004047105,0.000611841
0.9994871,0.112001,0.1950134,-0.005726483,-0.001238371,0.004010271
1.000223,0.1153462,0.1943688,-0.01204219,0.000150782,0.007345057
0.9996019,0.1178941,0.1963259,-0.01357119,0.003334979,0.007679818
0.9969763,0.1208876,0.2002065,-0.006150706,0.002289421,0.004429873
0.9958803,0.1237178,0.2002888,0.004046473,-0.003354072,0.001884537
0.9980353,0.1241788,0.1994028,0.008703923,-0.01283334,-0.001877179
1.001742,0.1224669,0.1986634,0.0111229,-0.01869813,-0.007973433
1.002545,0.1221795,0.1970693,0.0130747,-0.01122823,-0.01087844
1.005009,0.1216815,0.1980256,0.004798148,-0.00280742,-0.01196806
1.007915,0.1187912,0.197436,-0.009236544,0.007248251,-0.01186785
1.001265,0.116612,0.1964912,-0.01725663,0.01989649,-0.007462288
0.9934198,0.1130106,0.1978155,-0.01656165,0.01565631,-0.002812635
0.9921233,0.1096438,0.1977528,-0.01180167,0.003686858,0.0002686378
0.993141,0.1120942,0.2002714,-0.01005708,0.00675362,0.004333443
0.9945371,0.1145998,0.202401,-0.009100137,0.01547645,0.006039011
0.9945196,0.1172202,0.1995966,-0.007832715,0.02080001,0.006517823
0.9953384,0.1223912,0.1987488,-0.003094593,0.01964936,0.01177178
0.9963476,0.1208244,0.199033,0.004894405,0.008413955,0.01629047
0.9964491,0.1175902,0.1965442,0.004420074,0.001776927,0.01451056
1.000579,0.1201986,0.1962307,0.004872727,-0.001571435,0.01122901
1.005062,0.1198113,0.1963864,0.01001596,-0.001942259,0.01010206
1.004305,0.1185922,0.1941228,0.006564828,0.002731691,0.009051255
1.000219,0.1199682,0.1976391,0.001431061,-0.004671747,0.007061475
0.9966056,0.1183229,0.2020797,-0.001440324,-0.008847847,0.005855296
0.99513,0.117019,0.1996367,-0.002106268,-0.007179846,0.002404957
0.9952306,0.1157261,0.1992078,0.0006883962,-0.01394793,0.001879998
0.9946552,0.1128612,0.1998242,0.001662208,-0.01412619,0.01023952
0.992175,0.1136622,0.1979488,0.003796012,-0.01072906,0.01362927
0.9934005,0.1148943,0.1983549,0.003582956,-0.008850608,0.01009877
0.9975261,0.1152362,0.1980996,0.001367719,-0.009349905,0.008035665
0.9990065,0.1170999,0.1966433,0.003343251,-0.01264835,0.005326399
0.9993797,0.1161623,0.19667,0.00500234,-0.01078779,0.00379559
0.9993458,0.1145522,0.1948293,0.009084238,-0.0130539,0.003153896
1.001936,0.1165695,0.192006,0.01173201,-0.0157327,0.003533931
1.003524,0.1181234,0.1934874,0.009809127,-0.01509434,0.004622588
0.999069,0.1174888,0.1973738,0.0111304,-0.01981772,0.003673416
0.9960269,0.1155213,0.1992251,0.01169606,-0.02428032,0.004116177
0.99535,0.1131488,0.1990303,0.01209126,-0.02685814,0.003141762
0.9957348,0.1144166,0.1981149,0.0130932,-0.02573719,0.002623613
0.9970726,0.1163348,0.1984581,0.009812615,-0.02347063,0.00471552
0.9992354,0.1159735,0.1973914,0.005659352,-0.02321119,0.00405538
1.004489,0.1205794,0.1929192,0.002083958,-0.01701177,0.006193478
1.005114,0.1266129,0.1901626,0.0009087322,-0.008149137,0.009613982
1.002256,0.1246471,0.1888599,0.00229732,-0.003479084,0.009619293
1.002752,0.1195146,0.1879882,0.00543408,-0.005844554,0.009886997
1.001691,0.1164995,0.1922561,0.009505317,-0.01211775,0.007713612
1.000085,0.1138814,0.1997446,0.007949819,-0.01490241,0.005134154
1.00023,0.1104161,0.2013275,0.004138356,-0.01234953,0.004885247
1.001622,0.1066912,0.1963856,0.002320771,-0.005687692,0.002165547
1.002889,0.1048819,0.1930509,0.002099668,-0.004281474,-0.001514909
0.9992431,0.1055278,0.1935904,0.005412867,-0.008054729,-0.002616915
0.9958718,0.107138,0.1969242,0.008950293,-0.01034974,-0.003136578
0.9980699,0.1100256,0.1969502,0.01409621,-0.01344572,-0.004815625
0.9995768,0.1160811,0.1922936,0.01691149,-0.0125472,-0.005461805
0.9982365,0.1225806,0.1929875,0.01105109,-0.0110539,-0.003963001
0.9989332,0.1233143,0.1936989,0.003894778,-0.01238693,-0.002890679
1.001366,0.1212498,0.1917389,-0.001605543,-0.008288893,-0.002988885
1.001677,0.1211167,0.192075,-0.001446206,-0.003905659,-0.002335957
1.000534,0.1186964,0.1896414,0.0007683467,-0.003743393,-6.283874e-05
0.999578,0.114886,0.1906142,-0.003948175,-0.007011618,-0.0002408848
0.9976092,0.113007,0.1929039,-0.003148826,-0.01170034,-0.005473627
0.994828,0.111114,0.1899372,0.002504422,-0.01083988,-0.006939001
0.9956823,0.1106868,0.190322,0.003720793,-0.006150595,-0.002596557
0.999,0.1114182,0.1914161,0.004293436,-0.000796409,-0.002296957
1.000336,0.111376,0.1915919,0.0007263892,0.002357512,-0.003370465
1.001855,0.1130201,0.1925372,-0.001685089,0.002160079,-0.001912772
1.000909,0.1159711,0.193258,0.0004285932,0.003040999,-0.001236456
0.9988351,0.1187097,0.1966809,0.0002106066,0.001671558,0.002011603
1.000747,0.1221414,0.196133,0.001110344,-0.001793564,0.004998305
1.00117,0.1248739,0.1920709,0.001279529,-0.003780155,0.004471539
1.002048,0.1242195,0.1909979,-0.001426033,-0.005528428,0.004431589
1.003388,0.1192336,0.1900349,-0.004940255,0.0001647622,0.002538191
1.000125,0.1132182,0.1903437,-0.007670892,0.009724795,0.0003727851
0.9976687,0.1125032,0.1916944,-0.005053555,0.009010261,0.0003274769
0.9969598,0.1137315,0.1900671,-0.001570859,0.006128207,0.0005375403
0.9980855,0.1102056,0.1874673,0.001097334,0.006434424,0.001520684
1.000317,0.1087724,0.1887789,0.003688329,0.002330933,-0.001391122
0.9999386,0.1112973,0.1917681,0.002786991,0.0004897213,-0.006369102
0.9998397,0.1121287,0.1920047,0.003376367,0.0009047312,-0.007437185
0.9993703,0.1156656,0.1938005,0.00491325,-0.001749862,-0.0071991
0.9990289,0.121147,0.1970146,0.004575998,-0.002402559,-0.004084368
1.000589,0.1238091,0.1975955,0.006730921,-0.005277047,0.0002672753
1.001027,0.1260825,0.1969658,0.008346557,-0.009291214,0.002053214
1.000684,0.1263721,0.1946373,0.004972898,-0.006658987,0.006167409
0.9980749,0.1242968,0.1913024,0.0001559637,-0.001944389,0.01218523
0.9946957,0.1246989,0.1894266,-0.002186544,0.001418343,0.01487062
0.9965384,0.1256672,0.1900578,-0.004959545,0.002935065,0.008840582
0.9994667,0.12315,0.1909538,-0.009203311,0.004107006,-0.0004222813
0.9993722,0.1176292,0.1908886,-0.009206691,0.006600299,0.0004387457
1.000071,0.1108439,0.1956168,-0.00803959,0.006841998,0.001963939
0.9997453,0.1087816,0.1993876,-0.009168075,0.006998463,-0.00192577
0.9959227,0.1088533,0.1925254,-0.006474962,0.009097176,-0.002909462
0.9935555,0.1038085,0.186037,-0.003752523,0.008904752,-0.006683229
0.9948849,0.1031385,0.1894425,-0.005286077,0.007296687,-0.01050046
0.9984972,0.1053882,0.1939547,-0.004500569,0.006355782,-0.01170096
1.000478,0.1052946,0.1939006,-0.0008228397,0.00512681,-0.01705539
0.9974287,0.1142035,0.1922471,0.004262531,0.004863431,-0.0158161
0.9945832,0.1235192,0.1893562,0.009246049,0.003872152,-0.008013996
0.9957313,0.1237034,0.1896583,0.009081648,0.0006101578,-0.005515873
0.9965089,0.1253391,0.1924831,0.004883053,-0.002304299,-0.003778668
0.9953829,0.1278573,0.1912044,-0.0006845097,-0.005626523,-0.001824871
0.9970246,0.1255598,0.1915841,-0.004421041,-0.005305595,-0.00122713
1.002495,0.1227868,0.1924616,-0.004224757,0.001402675,0.0001353101
1.00703,0.1214377,0.1917529,-0.008530618,0.00652452,-0.0005519355
1.006513,0.11912,0.1942602,-0.0153857,0.009565009,-0.002026057
1.003656,0.116764,0.1950363,-0.01149993,0.01115421,-0.003903851
1.00329,0.1110709,0.196509,-0.006317654,0.008996823,-0.006068768
1.001024,0.1061877,0.1973587,-0.009164909,0.008668223,-0.005904516
0.9987795,0.1078625,0.1938333,-0.008008493,0.009791257,-0.007269189
0.9991294,0.1051646,0.1945887,-0.004872829,0.009534913,-0.009562499
0.9952803,0.1038784,0.1977582,-0.004155458,0.009724167,-0.008881386
0.9952855,0.1113696,0.2026639,0.0002043076,0.009028768,-0.007843886
0.9989313,0.1160326,0.2079362,0.002351008,0.008090919,-0.007844174
0.9981895,0.1171678,0.2059639,0.001626009,0.007709967,-0.006150657
0.998918,0.1183439,0.2034779,0.001994229,0.005562093,-0.002527349
0.9980457,0.1213149,0.2025745,0.001506163,-0.00231436,0.0005163693
0.9981933,0.1230897,0.2002373,0.000972766,-0.01161517,0.004034538
1.001609,0.1218254,0.1999106,-0.002347196,-0.008616008,0.00641803
1.001553,0.1224361,0.1997516,-0.005708149,-0.0003583738,0.005807938
1.002833,0.1221227,0.1983046,-0.00623949,0.0023024,0.005757688
1.002362,0.1221159,0.1950299,-0.00816214,0.006627287,0.004981203
0.9992479,0.1222102,0.1915995,-0.007608342,0.007151933,0.003330084
0.9991945,0.1190742,0.1929208,-0.003471138,0.003532765,0.003034125
0.9983887,0.1142905,0.1939084,0.0002358902,0.004636402,0.001449079
0.9983798,0.1080955,0.1927198,0.001525127,0.003304639,-0.001499254
0.9989957,0.1076006,0.1951943,-0.001129689,0.00338996,-0.003812652
0.998141,0.1113633,0.197536,-0.003416573,0.007327668,-0.004575635
0.9976507,0.1130483,0.1972818,-0.003125694,0.00709714,-0.003575404
0.9960947,0.1152074,0.1974254,-0.002763442,0.007160464,-0.002393206
0.99552,0.1168948,0.1978233,-0.002166806,0.004813024,-0.00171379
0.9969438,0.1205659,0.1982486,-0.001226563,-0.0003704715,-0.0005458414
0.9975206,0.1238278,0.1983398,0.0002658755,-0.001140657,0.0002583793
0.9972197,0.1225259,0.200399,0.001552117,-0.0007240267,-0.0002272301
0.9972696,0.1219401,0.2035882,-0.0008967976,0.0003971761,0.001509861
0.9982098,0.1212726,0.2037745,-0.00456782,0.001870139,0.003603925
0.999064,0.1201251,0.2037357,-0.004014133,0.002338993,0.002338895
0.9993634,0.1181302,0.2028187,-0.003060221,0.005034735,0.002385958
0.999251,0.1118846,0.2004429,-0.003787746,0.008168743,0.00155115
0.9985022,0.1072163,0.2013029,-0.001709283,0.006599634,-0.002326666
0.9983352,0.109086,0.2019483,0.001703757,0.00236626,-0.003733938
0.9988425,0.1126344,0.2009117,0.004359942,0.001126989,-0.002462559
0.9986051,0.1129845,0.2015453,0.006151865,0.0001888534,0.00140764
0.9984531,0.1134956,0.2015169,0.005730687,0.0004599444,0.004602027
0.9989616,0.116525,0.2006048,0.005941054,0.003565261,0.003899774
0.9992517,0.119112,0.1989186,0.007153991,0.001471877,0.003426731
0.9995095,0.1211229,0.1961422,0.006251038,-0.005343692,0.003569356
0.9994624,0.1219974,0.1959617,0.004391295,-0.009448971,0.002952359
1.00019,0.1220435,0.1963076,0.001462715,-0.006325407,0.002367091
1.002271,0.1216238,0.1952909,-0.001972301,-0.001697442,0.0008037714
1.002531,0.1199109,0.1961742,-0.002926949,-0.0003706177,-0.003059177
1.000183,0.1186649,0.1969663,-0.006117135,0.004420639,-0.003255082
0.9977309,0.1160811,0.1970942,-0.01145989,0.008116626,0.001667806
0.9981684,0.1141465,0.1976288,-0.009619612,0.009112786,0.001423347
0.9990892,0.1156819,0.1969513,-0.005762231,0.01094642,0.0001651534
0.9960264,0.1162054,0.1971694,-0.005271021,0.01001583,0.003079412
0.9933441,0.1184197,0.197519,-0.001443462,0.01021759,0.002354952
0.9928197,0.1222614,0.1970653,0.002679094,0.007078554,0.002996897
0.9932713,0.1213215,0.1983102,0.003913532,0.001139548,0.007201324
0.9961986,0.1206412,0.1994352,0.002024664,0.0004706006,0.006610727
0.9980195,0.1221793,0.2012149,-0.002374288,-0.001182931,0.005831646
0.9982623,0.1204963,0.2030931,-0.0009363202,3.715114e-05,0.008863576
0.9988394,0.1190663,0.2003364,0.0008416329,0.003069829,0.009778045
0.9995301,0.1184645,0.1972709,-0.0006045268,-0.002016013,0.009560871
1.000379,0.1147327,0.1987263,0.001506115,-0.006455452,0.01176587
0.9992131,0.1129521,0.199496,0.0005568268,-0.005548459,0.0112628
0.9963105,0.1144825,0.1965183,-0.001306432,-0.005475703,0.006991408
0.9937251,0.1157656,0.1952943,0.001328112,-0.007341022,0.005315164
0.9947124,0.1171276,0.1987148,0.004787855,-0.009265744,0.005686807
0.9972649,0.1170643,0.2042038,0.01049909,-0.01361554,0.00579691
0.9967224,0.1178634,0.2070723,0.01194211,-0.01936856,0.005788256
0.9992188,0.1221569,0.2008449,0.00883562,-0.01906055,0.00536261
1.003136,0.1247825,0.1919514,0.009571092,-0.01630795,0.005862512
1.002621,0.1233579,0.1930845,0.009480803,-0.01431225,0.00564377
1.001761,0.1208794,0.1950239,0.008523743,-0.01144838,0.005230534
1.000064,0.1186815,0.1891251,0.008814989,-0.01267798,0.005113938
0.9985345,0.1164766,0.1872486,0.007198296,-0.01374794,0.0030378
0.9982001,0.1155433,0.1891184,0.006601168,-0.01208438,0.002348798
0.995857,0.1135307,0.1901443,0.005453699,-0.01240517,0.002548923
0.9946766,0.1105146,0.1944253,0.00202033,-0.01082418,0.002082389
