accx,accy,accz,gyrox,gyroy,gyroz
0.8053173,0.4634894,0.3348352,-0.005670081,-0.07569135,0.253188
0.7913025,0.4703568,0.3201669,-0.02610073,-0.1047802,0.2509551
0.8061469,0.4649882,0.3112994,-0.0150857,-0.04631687,0.2576545
0.8222429,0.45636,0.3152565,-0.0126637,0.01324555,0.243631
0.8190901,0.439166,0.3236958,0.006887868,0.01351194,0.2233106
0.8196724,0.4333772,0.3307755,0.06604079,-0.01640616,0.1994806
0.8290295,0.4435356,0.3285386,0.07444359,-0.02594869,0.157197
0.8295792,0.4484804,0.327632,0.07894396,-0.01495738,0.1358805
0.8351815,0.4691901,0.3248747,0.09885266,0.007160858,0.152751
0.8448971,0.4841036,0.3114449,0.06542039,0.04430802,0.1897392
0.8396766,0.4686227,0.297858,0.02211021,0.05788894,0.2161503
0.8307593,0.4515676,0.299756,0.01413667,0.0416472,0.1942011
0.8242881,0.43383,0.3051503,0.03543887,-0.0005139796,0.1360307
0.823701,0.4388244,0.2984443,0.05261807,-0.06895483,0.07826257
0.8234974,0.468625,0.2973957,0.0546996,-0.09695623,0.05488745
0.8151696,0.4818785,0.2968766,0.05840498,-0.07626631,0.07737564
0.8170643,0.484377,0.2931559,0.0374569,-0.07849184,0.09295552
0.8214652,0.4723326,0.2990997,0.005077522,-0.09945189,0.07683043
0.820983,0.4576978,0.301889,0.01283781,-0.1075945,0.07028197
0.8291274,0.4666042,0.3050198,0.06189272,-0.1139088,0.06971077
0.8326363,0.48136,0.3005554,0.09733265,-0.08834603,0.0695009
0.8325512,0.5035513,0.2810605,0.06048422,-0.02753576,0.0831209
0.8349907,0.5147422,0.2784307,-0.02654543,0.003529803,0.07387982
0.8253053,0.4968707,0.2938488,-0.08942666,-0.007548801,0.06809265
0.8133548,0.4837576,0.3130257,-0.09040321,-0.02773413,0.1062199
0.8115754,0.4779294,0.3231736,-0.04866878,-0.03844941,0.1419749
0.8126726,0.479614,0.317845,-0.01118885,-0.05697734,0.154404
0.8128431,0.495927,0.3167208,-0.004307958,-0.07176168,0.1490926
0.8105389,0.507094,0.3146273,-0.02591758,-0.05662519,0.1472073
0.8039726,0.5101089,0.3105488,-0.05651997,-0.04978244,0.1557266
0.7951455,0.5086785,0.3152796,-0.06063804,-0.05015065,0.1618171
0.7948801,0.5083745,0.3159399,-0.03940808,-0.05783658,0.1871956
0.8041472,0.5088156,0.3151913,-0.02356154,-0.07967341,0.2090375
0.8086842,0.5006947,0.3179225,-0.01505305,-0.06973633,0.2113998
0.810876,0.4947494,0.3209252,-0.006513721,-0.05920339,0.2099786
0.817755,0.48897,0.3227273,0.01229967,-0.06394853,0.1995726
0.8313798,0.4634236,0.3167065,0.03316289,-0.06058406,0.1931377
0.8461873,0.4234941,0.3077858,0.0296156,-0.07630783,0.1541128
0.8399353,0.4113814,0.2979999,-0.01409026,-0.08435613,0.07409758
0.8106094,0.4459461,0.2924148,-0.08495127,-0.05916212,0.0406639
0.7685346,0.4990168,0.308017,-0.09260189,-0.04498218,0.09059032
0.7378901,0.5469322,0.3343175,-0.009816182,-0.07996963,0.2140354
0.762378,0.5458802,0.3379136,0.03792469,-0.1199701,0.3508792
0.8240764,0.5037487,0.3111779,-0.02796485,-0.09722644,0.3575733
0.865027,0.4947911,0.2896458,-0.1156199,-0.0543603,0.2353192
0.8554096,0.5013278,0.2993596,-0.1075389,-0.02651624,0.1754031
0.8190043,0.4966393,0.3144769,-0.04499501,-0.01226839,0.2012809
0.8133337,0.4894683,0.3154127,0.01272301,-0.04497356,0.1965833
0.817716,0.4746214,0.3143158,0.04657054,-0.07878938,0.1766738
0.8115739,0.4801226,0.306511,0.01071616,-0.07641254,0.1682263
0.8196163,0.4865557,0.2972507,-0.01495674,-0.06214433,0.1578553
0.8160831,0.4805151,0.3031664,-0.00128336,-0.03517425,0.1526479
0.8139931,0.4891728,0.3095735,-0.01774684,-0.02731212,0.1531062
0.8178218,0.489791,0.3140856,-0.01275406,-0.0402202,0.1531419
0.8071738,0.4877586,0.3175098,0.005036232,-0.04904709,0.1410984
0.809433,0.4903578,0.3120529,0.006972687,-0.06694977,0.1365508
0.8066755,0.4864306,0.3109225,0.02968918,-0.07012998,0.1455235
0.8075449,0.4855415,0.3085725,0.03028967,-0.05946923,0.1476724
0.8215017,0.4805201,0.3015639,6.76212e-05,-0.05831551,0.1311945
0.8180643,0.4837561,0.3039164,-0.01943379,-0.052832,0.1004591
0.8217559,0.4966343,0.3113949,-0.01295727,-0.05285731,0.09735708
0.8190144,0.5006768,0.3174915,0.0003628801,-0.06656075,0.1150825
0.8027701,0.4970589,0.3155538,-0.01178622,-0.08219365,0.1280746
0.8000179,0.4888623,0.3105026,-0.02545466,-0.08850313,0.1422415
0.7986414,0.4932246,0.3123976,-0.03441846,-0.08214036,0.1460127
0.806035,0.5047772,0.3114335,-0.03581778,-0.07604351,0.1422936
0.8156068,0.5076935,0.306473,-0.02191214,-0.07150898,0.1318722
0.8170619,0.502466,0.3056034,-0.02760429,-0.07324798,0.1212146
0.8246731,0.4892826,0.3067807,-0.02069826,-0.0827575,0.1137287
0.8311583,0.4877862,0.304993,0.008774861,-0.08869504,0.09015567
0.8291228,0.4905102,0.302008,0.01632865,-0.1071753,0.06989918
0.8164588,0.4979196,0.2997849,0.01839779,-0.1455832,0.07623445
0.7975347,0.5318929,0.2928355,0.009743641,-0.1798022,0.09979664
0.7825327,0.5541923,0.2873298,-0.01270818,-0.189249,0.1232208
0.7780498,0.5523746,0.2942264,-0.02579119,-0.1847578,0.14588
0.7930426,0.5449795,0.308334,-0.02781488,-0.1842795,0.1674633
0.8241808,0.5248286,0.3160569,-0.02761821,-0.1482254,0.1894572
0.8488291,0.4993006,0.3126411,-0.05469316,-0.07402832,0.2284603
0.8502341,0.4591033,0.311923,-0.07673324,-0.02916639,0.2397603
0.8474502,0.4108406,0.3190404,-0.05091115,-0.02400015,0.2058189
0.8511125,0.396412,0.3212754,-0.005326771,-0.04486672,0.193954
0.8460976,0.4143613,0.3130446,0.02610342,-0.06769495,0.2120813
0.8393205,0.4263454,0.2968776,0.007078964,-0.06369111,0.2200075
0.8273787,0.4192976,0.2844001,-0.02599209,-0.06956568,0.1887346
0.8017374,0.4236652,0.2871877,-0.01558734,-0.1269107,0.1322898
0.7840064,0.4474864,0.3003458,0.02986944,-0.2495586,0.09810566
0.7806526,0.4740969,0.3108046,0.1374527,-0.4048642,0.09991948
0.7832956,0.5051463,0.3088879,0.2730195,-0.5366123,0.1367062
0.7940712,0.534633,0.2946347,0.3403831,-0.5788218,0.1825039
0.818688,0.554172,0.2609823,0.3378046,-0.4135733,0.2022481
0.8409529,0.5563957,0.2078291,0.2627826,-0.1498884,0.2022434
0.8338333,0.5518255,0.1836137,0.1311872,-0.07589812,0.2028043
0.8304427,0.5484585,0.1984357,0.04988428,-0.1241183,0.208683
0.8596526,0.5230038,0.1913136,0.02370763,-0.08495906,0.2051329
0.8806025,0.487567,0.1739027,-0.03817976,-0.02266373,0.1904187
0.8781951,0.4602975,0.1848038,-0.1016124,-0.008619584,0.1565082
0.8650662,0.4457609,0.1948252,-0.100062,-0.01313585,0.1016167
0.8477978,0.4558689,0.2095821,-0.09400162,-0.04129749,0.07582453
0.8421966,0.4674911,0.2365684,-0.1077569,-0.06664961,0.07975082
0.8483951,0.4665908,0.2400272,-0.08965129,-0.05196465,0.07269667
0.8531501,0.4681956,0.2337332,-0.07292993,-0.0250112,0.06071428
0.8447675,0.4757197,0.2386595,-0.08261968,-0.001071474,0.05013774
0.8356164,0.4815298,0.2470661,-0.09028951,0.04735645,0.03875928
0.8371987,0.4836468,0.2588537,-0.1144809,0.1076499,0.0146927
0.8323182,0.4906838,0.2645146,-0.1431425,0.1417129,-0.0232025
0.8289497,0.5002605,0.27081,-0.1430554,0.1498503,-0.03609944
0.8341851,0.502311,0.2917019,-0.1241673,0.1553413,-0.03739467
0.8325117,0.4985482,0.3042979,-0.09794762,0.1666581,-0.05147229
0.8206903,0.4995466,0.3017603,-0.0765917,0.1588001,-0.04111139
0.8097477,0.4981652,0.3019788,-0.03698565,0.1371303,-0.01269796
0.8220041,0.485308,0.2916828,0.04678544,0.1226911,0.003258101
0.8376264,0.4793553,0.2697414,0.1159012,0.0910379,0.004059359
0.8272845,0.4893209,0.2620394,0.1169229,0.06048005,-0.006372851
0.8147191,0.505754,0.2530027,0.07884046,0.05042214,-0.001621061
0.80994,0.5188938,0.2394024,0.03270526,0.02802442,0.02402864
0.8104268,0.5265703,0.2434087,-0.004956257,-0.0003141512,0.06940175
0.8186182,0.5173356,0.2401949,-0.006351124,-0.01191164,0.1164902
0.8219722,0.4917167,0.2364472,0.002503773,-0.007544152,0.1131357
0.8252351,0.4895404,0.2513179,-0.009114382,-0.0108835,0.08474695
0.8259035,0.5006902,0.2547819,-0.0216384,-0.0232537,0.06049205
0.8156833,0.5050261,0.25561,-0.04602204,-0.01949349,0.02807735
0.8103748,0.5194873,0.2599939,-0.08662972,-0.01523977,0.01802071
0.8049081,0.5291368,0.2624537,-0.1061032,-0.003565842,0.02505943
0.7950331,0.5463025,0.2818914,-0.08869065,0.01562656,0.03661869
0.7957256,0.5636949,0.293919,-0.05561517,0.01286257,0.07313023
0.8023043,0.540421,0.2871217,-0.0341864,0.02420098,0.1041284
0.808235,0.5154847,0.2839608,-0.02639048,0.04620193,0.09922811
0.8117324,0.5068567,0.2854301,-0.0268203,0.03292909,0.08235372
0.8134237,0.4910877,0.2830633,-0.02002343,0.01624547,0.07909251
0.815063,0.4843924,0.2766501,-0.00236201,0.01592358,0.07588046
0.8130879,0.4882815,0.2813695,0.00433692,0.003074009,0.0587018
0.8127803,0.4921184,0.2871059,0.008303791,-0.01264176,0.03866297
0.8133097,0.5038659,0.2839482,0.009357103,-0.01649866,0.03260426
0.8134355,0.5183846,0.2813581,-9.98314e-05,-0.01719335,0.05274738
0.8153715,0.517086,0.2730159,-0.01367693,0.003382383,0.06885039
0.8088073,0.5125809,0.2730469,-0.03065895,0.02613202,0.06157284
0.7982426,0.5235229,0.2828843,-0.02721275,0.01073169,0.05914269
0.7954586,0.53304,0.2856505,-0.01784672,-0.005562824,0.06330034
0.797868,0.5367881,0.2845624,-0.02468651,-0.0005828033,0.06990497
0.8010555,0.5349616,0.277312,-0.02623155,0.005455645,0.0809685
0.8033456,0.5257534,0.2730758,-0.03072009,0.01093212,0.08288211
0.8048902,0.5264164,0.2753683,-0.03027487,0.005550034,0.07997113
0.8033278,0.5257205,0.2748562,-0.02245806,-0.007393644,0.08391645
0.8030522,0.5175447,0.2743166,-0.03248818,-0.008175738,0.0847685
0.8101719,0.5121932,0.2738841,-0.04362645,-0.006378847,0.07396187
0.8170033,0.5012446,0.2780895,-0.05247882,-0.01189674,0.05946263
0.8172198,0.4949586,0.2824283,-0.05514449,-0.0138555,0.04783228
0.8116967,0.4967631,0.2805542,-0.03528306,-0.006340983,0.05134206
0.8057968,0.5017682,0.2815265,-0.01653038,0.003367889,0.06193409
0.8030293,0.5147763,0.2851816,-0.009936918,0.002051309,0.05845806
0.8021765,0.5210444,0.2876044,-0.008936532,-0.001755167,0.05597539
0.804203,0.5179263,0.2878888,-0.01200457,0.004618509,0.05452096
0.8055173,0.515883,0.2860842,-0.01323063,0.005309634,0.05185289
0.8056275,0.5152083,0.2825124,-0.009276813,0.002740207,0.06040661
0.8066521,0.5119209,0.2798916,-0.001424561,0.003329603,0.06601648
0.8061365,0.5077172,0.2806401,-0.0003743766,-0.008582848,0.06782675
0.8065708,0.5104338,0.2787089,-0.002346974,-0.02209344,0.06511686
0.8079853,0.5122575,0.2772133,-0.003762664,-0.0212144,0.05944814
0.8086583,0.5120018,0.2776997,-0.01473793,-0.01327598,0.0620286
0.8078125,0.5135086,0.2776703,-0.02196548,-0.009127183,0.05697147
0.804301,0.5124754,0.2804532,-0.01911262,-0.01074014,0.05064073
0.8022078,0.516144,0.2816363,-0.018661,-0.009923816,0.0534622
0.8032259,0.5198407,0.2847585,-0.02256805,-0.008075008,0.05458064
0.8046332,0.5195141,0.2873362,-0.02534913,-0.01132226,0.05507626
0.8024809,0.5239758,0.2835107,-0.02367191,-0.01443561,0.05132405
0.8006827,0.5271106,0.2805426,-0.02486011,-0.01087181,0.04772992
0.8045339,0.5222905,0.2751899,-0.03066899,-0.0001655688,0.04896511
0.8063611,0.517067,0.2763248,-0.03637585,0.0115265,0.04967088
0.8040013,0.5188781,0.2823813,-0.03858996,0.0131073,0.05020722
0.8010375,0.5181047,0.2786346,-0.03424565,0.001586786,0.04713909
0.7990929,0.5131907,0.2822242,-0.02920962,-0.01186721,0.04571667
0.8004441,0.5157903,0.2886951,-0.02301961,-0.01660957,0.04899945
0.8020726,0.5182026,0.2877951,-0.0176543,-0.005032121,0.04979079
0.8034111,0.5182462,0.2930448,-0.020393,0.009077069,0.04538132
0.8049127,0.5192871,0.2949968,-0.02501369,0.004390356,0.03812253
0.8052854,0.5144008,0.2886343,-0.03002038,0.005357427,0.0379099
0.804027,0.5078424,0.2843316,-0.03051179,0.01580076,0.0434756
0.8006309,0.5033944,0.2860946,-0.01458524,0.004053828,0.04897411
0.7994473,0.5043373,0.2902015,0.009096887,-0.01590412,0.05268411
0.8004848,0.5126544,0.2896781,0.02347617,-0.02876554,0.04943929
0.8020564,0.5176047,0.2876374,0.02335917,-0.03141767,0.04722327
0.8056391,0.5180911,0.2843945,0.01278619,-0.0223998,0.04788236
0.8074235,0.5187965,0.2826244,0.0008356571,-0.02280288,0.04645147
0.8058003,0.5194744,0.2842696,-0.0006028079,-0.02636547,0.04929209
0.8022955,0.5219974,0.282033,0.007892081,-0.02851621,0.05171729
0.8003519,0.5263434,0.2789264,0.0141238,-0.03667698,0.04987892
0.8016739,0.5288016,0.2738033,0.01477836,-0.03064919,0.04965768
0.8012126,0.5259436,0.2705829,0.00486425,-0.01684294,0.04919842
0.7993049,0.5237512,0.2774759,-0.01092699,-0.01339338,0.04672098
0.7984845,0.5254925,0.2827841,-0.01220272,-0.02277129,0.04470212
0.8005778,0.5240349,0.2839201,-0.006925293,-0.03660023,0.04576939
0.8078827,0.5191351,0.2838008,-0.008541395,-0.03016783,0.04975413
0.8128668,0.5144336,0.2819133,-0.009234952,-0.02016969,0.05028644
0.8094494,0.5141861,0.2812251,-0.01082203,-0.02332329,0.03948736
0.804781,0.5164831,0.2776668,-0.01502043,-0.02396033,0.02742641
0.8058852,0.5143509,0.2742327,-0.01701909,-0.02869702,0.03218737
0.8087873,0.5121855,0.2711076,-0.01810119,-0.02687842,0.0372141
0.8087369,0.5124617,0.2683164,-0.01881155,-0.0159509,0.02913833
0.804091,0.5173524,0.2746034,-0.01874968,-0.01645452,0.02933474
0.7975258,0.5252032,0.2792302,-0.01602839,-0.01913962,0.03782891
0.8008167,0.5228113,0.276531,-0.008703781,-0.02703193,0.04301873
0.8104215,0.5178684,0.2760057,-0.001678721,-0.03496901,0.04304132
0.815342,0.5158703,0.2767632,-0.004374864,-0.02524193,0.03201606
0.8158281,0.5089181,0.2783206,-0.01638566,-0.01259816,0.01859894
0.8087613,0.5097039,0.2805783,-0.02580525,-0.005435426,0.01448897
0.8018348,0.5136116,0.284021,-0.02094269,-0.01026202,0.02704963
0.7989671,0.5095751,0.2891407,0.008417788,-0.02565471,0.04488402
0.7951931,0.5128532,0.288149,0.04280719,-0.03780259,0.04268794
0.801527,0.5211794,0.2785628,0.04315533,-0.05027061,0.0387629
0.8116236,0.5263792,0.2686935,0.02179147,-0.05322165,0.04314541
0.811413,0.5263884,0.2669344,0.006884521,-0.03608819,0.03875353
0.8069123,0.5201533,0.2672117,-0.00732977,-0.01013984,0.03775412
0.8034258,0.5204963,0.2626576,-0.01148558,0.00184409,0.0388103
0.8039221,0.5217253,0.2630001,-0.001618274,-0.01289869,0.03466538
0.8065944,0.5194513,0.2663518,0.002039498,-0.0271877,0.03242992
0.80992,0.5209374,0.264758,0.002310055,-0.02672849,0.0285996
0.8134751,0.5188431,0.2653295,-0.003933025,-0.02184678,0.03108364
0.8097686,0.5190696,0.2674972,-0.01704455,-0.009507067,0.0364625
0.8037069,0.5214895,0.2698167,-0.01516339,-0.0005362374,0.0329221
0.8042406,0.5202133,0.2734705,-0.01181382,-0.002882338,0.03264011
0.807204,0.5223679,0.2705113,-0.01631376,-0.003787958,0.0362019
0.8086102,0.5224093,0.2667125,-0.01520883,-0.0009108281,0.03648015
0.8069514,0.5211101,0.2678039,-0.01721515,-8.278308e-06,0.03469114
0.8045537,0.5192496,0.2667405,-0.02019694,-0.001393544,0.02732139
0.8066613,0.5154936,0.2649245,-0.01819581,-0.001872061,0.01925547
0.8087597,0.5193006,0.2619591,-0.01689626,-0.001911137,0.01809086
0.808403,0.5215973,0.2597993,-0.01329321,-0.002638323,0.01945937
0.8103106,0.5159151,0.2626492,-0.008163382,-0.005192641,0.02075405
0.8120414,0.5126318,0.2630324,-0.002471968,-0.01014369,0.02339138
0.8130506,0.5154291,0.2622907,0.003577023,-0.01085783,0.0222357
0.8150515,0.518575,0.2646686,0.002364522,-0.008105953,0.01776296
0.8146596,0.5179914,0.2656822,-0.008899833,-0.003370629,0.0166701
0.8125568,0.5195332,0.2652425,-0.01988543,0.009929498,0.01600454
0.8120028,0.5197142,0.2639891,-0.01909051,0.02008303,0.01774735
0.8122348,0.5148682,0.2627041,-0.009634406,0.01310011,0.02157684
0.8098826,0.5135492,0.2623629,0.0008978,0.0009118024,0.01646351
0.807794,0.5155028,0.2626751,0.007792932,-0.003803217,0.007784859
0.8109525,0.5174511,0.2641846,0.006828162,-0.0007743046,0.001078235
0.8134567,0.5170298,0.264299,0.002085547,0.005171193,-0.003250608
0.8101515,0.5165166,0.263655,0.0006083168,0.003646955,0.0004430892
0.8059116,0.5215765,0.264722,0.002561518,-0.002527451,0.004129386
0.8053396,0.5270156,0.2649454,0.004466533,-0.004446756,0.007538257
0.8077568,0.5297564,0.2633893,0.00140107,-0.002985796,0.0154908
0.8107965,0.5291007,0.260311,-0.01249708,0.0079974,0.01792544
0.8118363,0.5246492,0.2584243,-0.03460071,0.02580234,0.01889545
0.8106358,0.5193153,0.2641105,-0.0452522,0.03489063,0.02150516
0.8101194,0.5148841,0.2709242,-0.03363317,0.02864379,0.01606851
0.8095338,0.51733,0.2681382,-0.01998566,0.01381857,0.005728803
0.8088398,0.5206911,0.2651377,-0.01274733,0.003223916,-0.004935696
0.8105352,0.5188582,0.2657537,-0.006731068,-0.002454364,-0.006393627
0.8132388,0.5204686,0.2620742,-0.01260596,-0.0003124366,0.004262745
0.8145411,0.5213639,0.2621509,-0.0199474,0.008689199,0.006886061
0.8120456,0.5193575,0.2666482,-0.01960376,0.01839342,0.003905675
0.8072921,0.5204364,0.2685627,-0.02033376,0.03043842,0.006008955
0.8045865,0.5236669,0.2704182,-0.01392683,0.02833374,0.008911213
0.805011,0.5271534,0.2692276,-0.009244975,0.01746356,0.01422591
0.8065564,0.5227987,0.2676934,-0.01131717,0.01512582,0.01536072
0.8063876,0.5147632,0.2675261,-0.0061415,0.01374481,0.01675513
0.8077001,0.5144693,0.2649032,-0.004006324,0.01709964,0.0194195
0.8093731,0.5149629,0.2651089,-0.01012091,0.0164858,0.005776113
0.8077649,0.5145025,0.2667265,-0.01822003,0.01367954,-0.007146345
0.808278,0.5166712,0.2701862,-0.0235278,0.0222649,-0.004422729
0.8079092,0.5185153,0.2758052,-0.01973827,0.03081519,-0.0008746573
0.803309,0.5216331,0.2747895,-0.009590999,0.03995917,0.001405467
0.8004077,0.5276468,0.2730607,-0.0001864538,0.03658049,0.007469841
0.8016614,0.5344788,0.2743224,-0.004297872,0.01992128,0.01310014
0.8072452,0.5365906,0.2717897,-0.01605689,0.01605043,0.01350665
0.8121945,0.5304087,0.2663324,-0.01912288,0.02036621,0.01237399
0.8133289,0.5229934,0.2613111,-0.02238135,0.02941648,0.009857529
0.8121903,0.5202952,0.2642358,-0.02694729,0.03276264,0.007692909
0.8099056,0.5176622,0.2722067,-0.02672089,0.02508016,0.008069705
0.8088264,0.5155207,0.2749379,-0.02420785,0.0178166,0.003142346
0.8076082,0.5189134,0.2782316,-0.01420135,0.006658133,-0.0005948078
0.8069842,0.5207179,0.2786223,-0.003472995,0.009250685,0.0009874493
0.8053052,0.5198252,0.2742226,-0.005495242,0.01704922,0.001298065
0.8019784,0.5224039,0.2772537,-0.009491289,0.007968709,0.003855429
0.8029899,0.5239593,0.278782,-0.004803588,0.008380355,0.008314158
0.8040145,0.5252739,0.2757236,-0.004628478,0.01389815,0.01203041
0.8034074,0.5272817,0.2732341,-0.009119897,0.01428057,0.01260814
0.8020531,0.5262641,0.2670535,-0.008095065,0.01751697,0.008358176
0.7987034,0.5261199,0.2671942,-0.008645157,0.01382884,0.002968383
0.8006845,0.5257856,0.2699915,-0.007964017,0.01241856,-0.0002610909
0.8053506,0.5217659,0.2695935,-0.005655001,0.01450674,-0.0005486197
0.8066561,0.5181183,0.27389,-0.007469027,0.01195521,-0.001565366
0.8033052,0.518387,0.2745213,-0.007702652,0.008606238,-0.001987226
0.7977301,0.5177924,0.2742712,-0.006873352,-0.0003742948,0.0003186801
0.7996328,0.5146629,0.2759287,0.004419135,-0.005924709,0.006345216
0.8015836,0.5188523,0.2721779,0.01832375,-0.004725942,0.01372279
0.8001369,0.5258374,0.2704714,0.008849512,-0.009487531,0.0090951
0.8074786,0.5246664,0.2691395,-0.008729105,-0.009256808,0.001601514
0.8130848,0.5210152,0.2674083,-0.0208506,0.01153811,0.00390609
0.8066648,0.5191716,0.2705553,-0.02768171,0.03387987,0.003879775
0.7990001,0.5214901,0.2733984,-0.01632868,0.0264762,0.003731634
0.7979469,0.5252289,0.2748827,-0.0003424738,0.003099017,0.004864176
0.8020678,0.5225739,0.2740399,0.003445202,-0.005740545,-0.0001824486
0.8055368,0.520925,0.2712554,0.004265646,-0.000271071,-0.00291977
0.806109,0.522318,0.271653,0.001276771,0.00844904,-0.002627327
0.8053912,0.5215618,0.2769584,-0.005607162,0.007522362,-0.001814041
0.8053228,0.5239912,0.282605,-0.007123572,0.005261931,0.003140332
0.805727,0.5267653,0.2797347,-0.007575572,0.008850401,0.006192597
0.8046246,0.527602,0.2746166,-0.008410314,0.001434415,0.006260742
0.8047681,0.5312417,0.2751004,-0.008190672,-0.002970129,0.007107807
0.8059311,0.5308508,0.2748887,-0.008645055,0.002455609,0.007475981
0.8050621,0.5249071,0.2748354,-0.005263975,0.0007193995,0.008262517
0.8027708,0.5219771,0.2754346,0.001230317,-0.005777037,0.008029634
0.8011068,0.5210878,0.2745466,0.005829009,-0.01381395,0.005134343
0.8038165,0.5191388,0.2748678,0.005990038,-0.01270048,0.00259088
0.8067829,0.5174669,0.2731245,0.00634918,-0.008811298,0.001682641
0.804266,0.5170858,0.2704691,0.008805164,-0.01440869,0.002713775
0.8014841,0.5212478,0.2707045,0.007701688,-0.01366013,0.006315074
0.8012616,0.527401,0.2707305,0.005330931,-0.01197768,0.009542951
0.8021622,0.5281057,0.2692578,-0.001617812,-0.009340419,0.009984387
0.8059485,0.527162,0.2655688,-0.009638278,0.002996969,0.01365702
0.8094056,0.5275311,0.2626375,-0.007063851,0.007633922,0.01998236
0.806923,0.523419,0.2654056,-0.003666532,0.0002422591,0.01612137
0.8040906,0.5173065,0.2725184,0.0008786877,-0.0104473,0.008059691
0.8063849,0.5156728,0.2772202,0.01471185,-0.01542969,0.007956675
0.8087551,0.5177289,0.2710726,0.02026413,-0.0136166,0.005698418
0.8106083,0.5184304,0.2633168,0.004386473,-0.006067296,-0.004527239
0.8139463,0.5159325,0.2675008,-0.01522106,0.01023073,-0.01395172
0.8136749,0.5148022,0.2702204,-0.01642675,0.01913634,-0.01127701
0.8049777,0.5169934,0.2674002,-0.005505824,0.01557328,0.0005327462
0.794962,0.5209941,0.2727556,0.004945236,0.00463868,0.005881392
0.7980963,0.5251233,0.275697,0.01199667,-0.007813142,0.005823232
0.8060352,0.52539,0.2668044,0.005342138,0.0005198568,-0.002076707
0.8056344,0.5223947,0.2587151,-0.01294407,0.01575136,-0.01447824
0.8074796,0.5199111,0.2591375,-0.02430972,0.01608772,-0.01291921
0.8094695,0.5188881,0.265355,-0.01839787,0.01660679,-0.01065228
0.8076113,0.5194534,0.270681,-0.005309789,0.01377342,-0.01526891
0.8099509,0.5197254,0.2733403,-0.001147746,0.0009625504,-0.01927557
0.8108234,0.5195616,0.2726367,0.002740944,-0.01041211,-0.02664631
0.8107101,0.5212844,0.2699527,0.007213334,-0.01414865,-0.0259189
0.8088727,0.5228701,0.2696457,0.0006788944,-0.003243184,-0.01840275
0.8016253,0.5213949,0.2656792,-0.00598829,0.01304113,-0.01340838
0.7986786,0.5174376,0.2622801,-0.01061403,0.02114949,-0.005269319
0.7999336,0.5148262,0.2672945,-0.009043094,0.02257101,-0.00118601
0.8014964,0.5185089,0.2761012,4.11232e-05,0.01746164,-0.004811097
0.8016167,0.5237203,0.2859629,0.002455032,0.01207774,-0.007988953
0.8005578,0.5239705,0.285591,0.01207067,0.004190007,-0.006205652
0.8001515,0.5287446,0.2751068,0.02026843,-0.005668877,0.0001415839
0.7986146,0.5380426,0.2668466,0.00597041,0.002265186,0.006576504
0.8033492,0.5345094,0.2595902,-0.01339066,0.02195422,0.01009093
0.8104323,0.5198428,0.2582867,-0.02840891,0.03594289,0.009159998
0.809581,0.5092079,0.2612409,-0.02746705,0.03652911,0.0006139165
0.8049253,0.5088515,0.2635332,-0.01448069,0.01675157,-0.01801762
0.7985522,0.5132934,0.2754437,-0.00484645,-0.01059336,-0.02839833
0.7961187,0.5171992,0.2860452,0.009983057,-0.02188946,-0.01726842
0.8007361,0.5257438,0.2796955,0.007043384,-0.003636034,-0.01177494
0.8053123,0.5280678,0.2708772,-0.0144845,0.01824872,-0.02003147
0.8057823,0.5220784,0.2707664,-0.01918108,0.01598178,-0.02070973
0.8013471,0.5257899,0.2733316,-0.01228618,0.01966765,-0.01189128
0.7942298,0.5266193,0.27688,0.002089537,0.0271536,0.001010272
0.7901673,0.5246705,0.2771335,0.01398515,0.01076125,0.01180787
0.795663,0.5292899,0.2708753,0.01242461,0.002457613,0.01164771
0.8059476,0.5233728,0.2683106,0.01016898,0.01095898,-0.001892327
0.8102068,0.5173656,0.2659352,0.00180315,0.01398295,-0.01957754
0.8075076,0.5185223,0.260162,-0.005249948,0.01246406,-0.02470367
0.8010321,0.5182467,0.2637055,-0.007405034,0.007954832,-0.0205814
0.7976258,0.5207823,0.2710939,-0.01361544,0.007045147,-0.0150099
0.8009884,0.5212904,0.2747027,-0.01589515,0.01303659,-0.00620095
0.8042668,0.52306,0.2756342,-0.01882502,0.01838981,-0.005951864
0.8022274,0.5257055,0.2726578,-0.00914504,0.01342913,-0.007917458
0.7982406,0.5261128,0.2707617,0.0102045,0.003238986,0.0001680412
0.7972109,0.530616,0.2655193,0.01092841,0.0008436838,0.001339307
0.7989206,0.5288105,0.2601213,0.004404614,-0.001987183,0.001634847
0.802964,0.5221591,0.2649231,-0.005286805,0.006154095,0.005247808
0.8057982,0.5195491,0.2676147,-0.01700753,0.0247789,-0.003875076
0.8061738,0.5189754,0.2671259,-0.01932224,0.02097907,-0.008903902
0.8071648,0.5206425,0.2729215,-0.01274214,0.008520023,-0.008918814
0.8040177,0.5176756,0.2799027,-0.001926257,0.002531907,-0.014835
0.8007105,0.5151475,0.2841323,-0.0009128331,-0.002416719,-0.01527377
0.8018848,0.5194194,0.2850823,0.002419631,-0.001264776,-0.01472754
0.8007161,0.524136,0.2843618,0.01377788,-0.001727748,-0.009769806
0.7997022,0.5331434,0.2812613,0.01431431,0.0009960796,-0.001564298
0.8019939,0.5392495,0.2757039,0.01218595,0.006093416,-0.0004674403
0.8048269,0.5353719,0.2722362,0.005095055,0.002570991,0.003749829
0.8059665,0.5328608,0.2687956,-0.007093847,0.00365702,0.003749177
0.8052277,0.5272492,0.2661989,-0.006830623,0.004990241,-0.001715229
0.8038044,0.5155314,0.2693614,-0.006224044,-0.001484072,-0.008014005
0.802022,0.5139185,0.2757363,-0.009875535,-0.003752673,-0.02059995
0.8025738,0.5219562,0.2789159,-0.005558045,-0.001333009,-0.01791239
0.8019768,0.524593,0.2769474,0.0004706102,0.002214586,-0.007502006
0.7988443,0.5199521,0.272789,0.007683393,0.003235985,-0.007140062
0.7986187,0.5169397,0.270602,0.01781048,-0.003021221,-0.001004708
0.8005102,0.5215274,0.2715941,0.01982422,-0.01779974,-0.0005749022
0.8029992,0.5288128,0.2662053,0.01334667,-0.02987189,-0.006876422
0.8030929,0.5318944,0.2576965,0.00241936,-0.01658779,-0.004887896
0.8013488,0.5321253,0.2605096,-0.009351782,0.007555477,-0.001289525
0.8021375,0.5299222,0.2672578,-0.01681413,0.01284358,0.005793429
0.8048168,0.5273301,0.2716129,-0.01706423,0.009202065,0.007168091
0.8077288,0.5274106,0.2730654,-0.01058638,0.007480396,0.002871228
0.8057253,0.525709,0.2711811,-0.01058178,0.003560016,0.005317013
0.8025254,0.5218514,0.2726509,-0.009091553,-0.002749928,0.001242736
0.8046108,0.5180466,0.2727876,0.00211712,-0.00922212,-0.003214356
0.8042726,0.5161256,0.2722822,0.005782865,-0.007867919,0.0008640968
0.8013066,0.5203494,0.2746365,0.007187238,-0.00368151,0.004987838
0.7995514,0.5275116,0.2732204,0.008848305,-0.007059316,0.0111936
0.7980994,0.5307855,0.2714453,0.01150427,-0.01459997,0.01332563
0.8005812,0.5288565,0.2680702,0.01736028,-0.02352458,0.01278118
0.8040695,0.5256932,0.2633242,0.0120719,-0.02382806,0.01525888
0.8062901,0.5219769,0.26517,0.003333259,-0.0145183,0.01432437
0.8095489,0.517798,0.2669865,-0.004068286,-0.007718825,0.01273211
0.8095565,0.5197139,0.2680561,-0.003567624,-0.002815725,0.006097185
0.8081635,0.5242701,0.2714127,0.007431913,-0.009971399,-0.004716479
0.8086983,0.5252292,0.2679428,0.007885994,-0.02245806,-0.003008851
0.8080812,0.5249492,0.2626106,0.005043043,-0.01751718,0.003597624
0.8078704,0.5220188,0.2637306,0.00326229,-0.01593836,0.003694869
0.806558,0.5199418,0.2629209,0.002769184,-0.02292439,0.003810867
0.8028522,0.5223446,0.2616237,0.01225086,-0.0236886,0.002865188
0.8021868,0.5244139,0.2651448,0.02512858,-0.0315223,0.001744236
0.804849,0.5249327,0.2654487,0.03627205,-0.0380588,0.002306895
0.8116738,0.5221077,0.2630935,0.01891111,-0.02820679,-0.002750546
0.8193692,0.5176238,0.2628214,-0.01914545,-0.007316238,-0.007863593
0.8155956,0.5161119,0.2655962,-0.03044341,0.01790275,-0.006045922
0.8038777,0.5140123,0.2726489,-0.01979354,0.027008,-0.001590382
0.7984819,0.511927,0.2760946,0.0005320368,0.008237383,0.0001747759
0.8037099,0.5146112,0.2733981,0.0235319,-0.0145148,-0.006905418
0.8134343,0.5190663,0.2674146,0.02802353,-0.01309425,-0.01602885
0.8149491,0.5201869,0.2599332,0.01157617,0.007327233,-0.01845327
0.8086054,0.5192291,0.2601257,-0.007676838,0.02332883,-0.02024911
0.8038861,0.5193615,0.2643343,-0.009491051,0.0214882,-0.01856668
0.8013137,0.5202609,0.2639282,-0.00239597,0.01179849,-0.0121434
0.8018634,0.5235197,0.2634057,0.005105518,0.01106016,-0.0139583
0.8025105,0.5287705,0.2621579,0.01132397,0.003617205,-0.0170588
0.8032568,0.5300367,0.2593992,0.002875438,-0.006396546,-0.01431303
0.8078684,0.5265651,0.2594181,-0.009243148,0.006270598,-0.01688231
0.8069107,0.5234233,0.2600168,-0.01329774,0.01901904,-0.01904567
0.8022545,0.521927,0.2599503,-0.01069816,0.01777321,-0.01945004
0.8016522,0.5219562,0.2620465,-0.003331877,0.01236844,-0.02208534
0.8039178,0.5241455,0.2657742,0.003208776,0.002416643,-0.02193274
0.8096589,0.5242095,0.267114,0.01042908,-0.005872424,-0.02787878
0.8102139,0.5228207,0.2628538,0.01171316,-0.006463372,-0.03149418
0.8052079,0.523977,0.2558846,0.004688115,0.003287439,-0.02403317
0.8036951,0.5235817,0.2529643,-0.003140434,0.01740646,-0.01910354
0.8046047,0.5219307,0.2565395,-0.005962137,0.02330685,-0.01770978
0.8067772,0.5203969,0.2618561,0.002353896,0.01328925,-0.02932803
0.8082914,0.5176996,0.262421,0.00437488,0.01043118,-0.05937418
0.8147687,0.5173667,0.2551027,-0.02501326,0.06353103,-0.09028777
0.8283674,0.5166983,0.239712,-0.08476462,0.1542874,-0.1139317
0.8277833,0.5171114,0.2345628,-0.12772,0.2083077,-0.1278082
0.7953123,0.5314292,0.2654622,-0.09837262,0.1896391,-0.1036509
0.7577986,0.5549571,0.3041204,-0.01721107,0.1080185,-0.0138712
0.7652017,0.5607521,0.3020313,0.03512472,0.03048302,0.07855292
0.7957075,0.5398375,0.2830903,-0.005496558,0.03729924,0.09120811
0.8029198,0.5213965,0.2825067,-0.06207771,0.06582314,0.06698715
0.8025094,0.5228188,0.2853296,-0.02466472,0.03459462,0.07391839
0.7992698,0.5231902,0.2901066,0.001175981,0.02559585,0.08072619
0.7963552,0.5156403,0.2994826,-0.01742881,0.03737172,0.05807943
0.805534,0.5157429,0.2962979,0.01735592,0.01415157,0.01892102
0.8169621,0.5199004,0.2768946,0.02052321,0.02788021,-0.0416549
0.8290159,0.5193416,0.2576013,-0.00921276,0.06657154,-0.07215411
0.8103215,0.519976,0.2679475,0.001749091,0.08681437,-0.04881345
0.7741684,0.5225668,0.2890289,0.007219667,0.07104217,-0.0282064
0.7766201,0.5248695,0.2859799,0.01985316,0.01703876,0.01449277
0.7847183,0.5259932,0.285212,0.008564624,0.009983872,0.0534929
0.7886818,0.5261286,0.2874305,-0.01621444,0.008055471,0.04704336
0.8070115,0.5342191,0.2809291,0.01872915,-0.01831652,0.05581266
0.8102121,0.5439942,0.2807893,0.03493466,0.002226648,0.04067533
0.8067286,0.5397535,0.277088,0.02003149,0.04161329,-0.005250951
0.8088038,0.523222,0.2725993,0.01390221,0.09619847,-0.02262074
0.8042453,0.5023181,0.2682962,-0.009341523,0.1309161,-0.03518261
0.7929092,0.4966286,0.2660931,-0.03455317,0.1255941,-0.02534997
0.7792723,0.5202882,0.2851432,-0.04778174,0.1222739,0.006438471
0.7763746,0.5471294,0.3078826,-0.05087663,0.05770673,0.04126653
0.7810336,0.5498295,0.3177439,-0.05302596,-0.02340267,0.08701637
0.7816148,0.538438,0.3139513,-0.04287449,-0.02935998,0.09388276
0.7871653,0.5333602,0.3044374,-0.005126784,-0.01184275,0.07167103
0.8023206,0.5331893,0.2955904,0.0383469,0.01608628,0.05616966
0.8133412,0.5183954,0.2815509,0.05134444,0.07445864,0.02354203
0.8098928,0.4918649,0.2849906,0.01180901,0.1099595,-0.01909043
0.8007672,0.4853522,0.293539,-0.01763345,0.07678222,-0.05639607
0.7932338,0.5001748,0.2894389,-0.01530841,0.05091977,-0.06060266
0.7835176,0.5142411,0.2979907,-0.02515736,0.05917287,-0.009637673
0.7800851,0.5283764,0.2987886,-0.04454183,0.02779505,0.04341492
0.7874827,0.5398128,0.2962496,-0.07753676,-0.01415011,0.05992075
0.789931,0.5438223,0.3115595,-0.08113836,-0.05395579,0.05978866
0.7836271,0.5453328,0.3154453,-0.05024957,-0.1018025,0.06488195
0.7758022,0.5436294,0.3151814,-0.02069126,-0.1382304,0.07155328
0.7763848,0.5467548,0.31883,0.0397734,-0.1959222,0.07020492
0.8002571,0.5466323,0.3117931,0.06977951,-0.2168343,0.0673263
0.8285082,0.5263202,0.2974233,0.0516595,-0.1559339,0.03952713
0.8297166,0.497969,0.2815671,0.05886572,-0.1054344,-0.02037977
0.8200129,0.4805964,0.2813131,0.06411696,-0.1219726,-0.06725127
0.8157451,0.4860668,0.2945108,0.07298656,-0.1767118,-0.09579939
0.8033717,0.4932533,0.2998361,0.09169364,-0.2083658,-0.1095359
0.7998721,0.4971179,0.2888655,0.07428457,-0.1951734,-0.09182772
0.8102052,0.5251088,0.2680173,0.04790164,-0.1464607,-0.0478732
0.8057018,0.5419741,0.2597503,0.03798604,-0.09023548,0.004141551
0.8017054,0.5386448,0.2618087,0.0325909,-0.06483846,0.02885044
0.803473,0.5452922,0.25956,0.02446364,-0.05839633,0.02578626
0.8014635,0.5391581,0.2589775,0.0158862,-0.05600766,0.03074066
0.8088678,0.5275383,0.2601868,0.01842441,-0.04085456,0.03560436
0.8106939,0.5191933,0.2601677,0.01465951,-0.006988939,0.03142886
0.8106491,0.5026305,0.2613691,-0.003761773,0.01882374,0.02582158
0.8120146,0.4981597,0.2658794,-0.01693139,0.03133159,0.008038318
0.8037869,0.5034337,0.2736492,-0.0255001,0.03145668,-0.004179963
0.8092156,0.506094,0.2819612,-0.02773461,0.02884826,4.955594e-05
0.8152584,0.4996349,0.2880135,-0.02365699,0.02398773,-0.003342754
0.811558,0.490118,0.293323,-0.01563612,0.01009526,-0.008139605
0.8109861,0.4948478,0.2979147,0.01160879,-0.007631938,-0.01038205
0.8021243,0.5030606,0.2919065,0.0419687,-0.02754903,-0.01495186
0.7996153,0.5167188,0.2812149,0.05963542,-0.03226997,-0.01520068
0.8056565,0.5332944,0.2726314,0.0654344,-0.02999985,-0.02028948
0.8058068,0.5344121,0.2607242,0.04524716,-0.02307205,-0.02572909
0.8076806,0.5296576,0.2563704,0.01580666,-0.001485947,-0.02888533
0.8106674,0.5242893,0.2564776,-0.01526754,0.01009924,-0.03306688
0.8154157,0.5212836,0.2566031,-0.04769382,0.02255295,-0.02536807
0.8156014,0.5202028,0.2642364,-0.05125092,0.0369056,-0.01135617
0.8083791,0.5093836,0.2716141,-0.03562384,0.02843581,-0.004614366
0.8050967,0.5016316,0.2807169,-0.01465028,0.005229493,-0.01930659
0.8047014,0.5151109,0.2812205,0.01214204,-0.02805109,-0.0462087
0.8061426,0.5348821,0.2690035,0.01973093,-0.04270598,-0.04727742
0.8056721,0.5334799,0.2669172,-0.002418526,-0.0078043,-0.02871489
0.8034046,0.5239719,0.2666491,-0.03058677,0.03575459,-0.0134385
0.8029974,0.5236589,0.2666232,-0.02873181,0.04027784,-0.004589821
0.8003373,0.5210653,0.2736657,-0.00384196,0.01810888,-0.006487132
0.8011632,0.5219243,0.276002,0.01678943,-0.003818083,-0.01126754
0.8028821,0.5234282,0.2771934,0.02431464,-0.01404587,-0.01474615
0.8036394,0.5196269,0.2736935,0.008467775,-0.007278907,-0.01292743
0.8095635,0.5201803,0.2689695,-0.01192645,0.0124416,-0.005823535
0.8103806,0.5171775,0.2736125,-0.02846655,0.04032682,-0.007674632
0.8053867,0.5141493,0.2787858,-0.03965635,0.04928201,-0.009418986
0.8005415,0.5141942,0.2860926,-0.01950642,0.0223391,-0.0112147
0.7972569,0.5125189,0.2909442,0.006128209,-0.003565682,-0.01869252
0.8004428,0.5198224,0.2856585,0.01519974,-0.01118185,-0.01600528
0.8027343,0.5290995,0.281192,0.0227086,-0.009535123,-0.01330585
0.8005116,0.5293206,0.2817576,0.02596373,-0.006968394,-0.01267033
0.7992819,0.5225874,0.2813221,0.03182892,-0.01312985,-0.002612526
0.7975133,0.5168847,0.2761964,0.03893373,-0.01530069,0.001490884
0.7974035,0.5198845,0.271574,0.03637367,-0.01283968,-0.00227906
0.8020221,0.5222887,0.2692136,0.0273343,-0.01074907,-0.005082851
0.8056376,0.5218484,0.2632363,0.01359355,-0.00178268,-0.007394313
0.8040447,0.5227527,0.2588932,0.001100961,0.002419669,-0.009841842
0.8015741,0.5232094,0.2674945,-0.003762297,-0.00259749,-0.01915079
0.8013127,0.5283783,0.2783083,0.001328108,-0.009311228,-0.03023071
0.8012515,0.5332526,0.2751132,0.005633071,-0.01158792,-0.02600767
0.8019583,0.5263481,0.2723534,-0.0002094027,-0.004335819,-0.0150438
0.8042195,0.5142695,0.2749041,-0.005425154,0.001692253,-0.01293388
0.8061619,0.5111412,0.2728376,-0.006338427,-0.0008676899,-0.0104846
0.805999,0.5184758,0.2734306,-0.000510889,-0.001638557,-0.005613501
0.8049612,0.527721,0.2733142,0.005928882,0.007050614,-0.004188643
0.805719,0.5305965,0.2711619,-0.006600327,0.01373723,-0.008307215
0.8060233,0.5261672,0.2727167,-0.02522765,0.01395083,-0.01827722
0.8059992,0.5235551,0.2716822,-0.03113366,0.02384976,-0.01761572
0.8064514,0.5253332,0.2692672,-0.03165623,0.03461596,-0.009214924
0.8011412,0.5251843,0.2700989,-0.02434685,0.02120785,-0.00742947
0.7938542,0.5236896,0.2799262,-0.002024224,-0.005947295,-0.009007835
0.7939452,0.5225936,0.2919497,0.02072354,-0.01920596,-0.01493929
0.7978479,0.5189726,0.2868774,0.02547808,-0.01720389,-0.01500958
0.7995698,0.5145926,0.2778669,0.01732793,-0.0134639,-0.007756411
0.7994836,0.5157467,0.2778815,0.01051555,-0.0125016,-0.003406045
0.7997912,0.5196347,0.2755977,0.001701156,-0.01327714,0.0002446989
0.7990839,0.5197786,0.2766087,-0.002396746,-0.01828157,0.001059127
0.7963081,0.5208015,0.2822263,0.01190955,-0.03154656,0.005666621
0.7955528,0.528182,0.2839908,0.0276954,-0.03986862,0.00983814
0.7979358,0.5369651,0.2858687,0.03301355,-0.03918179,0.009030163
0.8003745,0.5368765,0.2861921,0.03204299,-0.04860542,0.0146336
0.8012309,0.5292195,0.2839533,0.03119676,-0.05961179,0.01485147
0.8013832,0.5261773,0.2761209,0.03573867,-0.05509525,0.01287081
0.8020967,0.5268483,0.263608,0.02784756,-0.0484409,0.01619754
0.8043097,0.5254721,0.2633535,0.01152378,-0.04786869,0.01362631
0.8081247,0.5247727,0.2660697,0.005882992,-0.0406179,0.01299771
0.808983,0.5257835,0.2581295,0.001524554,-0.03207433,0.01200409
0.8056376,0.5269585,0.2550938,-0.001046003,-0.0342157,0.008703424
0.80318,0.5267335,0.2636595,0.00013455,-0.03692747,0.01091237
0.8027343,0.5277979,0.2722668,0.008319933,-0.04537889,0.01066488
0.8045858,0.5301482,0.2702658,0.02643782,-0.05643646,0.01168612
0.807381,0.5289577,0.2673791,0.03189783,-0.04988981,0.01653553
0.8068251,0.5271108,0.2706371,0.02509033,-0.04495173,0.01901259
0.8048227,0.5240273,0.2684937,0.02191595,-0.05420041,0.01950127
0.8049163,0.5190008,0.2652942,0.02066959,-0.05977167,0.0115343
0.8092316,0.518693,0.2609971,0.01991714,-0.05712156,-0.0002146219
0.8147033,0.5209719,0.2526132,0.01924823,-0.04698987,-0.002187012
0.8139171,0.5237234,0.2536675,0.0152638,-0.02995857,-0.0004415357
0.812551,0.52744,0.2533639,-0.0003872239,-0.01403185,-0.003420092
0.813496,0.5258937,0.2472225,-0.01663478,-0.003473883,-0.004214662
0.8086278,0.5217621,0.2552774,-0.008490358,-0.002309811,0.002166295
0.8033048,0.5220863,0.2638121,0.01655468,-0.01596372,0.009375109
0.8035889,0.5221572,0.2587015,0.03653845,-0.03021047,0.0103218
0.8089554,0.5195226,0.255573,0.0390871,-0.03098907,0.003793982
0.8167506,0.5165482,0.252276,0.01934218,-0.02217055,-0.005654147
0.8162974,0.5141141,0.2452471,-0.005796968,-0.005773149,-0.01093496
0.8122042,0.5152556,0.2472307,-0.01484186,0.007080436,-0.005394157
0.8114695,0.5159886,0.2528843,-0.004629926,0.007488022,0.002649564
0.8070848,0.5152866,0.2554909,0.01166191,0.006298117,8.23996e-05
0.8059699,0.5195122,0.2574326,0.01434385,0.006610326,-0.002501023
0.809978,0.5238495,0.2525138,0.007964412,0.00587417,-0.004362379
0.810578,0.5240061,0.2482218,0.001904563,0.0123109,-0.01127302
0.8103656,0.5223394,0.2533029,-0.007571281,0.02495559,-0.008121152
0.8078039,0.5207952,0.257194,-0.008244001,0.03181014,-0.003598573
0.8030202,0.5204899,0.2590133,-0.0001092452,0.02939338,-0.007049159
0.8011432,0.5189337,0.2615266,0.006937058,0.01257489,-0.004849091
0.8033833,0.5182507,0.2585738,0.01168383,-0.01055859,-0.003622014
0.8074071,0.5222776,0.2535767,0.009399039,-0.0151487,-0.006844406
0.8067748,0.5287903,0.2530436,0.006731642,-0.00845306,-0.006835642
0.8071383,0.5324949,0.2521447,0.00371537,-0.009671526,-0.006158494
0.8106832,0.5320958,0.2488543,-0.001404681,-0.01102346,-0.00307081
0.8091306,0.5325973,0.2501649,-0.007313366,-0.004619532,0.004224538
0.8076417,0.5314438,0.2534203,-0.01546749,0.004478675,0.01076613
0.807188,0.5243827,0.2534371,-0.0109829,0.01033287,0.009508208
0.8069999,0.5175168,0.2527599,-0.004518299,0.004509602,0.003560098
0.8093941,0.5147841,0.2514566,-0.008775291,-0.008441172,0.001554477
0.8082307,0.5131629,0.251728,-0.006349754,-0.01063564,-0.001073481
0.8077394,0.5151472,0.2548508,-0.003817652,-0.007821056,-0.0015269
0.8096391,0.5229243,0.2587613,-0.005384395,-0.008332364,0.0001442384
0.8106588,0.5247231,0.2612626,-0.005510769,-0.004069781,-0.008385864
0.8143325,0.5222234,0.2600985,-0.01534143,0.01111505,-0.01281728
0.8140111,0.5243725,0.2600004,-0.02511625,0.03265792,0.0007613283
0.8093747,0.5215732,0.2602811,-0.019318,0.03343288,0.01599482
0.8077396,0.5159047,0.259265,-0.003552126,0.01492874,0.01646616
0.8082644,0.5131328,0.261916,0.01540881,0.0007501859,0.006587581
0.8108254,0.5130273,0.2616217,0.02468008,-0.01153216,-0.000906697
0.8125066,0.5176252,0.2541212,0.01485371,-0.007966001,-0.00593169
0.8116742,0.5196939,0.2491242,0.003465559,0.00849107,-0.00417981
0.8082675,0.5218257,0.2560774,0.0005152473,0.0154104,0.002426596
0.8043893,0.5229393,0.2646818,-0.0007159969,0.01738,0.001823389
0.8078707,0.5203139,0.2580687,0.005332115,0.006770969,0.002023091
0.8120454,0.5243064,0.2519445,0.01048144,-0.005353587,0.001248924
0.8110104,0.5272848,0.254507,0.004173129,-0.0003730137,-0.002498204
0.8123675,0.5276402,0.2521385,-0.00186962,0.006849249,-0.001436205
0.812335,0.5296097,0.2522248,-0.006296538,0.01453291,-0.003599729
0.8089542,0.5276271,0.253879,-0.007649268,0.01584036,-0.00401813
0.8086598,0.527753,0.2518173,-0.005797555,0.01083375,-0.001736473
0.8088364,0.5271551,0.2531979,-0.00968634,0.01384986,-0.003030217
0.8096206,0.5225587,0.2534791,-0.01357786,0.01375169,-0.001071448
0.8120744,0.5192358,0.2549161,-0.0156671,0.01349879,-0.001802472
0.8108804,0.5182017,0.2587295,-0.01651562,0.01687826,-0.006100671
0.8086873,0.5214747,0.2586331,-0.01136547,0.01450725,-0.00948476
0.80834,0.5248558,0.2597456,-0.003570523,0.01016677,-0.01215163
0.8075716,0.528205,0.2606129,0.003713066,0.003256677,-0.008293171
0.806814,0.5273013,0.260147,0.009279186,0.0009682195,-0.001369842
0.8052977,0.5195341,0.2624871,0.01387309,0.003884881,0.004336511
0.8058627,0.5158328,0.2630478,0.01413533,0.002186175,0.004135668
0.8083683,0.5128044,0.2615586,0.00658725,0.003864325,-0.002633162
0.8082752,0.5171517,0.2597662,0.0008322724,0.00566105,-0.004200403
0.8095415,0.5282927,0.2565211,0.003742321,0.0009108801,-0.005002925
0.8111904,0.5256363,0.2553098,0.006610527,-0.003936711,-0.013104
0.8105508,0.5247354,0.2559142,0.001373854,-0.004567945,-0.01814062
0.809529,0.5292758,0.2553155,-0.001165979,0.005238946,-0.006414704
0.8057836,0.5253515,0.2554975,0.004772463,0.01350192,0.009006085
0.802749,0.5256725,0.2558358,0.01034609,0.002096985,0.002715077
0.8038216,0.5262387,0.2549008,0.01451131,-0.01212996,-0.004668959
0.8076812,0.5220361,0.2530227,0.01393969,-0.0121452,-0.002550729
0.8102161,0.5221549,0.2483586,0.007021675,-0.008633028,-0.01347797
0.8081989,0.5233412,0.2467365,-9.470873e-05,-0.003666258,-0.01911182
0.808782,0.5247748,0.2509227,-0.002703969,0.001983996,-0.01112734
0.808787,0.5255016,0.2517297,0.002279086,-0.004700989,-0.004150214
0.805289,0.5246596,0.2527188,0.007504214,-0.01055157,0.003447798
0.805941,0.5254974,0.2588739,0.009040843,-0.004611568,0.003447996
0.8063394,0.5267915,0.2585783,0.006654989,-0.002915747,0.0004253765
0.8067168,0.5285867,0.2517006,-0.001025515,-0.001028381,-0.001210084
0.8068394,0.5297347,0.2479553,-0.00568351,0.007843434,-0.005113509
0.8049303,0.5298356,0.245164,-0.007852793,0.0127378,0.00038606
0.8085642,0.5301262,0.2424875,-0.007643969,0.01299531,0.004998113
0.8109313,0.5294539,0.2439003,-0.004658082,0.01328684,0.0003627862
0.8093256,0.5288041,0.2479471,-0.007064683,0.01091185,-0.001612809
0.809753,0.5273145,0.2506739,-0.007461449,0.00336187,-0.003977287
0.8096838,0.525552,0.2536143,-0.00545612,-0.0008558447,-0.009327957
0.8094615,0.5255344,0.257926,-0.006898856,-0.002255172,-0.01207772
0.8071863,0.524934,0.2552191,-0.005084209,-0.009780148,-0.01267716
0.802706,0.525608,0.2502161,-0.001827979,-0.01323139,-0.01350537
0.8003427,0.5297552,0.2523931,0.001576284,-0.004767781,-0.007295637
0.80198,0.5328261,0.2519245,0.002645048,0.006203377,0.01122189
0.8068537,0.5299495,0.2501903,0.0001608532,0.005363807,0.02399692
0.8100806,0.5241084,0.2524547,0.002162083,-0.006128368,0.01342408
0.8111574,0.5227223,0.2508573,0.005699148,-0.01151138,0.0007351442
0.8128712,0.523682,0.2476383,0.009026575,-0.009113681,0.007272561
0.8160949,0.5227537,0.2481279,0.009041276,-0.004136393,0.003995664
0.8163658,0.5219505,0.2532424,-0.002490676,0.0009855132,-0.01858924
0.8138986,0.5220357,0.2552613,-0.01767766,0.007492208,-0.03118656
0.8149142,0.5233791,0.250774,-0.02352564,0.0173171,-0.03056567
0.810405,0.5266355,0.2536786,-0.01734084,0.01990091,-0.01785978
0.8014949,0.5296257,0.2587617,-0.007337832,0.009748284,-0.001387614
0.8012715,0.5260633,0.2579022,0.007967324,-0.009987152,0.001995695
0.806012,0.519477,0.2535177,0.02451295,-0.02118318,-0.005649912
0.8097908,0.5209423,0.2429199,0.02073973,-0.01195291,-0.0188467
0.8078955,0.5248391,0.2420617,0.008208307,-0.003564535,-0.01971081
0.8051459,0.5273293,0.2465099,0.002611245,-0.001049453,-0.006736179
0.8069599,0.5316785,0.2424318,-0.001372167,0.002163003,0.0005588338
0.8053095,0.5324569,0.2467518,-0.003457091,0.006563439,-0.002831271
0.8048296,0.5323023,0.2510152,-0.008991915,0.01720424,-0.01014708
0.806502,0.5347729,0.2489646,-0.01058531,0.02431093,-0.005532901
0.8054829,0.5361253,0.2509684,-0.01007617,0.03125917,0.0009991092
0.8083253,0.5327875,0.2495843,-0.01943839,0.04078648,0.001621936
0.8106742,0.5241222,0.2496973,-0.02231644,0.0313318,0.004471532
0.80797,0.5205438,0.251154,-0.01778979,0.01874461,0.0009408355
0.8042501,0.5248374,0.2509097,-0.009502832,0.02293317,0.003340424
0.8018907,0.5286983,0.2535505,0.002125238,0.01589486,0.009196905
0.8035236,0.5291644,0.2509174,0.003848579,0.001456176,0.006491615
0.8044899,0.5250757,0.2478206,0.001887597,0.007670311,0.005108878
0.8012035,0.5205552,0.2488862,-0.001902261,0.01396189,-0.001969614
0.7997207,0.5211827,0.2491786,-0.00570818,0.01082935,-0.003807905
0.8035379,0.526613,0.2522778,-0.002402843,0.01068014,0.001408152
0.8071165,0.5309233,0.2552495,0.002994119,0.004313008,-0.002770416
0.8068936,0.5274474,0.2548484,0.01264641,-0.004178203,-0.01079025
0.811705,0.5178882,0.2562024,0.01663494,-0.01334261,-0.03672076
0.8213865,0.5087597,0.2621564,0.01060312,-0.02356711,-0.08809096
0.8225809,0.5077675,0.2618652,-0.00627298,-0.004708842,-0.1604197
0.813428,0.5131188,0.2411555,-0.0545,0.07533388,-0.2259579
0.7907448,0.5184693,0.2134546,-0.0906754,0.2038412,-0.2001211
0.7648046,0.5285225,0.2134154,-0.05371596,0.2530681,-0.06059792
0.7725063,0.5408952,0.2512557,-0.005424496,0.1425081,0.1028605
0.7972533,0.5492075,0.287243,-0.01226777,0.02294244,0.1509194
0.8004415,0.5485742,0.283234,-0.02821872,0.009782555,0.06205939
1.020704,0.07881666,0.09037285,-0.3063547,-0.1662637,-0.243466
1.017746,0.05459826,0.09528464,-0.2613742,-0.1383053,-0.2617549
1.013657,0.04234775,0.09319523,-0.2163822,-0.1167511,-0.2707799
1.020513,0.04509944,0.0980416,-0.1733576,-0.1143482,-0.2796435
1.02527,0.05592975,0.1036309,-0.1426961,-0.07387592,-0.2981916
1.023335,0.0757462,0.1051468,-0.150336,-0.02591286,-0.309949
1.02278,0.09745519,0.1081675,-0.1576966,-0.01424357,-0.3167075
1.020521,0.1107502,0.1048804,-0.1480532,-0.02302184,-0.3098412
1.01386,0.1378869,0.1029935,-0.1495467,-0.03367454,-0.2711778
1.007095,0.1577969,0.1035845,-0.1474585,-0.03197165,-0.2220765
1.005075,0.1376139,0.09730221,-0.1623257,-0.02554381,-0.2040733
1.011647,0.1213877,0.09063662,-0.1967326,-0.01324493,-0.2156655
1.02387,0.1208907,0.08842762,-0.199143,-0.0004258001,-0.2161717
1.031206,0.1211026,0.08525678,-0.191839,0.01057329,-0.1992722
1.030529,0.1364225,0.07739595,-0.1967586,0.03784777,-0.1839186
1.029862,0.1395182,0.07616655,-0.2028661,0.05587758,-0.1653945
1.030422,0.1252711,0.08132088,-0.2278076,0.05762934,-0.1618297
1.024057,0.116952,0.08137081,-0.268498,0.06891006,-0.1817031
1.00751,0.1110403,0.08748978,-0.2831963,0.08162877,-0.1838537
0.9894445,0.1178806,0.1054521,-0.2506484,0.08339092,-0.1608919
0.9864999,0.1216893,0.1267673,-0.2286413,0.07795288,-0.1346317
0.9987345,0.1095269,0.1400677,-0.2553749,0.06619155,-0.1313075
1.007497,0.09601593,0.1397413,-0.2839886,0.02726518,-0.1508434
1.009488,0.08146212,0.1393363,-0.2868824,-0.008347885,-0.1537702
1.010677,0.08058476,0.1384288,-0.2579017,0.00802813,-0.1445451
1.01153,0.0766874,0.13349,-0.2115534,0.02882327,-0.1384476
1.014809,0.0603945,0.1345135,-0.2019726,0.03714161,-0.1403399
1.01632,0.06302539,0.1354192,-0.2304961,0.05738522,-0.1518298
1.014705,0.06569922,0.1341,-0.2461204,0.06338923,-0.1523145
1.015181,0.06574718,0.134526,-0.2342485,0.06145209,-0.1518349
1.012959,0.07889303,0.1321566,-0.216934,0.06642015,-0.1522492
1.004082,0.08403526,0.1305181,-0.1996621,0.06719494,-0.1552173
0.992779,0.0884213,0.1320777,-0.1843889,0.0680954,-0.1710537
0.9903012,0.09607094,0.1344673,-0.1934831,0.06596134,-0.1707181
1.000777,0.09809598,0.1419084,-0.2047202,0.06083549,-0.1611118
1.010296,0.1053227,0.1528288,-0.1899444,0.05823652,-0.1561797
1.012685,0.1096675,0.1530556,-0.1850042,0.04991136,-0.1461617
1.013022,0.1062533,0.144753,-0.1899272,0.03176665,-0.1359472
1.014119,0.09592881,0.1416392,-0.1838111,0.02152498,-0.1192447
1.015584,0.07445393,0.1389405,-0.1797892,0.04600933,-0.1078283
1.012598,0.06292306,0.1411278,-0.1631756,0.07660635,-0.1148857
1.004511,0.06403261,0.1564223,-0.1397072,0.07197797,-0.1309189
0.9942621,0.06833546,0.1700535,-0.1379045,0.06315185,-0.1459859
0.9871279,0.08500539,0.1719787,-0.1468861,0.05996929,-0.1435622
0.9897231,0.09646969,0.1661762,-0.1519705,0.03345933,-0.1308731
0.9971911,0.09430694,0.1616436,-0.1563764,0.003123593,-0.1274755
1.001688,0.09453437,0.1570123,-0.1700821,-0.00441375,-0.1281214
1.001549,0.09643761,0.1563945,-0.1770896,0.00180448,-0.125159
0.9997201,0.1050621,0.1714264,-0.1555332,-0.006668779,-0.115178
1.002683,0.1135979,0.1761438,-0.1226533,-0.04416345,-0.08792476
1.010674,0.1042501,0.1597859,-0.1029163,-0.08634451,-0.05154246
1.019445,0.09052995,0.1462752,-0.1056117,-0.09644772,-0.03581796
1.021281,0.08436893,0.1402074,-0.1082105,-0.06525872,-0.04021364
1.013825,0.07472326,0.1412454,-0.09485637,-0.02665758,-0.03857765
1.0072,0.0629143,0.1424523,-0.09334052,0.001472779,-0.03590017
1.002815,0.06369335,0.1448082,-0.1001279,0.0251507,-0.04615048
1.002693,0.06821845,0.1530512,-0.09943326,0.02676284,-0.04950267
1.006353,0.06929393,0.1507273,-0.1001575,0.009053889,-0.03923714
1.004251,0.07982734,0.1476958,-0.09386755,-0.01846265,-0.03501338
1.005686,0.08710838,0.1518215,-0.09052288,-0.04292162,-0.03752727
1.010694,0.08107796,0.1503802,-0.1067399,-0.02808317,-0.04041883
1.013498,0.07528197,0.1538731,-0.1288093,-0.001059403,-0.04106767
1.017191,0.07038785,0.159346,-0.1396519,-0.0001139244,-0.04098324
1.008043,0.06732751,0.1569791,-0.1315366,-0.0169158,-0.04446857
0.9989976,0.06711859,0.1582137,-0.1260726,-0.04781241,-0.05007079
1.007176,0.06560382,0.162023,-0.1276972,-0.06188828,-0.05625227
1.012321,0.06564371,0.1622251,-0.1180967,-0.05751902,-0.05005129
1.012722,0.06377937,0.1622005,-0.1079611,-0.0733807,-0.03834319
1.016845,0.06102033,0.1590585,-0.09114075,-0.08594503,-0.03789115
1.019638,0.06283992,0.1463857,-0.07141863,-0.07909545,-0.03337264
1.020117,0.0621289,0.1345184,-0.06869693,-0.07705593,-0.03197111
1.016266,0.06101361,0.1388379,-0.06805675,-0.07892539,-0.03633011
1.008621,0.06329628,0.1454051,-0.06667713,-0.07702786,-0.02281668
1.00679,0.06200125,0.140618,-0.06278527,-0.07361569,-0.01219824
1.012354,0.05797168,0.1349525,-0.05810757,-0.07253209,-0.02174417
1.016979,0.05079734,0.1288869,-0.06977604,-0.06776499,-0.03594455
1.019886,0.04445565,0.127926,-0.07591716,-0.05520444,-0.04267011
1.01642,0.04688876,0.1367627,-0.0592162,-0.04447448,-0.02811872
1.007955,0.04774987,0.1378548,-0.04525021,-0.04060179,-0.01370645
1.006608,0.04537139,0.137948,-0.06122763,-0.04670723,-0.03306479
1.006107,0.05036346,0.1424177,-0.09576871,-0.07490663,-0.06088092
1.007644,0.05431576,0.1374873,-0.1121292,-0.1274544,-0.06493883
1.014595,0.0488137,0.1307395,-0.1016292,-0.1474566,-0.05188652
1.01539,0.0415502,0.1202137,-0.08292986,-0.09732656,-0.04300894
1.014278,0.03825883,0.1119233,-0.07491376,-0.0412995,-0.05652615
1.012224,0.04052881,0.1224956,-0.07147944,-0.02653679,-0.07334432
1.009342,0.04765586,0.1310669,-0.07055987,-0.04685844,-0.06955008
1.01606,0.05266934,0.1308569,-0.08050629,-0.07121336,-0.06194763
1.023048,0.05198715,0.1336891,-0.0800348,-0.06712963,-0.05417069
1.021218,0.05036425,0.1314812,-0.07039426,-0.06563002,-0.04497969
1.020022,0.05002391,0.1238907,-0.0617982,-0.07830835,-0.04763129
1.023282,0.04597044,0.1187482,-0.05610735,-0.0812239,-0.05070251
1.023237,0.04003491,0.1171635,-0.06478278,-0.07737331,-0.04849355
1.016592,0.03974197,0.1168987,-0.06322963,-0.06998849,-0.04587381
1.007565,0.0416171,0.1125006,-0.04363118,-0.0741149,-0.04163994
1.004052,0.04019495,0.1025999,-0.0252054,-0.07840655,-0.04560056
1.013268,0.03375607,0.09426685,-0.02054356,-0.0572944,-0.05337939
1.026409,0.02774196,0.09204512,-0.03221453,-0.01547533,-0.06180132
1.02999,0.03527194,0.09946232,-0.04920666,0.03677358,-0.08851929
1.020935,0.04758171,0.113348,-0.08967159,0.04533141,-0.1135466
1.009113,0.05193497,0.1176553,-0.1172349,0.00548445,-0.1044152
1.012148,0.05757488,0.1161564,-0.09438504,-0.01188032,-0.08686881
1.024587,0.0607111,0.1143086,-0.08852586,-0.00811993,-0.08380149
1.031007,0.05749314,0.107155,-0.1012748,-0.003733772,-0.08145457
1.02682,0.0614336,0.1092927,-0.1036086,0.005544343,-0.07726041
1.015209,0.06700168,0.1153726,-0.1149332,0.0110011,-0.06418068
1.010923,0.06656922,0.1155118,-0.1054721,0.002164713,-0.04723542
1.012766,0.06548377,0.1187464,-0.07445324,-0.01995737,-0.042728
1.01784,0.06085807,0.1131908,-0.05871713,-0.02256565,-0.03492729
1.028085,0.05203422,0.1029343,-0.05527082,-0.01082018,-0.03284173
1.026836,0.04085442,0.1002254,-0.05673428,-0.003064433,-0.04725877
1.018997,0.03495408,0.09699218,-0.05083351,0.02411852,-0.04936472
1.013936,0.04229737,0.0966447,-0.04298975,0.05371209,-0.04383897
1.008602,0.04647284,0.0982435,-0.05771487,0.0677578,-0.04563174
1.011191,0.03969131,0.1048066,-0.07932162,0.07359102,-0.05152186
1.011757,0.0354972,0.117377,-0.08831152,0.07187329,-0.06351153
1.006103,0.03662798,0.1184702,-0.08541296,0.07189773,-0.07119202
1.005203,0.04149756,0.1186237,-0.07428692,0.06527972,-0.07193329
1.006618,0.05182889,0.1258594,-0.06267918,0.05197236,-0.074482
1.013683,0.06250451,0.1261505,-0.05171444,0.04040408,-0.07190878
1.022674,0.06581225,0.1273096,-0.05086154,0.02829562,-0.0582405
1.022834,0.06718017,0.1296969,-0.05462458,0.02474581,-0.04517292
1.018003,0.07510704,0.1253073,-0.04961247,0.02191031,-0.04338372
1.014423,0.07998334,0.1239514,-0.05038547,0.01316115,-0.04512617
1.011807,0.07488345,0.123301,-0.05017309,0.005400563,-0.04165034
1.006729,0.06777539,0.1193391,-0.0440023,-0.008061434,-0.03436613
1.006519,0.06070196,0.118941,-0.04098525,-0.01833629,-0.02790695
1.012609,0.0536354,0.1129532,-0.02851182,-0.01215081,-0.02829084
1.012711,0.05115672,0.1009505,-0.02048094,-0.0001869542,-0.03322271
1.011577,0.05006754,0.1010241,-0.03717592,0.01699134,-0.03412725
1.013368,0.04897695,0.1094376,-0.05781359,0.03232637,-0.03461733
1.012197,0.05071741,0.1191558,-0.05748857,0.01556163,-0.04541646
1.013133,0.05012677,0.1314917,-0.05204814,-0.01863665,-0.06295422
1.017483,0.04998568,0.1302147,-0.05706202,-0.03017422,-0.06852576
1.020371,0.05523728,0.1218115,-0.04549736,-0.009272388,-0.05747809
1.019433,0.06109403,0.12449,-0.02736742,0.02847851,-0.04818233
1.013515,0.06611066,0.1213867,-0.03017053,0.03949571,-0.04594166
1.005893,0.06710416,0.1193246,-0.04191962,0.01426677,-0.04852575
1.001896,0.06684444,0.1307285,-0.05418843,-0.01626305,-0.05512901
1.009699,0.06871048,0.1316989,-0.05103871,-0.03446441,-0.05168143
1.023319,0.06553654,0.1251171,-0.03886873,-0.02274675,-0.04909361
1.024442,0.06089172,0.1218745,-0.04033657,0.002936611,-0.05804625
1.016888,0.05718523,0.1184094,-0.04652428,0.02124742,-0.06075073
1.011058,0.05490384,0.1169801,-0.05563171,0.03562793,-0.05918932
1.010199,0.06255389,0.1146031,-0.05624986,0.03495146,-0.05654434
1.014803,0.07621785,0.1222465,-0.04846308,0.03575476,-0.04941821
1.014779,0.08488626,0.1373113,-0.04683101,0.02956708,-0.03578258
1.008719,0.08222335,0.1416477,-0.03245906,-0.01075239,-0.01698917
1.004734,0.0762244,0.1428943,-0.02313946,-0.03063007,-0.01390619
1.010603,0.07667656,0.1345295,-0.03953906,-0.008333411,-0.01685334
1.023629,0.07709646,0.114562,-0.04830453,0.009761774,-0.007548253
1.025939,0.07741976,0.111556,-0.03923649,0.004798513,0.0004553963
1.017845,0.07644805,0.1229458,-0.02876202,-0.01228605,0.00477453
1.011223,0.07157263,0.127159,-0.02622424,-0.01983447,0.006852958
1.01034,0.07097834,0.1247244,-0.0261832,-0.009256622,0.008939586
1.013065,0.07048655,0.1220922,-0.02090772,0.006579196,0.01243257
1.013993,0.06756998,0.121277,-0.01516901,0.004843227,0.01299687
1.017483,0.06701777,0.1199166,-0.01232841,0.001502482,0.0184779
1.018044,0.07027086,0.1168808,-0.01398652,0.02072499,0.02559386
1.015176,0.08027767,0.1149299,-0.01229649,0.02729624,0.03238111
1.019429,0.0861567,0.1154416,-0.005921165,0.01047121,0.04085286
1.019876,0.08004728,0.1171035,-0.006046169,-0.004137224,0.03866524
1.016822,0.06729482,0.1141291,-0.01577127,0.001137974,0.03436535
1.016873,0.05587564,0.1124261,-0.02431932,0.0243481,0.03950592
1.014859,0.05968996,0.1210733,-0.0034941,0.04202459,0.05011668
1.011868,0.06905373,0.1279116,0.02244241,0.05092738,0.06188565
1.00729,0.06786806,0.1262921,0.0114474,0.0298589,0.06236387
1.009751,0.0668117,0.1252917,0.0002537775,-0.01607153,0.05860497
1.015378,0.06644467,0.1267688,0.001988261,-0.03323067,0.06051322
1.011255,0.06213741,0.1244695,-0.003180891,-0.01444437,0.05453101
1.009983,0.06070514,0.1204595,-0.005021603,0.008498113,0.0505213
1.010486,0.0603354,0.121518,-0.01480979,-0.003918229,0.05514446
1.009175,0.05811956,0.1253218,-0.02273581,-0.02355553,0.05256621
1.014118,0.05102887,0.1317447,-0.005894417,-0.01778635,0.05039821
1.016007,0.0441083,0.1344848,0.006824202,-0.00661371,0.0498985
1.013119,0.04696763,0.1271933,0.002368879,0.01631791,0.04157352
1.011026,0.04685434,0.1235585,-0.007287323,0.00504162,0.03190976
1.010645,0.04219308,0.1277579,-0.01706744,-0.02545023,0.02207841
1.012981,0.04301017,0.1304556,-0.0167925,-0.01492028,0.01081935
1.01434,0.04261176,0.1282775,-0.01323669,-0.02016128,-0.001864154
1.015711,0.04515766,0.1269692,-0.01603787,-0.02739175,-0.0083581
1.015759,0.05067904,0.1303094,-0.01778855,-0.02613802,-0.003242505
1.014491,0.04725213,0.1283648,-0.01562485,-0.04423633,-0.002029772
1.016325,0.04208143,0.1162022,-0.008722246,-0.02924027,-0.004140776
1.017943,0.04091717,0.1015622,0.002524436,-0.0006641196,-0.005839753
1.019882,0.03859778,0.09759515,0.00856508,0.02450602,-0.01551144
1.020816,0.03695639,0.1005023,0.003168182,0.05445934,-0.02588404
1.022173,0.03895045,0.09807544,-0.01760547,0.06275399,-0.03914129
1.030234,0.0457258,0.1023949,-0.03875042,0.07522711,-0.05450237
1.031656,0.05127171,0.1119181,-0.02269721,0.0716068,-0.06303045
1.017208,0.04379036,0.1217494,-0.001637124,0.02607879,-0.07795437
0.9976455,0.03304913,0.1393982,-0.02370562,-0.003210844,-0.08878735
0.9830667,0.03975132,0.1471893,-0.03391654,0.01500317,-0.07405546
0.9802644,0.06808009,0.145898,-0.01179345,0.03614648,-0.03882006
0.9968616,0.1022319,0.1457518,0.006197181,0.01197529,0.01206456
1.022481,0.1048573,0.1388277,0.02094085,-0.01054394,0.03937037
1.026458,0.07298627,0.1342898,0.01380191,-0.005292543,0.02080481
1.017544,0.05156247,0.1285443,0.002464852,-0.01152823,0.003860527
1.017904,0.05253441,0.117851,0.02017265,-0.0152705,-0.01191998
1.012251,0.06401502,0.111001,0.02540946,-0.01575528,-0.02654302
1.009012,0.07389469,0.09885659,0.009984749,-0.001513381,-0.005045609
1.011736,0.06724018,0.09567576,-0.006028773,0.02210174,0.005925822
1.004673,0.05891662,0.1149335,-0.02086946,-0.009936382,-0.008242943
1.006103,0.05292777,0.1331257,-0.02671893,-0.04016374,-0.008025265
1.011325,0.04784502,0.1379414,-0.03490911,-0.01476993,-0.008704155
1.013933,0.06733789,0.1305658,-0.0315757,0.01860435,-0.006226117
1.028958,0.09845626,0.1169486,-0.00538855,0.06509787,0.01695349
1.03587,0.1068004,0.1074528,0.01161129,0.09747691,0.04807864
1.029772,0.08484309,0.1076966,0.01476117,0.07846306,0.05604662
1.025885,0.06123093,0.1147758,0.006941388,0.06376022,0.02615582
1.020097,0.06187098,0.1177212,-0.006303,0.06653509,-0.001125529
1.012258,0.05956743,0.1252026,-0.005535609,0.05693855,-0.009403003
1.003341,0.05103432,0.1356421,0.003548202,0.04217251,-0.006448259
0.9984864,0.05649647,0.1332665,0.01148728,0.01466928,0.002860991
1.002082,0.05835875,0.1310866,0.006552214,0.003358429,0.005169038
1.00902,0.06368786,0.1213652,-0.002461347,0.04214082,0.01886223
1.018477,0.07421502,0.1083312,0.005109085,0.06349811,0.03152407
1.023276,0.06489663,0.1279443,0.008011059,0.04447929,0.01914638
1.020187,0.05730565,0.1481386,0.008483461,0.0263689,0.01052969
1.015509,0.06541509,0.1381765,0.0170936,0.00855923,0.01393946
1.007483,0.06868769,0.1341946,0.0137688,-0.007967024,0.0111044
1.004089,0.06844792,0.1392604,0.003514147,-0.01616245,0.003988671
1.007755,0.07200769,0.1304362,-0.004248584,-0.01353724,0.01776853
1.005235,0.07556849,0.1246344,0.002821961,-0.01361876,0.05153484
1.004747,0.07488974,0.1293549,0.02204717,-0.02160522,0.07391064
1.009719,0.06973071,0.1292775,0.02467362,-0.02626297,0.07109796
1.013325,0.06318339,0.1287627,0.01644916,-0.03716056,0.0454371
1.021717,0.06012124,0.1275354,0.001190785,-0.03368089,0.01856699
1.026131,0.0654688,0.1232079,-0.01323186,-0.00422142,0.007454408
1.023653,0.06975188,0.1202267,-0.002007665,0.02255156,0.01775727
1.020993,0.06223677,0.1172613,0.008233542,0.02788376,0.03021819
1.012989,0.0506638,0.1222871,0.0002995776,0.0119491,0.01454663
1.006971,0.04526941,0.1274869,0.0001848036,-0.003398758,0.007796452
1.007295,0.04990224,0.123398,0.006936194,-0.01704778,0.02020613
1.010577,0.05745793,0.1230271,0.01180308,-0.01448666,0.02519232
1.0159,0.057712,0.1251142,0.02390394,0.002391606,0.03270461
1.016345,0.05759812,0.1250278,0.03768344,-0.01220827,0.0245597
1.01684,0.06090021,0.1251381,0.03857603,-0.01982924,0.008707878
1.02168,0.06141374,0.1247955,0.02659108,-0.005879705,0.008240456
1.022843,0.06262672,0.124606,0.01566722,-0.006402463,0.00609187
1.020208,0.06815538,0.1212304,0.01903453,0.001264841,0.006983761
1.018652,0.07425155,0.1145627,0.02275006,0.002341551,0.01426971
1.019136,0.0713045,0.1126572,0.01775805,-0.001984734,0.02050345
1.018026,0.05893696,0.1221599,0.01820917,0.005923183,0.01482567
1.015766,0.05058254,0.1318167,0.01335653,-0.005390868,-0.0002629719
1.016407,0.04991027,0.1281948,0.003502772,-0.01207351,-0.002065802
1.016276,0.05607031,0.1255363,0.008260706,0.002641339,0.000502913
1.01461,0.06844527,0.1293952,0.01900042,0.0108112,0.00800899
1.01508,0.08082831,0.1263708,0.02652797,0.008509737,0.02214508
1.014569,0.08198212,0.119383,0.02315989,0.004927747,0.02251794
1.012393,0.07343751,0.1109931,0.01525249,0.006032163,0.02153757
1.01259,0.07454028,0.1055616,0.01681032,-0.008745016,0.02013158
1.014839,0.07445331,0.1122347,0.003874381,-0.03271478,0.005670421
1.017526,0.06240378,0.1179742,-0.0148808,-0.03530547,-0.002778861
1.018834,0.05720033,0.1195302,-0.006168607,-0.02441388,0.004150732
1.017864,0.06213156,0.1231109,0.007456635,-0.00325802,0.01275352
1.017103,0.0717525,0.1204893,0.01168332,0.01766505,0.01673458
1.01463,0.07250436,0.1187155,0.01413757,0.01403408,0.02024474
1.010326,0.06651329,0.1212006,0.00943981,-0.002695723,0.01605528
1.011124,0.06542544,0.1222611,0.007042585,-0.004955405,0.005973707
1.01554,0.05977062,0.1251133,0.007694028,0.01149211,0.004848834
1.017216,0.06334757,0.1203685,0.004279658,0.02571846,0.001476777
1.016046,0.07062875,0.1126136,0.005159952,0.02020187,-0.002820568
1.014568,0.06588089,0.1154901,0.00752331,0.007072975,0.008675982
1.015243,0.06885215,0.117293,0.009007902,0.008989164,0.01904274
1.015236,0.07285941,0.1159005,0.008758512,0.02081995,0.01870648
1.01213,0.07306422,0.1182741,0.00394347,0.02930125,0.02245958
1.010623,0.07397916,0.1221341,0.003809889,0.02253937,0.02828483
1.012222,0.06986613,0.1272264,0.00458438,0.007731452,0.02451174
1.014835,0.07067141,0.1277206,0.005315183,0.01589397,0.01838459
1.01593,0.071601,0.1245955,0.01214369,0.02382409,0.01770417
1.014676,0.0700918,0.1248956,0.01534701,0.02047254,0.01824506
1.013446,0.07242326,0.1228373,0.01174657,0.02352097,0.02229052
1.012826,0.07222611,0.1217457,0.002725754,0.008751254,0.02575622
1.015689,0.07145691,0.1248854,-0.003977619,-0.00249688,0.02645723
1.019522,0.06886992,0.1235314,9.888915e-05,0.004471302,0.02778051
1.017126,0.06519832,0.122211,0.005018938,0.004954924,0.0253165
1.014237,0.06626557,0.1208679,0.008937562,0.01025372,0.02717111
1.013816,0.06530992,0.1164305,0.01909876,0.01744993,0.02966293
1.01191,0.06202545,0.1178893,0.02731782,0.01942575,0.02527288
1.012107,0.06242261,0.121137,0.01945391,0.01720034,0.02334498
1.013177,0.06475687,0.1242217,0.009728691,0.01131576,0.02044267
1.0121,0.06567545,0.1293883,0.01375102,0.008567915,0.01845661
1.013002,0.06532588,0.1266992,0.008299964,0.007752208,0.0132649
1.015497,0.06551187,0.1230362,-0.0058916,0.0143658,0.004460316
1.01731,0.06793679,0.1272208,-0.00123887,0.02146945,0.01626142
1.018258,0.07319758,0.1301238,0.0194609,0.03107516,0.03289131
1.018614,0.07593658,0.1323806,0.03503584,0.04665112,0.02844588
1.019954,0.07171304,0.134145,0.02062309,0.04925733,0.0122865
1.019693,0.06519865,0.1299718,-0.007808209,0.04732377,-0.006308766
1.017932,0.06143331,0.1266036,-0.008762278,0.04719197,-0.011908
1.015116,0.05951268,0.1251687,0.009635419,0.04577001,-0.003241873
1.008533,0.05800978,0.1229313,0.03516298,0.04481384,-0.002807329
1.004263,0.05661144,0.1255416,0.04980307,0.03709088,-0.007706299
1.001665,0.05524433,0.1320721,0.0223439,0.02114354,-0.01109537
1.000064,0.0615562,0.1354911,-0.002885239,0.003460349,-0.01681367
1.010796,0.08255875,0.1292432,0.008324774,0.01315072,-0.004168006
1.025464,0.1031834,0.1171431,0.01551388,0.04451719,0.03474195
1.027472,0.09848603,0.115406,0.01668269,0.0669326,0.0641786
1.017123,0.07515427,0.1293496,0.02233033,0.07551671,0.05063635
1.004192,0.06058374,0.1454545,0.005838575,0.03071678,0.01121397
1.001277,0.05909047,0.147181,-0.01425828,-0.02458023,-0.01202294
1.007705,0.06510232,0.1409874,-0.005136673,-0.003910496,-0.01050342
1.01117,0.07011759,0.1413405,0.005712206,0.02097937,0.007044811
1.007028,0.06781961,0.1395199,0.008875729,0.01185545,0.01996116
1.004969,0.06560008,0.1336445,0.01703165,0.009972877,0.0143932
1.013249,0.06167245,0.1314331,0.01127717,-0.00214252,0.008104922
1.02211,0.06273432,0.1309723,0.005940062,-0.001364832,-0.002048224
1.02197,0.06743743,0.1332687,0.01770932,0.01204288,-0.01328382
1.012918,0.06054205,0.1348492,0.02695414,0.001976302,-0.01685234
1.002326,0.06126186,0.1348736,0.03234278,0.004475085,-0.022873
1.002671,0.07938428,0.1306646,0.02851376,0.01130648,-0.01543726
1.011897,0.101451,0.117907,0.02570383,0.01283875,0.009554378
1.017836,0.1061111,0.1162088,0.04777198,0.04018308,0.03062365
1.016704,0.07776082,0.1295521,0.06439489,0.05053796,0.009332922
1.015467,0.0505526,0.1381412,0.04734539,0.01276859,-0.05976442
1.015972,0.05090933,0.1353419,0.01583456,-0.03609453,-0.1085556
1.007937,0.06895235,0.1295515,-0.00129167,-0.03663787,-0.1015912
0.9974292,0.08342492,0.1309049,0.00388323,0.01464599,-0.04596267
0.9973521,0.0781162,0.1322123,0.01299704,0.0409406,0.00849591
1.001253,0.07452464,0.1378231,0.01753327,0.02079567,0.005237077
1.006452,0.07719797,0.1541489,0.02524434,-0.01439074,-0.02158975
1.013248,0.07227142,0.1593952,0.02376237,-0.06658609,-0.07173836
1.012253,0.07319636,0.1483703,-0.006072461,-0.1205215,-0.1582682
1.008219,0.0778541,0.1289693,-0.02744092,-0.08093164,-0.1727655
1.009894,0.08211541,0.1150167,0.01182276,0.03770562,-0.06684965
1.007002,0.100624,0.120614,0.05865985,0.06479065,0.0296118
0.9982364,0.1201561,0.127055,0.03999418,0.01148345,0.02929806
0.9942893,0.1158096,0.1295582,0.0003504408,-0.03934798,0.01166524
0.9965732,0.1056403,0.1444061,-0.01589235,-0.1005554,0.02946027
1.005663,0.1098939,0.1524307,-0.01783813,-0.1243819,0.03911938
1.016983,0.1123713,0.1302305,0.00303527,-0.07420402,0.04619913
1.02164,0.1151418,0.1094259,0.03167485,0.01823087,0.07324295
1.015138,0.1186792,0.1201084,0.0514802,0.03808564,0.08402279
1.000144,0.1028274,0.1276244,0.0456418,-0.03008172,0.07652122
0.993716,0.08380613,0.1174617,0.01949615,-0.06209538,0.0703757
1.009322,0.07565347,0.1145251,0.02821255,-0.06387231,0.04348932
1.034832,0.06798149,0.1056419,0.02959049,-0.04987482,0.003371638
1.041152,0.06087423,0.09500172,0.008560966,-0.03716722,-0.03356355
1.029143,0.06046776,0.1106575,0.008188235,-0.03414945,-0.07609602
1.015708,0.07709229,0.1262492,-0.01859315,0.02000857,-0.09471395
0.9954084,0.1016092,0.1258165,-0.03340451,0.04368918,-0.0470283
0.9889794,0.1154246,0.1281522,-0.01268071,-0.02315599,0.03173482
1.002309,0.1177406,0.1279427,-0.01150868,-0.08807261,0.062664
1.009205,0.1088359,0.1232429,-0.006987314,-0.0586762,0.05684824
1.024578,0.09478044,0.1217587,-0.004403238,-0.001558487,0.05477939
1.037032,0.0857536,0.1227322,0.006114866,-0.008577194,0.04266975
1.021257,0.08755867,0.1232149,0.03197697,-0.007897407,0.02139231
1.00953,0.09536898,0.1172617,0.02805587,-0.02995437,0.001185865
1.012722,0.09708954,0.1119013,0.0110797,-0.0720041,-0.002756944
1.012746,0.0915392,0.1154468,-0.005663814,-0.05565208,0.002028898
1.009887,0.08575798,0.1158728,-0.01717898,-0.0500418,-0.002569373
1.007461,0.09205659,0.1036577,-0.01608433,-0.03462059,0.01458521
1.007998,0.1024842,0.09450723,-0.01533836,-0.002092368,0.04166357
1.014938,0.100456,0.1057772,-0.0004866222,0.0255728,0.05195728
1.020616,0.09317929,0.1216091,0.02549428,0.06569219,0.05447704
1.012158,0.08216726,0.1244073,0.03533861,0.03726662,0.0264171
1.002559,0.07731911,0.1244308,0.01986603,-0.02609397,-0.0279399
1.007155,0.09184857,0.123728,0.002700422,-0.0576749,-0.05773425
1.008922,0.1072377,0.1172336,-0.00122671,-0.05926086,-0.03933482
1.005469,0.1103862,0.1108806,-0.01435831,-0.04697818,-0.0007051144
1.009326,0.1045896,0.1014813,-0.02709414,-0.06902408,0.03802255
1.009393,0.09861429,0.09376652,-0.02280542,-0.053504,0.07810547
1.001762,0.09841729,0.09824311,-0.01689489,-0.01003513,0.09545939
0.9982662,0.09836191,0.1033454,-0.006218512,-0.01811636,0.1081123
1.006625,0.09804389,0.1121038,0.01236389,-0.01379128,0.1235583
1.022303,0.09529941,0.1281443,0.02026409,-0.01784171,0.09691521
1.028497,0.08821564,0.1242593,0.01831932,-0.05691562,0.04145354
1.031284,0.077033,0.1025585,0.008731366,-0.06641243,-0.01208725
1.039388,0.06594505,0.09140917,-0.005199808,-0.01095304,-0.01715481
1.033382,0.07945638,0.09354229,0.02092596,0.0772319,0.03726739
1.017289,0.1093409,0.09682989,0.05374408,0.0781103,0.08618163
1.01102,0.1203331,0.0965882,0.02343836,0.02461816,0.1208458
1.012178,0.1166997,0.1058841,0.003094993,-0.00291357,0.1210639
1.015062,0.101131,0.1213156,0.02513171,-0.05833201,0.09852165
1.015824,0.07297944,0.1195716,0.02983417,-0.07907905,0.1005237
1.014898,0.05757285,0.1100275,0.02872969,-0.05358548,0.06669857
1.015492,0.05607625,0.1036453,0.01981017,-0.05218786,0.03163569
1.015225,0.05870013,0.09761482,0.001767856,-0.02335041,0.05077789
1.01517,0.0677784,0.09839973,0.01392863,0.01419588,0.06181285
1.015139,0.07301974,0.1036257,0.04191583,0.0174893,0.07190148
1.01326,0.07018502,0.1114443,0.05639513,0.005084529,0.07696945
1.013169,0.06531091,0.1125706,0.04317435,-0.0141799,0.06636758
1.017821,0.06154323,0.103236,0.0145397,-0.01274852,0.06767303
1.023657,0.06034355,0.09730393,0.01018152,0.009429604,0.05437518
1.022046,0.06018997,0.09298129,0.01612173,0.03865515,0.03550135
1.015115,0.06328368,0.09554838,0.01819411,0.05012864,0.02934137
1.01119,0.06806344,0.1022974,0.0283668,0.03025147,0.02874588
1.010623,0.06988276,0.1018484,0.01876743,0.02110282,0.03581567
1.01414,0.07098458,0.104998,-0.001483789,0.02338658,0.03406979
1.01624,0.06975105,0.1052155,-0.005409047,0.02256421,0.03253909
1.012997,0.06240485,0.1033447,-0.007759682,0.02644205,0.03027932
1.011881,0.05760482,0.1098882,-0.002977462,0.02591273,0.01633836
1.013469,0.06663681,0.1109156,0.004550333,0.02066135,0.01408198
1.017072,0.07546193,0.1048708,0.004569667,0.01292743,0.0174132
1.019781,0.06705942,0.09971203,0.001815615,0.01124823,0.01476448
1.014388,0.05998768,0.1026374,-0.007524455,0.01313925,0.009212766
1.008697,0.06574524,0.1095005,-0.009466204,0.001842062,-0.0005041511
1.011929,0.06842523,0.1075616,-0.007460128,-0.005646866,-0.001257649
1.01784,0.06883743,0.1053897,-0.005732911,0.00634255,0.004503987
1.019594,0.0699599,0.1046331,0.006218025,0.02677439,0.008167357
1.017392,0.06667071,0.1055778,0.008281244,0.03385168,0.01035696
1.013921,0.06690853,0.1099568,0.0004097794,0.01687011,0.004662471
1.014752,0.06806365,0.1054802,-0.0004951635,0.003336458,-0.0007305906
1.016783,0.0681106,0.1027731,0.008752697,0.01198102,0.002175278
1.015599,0.07078152,0.108401,0.01944477,0.01618438,0.003123477
1.01874,0.06321042,0.1115989,0.01037956,0.0009398686,-0.0007484742
1.019936,0.0557849,0.1127649,-0.003297948,-0.004973399,-0.002389043
1.014033,0.06587178,0.1087397,-0.001234087,0.01115009,-1.600644e-05
1.011483,0.07673204,0.1045069,0.01087841,0.0220026,0.006315698
1.01228,0.07689046,0.1078877,0.02383043,0.01026471,0.01135991
1.014181,0.07227476,0.1146634,0.01573366,-0.00709937,0.001340625
1.015064,0.06959423,0.1194678,0.001754292,-0.008474113,-0.01138078
1.015027,0.07115216,0.1136927,0.00654106,-0.004087121,-0.006451031
1.015779,0.07314817,0.102744,0.006578988,0.001544396,-0.0001866315
1.014007,0.07313463,0.1005718,0.002779385,0.01841924,0.001678491
1.015098,0.07016236,0.1059066,0.003014488,0.02745425,0.009367773
1.018754,0.06773572,0.1097626,-0.004594629,0.01896373,0.009412967
1.020789,0.0722467,0.105156,-0.008357414,0.01317191,0.0004585034
1.020613,0.07818535,0.09855626,-0.01031868,0.02277733,-0.004598538
1.014445,0.07638905,0.09955832,-0.01376557,0.03088528,-0.004304854
1.009155,0.07236592,0.105837,-0.01098844,0.02444029,-2.58825e-05
1.009344,0.06860947,0.1117179,-0.01213567,0.01871962,0.001035908
1.011881,0.0632117,0.1098654,-0.01095643,0.01529891,-0.0003529499
1.01427,0.06467777,0.1061004,-0.003885636,0.02008064,0.0008389974
1.016537,0.06622659,0.1103335,0.001370879,0.03418376,-0.001538932
1.020834,0.06049139,0.1142293,0.004887415,0.03445136,-0.007259479
1.019499,0.05953929,0.1170625,5.123713e-05,0.02965824,-0.01140422
1.014468,0.06526085,0.1166028,-0.002831876,0.02576232,-0.009321621
1.013676,0.07526839,0.1060759,-0.0001224391,0.01992293,-0.00518735
1.01413,0.08254686,0.1005422,-0.003447127,0.02854129,-0.008111557
1.017776,0.07888957,0.1049922,-0.006446619,0.03515384,-0.01354685
1.020233,0.07680984,0.1122465,-0.009418233,0.02062003,-0.01849692
1.016237,0.07876283,0.1182831,-0.01048614,0.008580062,-0.01789908
1.01187,0.07730892,0.1185342,-0.003245736,0.01482866,-0.0100404
1.00913,0.07601517,0.1191588,0.001560243,0.01566695,-0.009777253
1.008645,0.07023452,0.1187328,-0.00361361,-0.001461441,-0.02192969
1.011998,0.06253803,0.116715,-0.008124999,-0.01191618,-0.03187366
1.016856,0.06683323,0.118117,0.005199262,-0.003614733,-0.0189741
1.016838,0.07694651,0.1145975,0.02842371,0.01320928,0.0009431264
1.013842,0.0833462,0.1121645,0.0360325,0.01991833,-0.003838988
1.014627,0.08662705,0.1199383,0.01788038,0.0003725463,-0.01527051
1.014434,0.08424286,0.124964,-0.00133515,-0.02173076,-0.01724878
1.014912,0.08181531,0.1171025,0.007996199,-0.01457115,-0.01127948
1.017902,0.08150853,0.1066724,0.01715114,0.00372553,0.0005089003
1.016266,0.07589684,0.1056292,0.009539962,0.01308908,-0.003315715
1.014281,0.07205414,0.103436,0.005278693,0.02475909,-0.007457029
1.01397,0.07355269,0.09917258,-0.006990884,0.03336988,-0.0002268976
1.012986,0.07367,0.1073775,-0.01196003,0.03749795,-0.004906693
1.01181,0.07180414,0.1162571,-0.0006573162,0.04396134,-0.008304437
1.006985,0.07013332,0.1148332,0.0007140205,0.03611872,-0.009525608
1.004818,0.07199536,0.1149025,0.004055868,0.02429199,-0.01655197
1.010416,0.07524151,0.1173766,0.0001010151,0.02755411,-0.01732154
1.014048,0.0814866,0.1165048,-0.01949827,0.03785325,-0.01960823
1.011681,0.09165303,0.1201224,-0.02394284,0.04196117,-0.01862803
1.01056,0.09278078,0.127562,-0.01236993,0.01917814,-0.01459548
1.014399,0.08588388,0.1271263,0.004439888,-0.00964437,-0.014681
1.01726,0.08247555,0.121146,0.007391544,-0.004810968,-0.009845439
1.016706,0.08285193,0.1157133,-0.00728416,0.006905489,-0.006796241
1.015858,0.08276421,0.1160485,-0.01167938,0.001568184,-0.002257683
1.012746,0.08057681,0.1210097,-0.003305935,-0.001177305,0.003798601
1.008247,0.07986408,0.1221969,0.007948811,-0.003851664,0.005404841
1.007579,0.08022128,0.1261699,0.009300954,-0.006306063,0.009431846
1.010098,0.08109038,0.1273747,0.005561206,-3.744669e-05,0.006334337
1.012263,0.08780604,0.1209301,0.01208292,0.002437213,0.004314744
1.014678,0.09394042,0.1223278,0.009828844,0.001089742,0.004030848
1.017091,0.09031034,0.1239089,-0.009141882,-0.02016318,-0.01499413
1.016753,0.08625672,0.1211626,-0.02946759,-0.05104029,-0.02731219
1.016415,0.08698159,0.1163027,-0.02604194,-0.03758852,-0.006622264
1.016947,0.08438944,0.1061846,0.001367232,-0.01219445,0.02250597
1.015026,0.08273322,0.1074912,0.01201699,-0.01219085,0.02520328
1.009599,0.08088135,0.1142343,-0.0004198777,-0.02218588,0.01665849
1.003443,0.06956974,0.1135747,-0.01522485,-0.04032277,0.01848204
1.004523,0.06333194,0.114448,-0.01411564,-0.032513,0.01289158
1.007961,0.06759872,0.1137649,-0.00198213,-0.007825596,0.00849868
1.007265,0.06827364,0.1133872,-0.001160232,-0.000453143,0.007070967
1.010254,0.06894052,0.1141613,-0.0005720977,0.008951929,-0.0034399
1.012289,0.07563725,0.1105524,0.000318472,0.001529173,-0.007016375
1.014397,0.08124159,0.1091202,0.003180886,-0.008574684,-0.007995749
1.022439,0.08149741,0.1099987,0.01181848,0.008651028,-0.008375741
1.022302,0.08571208,0.1127,0.006625254,0.01336664,-0.007033301
1.020019,0.0948638,0.1191349,0.001884985,0.008912849,-0.01006863
1.021764,0.09275002,0.1249472,-0.00565834,0.00237303,-0.01103594
1.015607,0.08804697,0.1258632,-0.02915332,-0.01013607,-0.01414925
1.013726,0.09223084,0.1211618,-0.03962462,-0.004674585,-0.006640893
1.017571,0.09293131,0.1177196,-0.02160628,0.003507252,0.01724906
1.015725,0.09330983,0.1161185,0.00949255,0.006170567,0.03433959
1.013397,0.09020506,0.1144105,0.02096906,0.003596559,0.03542011
1.007794,0.07732354,0.1150098,0.01712253,-0.005885713,0.02926634
1.002349,0.07315467,0.1120578,0.01063194,-0.00481283,0.03267957
1.003977,0.07563431,0.1058327,-0.006916182,-0.002699203,0.03191582
1.009728,0.07447802,0.1018057,-0.007616975,0.004660345,0.01804069
1.019048,0.07339677,0.1014296,0.004620721,0.03130136,0.01161687
1.021661,0.07163984,0.1072079,0.006607865,0.04803406,0.008988144
1.017617,0.07331983,0.1152139,0.006349487,0.03214621,0.004381013
1.016881,0.07647182,0.1181917,-0.00163471,0.01496602,-0.002467398
1.014433,0.07785034,0.1147135,-0.009083164,0.02433418,0.0006783349
1.011342,0.08109123,0.1130235,-0.0109139,0.02610765,0.01121097
1.009477,0.08198658,0.1171967,-0.0119821,0.01562128,8.782308e-05
1.007273,0.07941182,0.119,-0.008830315,0.01812511,-0.005981053
1.009389,0.07744183,0.1179087,-0.004781034,0.01604546,0.006527297
1.010636,0.08094529,0.118051,0.01133396,0.01405812,0.01997002
1.008873,0.08416504,0.1197411,0.02440611,0.01285564,0.03601948
1.009228,0.07627971,0.123412,0.01116872,-0.004506892,0.0278059
1.009645,0.06787898,0.125646,-0.007465974,-0.02001273,0.01141258
1.012224,0.06697043,0.1231863,-0.01570174,-0.02158554,0.01651185
1.014823,0.06679145,0.11903,-0.004647307,0.003104488,0.0159468
1.011026,0.06671179,0.118069,0.01740637,0.03388154,0.01439511
1.008344,0.06891707,0.1185943,0.0220229,0.02645369,0.01718132
1.010549,0.07317293,0.1194488,0.01505531,0.008446487,0.01398286
1.012902,0.07901466,0.1218652,0.01284477,-0.0008977181,0.01578022
1.015257,0.0839303,0.1217359,0.01432682,-0.01357868,0.01690959
1.015619,0.08346611,0.1209409,0.01558741,-0.01216308,0.01695826
1.012721,0.0811443,0.1199838,0.01518672,-0.008207571,0.02139887
1.00975,0.07887284,0.1140558,0.01658587,-0.01016178,0.02422678
1.007489,0.07330273,0.1100975,0.01485569,-0.003235373,0.02725703
1.007573,0.07320304,0.1141782,0.006440946,-0.007954458,0.02728147
1.013275,0.07417362,0.1176887,0.002738445,-0.01675042,0.024295
1.018821,0.06801713,0.1114078,0.005006793,-0.007309891,0.02040229
1.016799,0.06861578,0.1061394,0.004221899,-0.002924172,0.0144034
1.013536,0.0710308,0.1129106,0.001561334,-0.003731779,0.01492409
1.014286,0.06786772,0.1189922,0.001080596,-0.001203049,0.01578723
1.014723,0.06785216,0.1199579,0.001656445,-0.003473899,0.009320649
1.014932,0.06562444,0.1207534,0.003031482,-0.004427807,0.003897935
1.01403,0.06419103,0.1169167,0.003813771,-0.006160989,-0.0015999
1.011425,0.067742,0.1117147,0.0008109058,-0.00355951,-0.004637754
1.01242,0.06924266,0.110054,-0.002587831,0.003030592,-0.0006521873
1.013022,0.07152678,0.1101712,-0.003048147,0.0003377507,0.0003148914
1.010747,0.07150254,0.11221,-0.00444033,-6.014018e-05,-0.001557436
1.01025,0.06974752,0.1144551,-0.003708119,0.001915054,-0.0001579781
1.00981,0.0704593,0.1125311,0.01112141,-0.003304171,-0.0005506336
1.011603,0.06542994,0.109732,0.02358625,-0.01439865,-0.005303653
1.015335,0.06077829,0.1111655,0.000963055,-0.02461088,-0.01993959
1.015281,0.06512169,0.1107835,-0.02379155,-0.01223716,-0.03419649
1.013405,0.07146806,0.1083699,-0.006313161,0.006353061,-0.01692404
1.012259,0.07509777,0.1082655,0.01678281,0.0001946832,0.007677742
1.014055,0.07539169,0.1076581,0.01869648,-0.008347997,-0.0001183403
1.016205,0.07334177,0.1122307,0.008398614,-0.01511034,-0.01297036
1.014021,0.07052538,0.1203647,-0.009217762,-0.03009125,-0.01439588
1.012356,0.06872553,0.1189058,-0.00519795,-0.02668948,-0.01220792
1.012911,0.06962689,0.1103978,0.00693389,-0.01160722,-0.003814277
1.014327,0.0716369,0.1051983,0.00367273,-0.0003727215,-0.005137401
1.016835,0.07261208,0.1093647,0.01187309,0.01013937,-0.005598205
1.017133,0.07157553,0.1189451,0.01510854,-0.00108044,0.003579666
1.016286,0.06848626,0.1220143,0.009244647,-0.0138306,-0.003010272
1.016773,0.06580881,0.11729,0.007870758,-0.004136415,-0.007417805
1.016406,0.06770659,0.110843,-0.004744293,0.0007522055,-0.001128578
1.014369,0.07251419,0.1083798,1.422237e-05,0.007110589,-0.002654939
1.011305,0.07629374,0.111338,0.008201083,0.01508299,-0.001793111
1.008549,0.07834704,0.1135368,-0.008939155,0.005690936,-0.001267007
1.008294,0.07522446,0.1136877,-0.01167901,-0.00176922,-0.002146878
1.010551,0.0710263,0.1118858,-0.0008143043,-0.002460915,0.0005732114
1.013694,0.07222675,0.1071407,0.00514812,-0.000920779,-0.001524513
1.0155,0.07218611,0.1042798,-0.0008796938,0.00353558,-0.004594665
1.014964,0.06903232,0.1043787,-0.01170715,-0.0009324134,-0.007944878
1.013435,0.06751727,0.107126,-0.004571734,-0.005707871,-0.01145168
1.012196,0.06771968,0.1112357,-0.002279849,-0.003450255,-0.01336363
1.013098,0.06851663,0.11174,-0.003631039,-8.834171e-05,-0.01403163
1.014654,0.06903449,0.1109188,0.003864624,0.00416539,-0.01012783
1.013577,0.07312726,0.1125691,0.0005631638,0.001172928,-0.008617161
1.012682,0.0784341,0.1155705,-0.0001872137,-0.003471996,-0.007130276
1.012632,0.07676761,0.1174985,0.003342394,0.0004371535,-0.003477026
1.012147,0.07531426,0.1167848,0.001117312,0.001101034,-0.006562204
1.012544,0.07812428,0.1158463,0.001323309,-0.001584077,-0.01225217
1.011663,0.07799276,0.115164,0.001369034,0.0005745825,-0.01351653
1.010762,0.07706253,0.1139121,0.006164185,0.006702335,0.000230251
1.012533,0.07525666,0.1163124,0.01127896,0.009426268,0.01386372
1.014611,0.06889218,0.1203957,0.001263541,-0.009113467,-0.007004647
1.015632,0.06626353,0.1190425,-0.01803567,-0.02953673,-0.02884047
1.014322,0.07425427,0.1151972,-0.02484381,-0.01241733,-0.01366889
1.01233,0.08348905,0.113287,-0.002416473,0.01560168,0.004956917
1.012592,0.08308239,0.113336,0.01946148,0.01878732,0.01008951
1.013446,0.08033975,0.1147301,0.006740111,0.004843789,0.005035918
1.014121,0.08098818,0.1151988,-0.006103517,-0.01912435,-0.009530332
1.013885,0.07673401,0.1178165,0.002557065,-0.02688471,-0.006620234
1.012881,0.07154584,0.1189853,0.006412279,-0.003254994,0.0002457183
1.013111,0.07016645,0.1093555,0.009066382,0.01348644,-0.00711777
1.013363,0.06836454,0.1002959,0.007065268,0.009137784,-0.00163486
1.014,0.07265374,0.1018483,-0.007152668,0.005962569,0.002495155
1.017485,0.07887328,0.1027371,-0.006234939,0.007742896,-0.001374242
1.020276,0.07565622,0.1004643,-0.002013559,0.006571438,0.001319975
1.016688,0.07349612,0.1042101,-0.003906091,0.006760096,-0.003119639
1.011752,0.0768904,0.1103437,0.004110674,0.009466425,-0.003552456
1.012776,0.07631365,0.1134898,0.004505668,0.01000423,-0.002643705
1.015976,0.07409708,0.114345,-0.002057826,0.01557445,-0.009842114
1.018906,0.07351854,0.1098758,-0.007886248,0.01872101,-0.009029242
1.01981,0.07316027,0.1085479,-0.01344458,0.01310211,-0.01057925
1.015241,0.07435607,0.1177425,-0.009359116,0.01010714,-0.01523728
1.011691,0.07542106,0.1239835,-0.003713516,0.006367538,-0.01560749
1.012671,0.0763794,0.1175408,0.001565424,0.0008311371,-0.01494764
1.01474,0.07616498,0.108387,0.001620016,-0.00272726,-0.009715757
1.016703,0.07403745,0.1070715,-0.00334554,0.0009306628,-0.009514744
1.016975,0.07507703,0.105006,0.001202813,0.009856301,-0.01110943
1.015987,0.07626639,0.1058681,0.003016099,0.01030405,-0.008528097
1.01397,0.07789067,0.115518,0.0007805981,0.008701741,-0.008355288
1.011722,0.08172056,0.1154101,0.001906689,0.002845203,-0.005191036
1.0122,0.07915819,0.114764,0.0002127498,-0.008073694,-0.004134092
1.013585,0.07611965,0.1201053,-0.0003458548,-0.008830648,-0.007135377
1.014945,0.07820481,0.1150684,-0.001650378,-0.006854553,-0.007320464
1.017163,0.07712359,0.1104333,-0.00365551,-0.002369128,-0.009485703
1.016215,0.07452745,0.1094988,-0.002461917,0.004084782,-0.01089872
1.013275,0.07130755,0.1088252,0.0003951703,0.003176339,-0.009057113
1.013648,0.06705123,0.1108095,0.004241739,0.002902437,-0.005844482
1.013383,0.07113403,0.1095596,0.005327245,0.002862342,-0.001870848
1.011767,0.08068836,0.1112878,0.01269705,0.0005791662,-0.002141028
1.013777,0.08174548,0.1137406,0.02073564,-0.006063268,-0.005098648
1.018021,0.07283152,0.1114262,0.004447355,-0.01409271,-0.01263812
1.021986,0.06620672,0.1098811,-0.01304452,-0.004883421,-0.0218268
1.020155,0.07430271,0.108901,-0.001639845,0.01142845,-0.01414901
1.013991,0.08639376,0.11496,0.0107008,0.01270586,-0.0007449573
1.012635,0.0851931,0.1252706,0.006534718,6.997849e-05,-0.002875281
1.013405,0.08153526,0.1265993,-0.0005878158,-0.01361526,-0.00549641
1.014829,0.08092701,0.1228633,-0.009438598,-0.01215348,-0.00386627
1.016012,0.07690611,0.1185226,-0.006310675,-0.003343141,-0.005499105
1.013807,0.07568872,0.1125811,0.005412252,-0.0004361826,-0.001185838
1.013831,0.07556859,0.1106948,0.002554667,0.002103959,0.002914777
1.015052,0.07479241,0.1118249,0.00226201,-0.0007525262,0.0006394366
1.015237,0.07614843,0.1096748,0.005656112,-0.004560377,-0.001673207
1.014979,0.07642409,0.1095434,0.002474303,0.003408421,-0.005158572
1.011304,0.07700338,0.112197,0.003022903,0.01091214,-0.005652471
1.008731,0.07801756,0.1125012,-0.0001991601,0.01011545,-0.002973554
1.009881,0.07918889,0.113072,0.0004082968,0.001638161,0.001350408
1.011942,0.0778381,0.1132055,0.004583469,-0.006025576,0.008826882
1.013168,0.0742693,0.1142338,0.0003691627,0.004566581,0.009619541
1.013462,0.07620586,0.1170827,0.001071493,0.01524604,0.005041715
1.015029,0.07926186,0.1200467,0.001453959,0.007799372,0.004130147
1.015872,0.08106635,0.1227554,0.0005868207,0.0004535037,0.005205381
1.015652,0.08237713,0.1171175,0.003551778,-0.003342464,0.005582146
1.015524,0.078618,0.1117586,-0.0002682611,-0.006233274,0.001396393
1.014867,0.07495554,0.1179041,-0.007443858,0.001382785,-0.005267515
1.014879,0.07505861,0.1212012,-0.01237587,0.004848083,-0.006262422
1.013133,0.0777617,0.1180839,-0.002350677,-0.01077173,-0.002122805
1.011422,0.07955268,0.1169952,0.01710322,-0.01946595,2.388386e-05
1.012727,0.07556727,0.1157379,0.01715328,0.00304747,-0.005246601
1.011891,0.07207401,0.1103903,0.005112232,0.02389265,-0.0140284
1.010482,0.07390667,0.1071021,-0.005303624,0.005096517,-0.01977597
1.012271,0.07684158,0.1126364,-0.009278659,-0.0166941,-0.02132291
1.012941,0.08001088,0.1184121,0.001924076,-0.01682691,-0.01576897
1.011742,0.08321015,0.1196194,0.01393547,-0.030423,-0.008677514
1.009523,0.08182368,0.1235768,0.01611689,-0.04560351,-0.007926273
1.005733,0.0782064,0.1296997,0.01549754,-0.04542454,-0.004231547
1.005016,0.07765648,0.1296401,0.01533438,-0.04497779,0.003074005
1.007805,0.07748002,0.1235887,0.01818143,-0.03779919,0.003462223
1.008915,0.07785079,0.1209976,0.02616027,-0.04010894,0.001914732
1.00847,0.07813153,0.1221019,0.03656482,-0.05794904,0.001862886
1.009208,0.07813117,0.1191202,0.04023798,-0.065245,0.003092171
1.011734,0.0826145,0.1076351,0.04012989,-0.05356738,0.01507883
1.015805,0.08590622,0.09548495,0.04108565,-0.03328176,0.02554414
1.021103,0.08260405,0.09698428,0.02547242,-0.03400095,0.01076648
1.023402,0.075339,0.09976025,0.0008214387,-0.03930284,-0.006210232
1.019055,0.07043577,0.09020752,-0.002422839,-0.02661896,0.00174663
1.013003,0.07439871,0.08566263,0.01445481,-0.01954237,0.007789599
1.009736,0.08042946,0.09249452,0.02600477,-0.01292747,0.003220347
1.009664,0.08208157,0.1006088,0.01408415,-0.02631969,0.005991802
1.011138,0.08218201,0.1057483,-0.002608689,-0.05250153,0.004164904
1.012976,0.08184729,0.1048756,-0.003694059,-0.03739126,0.002342347
1.017131,0.08150033,0.09904285,0.000832903,-0.02255087,0.00757842
1.017943,0.08010964,0.09464086,0.008628213,-0.02507094,0.007388517
1.015358,0.07766954,0.09866495,0.0144098,-0.01325155,0.0155621
1.016943,0.07725952,0.1024192,0.01307524,-0.01130041,0.02952554
1.016201,0.07762169,0.09292554,0.01277985,-0.01449436,0.03073543
1.014155,0.07505641,0.08663801,0.01130039,-0.01205324,0.02258603
1.015911,0.07312978,0.09598017,0.009956728,-0.01212765,0.01511322
1.015189,0.07622223,0.1043802,0.006947158,-0.00654983,0.01906564
1.014984,0.07834855,0.1035511,0.002552059,-0.004448716,0.02246805
1.0152,0.07297687,0.1023462,0.00854686,-0.005817055,0.02014133
1.012177,0.0642442,0.1031539,0.01280886,-0.004687657,0.02277673
1.010715,0.06119169,0.1001626,0.00439778,-0.006970412,0.01811856
1.012204,0.06574983,0.09585446,-0.004817253,-0.01465569,0.009845775
1.015901,0.07037759,0.09266162,-0.008367974,-0.02697437,0.00947699
1.017735,0.06879084,0.08895991,-0.008666719,-0.02676445,0.009560773
1.017117,0.06548866,0.08787502,-0.009179502,-0.01495966,0.009111437
1.017588,0.06767258,0.08702473,-0.01074286,-0.008815597,0.008638747
1.017611,0.07378409,0.08659253,-0.01242502,-0.004103661,0.009043425
1.019078,0.07876964,0.08835962,-0.01013408,-0.0008612106,0.009857528
1.021071,0.07826828,0.08912008,-0.006035849,0.002434171,0.006953497
1.020109,0.07398364,0.09152592,-0.006860733,0.008799814,0.001357832
1.017273,0.07306283,0.09388286,-0.006992287,0.010228,-0.003200462
1.014199,0.07307218,0.09475116,-0.004179376,0.005198029,-0.001493938
1.014965,0.06993248,0.09388426,0.001607861,0.00140754,0.001254563
1.017101,0.06713686,0.08834002,0.007249422,0.009808594,-0.001169837
1.016436,0.06747222,0.08645158,-0.001323794,0.01958812,-0.00291731
1.016845,0.06890684,0.0937189,-0.01259779,0.01799595,-0.005344684
1.017629,0.06779277,0.1011679,-0.01375405,0.01915583,-0.008306909
1.016918,0.06765232,0.09693619,-0.01454215,0.02352445,-0.007564418
1.015842,0.0680157,0.0920052,-0.002719191,0.02106239,-0.009321432
1.014664,0.06398839,0.100202,0.01157474,0.0142788,-0.01523166
1.015323,0.0625532,0.1034833,-0.009167559,0.004060206,-0.02044516
1.01566,0.06774795,0.1002827,-0.0293004,-0.0002797787,-0.01778463
1.014829,0.07281013,0.1017824,-0.008546489,0.01462527,-0.006969091
1.015698,0.07148248,0.1012996,0.00922029,0.0286461,-0.002625337
1.016576,0.069246,0.1016624,0.003268272,0.01667792,-0.008401531
1.018471,0.0719866,0.1034389,-0.004192698,-0.000702316,-0.0157895
1.019865,0.07222035,0.1030506,-0.01393469,-0.006196759,-0.01814143
1.016206,0.07338007,0.0985663,-0.01494193,-0.005783887,-0.01603336
1.012399,0.0770131,0.09181588,-0.003250105,0.007014826,-0.01590616
1.011996,0.07639686,0.09431001,-0.0003921284,0.02202597,-0.01426464
1.013036,0.07885588,0.09833478,-0.003813758,0.02103191,-0.009184984
1.01481,0.0807863,0.09823488,-0.006957581,0.009266308,-0.003565165
1.017344,0.07956076,0.1006946,-0.008880256,-0.001768661,-0.003292882
1.018796,0.08145935,0.09851393,-0.007585754,-0.002919054,-0.009897421
1.016979,0.08061824,0.09571062,-0.006080887,-0.002540737,-0.007056622
1.016206,0.08048327,0.0974913,0.001975392,-0.006304014,0.002639833
1.017933,0.0814489,0.09554642,0.006885215,-0.001483613,0.007587508
1.018249,0.07849862,0.09383338,-0.001041175,0.005624844,0.00856865
1.018244,0.07819236,0.09641639,-0.00577888,0.006540077,0.006946005
1.0189,0.07793716,0.09796862,-0.003561191,0.006107612,0.0109511
1.019316,0.07691091,0.09867298,-0.003155838,0.003692125,0.01050786
1.017544,0.07737859,0.1039907,-0.007492268,0.0003482506,0.00586624
1.01398,0.07496142,0.1106085,-0.00998805,-0.005663048,0.01108148
1.013663,0.07405608,0.1072407,-0.008387603,-0.01078357,0.01062882
1.01595,0.07414819,0.09941413,-0.009633883,-0.001768931,0.00634267
1.016838,0.07310372,0.09831728,-0.01226691,0.01082916,0.004060531
1.015044,0.07543136,0.1003118,-0.01547183,0.009454785,-0.000660427
1.013657,0.07574873,0.1030341,-0.0178983,0.006673824,0.0008156167
1.018008,0.07342055,0.1021449,-0.01767545,0.01177986,0.0002478223
1.023699,0.07180756,0.09471807,-0.01359134,0.01399434,-0.0009637389
1.024223,0.06884895,0.09065363,-0.002082228,0.01419135,0.001504998
1.021843,0.07112346,0.09453307,0.005493143,0.01339018,-0.002653772
1.018802,0.0775316,0.09906346,0.001833206,0.008536941,-0.004945891
1.015401,0.07940624,0.09566867,-0.008225928,0.009294379,-0.001854399
1.0136,0.08203776,0.09269682,-0.01718589,0.01829026,0.00503061
1.014062,0.08485018,0.09774588,-0.01353141,0.02518577,0.01063307
1.014884,0.07765744,0.09978396,-0.01084098,0.01798434,-0.001216454
1.015407,0.06596974,0.100822,-0.02498778,0.008975247,-0.0149104
1.015154,0.06409019,0.1024636,-0.03144196,0.01985889,-0.009704137
1.01323,0.07169101,0.1009454,-0.01088177,0.03071453,-0.003538397
1.01184,0.0764753,0.1043122,0.008361369,0.02785695,-0.005673714
1.011002,0.07395479,0.1094546,0.001133156,0.01603521,-0.005658428
1.008344,0.06810028,0.1121124,-0.005446178,-0.01444301,-0.01166689
1.006169,0.06065324,0.1125407,0.003632985,-0.03601119,-0.02318392
1.0076,0.04946676,0.1134598,0.008227536,-0.02445948,-0.02940781
1.009272,0.03942058,0.1186015,0.01601433,-0.01884106,-0.03563099
1.009294,0.05113116,0.1181847,0.02690581,-0.03566407,-0.03322857
1.015185,0.08586883,0.1145906,0.03066267,-0.03988969,-0.01581347
1.025464,0.1105368,0.1072507,0.0382039,-0.01991489,0.005134786
1.029429,0.107981,0.08990635,0.03472103,0.00419835,0.01479795
1.027534,0.09347455,0.08340944,0.01844294,0.01069911,0.002352408
1.021126,0.0866145,0.08599178,0.005543503,-0.0106565,-0.004543104
1.0132,0.08770776,0.08263913,-0.001986274,-0.03325261,0.009993016
1.013999,0.08422411,0.0855094,0.0005564419,-0.03345874,0.02040891
1.016654,0.07790066,0.08956831,-0.00580377,-0.0253208,0.02232346
1.011751,0.07327165,0.08678607,-0.01508686,-0.01605858,0.01798855
1.010221,0.06788448,0.08848438,-0.01436633,-0.003376664,0.007727883
1.014162,0.06415017,0.09433953,-0.01964772,0.0100811,-0.0008678487
1.017029,0.06548777,0.09865494,-0.01657601,0.01817696,-0.008553866
1.019951,0.07201545,0.0978291,-0.01256127,0.02251229,-0.01189014
1.020199,0.07761327,0.09310257,-0.01097364,0.03021158,-0.01498995
1.020596,0.08047244,0.09000557,-0.00173865,0.02764667,-0.02090921
1.023084,0.08286947,0.08638247,-0.01048127,0.01478956,-0.01862833
1.019918,0.08207759,0.08643714,-0.02464168,0.0031458,-0.01005696
1.0129,0.08146876,0.09018237,-0.02948309,-0.006414577,-0.004873935
1.008286,0.08281593,0.09203026,-0.02531704,-0.002561092,-0.008231528
1.011496,0.08469373,0.09718547,-0.01218313,0.002028088,-0.01724957
1.019101,0.08816214,0.09727388,-0.01495075,-0.001604554,-0.02599449
1.019196,0.09027703,0.09286455,-0.02289048,0.000313729,-0.03605807
1.013671,0.09242305,0.09656954,-0.02858568,-0.01290108,-0.05222331
1.007797,0.09572913,0.09812724,-0.03353871,-0.04698859,-0.07572285
1.003189,0.09581409,0.0973258,-0.01700484,-0.09430867,-0.09506877
0.9978729,0.09292853,0.09321153,-0.003638417,-0.1599419,-0.1093091
0.9906856,0.0908281,0.07850801,-0.009284037,-0.2062983,-0.1249681
0.9898278,0.08806099,0.07702054,-0.002247356,-0.2347609,-0.1335717
0.9865949,0.07184103,0.1061818,0.04263597,-0.2990554,-0.1547854
0.9744962,0.0421366,0.1436308,0.1244071,-0.4044384,-0.1969294
0.9654945,0.02798826,0.1474974,0.1931935,-0.530986,-0.2178854
0.958891,0.0366147,0.1172938,0.1965958,-0.597595,-0.2233117
0.9597227,0.04734052,0.08690489,0.1576281,-0.5634563,-0.246718
0.9724111,0.062859,0.06224249,0.1431533,-0.5474339,-0.2620727
0.9779558,0.214537,0.1637733,-0.04222804,-0.007369391,0.1038865
0.9777343,0.2174758,0.1653197,-0.01937619,-0.01721121,0.103973
0.982363,0.2204648,0.1683421,0.01210641,-0.009542302,0.1018613
0.9851921,0.2188287,0.1625953,0.03016944,-0.007050189,0.09841196
0.9822895,0.218247,0.1554444,0.032236,-0.006471016,0.1010044
0.9832299,0.2173517,0.1508396,0.03959986,-0.00311895,0.1013804
0.9829817,0.2158262,0.148685,0.0372297,-0.009460524,0.09141455
0.9814824,0.2160876,0.1487296,0.03549845,-0.0320322,0.07523911
0.9850847,0.2124006,0.1388376,0.02276428,-0.04917504,0.06183497
0.9856594,0.2111301,0.1357849,-0.02496166,-0.03834254,0.06731554
0.9787061,0.2279807,0.1454745,-0.05731834,-0.005696045,0.08552938
0.9679169,0.2521081,0.1497871,-0.05811667,0.03332007,0.1121749
0.964552,0.2553525,0.1540635,-0.03896643,0.07345758,0.1439487
0.9721727,0.2370412,0.1624258,-0.01801848,0.08687336,0.1468415
0.9810785,0.2195675,0.1698491,-0.01929733,0.06439981,0.126284
0.9878994,0.2064894,0.1695926,-0.0206266,0.04097618,0.1067487
0.9874189,0.1948501,0.1624978,-0.01612822,0.01025076,0.08968509
0.9835136,0.1927815,0.1587561,-0.005604885,-0.01366171,0.09323039
0.9832222,0.1979809,0.1597694,0.01161272,-0.005130194,0.1008517
0.978586,0.2053241,0.1670212,0.0152644,-0.01035162,0.09540551
0.9754942,0.2175451,0.1725183,0.0127259,-0.01942886,0.1079088
0.9765883,0.2315078,0.1730341,0.01398615,0.0029304,0.124151
0.9742914,0.2363508,0.175631,0.01734699,0.02143131,0.1237296
0.9771573,0.2302673,0.172516,0.02200359,0.01644113,0.1180325
0.9825176,0.2199017,0.1691504,0.02715099,-0.005414113,0.103548
0.9846111,0.206788,0.171372,0.03710469,-0.02872804,0.09225964
0.9868555,0.2007569,0.1711285,0.05102661,-0.03633837,0.08960736
0.9832481,0.2039847,0.1716896,0.05905557,-0.04506193,0.09498179
0.9796139,0.2035707,0.1734885,0.0579495,-0.0669263,0.1074014
0.9819189,0.2064153,0.1730693,0.06365681,-0.0745492,0.1020847
0.9832967,0.2121921,0.1691115,0.06478825,-0.06350104,0.09361942
0.9843413,0.209517,0.1655796,0.04266464,-0.0641279,0.0912861
0.9832378,0.2087573,0.1691489,0.02611665,-0.07300136,0.07551182
0.9784164,0.2128641,0.1715824,0.03457439,-0.07592064,0.07003088
0.9757725,0.2199393,0.1652892,0.06132039,-0.06695605,0.0837361
0.9796692,0.2292864,0.1558057,0.09024694,-0.03392563,0.09360857
0.9849737,0.2262045,0.1470846,0.09647156,-0.005724785,0.09000262
0.9834728,0.2209114,0.1396767,0.07349218,-0.01443549,0.08154099
0.9824067,0.2284561,0.1387169,0.03980759,-0.03406312,0.0784606
0.9838461,0.2309086,0.1415844,0.01654296,-0.03775158,0.07378621
0.981507,0.2259674,0.1409041,0.006170927,-0.03583831,0.07572978
0.9813385,0.2220579,0.1452601,0.005614297,-0.02946886,0.08487688
0.9824545,0.2151126,0.1547481,0.005276789,-0.01229606,0.09055966
0.981097,0.2139923,0.1569831,-0.0009675336,0.008805469,0.1025365
0.9820218,0.2183739,0.1543835,-0.01899413,0.04778938,0.1121322
0.9848579,0.2167419,0.1571678,-0.06408733,0.09699163,0.1150924
0.9877097,0.2096271,0.1742772,-0.08801958,0.1090037,0.1084632
0.9892031,0.1984402,0.1946715,-0.04991708,0.07394287,0.08441867
0.985373,0.1932931,0.1918813,0.0002803884,0.03030871,0.07108138
0.9777508,0.1977089,0.1716484,0.03242126,0.01528646,0.07331834
0.9731643,0.2027217,0.1599492,0.04761059,0.01787748,0.07919258
0.9712578,0.2140734,0.1610073,0.04437827,0.01197709,0.08702543
0.9695031,0.2241159,0.163541,0.04208034,-0.004148732,0.08432294
0.9724358,0.2202798,0.1597599,0.04505413,-0.0214452,0.08592432
0.9767781,0.2193971,0.1568266,0.042463,-0.0281563,0.09427714
0.9757746,0.2244629,0.1612255,0.04280872,-0.03736692,0.09103283
0.9767641,0.2226485,0.1642643,0.04290447,-0.0489027,0.08859146
0.9816656,0.2186015,0.1665349,0.02711736,-0.04313426,0.09133255
0.9809293,0.2146973,0.1694514,0.01534131,-0.03445745,0.09597284
0.9786259,0.2124272,0.1673814,0.02716561,-0.02127866,0.1059972
0.9803429,0.2146095,0.166256,0.03914381,-0.003196849,0.1093772
0.9826605,0.2127525,0.1667152,0.03469476,-0.01138557,0.1002465
0.9867596,0.2072081,0.1657996,0.03899101,-0.02173828,0.08781167
0.9881368,0.2034828,0.1638126,0.05586554,-0.005148243,0.07912488
0.9860215,0.2031905,0.1609042,0.05523374,0.002605764,0.07973254
0.9854354,0.2053163,0.1612827,0.04953317,-0.005705292,0.08131758
0.982567,0.203775,0.1594193,0.05012923,-0.01923513,0.06949833
0.9826183,0.2043985,0.1579367,0.044775,-0.04144532,0.05689609
0.9855506,0.2095597,0.1633035,0.04455539,-0.04366599,0.05121898
0.9842228,0.2144659,0.1635686,0.03999972,-0.03436081,0.04491274
0.984591,0.218424,0.16125,0.02930874,-0.03899164,0.04313174
0.983899,0.2142858,0.1633119,0.03078244,-0.03617987,0.04363086
0.9804445,0.2094253,0.1637898,0.03101772,-0.03353292,0.04444478
0.9795473,0.2100299,0.1655398,0.03072042,-0.04076119,0.04703967
0.9785133,0.2110834,0.1679302,0.04637493,-0.04049351,0.05002587
0.9781278,0.2200501,0.1675001,0.06682221,-0.03436865,0.06051926
0.9769799,0.2291324,0.1689174,0.07205866,-0.0262857,0.07435843
0.9760464,0.2268374,0.1695083,0.06323069,-0.02277784,0.08200974
0.9798896,0.2223845,0.1651847,0.05403956,-0.02280679,0.08152276
0.983177,0.2200216,0.1609149,0.04959925,-0.02031894,0.07980899
0.9840621,0.216569,0.1598772,0.05589437,-0.02503631,0.07998329
0.9843852,0.2128787,0.158817,0.0646038,-0.0300655,0.07402559
0.9854863,0.2088037,0.1567553,0.05830108,-0.03062577,0.06889736
0.9869331,0.2041626,0.1589849,0.05009677,-0.0324871,0.06227306
0.9858076,0.2053265,0.1628125,0.0474301,-0.02797038,0.05236177
0.9860796,0.2079079,0.1619603,0.04072676,-0.02027548,0.0530429
0.987455,0.2069652,0.1648766,0.03651056,-0.01094869,0.05084325
0.9871851,0.2078737,0.1711794,0.03320214,-0.0004940723,0.04207044
0.9863774,0.2023697,0.1684739,0.02949095,0.0003050251,0.03967555
0.9829928,0.1978767,0.1597436,0.02730607,0.000150959,0.04250733
0.9807333,0.2106556,0.1497937,0.01034717,0.002247661,0.05184901
0.9803461,0.2255218,0.1449175,-0.008202296,-0.001972665,0.06078145
0.9760244,0.2293419,0.1522011,-0.007252903,-0.003321028,0.07088864
0.9725038,0.2282719,0.1573415,-0.003055718,-0.0005991375,0.08993396
0.9773996,0.2263076,0.155745,0.00108526,-0.001100325,0.09768834
0.9872961,0.2177463,0.158074,0.01209014,-0.001451285,0.08228609
0.993467,0.2095983,0.1586308,0.01548509,-1.973626e-05,0.06378356
0.9929087,0.2117888,0.1580436,0.002851327,0.009205861,0.05843246
0.9872398,0.210078,0.1627017,-0.01216295,0.02658494,0.05836335
0.9830033,0.2055762,0.1645502,-0.01818316,0.03472194,0.05727606
0.985519,0.2104907,0.1614785,-0.01672941,0.03197497,0.05770186
0.9863827,0.2141285,0.1577163,-0.01290439,0.02485564,0.0547972
0.9807435,0.2104914,0.1571506,-0.008997082,0.004715023,0.05127383
0.975913,0.208925,0.1641951,-0.0002563276,-0.02039215,0.05271302
0.975672,0.2133076,0.1716856,0.004170139,-0.03147582,0.05779872
0.9778292,0.2167065,0.1699205,0.001481614,-0.03638964,0.06312701
0.9808182,0.2164481,0.1637597,0.004625434,-0.03877642,0.06045481
0.9843983,0.2140718,0.1636425,0.0042128,-0.03173742,0.05493945
0.9840322,0.2109854,0.1666007,0.005331096,-0.02800114,0.05379204
0.9810331,0.2104809,0.1686539,0.01646136,-0.0210222,0.05277504
0.9812753,0.2083664,0.1738622,0.02440997,-0.007028822,0.05448749
0.9808948,0.2042618,0.1739067,0.02800288,-0.005453428,0.05546243
0.9818517,0.2020889,0.1667764,0.02313583,-0.003650201,0.0502907
0.9855201,0.2013148,0.1627701,0.01916275,0.001292371,0.04691212
0.9848606,0.2053336,0.1603081,0.02153481,-0.0008226711,0.04909406
0.9842476,0.2105004,0.1579982,0.02001727,-0.00950056,0.05203223
0.9852124,0.2115954,0.1551302,0.02742464,-0.02911306,0.05367485
0.9845664,0.213694,0.1515022,0.03409002,-0.03130298,0.05665385
0.9862602,0.2159202,0.149217,0.02506714,-0.01123675,0.0574337
0.9893424,0.2131596,0.1468887,0.006080673,-0.001210799,0.05235086
0.9916867,0.2084863,0.1502916,-0.02135281,-0.002444387,0.04223074
0.9903445,0.2067598,0.1559595,-0.03609373,-0.003923795,0.02932966
0.9840441,0.2070243,0.1582223,-0.03204255,0.005267046,0.03073253
0.9804039,0.2078158,0.1641744,-0.02341281,0.01629912,0.04195291
0.981862,0.2087453,0.1677753,-0.006576389,0.01713782,0.04099807
0.9839923,0.2081411,0.1667615,0.008592869,0.008529909,0.03880379
0.9850515,0.2068808,0.1679403,0.005999311,-0.007651458,0.03579838
0.9864782,0.2050989,0.1648735,0.001286746,-0.007702885,0.02968678
0.9865045,0.2039306,0.1602433,0.004711704,-0.001683151,0.03280318
0.9843031,0.2068488,0.1608888,0.001005802,-0.006158067,0.03230903
0.9838544,0.2095339,0.1602628,-0.003569221,-0.004631585,0.02977264
0.9832099,0.2088474,0.1605546,-0.001606508,-0.006920246,0.03123869
0.9828698,0.210504,0.1637905,0.001487264,-0.008638148,0.02882998
0.9839605,0.2140692,0.1627761,0.009705659,-0.005134056,0.02965614
0.9829615,0.2142073,0.1625861,0.01160065,-0.008336059,0.03096162
0.9831069,0.2130181,0.1649096,0.01295436,-0.005876025,0.03340408
0.9826382,0.2118464,0.163699,0.02151985,-0.003262079,0.03780118
0.9801246,0.2101867,0.1629883,0.01746795,-0.003668866,0.03432876
0.9796299,0.2112502,0.1617057,0.01355626,-0.001699202,0.03274792
0.9794379,0.2114753,0.1576751,0.01589356,-0.004194321,0.03579646
0.981687,0.2095186,0.1548349,0.01230506,-0.003899702,0.03689464
0.9845203,0.2096752,0.1514539,0.01188324,-0.006791562,0.0378386
0.9831422,0.2082394,0.151659,0.01073902,-0.01338649,0.03711028
0.981977,0.205193,0.157631,0.009269388,-0.01110388,0.03572578
0.9820102,0.2036249,0.1594748,0.01287129,-0.01157566,0.03273041
0.981798,0.2036747,0.1588189,0.0178901,-0.01873651,0.02678647
0.9825437,0.2046938,0.1628047,0.02886487,-0.0279256,0.02282648
0.9846653,0.2030081,0.1666892,0.03385172,-0.04118236,0.01956314
0.9868576,0.2029252,0.1647333,0.03104278,-0.05431891,0.01557988
0.98682,0.2079015,0.1580051,0.04122046,-0.05753283,0.0182106
0.9873019,0.2144761,0.1512747,0.04940548,-0.05035554,0.02036667
0.9896825,0.2179376,0.1483262,0.03098379,-0.04662275,0.005999348
0.9880243,0.2121235,0.1500198,0.004901938,-0.03762298,-0.008504361
0.981866,0.2072515,0.1509798,0.0003883887,-0.01529251,-0.002823695
0.9777306,0.2102767,0.150719,0.01227254,-0.0002114596,0.008807915
0.978991,0.2096048,0.1584162,0.02389217,0.001091811,0.01437612
0.982914,0.2054131,0.1663139,0.0310711,-0.01000993,0.01331061
0.9838772,0.2038042,0.1634956,0.02731499,-0.02206643,0.005980898
0.9831091,0.2058979,0.1582273,0.02048403,-0.01914982,0.004075916
0.9835042,0.2099085,0.156143,0.02113609,-0.012042,0.007216986
0.9831595,0.2102526,0.1566138,0.01827471,-0.006645724,0.009004777
0.9833923,0.2096501,0.1571289,0.01812422,-0.004490354,0.01390983
0.9831188,0.2117136,0.1549594,0.02325476,-0.007981067,0.01337809
0.9812496,0.213016,0.1534798,0.01867635,-0.006342419,0.009558793
0.9803173,0.2128166,0.1554376,0.01459779,-0.001393124,0.01142704
0.9801733,0.213095,0.1607091,0.01469273,-9.596887e-05,0.008417261
0.9812866,0.2140802,0.165381,0.01456699,-0.002852355,0.007735104
0.9823582,0.2132479,0.16343,0.02017789,-0.008055828,0.01326916
0.9835043,0.2121386,0.1591054,0.0220398,-0.008945333,0.01434961
0.9841952,0.2146216,0.1587169,0.02048466,-0.01002723,0.01718862
0.9838694,0.2169631,0.1553162,0.0229708,-0.01399339,0.0205291
0.9869858,0.216624,0.1490897,0.02469809,-0.009456769,0.02163719
0.9884948,0.2157048,0.1493309,0.02440904,-0.0004448521,0.02094477
0.9867268,0.2149492,0.1507325,0.01801066,0.002813975,0.01718417
0.9868017,0.2152518,0.1503762,0.007104662,0.003176656,0.01751143
0.985891,0.2154701,0.1535915,0.001949662,0.002485265,0.01676161
0.9858193,0.2147489,0.1558518,0.01158581,4.684057e-05,0.01415448
0.986559,0.2128512,0.1514385,0.02502527,-0.005978014,0.01230685
0.9857815,0.2083987,0.1464448,0.01984003,-0.01199509,0.006724938
0.9862236,0.2055743,0.1491858,0.01635242,-0.01091893,0.008004347
0.9861864,0.2070026,0.1539611,0.02239818,-0.009752048,0.01213213
0.9859358,0.2075249,0.1568954,0.01004417,-0.01129126,0.009711248
0.9862962,0.2068248,0.1593172,-0.008763789,-0.008656688,0.006493859
0.9850892,0.2089864,0.1553638,-0.01720938,-0.001603954,0.003267741
0.981691,0.2113983,0.1515758,-0.01280238,0.006816344,0.01048435
0.9780136,0.2111061,0.1546129,-0.002182472,0.009716983,0.02218075
0.9801553,0.2097416,0.1599214,-0.004967476,0.009471658,0.01850862
0.9855412,0.2076671,0.1649728,-0.008614561,0.01160138,0.01261281
0.9865381,0.2068525,0.1605806,-0.01447933,0.01096483,0.01224424
0.9850923,0.209633,0.1536136,-0.03175369,0.01376807,0.0122579
0.9830566,0.2121827,0.1574405,-0.0352751,0.0190397,0.01938663
0.9810667,0.2112552,0.1575416,-0.02934178,0.01806444,0.0293653
0.9803889,0.2111974,0.1527265,-0.02329548,0.02368274,0.03565808
0.9802165,0.2152849,0.1553931,-0.0125096,0.02858227,0.03642479
0.9808567,0.2186638,0.1586446,-0.005255336,0.01057117,0.02792681
0.9809585,0.2182627,0.1588199,0.001688753,-0.00928623,0.01793034
0.9820077,0.2162579,0.1604514,0.008812972,-0.005242059,0.01409301
0.984791,0.2137208,0.1633616,0.01196346,0.003999645,0.01319741
0.9860312,0.2114549,0.1612534,0.004817266,0.009571382,0.01327234
0.988013,0.2103727,0.1542083,-0.01882432,0.02920984,0.01694929
0.9890061,0.2097524,0.1522783,-0.04097757,0.04593059,0.01913144
0.9875896,0.2089346,0.1552335,-0.04483549,0.04570449,0.01359401
0.987809,0.2081261,0.1587919,-0.0373345,0.04175144,0.01005633
0.9850207,0.2064407,0.1608971,-0.03234036,0.02855674,0.01008647
0.9789055,0.2056049,0.1618007,-0.01968074,0.005618459,0.005170938
0.9754188,0.2068886,0.1635341,0.005681844,-0.02320581,0.0001663727
0.9750125,0.2076061,0.1617576,0.0115685,-0.03686066,-0.0008130333
0.9778828,0.2110409,0.1606405,0.002349478,-0.02078114,0.001027465
0.9814256,0.2165372,0.1614953,0.005368634,-0.01733319,0.00451649
0.9827797,0.2169704,0.1605747,0.007070541,-0.01918788,0.009019596
0.9827068,0.2137728,0.1616131,0.00609974,-0.002907224,0.01537425
0.980072,0.2110939,0.1613214,0.01324033,0.00646637,0.02238995
0.9766672,0.210425,0.162559,0.01815832,0.01355992,0.02624389
0.9799243,0.2078909,0.1643913,0.01650161,-0.002907701,0.01470919
0.9894794,0.2019022,0.159316,0.003574254,-0.03327889,-0.007897413
0.9934752,0.199749,0.154527,-0.01836076,-0.01825238,-0.01360488
0.9848461,0.2047334,0.1531823,-0.02169981,-0.000449048,0.0008896628
0.9752661,0.2131074,0.1545109,0.001057337,-0.003282378,0.01651616
0.9801156,0.2170827,0.1556291,0.0190391,0.004517027,0.0212633
0.9871189,0.2181426,0.1550636,0.01352268,0.001107431,0.01485906
0.9853003,0.2192133,0.15616,0.004458488,-0.003184853,0.008206477
0.9861713,0.2119778,0.1554889,0.004953082,0.0002430026,0.005302177
0.9842953,0.2044398,0.1561951,0.004218593,-0.006000888,0.005298167
0.9789239,0.2053948,0.1577874,0.007740358,-0.001195037,0.009826518
0.9801791,0.204323,0.1564775,0.01292932,0.006049665,0.01204339
0.9835735,0.2007127,0.1570581,0.002052792,0.006338635,0.008308396
0.9893723,0.2024011,0.157252,-0.01503539,0.01358765,0.001602249
0.9897443,0.2096953,0.1577501,-0.02703936,0.01823254,-0.004358892
0.9836207,0.2170382,0.1599811,-0.02967982,0.02403764,-0.004506604
0.9831217,0.2177047,0.1607473,-0.0222697,0.02569531,-0.003479496
0.9829978,0.2124793,0.1614072,-0.01735418,0.01184483,-0.00667972
0.9834177,0.2088088,0.1614923,-0.01438423,0.00109771,-0.009414187
0.9838488,0.2082115,0.1626896,-0.0141873,0.002861253,-0.009001394
0.9828324,0.2091394,0.16484,-0.0166005,0.004954491,-0.006717711
0.9860087,0.21231,0.1648444,-0.01229012,-0.0003234488,-0.004734395
0.9873409,0.2130682,0.1651839,-0.009774295,0.001990357,-0.004982319
0.9867537,0.2121005,0.1656265,-0.01139712,0.009302246,-0.00426163
0.9833966,0.2127862,0.1645289,-0.01355305,0.009986944,0.0008281797
0.9785165,0.212308,0.1625685,-0.01525603,0.01736335,0.005799977
0.9811343,0.2121783,0.1604578,-0.01025049,0.02187167,0.005785392
0.9844468,0.2103385,0.1613587,-0.006243863,0.01672016,0.004202517
0.9865601,0.2061923,0.1653442,-0.004949821,0.01008216,0.002997411
0.9881551,0.2048467,0.1675223,-0.001826908,0.0002210299,0.0001007871
0.9839091,0.207582,0.1652497,0.0008809333,-0.002753666,-0.0004666828
0.979554,0.2167159,0.1582268,0.003312511,-0.003464592,0.000347999
0.979215,0.2236582,0.1526988,-0.002288456,-0.01422537,-0.005831411
0.9827137,0.2153168,0.1578745,-0.01149968,-0.02625879,-0.01568812
0.9860344,0.2051607,0.1639161,-0.01389348,-0.02043314,-0.01865967
0.9839242,0.2097853,0.1599242,-0.01222076,0.002552639,-0.007804154
0.9822984,0.2131674,0.1581496,-0.004325414,0.01393108,0.007495317
0.9837882,0.2091394,0.1613035,0.005137921,0.007389423,0.007184118
0.9834795,0.2112771,0.1612072,0.006892637,-0.003163604,-0.002273791
0.9829341,0.2091652,0.1620607,-0.0003087252,-0.007123693,-0.006517922
0.9836537,0.2048243,0.1607576,-0.007794274,-0.006580018,-0.007737331
0.9830721,0.2090096,0.1565426,-0.005463536,-0.006349553,-0.007279439
0.9824823,0.2095898,0.1585584,-0.002562115,0.0005896876,-0.007831709
0.9827999,0.2094395,0.1601504,-0.002591066,-0.0002111098,-0.006759002
0.9834783,0.2104254,0.1590361,-0.002059691,-0.004271912,-0.002965973
0.9844431,0.2094986,0.1597734,-0.005133349,0.0006828605,-0.002786883
0.9841999,0.2128839,0.1565427,-0.006736613,-0.0003890037,-0.002700748
0.9845218,0.2144727,0.1526489,-0.00575443,0.00321295,-0.002653859
0.9848615,0.2126395,0.1529528,-0.003871475,0.006126502,-0.002032072
0.9829968,0.210329,0.155617,-0.001666724,0.001686284,0.0003662421
0.9827929,0.2087151,0.1591205,-0.00426361,0.004639031,-0.0005971292
0.9838608,0.2097648,0.1595895,-0.006458373,0.003962903,0.000304699
0.9832162,0.210338,0.1587547,-0.004437872,0.004384232,0.0007362865
0.9831238,0.2116186,0.1565856,-0.001336344,0.007071301,-0.002009685
0.9836068,0.2121212,0.1531443,0.001028889,0.004348838,0.001158964
0.9831981,0.2135905,0.1559003,-0.0008925656,0.006392405,0.004416884
0.983281,0.2169666,0.1604714,-0.004095343,0.006045675,0.003802505
0.9834999,0.2142761,0.16108,-0.002765963,0.001250175,0.004144502
0.9831702,0.2109214,0.1629799,-7.866402e-05,-0.003754516,0.001148661
0.9834049,0.209666,0.1647387,0.0004511519,-0.007227012,-0.004016441
0.983377,0.208636,0.1637209,-0.0002705452,-0.001731632,-0.004234982
0.9832115,0.2108004,0.1633169,-0.003778138,0.00450731,0.0002791987
0.9834669,0.2105969,0.1619997,-0.005894678,0.005661706,0.004271632
0.9830707,0.2106655,0.1586482,0.001621792,0.005126542,0.003228336
0.9824452,0.2119388,0.1575733,0.01450202,0.003510977,0.0007283215
0.982986,0.2094414,0.1578934,0.01886683,0.002483954,-0.004275938
0.9881699,0.2099282,0.1554279,0.001131504,0.006624342,-0.02200495
0.9947656,0.2118775,0.1541291,-0.02771947,0.02484742,-0.03783873
0.992327,0.2121734,0.1576482,-0.03479031,0.04409869,-0.03375683
0.9834284,0.2106974,0.160081,-0.01793589,0.0371576,-0.02756407
0.977898,0.2049326,0.1628146,-0.001906816,0.009971434,-0.03016612
0.9779595,0.2035352,0.1681411,0.003399996,-0.02142397,-0.03378051
0.9793708,0.2077825,0.1649467,0.00247527,-0.03946668,-0.03619071
0.9773934,0.2125141,0.1602937,0.001136037,-0.01233839,-0.02407477
0.9771498,0.2172618,0.1660378,0.0007847353,0.02668154,0.0016124
0.9806018,0.2176448,0.1690844,0.0005434449,0.0284838,0.01218327
0.9833973,0.2128882,0.1691351,-0.0004217008,0.02536579,0.006993276
0.987008,0.2077602,0.1699344,-0.0009807485,0.01926018,0.000439327
0.9851511,0.2095681,0.1642146,0.003649163,-0.008645492,-0.01056387
0.9802541,0.214063,0.1628432,0.008110407,-0.02193099,-0.01684043
0.9820338,0.2134381,0.1646502,0.00323448,-0.01199594,-0.008733894
0.980623,0.2133123,0.1596006,-0.00261438,0.001290229,-0.0009709975
0.97756,0.2124043,0.1594481,-0.003460256,0.005527298,-0.002966829
0.9786884,0.2122555,0.160019,-0.006712127,0.003464526,-0.005046254
0.9766197,0.216508,0.1568687,-0.007605858,0.004302937,-0.005034021
0.9757335,0.2187396,0.1630968,-0.003429937,0.001609563,-0.007091313
0.9773626,0.2196492,0.1693733,-0.003742644,0.002038382,-0.006825716
0.9788763,0.2164288,0.1699966,-0.0050844,0.005222941,-0.004532235
0.9814374,0.2109454,0.1696267,-0.00825894,0.008371263,-0.001262676
0.980865,0.2113339,0.1640203,-0.01635088,0.01659447,0.002719046
0.9802613,0.2137328,0.1641536,-0.01742022,0.01661127,0.003781356
0.9827248,0.2162088,0.1672262,-0.01253349,0.0132718,0.004351051
0.9838836,0.2153882,0.1638538,-0.006105765,0.01230731,0.003016545
0.9833317,0.2121016,0.1655594,0.001273654,0.008062055,0.00050093
0.9827637,0.2111081,0.1665509,0.001994834,0.005461083,0.001161661
0.9815069,0.2091825,0.1669431,6.862668e-05,-0.0001136179,0.0005279331
0.9791297,0.2090466,0.1721753,-0.0009032838,-0.008948619,-0.003029444
0.9785747,0.209919,0.1704562,-0.0007643705,-0.01304668,-0.004343544
0.9797631,0.2114869,0.1668764,0.006925493,-0.01142697,0.003163086
0.9801864,0.2142009,0.1642981,0.01298017,-0.01261247,0.009371366
0.9813507,0.2123655,0.1622444,0.00218307,-0.02086972,-0.0018473
0.981847,0.2147819,0.164582,-0.01489733,-0.02412959,-0.01138824
0.980935,0.219553,0.1625262,-0.01809569,-0.01460756,-0.0002461506
0.9820038,0.2174808,0.161373,-0.01270684,0.002283522,0.009483677
0.9823286,0.2164502,0.1645747,-0.007611181,0.008602973,0.004901769
0.9805339,0.2143273,0.1637718,0.001706799,0.0003855817,0.002164133
0.9807789,0.2117963,0.1622442,0.005856854,-0.00731969,0.0007098632
0.9824415,0.2137363,0.1571474,-0.00103528,-0.01286781,-0.003749736
0.9837493,0.2137205,0.1512738,-0.004559893,-0.01083177,-0.001526266
0.983168,0.2143669,0.1574969,-0.0005745502,-0.004163838,0.002418007
0.9806587,0.2161745,0.1642499,0.0008589462,-0.004987687,0.005258002
0.9812474,0.2152379,0.159499,-0.002568496,-0.00212263,0.007456705
0.9840012,0.2159076,0.1566696,-0.005952595,0.001759862,0.001533615
0.983907,0.2172929,0.159284,-0.008988967,0.001197139,-0.002951959
0.9827274,0.2164091,0.1591929,-0.01063681,0.006359334,-0.001472704
0.9833951,0.2155346,0.1607448,-0.008142882,0.007598557,-0.002449383
0.9835258,0.214906,0.1652278,-0.001599157,-0.0002255554,-0.00185689
0.9820221,0.2132749,0.1677408,0.005331643,-0.008924394,0.003693865
0.9820164,0.2113916,0.1676002,0.004678389,-0.01398674,0.007755533
0.9828823,0.2085818,0.168794,0.002091853,-0.01397603,0.003236343
0.9836543,0.2051897,0.1739259,0.005462798,-0.01292337,-0.003231642
0.984553,0.2057294,0.173089,0.005700871,-0.00877061,-0.001405074
0.984597,0.2105869,0.1639602,0.004954749,-0.005999719,0.0002146106
0.984977,0.2134781,0.1563527,0.006807353,-0.006019367,-0.002798524
0.9846829,0.2109276,0.1542811,0.005198746,-0.002027431,-0.003208156
0.9844748,0.2084662,0.1573351,0.005644262,-0.005385716,-0.004812576
0.9852704,0.2099029,0.1603116,0.006477429,-0.01029426,-0.008888065
0.9853448,0.2105819,0.1638713,0.00485349,-0.006111323,-0.007012099
0.986066,0.2109654,0.1656985,0.005211214,-0.003982304,-0.002849605
0.9842624,0.2129031,0.1624128,0.002962243,-0.001866347,-0.002493859
0.9804907,0.2110681,0.1635309,0.0007388511,-0.001758577,-0.002760371
0.9801699,0.2088015,0.1621506,0.0008734988,-0.007181304,-0.003267093
