accx,accy,accz,gyrox,gyroy,gyroz
0.7847101,0.4802637,0.3951442,-0.07544918,-0.1242412,0.1534998
0.7875451,0.4781761,0.3949335,-0.0760303,-0.1248912,0.1535043
0.7857243,0.4779011,0.3933862,-0.07361023,-0.1288365,0.1532672
0.7858955,0.4783898,0.3922675,-0.07185768,-0.126896,0.15219
0.7864096,0.4792007,0.3933424,-0.06926862,-0.1211174,0.148388
0.7855965,0.4776902,0.3909507,-0.06801516,-0.110363,0.1497485
0.7843527,0.4752826,0.3897153,-0.07090521,-0.09738896,0.1531136
0.7827991,0.4765243,0.3906861,-0.07258432,-0.09598228,0.1575398
0.78331,0.4764938,0.3926448,-0.0704986,-0.09948437,0.1574285
0.7846028,0.4740496,0.396046,-0.06966654,-0.1021248,0.1542604
0.7844693,0.4734027,0.3962117,-0.06846825,-0.1044373,0.1561897
0.7829611,0.4733536,0.3940193,-0.06807267,-0.1025093,0.1545919
0.7817318,0.4742076,0.3937766,-0.07160436,-0.1012719,0.1548337
0.7836717,0.4754569,0.3950833,-0.07164793,-0.1013856,0.1595962
0.7866138,0.4766228,0.3942331,-0.06991613,-0.1004022,0.1592199
0.7863887,0.4769547,0.3930646,-0.06970344,-0.09891128,0.1590832
0.7856808,0.4757751,0.3935605,-0.06878152,-0.09716623,0.1587777
0.7863966,0.4765605,0.3935012,-0.07000847,-0.0977227,0.1573975
0.786055,0.4766868,0.3948616,-0.07033682,-0.09921555,0.1564827
0.785627,0.4758814,0.3946492,-0.06945673,-0.1001747,0.1546084
0.7845304,0.4768024,0.3928305,-0.06844728,-0.09875487,0.1580266
0.7826094,0.4762518,0.3929857,-0.06559955,-0.09407695,0.1623738
0.7837372,0.4760601,0.3910165,-0.06513114,-0.09162665,0.1633038
0.7864589,0.4758143,0.3896907,-0.06510361,-0.09211589,0.1618705
0.7878247,0.4744059,0.390949,-0.06437994,-0.09307076,0.155279
0.7868019,0.4752621,0.3932674,-0.06540198,-0.09324798,0.1541671
0.7844476,0.4760958,0.3971848,-0.06624709,-0.09175702,0.1619383
0.7846656,0.4760527,0.3979303,-0.06638605,-0.09047245,0.1668836
0.7862939,0.474888,0.3965009,-0.0659956,-0.08971572,0.1641682
0.7879254,0.4733144,0.3958111,-0.06638974,-0.09070938,0.1584084
0.7896413,0.4761774,0.395408,-0.06507751,-0.09617787,0.1577425
0.7885854,0.4785693,0.3961098,-0.06093533,-0.1015058,0.1585166
0.7866456,0.4750266,0.3964286,-0.05877575,-0.09930899,0.1587372
0.7859718,0.4722565,0.3979003,-0.05999285,-0.09583909,0.1595549
0.7857562,0.4742796,0.3994473,-0.0639243,-0.09713076,0.1553976
0.7864172,0.4768252,0.396908,-0.06715411,-0.09314213,0.154062
0.7861362,0.4779049,0.3938755,-0.06627338,-0.08731447,0.1539427
0.7856421,0.4773685,0.3921658,-0.06157878,-0.08791392,0.1485036
0.7855494,0.4756571,0.389929,-0.05988117,-0.08705195,0.1481189
0.7842707,0.4757528,0.3880187,-0.06356431,-0.08701991,0.1483535
0.7847525,0.4742831,0.3865533,-0.06309783,-0.0886243,0.1466957
0.7858499,0.4710529,0.3877501,-0.06060359,-0.08728047,0.1483047
0.7853199,0.4733322,0.3917231,-0.05902355,-0.08800788,0.1459857
0.7855815,0.4764816,0.3936327,-0.05824572,-0.08713491,0.1441085
0.786325,0.4763528,0.3944152,-0.06341794,-0.08349804,0.1475171
0.7870527,0.4766244,0.3950396,-0.06504586,-0.08148185,0.1495968
0.7869812,0.4762537,0.3944373,-0.0618974,-0.07941204,0.1496164
0.7868457,0.4760969,0.3957658,-0.06132578,-0.07966392,0.1468812
0.788624,0.4757788,0.39635,-0.05946688,-0.08056406,0.1413565
0.7893972,0.4744496,0.3936191,-0.05879878,-0.08004733,0.1392441
0.7887173,0.4753832,0.3930027,-0.06005734,-0.0788032,0.1409687
0.7888017,0.477223,0.3931913,-0.06114128,-0.07383788,0.1402537
0.7893715,0.4789355,0.3906201,-0.06215562,-0.07034292,0.1391458
0.790644,0.4798197,0.388567,-0.06018385,-0.07091817,0.1399396
0.7919655,0.4786506,0.3867156,-0.0591703,-0.07039135,0.1388237
0.7909086,0.4780234,0.3847634,-0.06061307,-0.06925419,0.1390059
0.7882813,0.4765459,0.3854021,-0.0608352,-0.06887756,0.1386803
0.786908,0.4739371,0.3868356,-0.06172103,-0.06883833,0.1353874
0.7860107,0.4733094,0.3881993,-0.06208852,-0.06888452,0.1352303
0.7865625,0.4735271,0.3902873,-0.06148045,-0.06965336,0.1361572
0.7883208,0.4737495,0.3917057,-0.06288287,-0.07027159,0.1369155
0.7873957,0.4736384,0.3914133,-0.06182896,-0.0691847,0.1355525
0.787104,0.4736121,0.38925,-0.05812783,-0.06823074,0.1300266
0.7879976,0.4746971,0.3857592,-0.05708129,-0.06632839,0.1280265
0.7870103,0.4755419,0.3836257,-0.05853354,-0.06364806,0.1282843
0.7866364,0.4768398,0.3848054,-0.0605945,-0.06352883,0.1271426
0.7860293,0.4782649,0.3847017,-0.05829191,-0.06421255,0.1263891
0.7857296,0.4777551,0.3815167,-0.05501219,-0.06482639,0.1266549
0.7865442,0.476071,0.3801348,-0.05605619,-0.06603555,0.1259487
0.785913,0.473525,0.3812374,-0.05423221,-0.06572341,0.1202263
0.7858478,0.471578,0.3829093,-0.05249199,-0.06494955,0.1176177
0.7856496,0.4732102,0.3832826,-0.05420784,-0.06507737,0.1198233
0.7852598,0.4762606,0.3824513,-0.05391127,-0.06411148,0.1181548
0.7873213,0.4767432,0.3821891,-0.05409529,-0.06353089,0.1168912
0.7877298,0.4762628,0.3829986,-0.05417954,-0.06359196,0.1145268
0.7853938,0.4767969,0.3847319,-0.05320097,-0.06275021,0.1101255
0.7847258,0.4781007,0.3857215,-0.05319168,-0.06300007,0.1111743
0.7873161,0.47978,0.3876662,-0.05262169,-0.06166954,0.1118305
0.7900042,0.4790283,0.3877193,-0.05233836,-0.05685404,0.1110607
0.7890498,0.4766886,0.3848315,-0.05019094,-0.05175287,0.1136578
0.7882034,0.4753022,0.3872447,-0.04605194,-0.04916295,0.1133742
0.7890258,0.4744705,0.3890692,-0.04694615,-0.04944745,0.1099897
0.7872326,0.4753005,0.38993,-0.05297329,-0.04647091,0.1080833
0.7860003,0.4765085,0.3966077,-0.05664606,-0.04379969,0.1060629
0.7870181,0.478076,0.3980508,-0.05471415,-0.04972522,0.1035635
0.7861452,0.4800678,0.3938088,-0.05266286,-0.05387905,0.1034408
0.7855947,0.4791458,0.3915492,-0.05380834,-0.04910667,0.105798
0.7863231,0.4786946,0.3921754,-0.05372113,-0.04558969,0.1062863
0.7851722,0.4796447,0.3951854,-0.05282963,-0.0492187,0.1048776
0.7842504,0.4789439,0.3963761,-0.05309836,-0.05302703,0.1058943
0.7848544,0.4791119,0.39748,-0.05084776,-0.05479133,0.107781
0.7846235,0.478848,0.3961583,-0.04938931,-0.05744507,0.1062136
0.7837048,0.4762541,0.3884687,-0.05162303,-0.05586325,0.1028359
0.7831406,0.4741485,0.3826617,-0.05112601,-0.05282489,0.1005493
0.7832072,0.4737631,0.3854165,-0.0465141,-0.05287997,0.09766721
0.7835196,0.4738873,0.3942837,-0.0419596,-0.0514803,0.09337768
0.7839802,0.4738498,0.3975624,-0.04152493,-0.05103677,0.08887368
0.7871927,0.476272,0.3893129,-0.04301427,-0.05028716,0.08740331
0.7918969,0.478894,0.3806139,-0.04376033,-0.04699428,0.08830112
0.7914698,0.4779381,0.3827586,-0.04667563,-0.04651407,0.08539726
0.7857077,0.4783909,0.3882452,-0.04427635,-0.04767805,0.08071316
0.7826392,0.4808961,0.3863771,-0.03801656,-0.04900354,0.07589575
0.7874359,0.4817056,0.3838994,-0.03902347,-0.05208916,0.07282899
0.7922319,0.4818611,0.3817457,-0.04041994,-0.05764334,0.07329196
0.7885515,0.4810122,0.381887,-0.03891541,-0.06836532,0.0643267
0.7871405,0.4790486,0.3879175,-0.02978472,-0.0912119,0.03837387
0.7954872,0.477769,0.387886,-0.008300237,-0.1308943,-0.00509424
0.799711,0.4767654,0.3867212,0.001952338,-0.1765379,-0.04398424
0.7925531,0.4760278,0.3865551,-0.009714844,-0.1959198,-0.04280302
0.7857659,0.4776475,0.3785478,-0.02532219,-0.1504607,-0.02042369
0.7866957,0.4840808,0.3683841,-0.04222985,-0.0635615,0.008663338
0.7835843,0.4940895,0.3608037,-0.06390121,-0.008705811,0.05117662
0.7760857,0.4982039,0.3664515,-0.07072756,0.0004446547,0.06882224
0.779081,0.4928532,0.3806224,-0.06092016,-0.006731509,0.06140124
0.782707,0.4889764,0.3861892,-0.05756644,-0.02149842,0.05615029
0.7830316,0.4889745,0.3836689,-0.05371847,-0.05381302,0.03585481
0.7898739,0.4898254,0.3778831,-0.04484548,-0.09769673,0.008613378
0.7910422,0.4963544,0.3799388,-0.03903006,-0.1086708,-0.00169738
0.7870396,0.5012446,0.3797034,-0.03313504,-0.0721631,0.01205557
0.7811795,0.4950409,0.3687669,-0.04379364,-0.03172282,0.04102627
0.7698074,0.4890106,0.3668825,-0.05747374,-0.02340197,0.05443035
0.7701993,0.4930436,0.3682765,-0.04904589,-0.02288991,0.05917334
0.7750022,0.4975073,0.3687136,-0.04552772,-0.01022131,0.06561234
0.7713359,0.4967229,0.3739838,-0.04645193,-0.02163034,0.06299335
0.7755526,0.496308,0.37897,-0.03915678,-0.04537743,0.05658237
0.7828518,0.4939094,0.382434,-0.04112899,-0.06207091,0.03236975
0.7834669,0.4921594,0.3782574,-0.04522207,-0.0719364,0.01324868
0.7813578,0.4964084,0.3758089,-0.04369094,-0.04492882,0.03576287
0.7756162,0.5007987,0.3773986,-0.04196795,-0.01938119,0.06345668
0.7728747,0.5027389,0.3736574,-0.03846328,-0.01485714,0.07500436
0.773669,0.4971675,0.3749001,-0.03899228,-0.003809713,0.07928594
0.7719805,0.4902119,0.3764064,-0.04220934,-0.005613507,0.08283558
0.769481,0.4949247,0.3777746,-0.04100677,-0.007861036,0.09453092
0.768828,0.4978422,0.3860334,-0.03479542,-0.01076708,0.09920622
0.7767493,0.4943481,0.3888346,-0.0212313,-0.02968061,0.08187343
0.7856689,0.494123,0.3856126,-0.01355103,-0.04456634,0.05448656
0.7832331,0.4940597,0.3836026,-0.02375102,-0.04719329,0.05005239
0.7817214,0.4976858,0.3844431,-0.03233095,-0.02697478,0.07219454
0.7847093,0.502463,0.3829117,-0.02965059,-0.0064323,0.084765
0.7827289,0.4955816,0.3768508,-0.02922512,-0.007697306,0.07973111
0.7798257,0.4882529,0.3747904,-0.0309601,-0.003845298,0.07723554
0.775506,0.4928441,0.3767697,-0.02918354,0.003683078,0.08475775
0.7702375,0.4975385,0.3820866,-0.02801477,0.001566316,0.08866445
0.774612,0.4986058,0.3867291,-0.02735471,-0.002492924,0.08973574
0.7815183,0.4985756,0.3847289,-0.0231307,-0.01154756,0.09210854
0.7822806,0.4923714,0.3837227,-0.01654124,-0.02653128,0.07757698
0.7823908,0.4875425,0.3840743,-0.01325426,-0.031418,0.06268376
0.7819433,0.490222,0.3804726,-0.01918243,-0.01981176,0.06574562
0.7835177,0.496716,0.3764539,-0.0257336,-0.001571766,0.07002085
0.7846575,0.5035601,0.3759362,-0.02175711,0.01046385,0.07241781
0.778051,0.502076,0.378134,-0.01641048,0.01203988,0.08081482
0.7729475,0.4970106,0.378653,-0.01233036,0.01000259,0.09401933
0.7746357,0.4975693,0.3778758,-0.00744742,0.007022218,0.09543996
0.7760575,0.4966435,0.3787697,-0.01219639,0.01159844,0.09756811
0.7749279,0.4948613,0.3790672,-0.01893737,0.02285273,0.1165193
0.7769093,0.4958684,0.3795886,-0.01732521,0.02541199,0.1207685
0.78231,0.4931178,0.3803598,-0.01432172,0.01678098,0.1126161
0.785108,0.4867832,0.3751585,-0.009507612,-0.001094682,0.1034588
0.7863206,0.4837178,0.3716159,-0.004839659,-0.01421309,0.08283474
0.7837822,0.4870618,0.3802882,-0.006123431,-0.01942743,0.06751831
0.7802598,0.4906745,0.3882451,-0.01276294,-0.02100432,0.06063876
0.7821337,0.4886896,0.3858901,-0.02350081,-0.01366655,0.06064525
0.7815107,0.488079,0.3846466,-0.02714017,-0.01114367,0.06666184
0.7798253,0.4894209,0.3872024,-0.02236514,-0.0080053,0.06733479
0.7817855,0.4866979,0.3843697,-0.02200265,-0.006673336,0.07012833
0.7822626,0.4861172,0.380076,-0.02202776,-0.0173463,0.07160841
0.78261,0.4899643,0.3791551,-0.01986889,-0.01656293,0.06575058
0.7854285,0.4919579,0.3792628,-0.02045273,-0.01590886,0.05358795
0.788275,0.4885912,0.3809329,-0.01919345,-0.01855075,0.03981516
0.786044,0.484132,0.378128,-0.01754579,-0.01125669,0.04607188
0.7821073,0.486069,0.3751176,-0.01950703,-0.01060203,0.05733388
0.782524,0.4872407,0.3800768,-0.02134925,-0.009064158,0.05576313
0.7820671,0.4850403,0.3833603,-0.02078513,-0.00781223,0.05932944
0.7813448,0.4861717,0.3829379,-0.01661277,-0.01043489,0.05886054
0.7824925,0.4845755,0.3799043,-0.01011208,-0.00765286,0.05197291
0.782285,0.4825411,0.376366,-0.00721605,-0.01001817,0.05291582
0.7844642,0.4854882,0.3789161,-0.009361849,-0.01144104,0.05207088
0.7872658,0.4867639,0.3809511,-0.01182401,-0.009669659,0.04983034
0.7863053,0.4860908,0.3803862,-0.01303278,-0.004874832,0.0478985
0.7863426,0.4857106,0.381031,-0.01386191,0.004784809,0.04357774
0.786877,0.4852978,0.3819101,-0.01363541,0.001506012,0.0440388
0.7841113,0.484608,0.3821291,-0.01402212,-0.003249048,0.04365351
0.7824979,0.4848759,0.3802173,-0.01462322,-0.002625986,0.03846299
0.7844964,0.4878221,0.3802591,-0.01372603,-0.008395414,0.03504225
0.7854549,0.489568,0.3830195,-0.01319522,-0.007302721,0.03594968
0.7853161,0.4890288,0.383673,-0.01184805,-0.003812967,0.03970547
0.7858836,0.4887902,0.3835018,-0.01113655,-0.006828183,0.04120639
0.7834615,0.4896004,0.384176,-0.01568523,-0.005423978,0.03898818
0.7798956,0.490095,0.3840626,-0.02038845,-0.00402271,0.03664066
0.7801619,0.4891598,0.3804646,-0.01849811,-0.00435547,0.03684665
0.7812465,0.4894362,0.377737,-0.01384035,-0.002211054,0.03728268
0.7812319,0.4891745,0.3853807,-0.01327949,-0.002907177,0.03733606
0.782127,0.4882293,0.3928167,-0.01523656,-0.003380319,0.03835449
0.7822762,0.4893144,0.3851634,-0.01464739,-0.00321033,0.03365495
0.7815549,0.4889107,0.3785598,-0.0106399,-0.005468401,0.02803748
0.7822718,0.4883702,0.3838529,-0.004900698,-0.004509644,0.03157754
0.7829613,0.4885761,0.3855172,-0.002239572,-0.00243457,0.03418993
0.7833476,0.4878649,0.3837554,-0.003548862,-0.0003386819,0.031273
0.7836646,0.4892617,0.3851798,-0.005468673,0.004215158,0.03006949
0.7832199,0.4900767,0.3837783,-0.007865228,0.005903205,0.03007847
0.7842595,0.4887544,0.3833682,-0.007318599,0.005717725,0.0307274
0.7851991,0.4871972,0.3873401,-0.004280027,0.004440967,0.03175043
0.7841887,0.4853167,0.389273,-0.003106482,0.0008762559,0.02948843
0.7829289,0.4861374,0.3860789,-0.002352932,0.001305981,0.02559138
0.7814661,0.4874341,0.3803601,-0.006940156,0.001492903,0.02376577
0.7821879,0.4863776,0.3789113,-0.01358209,-0.002369007,0.02304917
0.7851206,0.4860781,0.3809726,-0.01072953,-0.001484983,0.02212227
0.7866485,0.4863527,0.3838624,-0.006961306,-0.0007044334,0.02133566
0.7864057,0.487869,0.3894074,-0.006823601,-0.003904068,0.02101552
0.7855221,0.4889389,0.3913761,-0.005048906,-0.003366517,0.02097049
0.7852948,0.4852671,0.3890115,-0.004237065,-0.005241677,0.02020812
0.7843474,0.4823249,0.3884691,-0.002928326,-0.009121143,0.01823259
0.7824785,0.4851237,0.3880675,-0.004923254,-0.005515784,0.01434157
0.7818232,0.4882713,0.3844248,-0.010208,-0.001203783,0.009720014
0.7816409,0.4875737,0.3795203,-0.009140175,-0.0005745433,0.00991658
0.7823032,0.4874295,0.3797408,-0.008211432,-0.00113437,0.01404651
0.783,0.4897064,0.3813109,-0.008645107,-0.001285388,0.01378344
0.7832388,0.4904449,0.3782257,-0.006675442,0.003204675,0.0112964
0.783753,0.4891758,0.3779861,-0.009190578,0.007579764,0.01165475
0.7828667,0.4866594,0.3825439,-0.01019914,0.00472488,0.009508997
0.7823739,0.485917,0.3859926,-0.007976349,-0.0007491623,0.005696695
0.7820164,0.4890567,0.3849583,-0.007179982,-0.004315395,0.002974988
0.7819769,0.4907893,0.3822022,-0.002975546,-0.01045329,-0.005735941
0.7852484,0.488656,0.3845887,0.003051972,-0.03479746,-0.02939304
0.7877318,0.4864853,0.3898054,0.01544958,-0.08422822,-0.06838626
0.7862294,0.4878273,0.3902722,0.0273951,-0.1099073,-0.08633794
0.7793542,0.4902672,0.3775681,0.01100964,-0.06549953,-0.05396663
0.7721293,0.4921991,0.3593326,-0.01841851,-0.001937639,-0.01346882
0.7733112,0.4949126,0.3605406,-0.02320935,0.02130778,0.0009487444
0.7741265,0.4950696,0.3753387,-0.01282476,0.0144868,0.002741394
0.770847,0.4957175,0.3816639,-0.008670381,0.001273655,-4.010071e-05
0.7731202,0.4980512,0.3791249,-0.008617064,-0.00371339,0.002408264
0.7776981,0.496306,0.3758561,-0.008086041,-0.003770282,0.009578383
0.7807501,0.4949311,0.3769159,-0.004544509,-0.004599931,0.0105289
0.782621,0.4952775,0.3725637,-0.001666223,-0.003542101,0.008989671
0.78165,0.4945075,0.3654509,-0.002938387,-0.009351027,0.00217827
0.7827503,0.4960381,0.3717098,-0.003647657,-0.0118333,-0.004301675
0.7836546,0.4978598,0.3764424,-0.007258523,-0.005438355,-0.00194681
0.7800888,0.4964267,0.3734025,-0.01108828,-0.002842516,-0.0001364848
0.7785001,0.4951,0.3755022,-0.006780212,-0.003024765,-0.0003741522
0.7790557,0.4960313,0.3774373,-0.002741877,-0.007453641,-0.003238558
0.7795521,0.4958899,0.3769671,-0.002389602,-0.008456779,-0.006764703
0.7800001,0.4944013,0.3743446,-0.002824003,-0.003549315,-0.003301712
0.7797258,0.4935222,0.3689652,-0.008933251,0.001202052,0.002473588
0.7804401,0.4926416,0.3692272,-0.01309929,0.007532476,0.003844075
0.781658,0.4944438,0.3738436,-0.005389811,0.003413867,-0.002634232
0.78439,0.5005212,0.3753038,0.003475505,-0.004444906,-0.01232268
0.7863981,0.5060229,0.3725365,0.003514,-0.005474138,-0.01402877
0.7843457,0.5044691,0.3695491,-0.003066092,-0.005758556,-0.00650374
0.7783191,0.49843,0.3717319,-0.008770203,0.0006927114,0.004037651
0.771179,0.4953145,0.3772057,-0.007117349,0.008135237,0.01390477
0.7736275,0.4928301,0.3810641,-0.006799092,0.0134918,0.02201268
0.7783642,0.4922285,0.3815419,-0.01172892,0.02034255,0.02700765
0.7754461,0.4940162,0.3797928,-0.01031729,0.0221125,0.03062804
0.7762028,0.4932855,0.3804565,-0.006103632,0.02605376,0.03320696
0.7774522,0.4964672,0.3808866,-0.00623612,0.03099004,0.03471338
0.7765087,0.5001305,0.3778993,-0.005920901,0.02830672,0.03763733
0.7794898,0.497284,0.3767866,-0.004863718,0.02596434,0.03741702
0.7795559,0.4954783,0.3773873,-0.001143301,0.02565874,0.03676185
0.7786403,0.4949379,0.379609,0.003244508,0.02465155,0.04030359
0.7794405,0.4939417,0.3810284,0.0002404912,0.02316092,0.03946566
0.7778164,0.4935657,0.3765241,-0.003543858,0.01940862,0.03844496
0.7766762,0.4926538,0.3739052,-0.004478738,0.01779872,0.042732
0.7764935,0.4922755,0.3763023,-0.007786768,0.01955578,0.04451084
0.7780357,0.4923788,0.378804,-0.01000126,0.02108048,0.04488399
0.7802454,0.4932088,0.3797043,-0.009225711,0.02452582,0.04570276
0.7799653,0.4933482,0.3787719,-0.005519228,0.02609406,0.0454912
0.7808764,0.4927257,0.3782802,0.001388208,0.02039655,0.0440473
0.7829385,0.4932056,0.3775965,0.008227495,0.01268619,0.03933415
0.7842372,0.4930896,0.3775192,0.01150713,0.007820718,0.03192947
0.7842422,0.4925748,0.3779945,0.01007648,0.009268629,0.02510806
0.7819603,0.4917466,0.3766081,0.0103709,0.01442142,0.0262861
0.7815669,0.491093,0.3767098,0.01256672,0.01565275,0.03097738
0.7834314,0.4914353,0.3790924,0.01216428,0.01739267,0.03002885
0.7841975,0.4894918,0.3813572,0.01253819,0.02009105,0.02962409
0.7844715,0.4879253,0.3811681,0.0116932,0.0177034,0.02819397
0.7847452,0.4902427,0.3806507,0.01071539,0.01269651,0.02542423
0.7855785,0.490852,0.3826609,0.01205577,0.006845409,0.02564455
0.7857987,0.489056,0.3821515,0.0111535,0.004537051,0.02166412
0.7844493,0.4867801,0.3803983,0.008868611,0.006086064,0.01744291
0.7830585,0.4829371,0.3780531,0.006257025,0.00443359,0.01824475
0.7816838,0.4834862,0.3734167,0.006275862,0.0005127269,0.0207338
0.7833265,0.4868994,0.3750366,0.008667927,-0.00312598,0.02439415
0.7862081,0.4862453,0.3799575,0.009243926,-0.0037664,0.02520915
0.7850049,0.4867125,0.3811464,0.009771116,-0.003685798,0.02197103
0.7841201,0.4879905,0.3827641,0.009137242,-0.006085374,0.01302355
0.7835463,0.4863864,0.3836192,0.009214357,-0.005269766,0.002402014
0.782293,0.4857849,0.383125,0.008722714,-0.0063756,0.004960936
0.7835884,0.4861416,0.3823877,0.006195741,-0.009122525,0.01360909
0.7843791,0.4860147,0.3805273,0.007896117,-0.004025588,0.01378333
0.7863017,0.4852055,0.3803742,0.008544925,0.0002420052,0.01225873
0.7874463,0.4839956,0.3810185,0.007185443,-0.0002600241,0.01001832
0.7858803,0.4829692,0.3824117,0.00725705,-9.101519e-05,0.005239369
0.7875302,0.4820469,0.3854682,0.005705652,-0.0003884954,0.005308331
0.7854488,0.4843078,0.3877258,0.006328597,-0.002268252,0.0044548
0.7814493,0.4875712,0.3885859,0.007931978,-0.004325229,0.001054537
0.7836134,0.4871098,0.3837203,0.008128449,-0.002231779,0.002574738
0.7828994,0.4865332,0.3746206,0.00838758,0.002681475,0.003667946
0.780986,0.4854598,0.3717531,0.007344122,0.006925851,0.004684515
0.7825139,0.4822339,0.3749654,0.006337104,0.009963985,0.007859901
0.783035,0.4828374,0.379079,0.00332003,0.009888216,0.00675698
0.7843341,0.484362,0.3840407,-0.0005592197,0.01151455,0.005044886
0.7852552,0.48304,0.3862839,-7.785957e-05,0.01590183,0.006567913
0.7845242,0.4851027,0.3841591,0.0002042125,0.01683534,0.006556897
0.7850284,0.4871422,0.3832233,-0.001970155,0.01282679,0.00491858
0.7869743,0.4861094,0.3787054,-0.001811079,0.007246264,0.003015104
0.7897804,0.4878311,0.3670718,-0.0003768089,0.007025627,-1.358848e-05
0.7904832,0.4894526,0.3637627,-0.000126601,0.007865593,-0.002123808
0.7874416,0.4878488,0.3724341,-0.0001212529,0.005637987,-0.003142693
0.7852355,0.4856947,0.3787373,-0.0006044488,0.008351411,-0.003729159
0.7869514,0.4840622,0.3784926,5.395254e-05,0.01147116,-0.003897143
0.7881242,0.4831914,0.3784355,0.0007250204,0.01197064,-0.006396776
0.7863159,0.484074,0.3791807,-0.001545631,0.01357225,-0.008403295
0.785502,0.4864847,0.3775061,-0.001072834,0.01248721,-0.008013607
0.7855995,0.487276,0.3790992,0.003020358,0.01004839,-0.008994925
0.7853261,0.4874372,0.3820103,0.004556087,0.005747614,-0.009219475
0.7862239,0.4880579,0.3801009,0.00385779,0.002149458,-0.007770473
0.7861218,0.4880411,0.3809581,0.003121328,0.00353209,-0.006585163
0.7839821,0.4892521,0.3850833,0.003235092,0.003934452,-0.005252717
0.7832212,0.4888253,0.3881157,0.003032325,0.004311132,-0.005402596
0.7850567,0.4865695,0.3877973,0.001454273,0.005163717,-0.006181563
0.7868569,0.4855988,0.3817512,0.001000836,0.004436167,-0.005821649
0.7864376,0.4840224,0.3780137,0.001384139,0.003055464,-0.005542445
0.7864995,0.4832104,0.3777071,0.00144541,0.001739196,-0.00622973
0.7877544,0.4846306,0.3769001,0.001551579,0.005912994,-0.009527661
0.7858315,0.4877567,0.3763426,0.00135759,0.01123504,-0.01236717
0.7838861,0.4903199,0.3734443,0.0008400778,0.01104208,-0.01143623
0.7861621,0.4905297,0.3728107,-0.001880111,0.009451445,-0.01169906
0.7884573,0.4918565,0.3740647,-0.005259849,0.009685226,-0.01213866
0.7884872,0.4919109,0.3714227,-0.004876693,0.009355268,-0.01069429
0.7853262,0.4888995,0.3711324,-0.003111107,0.006697036,-0.01276594
0.7810269,0.4869636,0.3755961,-0.001565112,0.005638662,-0.01495644
0.7819343,0.4862297,0.3800573,7.119694e-05,0.004151198,-0.01475442
0.785423,0.4869223,0.3793368,-0.001842781,0.003934685,-0.01631269
0.7865265,0.4871613,0.3737754,-0.003300385,0.008366019,-0.01747657
0.7863557,0.4861555,0.3693919,-0.001212664,0.008830283,-0.0191198
0.7856414,0.4863556,0.3677288,-0.002254755,0.007519081,-0.0213481
0.7852054,0.486269,0.3726099,-0.002989966,0.007815392,-0.01844857
0.7847151,0.4877598,0.378817,-0.001194129,0.01008064,-0.0142883
0.7839691,0.489828,0.3767822,-0.001315395,0.01431166,-0.01283045
0.783269,0.4887226,0.376288,0.001892991,0.0109473,-0.01063321
0.7817395,0.4887988,0.3797722,0.004691111,0.007908316,-0.01157317
0.7832563,0.4899442,0.3802938,0.002172051,0.009269011,-0.01523216
0.7858449,0.4894262,0.3828873,0.0007447843,0.003250984,-0.01327091
0.7834378,0.4886319,0.3857503,-0.000511121,-0.002357195,-0.0105659
0.7816792,0.4875247,0.3816859,-0.001133032,-0.0002301019,-0.00945811
0.7827095,0.4867398,0.3770944,-0.0006105056,0.001652951,-0.006157664
0.7843566,0.4868437,0.3776759,-0.002702055,-0.0001826969,-0.006277684
0.7870736,0.4890549,0.3787165,-0.00319036,0.0003869627,-0.008319943
0.7861315,0.4923317,0.3810996,0.001759311,0.003220137,-0.01173748
0.7833163,0.4927601,0.3843172,0.006853612,0.003220391,-0.01702453
0.7824392,0.489571,0.381618,0.004882661,0.003692263,-0.01512199
0.7808859,0.4852101,0.3784992,0.001480865,0.003568589,-0.01126342
0.7792562,0.48537,0.3806371,0.001805059,0.003546404,-0.008324573
0.7773561,0.4871742,0.3837656,0.0002620634,0.006525573,-0.003532596
0.7770193,0.4855371,0.3855832,0.001467012,0.008368091,-0.009047415
0.7793398,0.4860193,0.3858197,0.004674773,0.00830063,-0.01837602
0.7810987,0.4871643,0.3852024,0.002747259,0.003852811,-0.01518536
0.7844124,0.4882167,0.3825193,0.002163402,0.0009184211,-0.003814708
0.7861778,0.4907291,0.3775688,0.001043276,0.007824939,0.004776502
0.7853316,0.4870104,0.3768237,-0.002631745,0.01330726,-0.001897913
0.7870474,0.4829338,0.3806131,-0.001478627,0.009297324,-0.01273105
0.7869706,0.4863866,0.3846472,-7.506863e-05,0.004451675,-0.008511886
0.7867553,0.489728,0.3881414,-0.0003949711,0.005395962,-0.00615701
0.7863273,0.4902099,0.384365,0.000477673,0.006272393,-0.007572001
0.7816219,0.488809,0.3771936,-0.0002643828,0.006054831,-0.002923679
0.7814835,0.4866033,0.3806408,0.000269104,0.006982542,-0.003192334
0.7835278,0.4873386,0.387188,0.001739078,0.00414839,-0.001214239
0.783071,0.4881238,0.3874902,0.0016677,0.002371597,-0.001800567
0.7832259,0.4872143,0.3834023,0.005370496,0.003319238,-0.007390592
0.7803736,0.4884449,0.3767284,0.01013389,0.002296317,0.002027085
0.7786419,0.4894381,0.3751465,0.01086189,0.001964897,0.008721872
0.7809962,0.4886293,0.3780694,0.009341383,0.002626582,0.005359866
0.7826494,0.4889224,0.3816637,0.007157053,0.00372411,0.006154389
0.7829126,0.4889712,0.3852013,0.006927531,0.002920417,0.005404625
0.7848777,0.4887611,0.3800816,0.006420223,0.001034911,0.005783989
0.7888132,0.48902,0.3739839,0.005953225,-0.0001526699,0.008342522
0.7871192,0.4884311,0.3796511,0.008586923,-0.003055372,0.01095709
0.7845553,0.4867905,0.3854426,0.00982836,-0.001775086,0.01147925
0.7869381,0.4837997,0.3841274,0.01045942,0.002710783,0.008152531
0.7861541,0.4824997,0.3818524,0.009619227,0.003578642,0.007792023
0.7855583,0.4839897,0.3788378,0.008497788,0.001254035,0.007188314
0.7867372,0.4852486,0.3766428,0.01244994,-0.002183389,0.007719818
0.7851738,0.4865866,0.3747598,0.01333612,-0.0005748649,0.009655053
0.7835105,0.4872044,0.3709735,0.01106989,0.001647849,0.00795978
0.7814866,0.4864341,0.3729189,0.0106169,-0.001358819,0.007306229
0.7823947,0.4859116,0.3769802,0.01040394,-0.002610423,0.006113687
0.7852191,0.485063,0.3761071,0.01220155,-0.00177515,0.004890691
0.7839289,0.4844835,0.3759912,0.01256607,0.0001743666,0.003399022
0.7835518,0.4849334,0.3739002,0.01215698,-0.0005346635,0.003231027
0.7850645,0.4852762,0.3709344,0.01218152,-0.004960215,0.008855333
0.7864496,0.4851335,0.3724036,0.01072347,-0.00308255,0.011344
0.7890096,0.4850379,0.3725576,0.01143596,-8.115528e-07,0.01047062
0.78885,0.485543,0.3722411,0.01117594,0.001094326,0.00750742
0.788459,0.4850278,0.374176,0.009359258,0.001523421,0.004864729
0.7913591,0.4845821,0.3762198,0.008875904,-0.005077665,0.007248994
0.7921555,0.4854407,0.378078,0.009081897,-0.008145504,0.005045891
0.7908959,0.4839982,0.3783508,0.01077479,-0.005094434,0.002650471
0.7891151,0.4827651,0.3774325,0.009871846,-0.003954456,0.001569824
0.7867683,0.4828539,0.3775962,0.00547407,-0.003803891,-0.002333574
0.7880944,0.4820789,0.3787159,0.002038407,-0.005878065,-0.0005854949
0.7900452,0.4832115,0.3795128,0.00370008,-0.006994708,-0.001045661
0.7894253,0.4836153,0.3796171,0.007280054,-0.01260307,-0.00460283
0.7905548,0.4841624,0.3774024,0.004803478,-0.01952629,-0.00443846
0.7912882,0.4863453,0.3742317,0.002266726,-0.01134125,-0.004164293
0.7900123,0.485679,0.3712954,0.001787801,-0.003735572,-0.002242137
0.7909757,0.4844068,0.3649276,0.001293195,-0.008879543,-0.003807927
0.7945758,0.4828766,0.3600086,0.005905043,-0.006811681,-0.006613413
0.7971254,0.4820851,0.3615947,0.006647966,0.01272208,-0.005440993
0.7954523,0.4806009,0.3677389,-0.002268002,0.03036909,-0.006617803
0.7927884,0.4763381,0.3753193,-0.009369447,0.02603853,-0.008041302
0.7905165,0.4784091,0.3788658,-0.00484375,0.01721817,-0.01352008
0.7876368,0.4819551,0.3794097,0.00229116,0.01996095,-0.02109794
0.7887331,0.4821,0.3784048,-0.0009830719,0.01571548,-0.01854446
0.789783,0.4858305,0.3770864,-0.001877042,0.006833381,-0.01625784
0.7882673,0.4869095,0.3784003,0.001109924,0.005168689,-0.01690578
0.7900546,0.484602,0.3796216,-0.0007964372,1.389946e-05,-0.008868943
0.790803,0.4846276,0.380374,0.0008576511,0.0001730622,-0.002660072
0.7898672,0.48451,0.3775845,0.0001104254,0.004887624,-0.004818227
0.790547,0.4833527,0.3714054,-0.001808884,0.001697809,-0.002776923
0.7901471,0.4802285,0.3697491,0.0001406439,0.005308441,0.002102148
0.7900826,0.4774072,0.3710566,-0.002963519,0.008118381,0.001015842
0.7893546,0.4791468,0.3707515,-0.003496236,0.004479595,-0.0004428947
0.7875023,0.4833265,0.3688001,-0.002650873,0.006243701,-0.0011373
0.7880403,0.4852598,0.3683942,-0.002860047,0.004063595,-0.007722988
0.7910585,0.4822146,0.3725172,0.002258568,0.001246364,-0.01652966
0.7942433,0.4791115,0.3765393,0.001597105,0.002588745,-0.02178886
0.7932779,0.4813344,0.3745684,-0.003386002,0.005384492,-0.01868757
0.7910574,0.4847963,0.3694381,-0.002488122,0.00749084,-0.01192567
0.7910769,0.4865871,0.3672903,-0.0002553537,0.003823402,-0.01488997
0.789914,0.4867281,0.3680588,-0.002316352,0.005540745,-0.01681072
0.7903322,0.4851272,0.3725599,-0.005448964,0.008092983,-0.01298707
0.7926251,0.4843682,0.3831005,-0.005713037,0.005873487,-0.01473373
0.793196,0.4836003,0.3921716,-0.005110087,0.005978197,-0.01263357
0.7933395,0.4843529,0.3897664,-0.001572148,-0.0003342685,-0.009780493
0.792852,0.4873717,0.3830664,-0.001605827,-0.003540816,-0.01203365
0.7932954,0.4860192,0.3820244,-0.005963716,0.001263916,-0.01316588
0.7951812,0.4841895,0.3783789,-0.003934166,0.001817332,-0.01986908
0.7958765,0.4842241,0.3758411,-0.003060596,0.002283418,-0.02288105
0.7952809,0.4809582,0.380185,-0.003155164,0.002126381,-0.01816195
0.7933298,0.4780631,0.3818312,-0.00107124,0.00105277,-0.01854366
0.7916029,0.4766537,0.3852896,-0.001464329,0.0006659927,-0.02030776
0.7898408,0.4803387,0.3853277,-0.0008654448,0.0009951597,-0.02232544
0.7885695,0.4876171,0.3793557,-0.003576984,0.004631227,-0.02352914
0.7894027,0.4865267,0.3797477,-0.00646598,0.005037386,-0.02172752
0.789014,0.4837235,0.3785987,-0.004652608,0.004493192,-0.02014272
0.7903905,0.483507,0.3777417,-0.004231213,0.006633579,-0.01718425
0.7928095,0.4811799,0.3764874,-0.003678125,0.006567415,-0.01639384
0.7909938,0.4831966,0.3708858,-0.003015582,0.003373202,-0.01645366
0.789293,0.4869948,0.3746989,-0.002697461,-0.0005046626,-0.01445187
0.7864326,0.4877919,0.3771305,-0.002083646,0.001702648,-0.01448996
0.7823074,0.4878782,0.3741549,-0.001141012,0.004157912,-0.01366997
0.7815491,0.4868957,0.3712675,0.002104935,0.001094675,-0.01076288
0.781776,0.4863081,0.3654559,0.004649465,-0.0007928879,-0.008295119
0.7822049,0.4843552,0.3730348,0.005395773,-0.003508329,-0.009012919
0.7826605,0.4822596,0.3817765,0.00226157,-0.003328736,-0.01135483
0.7852417,0.4837945,0.3751246,-0.002413702,0.002772939,-0.009427486
0.7889463,0.4845055,0.3733181,0.0001278912,0.005900416,-0.007676108
0.7877001,0.484739,0.3761083,0.003224699,0.006951599,-0.008035027
0.7866684,0.4860408,0.3738927,0.00178251,0.007819506,-0.008134533
0.7881048,0.4860671,0.3702594,0.001710114,0.005363239,-0.008754251
0.7873906,0.4862514,0.3671706,0.0009169708,0.0009740042,-0.007676019
0.78726,0.4861042,0.3685053,-0.0001173418,-0.001107685,-0.007363601
0.7878177,0.4859354,0.3715287,0.0001143365,0.001733766,-0.00667645
0.7878397,0.4863592,0.3708952,-0.001823625,0.004186415,-0.006235847
0.7901935,0.4859346,0.3704044,-0.0009602456,0.002731342,-0.01102832
0.7926009,0.4861352,0.3721761,0.002077756,0.002457828,-0.01174116
0.7914842,0.4858729,0.3750859,0.0001600844,0.00274718,-0.007878856
0.7893491,0.4841378,0.3788604,-0.001486563,-0.000288052,-0.007549982
0.7888236,0.4829515,0.3773856,-0.001229889,-0.002529008,-0.008061987
0.7898041,0.483043,0.3732899,-0.00273968,-0.0007230198,-0.01050162
0.7914271,0.4839008,0.3758303,-0.0003796363,0.0001232085,-0.0151342
0.7910017,0.484303,0.378928,0.003008729,-0.003899104,-0.01829349
0.7886716,0.4856797,0.379103,0.000700192,-0.007465429,-0.02124773
0.7876595,0.4868205,0.3773688,0.0002875514,-0.005417033,-0.02262015
0.7874343,0.4857696,0.3727521,0.002292496,-0.001605133,-0.02021067
0.7873432,0.4860455,0.3703341,0.001574201,0.0004832077,-0.01788049
0.7876875,0.4867576,0.3710269,0.0006299275,0.0001783549,-0.01728475
0.7874261,0.4872338,0.3752871,-0.001156336,-0.002785967,-0.01704173
0.7876181,0.4876554,0.3781968,-0.001479949,-0.004695719,-0.01709059
0.7885261,0.4848671,0.3750293,-0.0008417132,-0.004657241,-0.01651721
0.7890378,0.4838815,0.3728123,-0.003436058,-0.003967721,-0.01514433
0.7886992,0.4863065,0.3681729,-0.003558371,-0.002816556,-0.01068857
0.7869103,0.4857779,0.363641,-0.001443567,-0.001726853,-0.00587551
0.7859555,0.4832013,0.3682585,-0.001713208,0.002140245,-0.007376973
0.7878087,0.4815027,0.3720999,-0.003425904,0.004513224,-0.009124753
0.7894947,0.4823809,0.371662,-0.005038795,0.00148873,-0.007674572
0.7881263,0.4842755,0.3727464,-0.002238441,0.0001097217,-0.007721508
0.7867154,0.4831807,0.3755356,0.002448646,-0.0009102492,-0.007881888
0.7877475,0.483251,0.3785091,0.002813147,-0.003784156,-0.008395819
0.7875334,0.4856843,0.3784773,0.001868511,-0.005962057,-0.01003864
0.7862345,0.4863205,0.3769235,0.001970417,-0.008080733,-0.01012218
0.786655,0.486497,0.3765512,0.002042174,-0.00658398,-0.01211637
0.788606,0.4866718,0.3751128,0.001252925,-0.004160413,-0.01717417
0.7910183,0.4867474,0.3743399,-0.002100419,-0.004312132,-0.0167633
0.7894472,0.4862731,0.3773622,-0.004725762,-0.002162287,-0.009643414
0.7859746,0.4856756,0.3777166,-0.003119678,-0.0002302708,-0.003551981
0.7859855,0.4874142,0.3727515,-0.0003627962,-0.001628271,-0.003875403
0.7866683,0.4876657,0.3702535,0.001886492,-0.004313092,-0.009160928
0.7887001,0.4862833,0.3730111,0.003244218,-0.007552696,-0.01345044
0.7909592,0.4866533,0.3760632,0.004059312,-0.008838011,-0.01877749
0.7885648,0.488681,0.371257,0.005763553,-0.005715779,-0.02390401
0.7864683,0.4922161,0.3625884,0.005450748,-0.002119282,-0.02056444
0.7874516,0.4917754,0.3620843,0.005097913,-0.003580153,-0.01689425
0.7869695,0.4881717,0.3713734,0.00593393,-0.006036864,-0.0202033
0.7856841,0.4867893,0.381782,0.002201394,-0.007301524,-0.02219883
0.7869587,0.4853749,0.3786724,-0.0007924608,-0.01035508,-0.02053986
0.7881539,0.4850534,0.3719126,0.001466131,-0.009870425,-0.01551643
0.7870883,0.487426,0.3720929,0.00263438,-0.006076565,-0.008168829
0.7865027,0.4906165,0.3677129,0.001775026,-0.004749779,-0.008199719
0.7860707,0.4911185,0.3726975,0.00183766,-0.005231476,-0.0111407
0.7858012,0.4892557,0.381443,0.003676648,-0.007162374,-0.008248781
0.9577309,0.272532,0.1997182,-0.2584608,-0.1129677,-0.3195437
0.9619289,0.2716298,0.1924544,-0.2523414,-0.1125419,-0.3144979
0.9614508,0.2727537,0.1871841,-0.2599333,-0.1093961,-0.3105485
0.9583453,0.2719844,0.188125,-0.2677494,-0.1027933,-0.3066537
0.9569528,0.2722961,0.1924084,-0.2615424,-0.09898628,-0.3046286
0.9556816,0.2734545,0.1937065,-0.2565923,-0.1045986,-0.305023
0.9542212,0.2734921,0.1984141,-0.2586262,-0.1113024,-0.3044242
0.9541191,0.2741754,0.2046757,-0.2534462,-0.1084087,-0.3018963
0.9542258,0.2743971,0.202972,-0.2477918,-0.1085056,-0.2972002
0.9551459,0.2765076,0.2018507,-0.2484325,-0.1133967,-0.2902538
0.955542,0.2788312,0.2030013,-0.2448017,-0.1089141,-0.2825938
0.9536838,0.2792509,0.199796,-0.2387717,-0.1054151,-0.2788514
0.9522185,0.278647,0.1977199,-0.2338195,-0.1102929,-0.2774949
0.9529326,0.2740008,0.1972899,-0.2339716,-0.1103717,-0.2735832
0.9549733,0.269084,0.1927267,-0.2416124,-0.1055523,-0.2731304
0.955573,0.2690123,0.1868454,-0.2466554,-0.1006777,-0.2740339
0.9538302,0.2716739,0.1902628,-0.2471143,-0.09911831,-0.2719111
0.9521317,0.272935,0.2023022,-0.2445975,-0.1053868,-0.2694641
0.9521497,0.2719871,0.2088039,-0.2441398,-0.1153277,-0.2644965
0.9515637,0.2717821,0.2034386,-0.2481517,-0.1242072,-0.2646504
0.9494978,0.2704451,0.1932159,-0.2479024,-0.1270146,-0.2677247
0.9521737,0.2678263,0.1925908,-0.2468042,-0.1269421,-0.2647928
0.9580573,0.2673413,0.2005094,-0.2489786,-0.1296004,-0.2623831
0.9608236,0.2665135,0.2034531,-0.2518894,-0.1306833,-0.2603955
0.9617845,0.2647316,0.1988584,-0.2530846,-0.1339526,-0.264306
0.9608137,0.264943,0.1897319,-0.2517133,-0.1381311,-0.2713147
0.9594805,0.2659627,0.187107,-0.2516047,-0.1414998,-0.2683446
0.9581714,0.2659813,0.1908303,-0.2489625,-0.1467647,-0.2684906
0.9559709,0.2660391,0.1902644,-0.246694,-0.13864,-0.2736893
0.9576637,0.2632004,0.1902762,-0.2439804,-0.123367,-0.2724274
0.9610713,0.2575678,0.190392,-0.2309897,-0.1163401,-0.2692971
0.9622967,0.2566283,0.1904657,-0.2176142,-0.1064451,-0.2656023
0.959657,0.2576674,0.1934681,-0.2092341,-0.09944636,-0.26322
0.955759,0.2577119,0.1937315,-0.2038847,-0.1004049,-0.2692644
0.9609747,0.2611045,0.1892522,-0.2003948,-0.09697782,-0.2790126
0.9684535,0.2651162,0.1825569,-0.1974674,-0.0874865,-0.2825592
0.9674167,0.2690164,0.1840158,-0.1999848,-0.07120269,-0.2827157
0.962604,0.273234,0.1893747,-0.1996183,-0.05998744,-0.2812769
0.9580556,0.2749359,0.1881384,-0.1993911,-0.05957262,-0.2746265
0.9591346,0.2771435,0.1897245,-0.2059351,-0.0526046,-0.2714404
0.961978,0.28006,0.1921989,-0.207364,-0.0454347,-0.2699712
0.9583291,0.2791517,0.1940184,-0.2059212,-0.04810689,-0.2600517
0.9531925,0.2757516,0.1992284,-0.2032738,-0.0524077,-0.2486796
0.9490928,0.2744045,0.1995991,-0.2005314,-0.05667905,-0.2382413
0.9513822,0.2751611,0.1996188,-0.2005772,-0.05573391,-0.2274213
0.9566912,0.2760415,0.2028054,-0.1975308,-0.05328719,-0.2232682
0.9525677,0.2766551,0.2028717,-0.1965524,-0.06158624,-0.2242509
0.9505003,0.2762141,0.2022158,-0.1958984,-0.068828,-0.222036
0.9525346,0.275361,0.2002579,-0.1931206,-0.06792355,-0.2171033
0.9504878,0.2748704,0.1975143,-0.1924855,-0.06982257,-0.213969
0.9518095,0.2747982,0.1983451,-0.1890592,-0.07324784,-0.2106596
0.9527008,0.2752398,0.1982873,-0.186335,-0.07811516,-0.2078846
0.9522879,0.2749239,0.1965075,-0.1852675,-0.08602508,-0.2057999
0.9534099,0.2748911,0.1975771,-0.1820863,-0.08630413,-0.203535
0.9513215,0.2750215,0.1993703,-0.1788411,-0.08367305,-0.2049721
0.9509648,0.273933,0.1998523,-0.1734279,-0.08910539,-0.2046915
0.9510032,0.2734098,0.1985561,-0.1689737,-0.09274328,-0.2045554
0.9505705,0.2740826,0.1963297,-0.1697251,-0.09017529,-0.2079575
0.9537298,0.2763812,0.1977652,-0.1712106,-0.09037203,-0.2030715
0.954803,0.2788024,0.2014388,-0.1688482,-0.09436948,-0.1953307
0.9540433,0.2788627,0.2030103,-0.1666164,-0.09988311,-0.1892466
0.954418,0.278236,0.2008056,-0.1671054,-0.1047298,-0.1805562
0.9561437,0.2757734,0.1952846,-0.1649187,-0.1014615,-0.1789836
0.9587269,0.271674,0.1935522,-0.1638833,-0.09069606,-0.1756029
0.9592992,0.2724629,0.1966497,-0.1632394,-0.08049298,-0.1660761
0.9589445,0.2757283,0.19786,-0.1572027,-0.07247804,-0.1658337
0.9581851,0.2750322,0.1974169,-0.154811,-0.07139701,-0.1648014
0.958024,0.2746222,0.1978371,-0.1551356,-0.07256544,-0.1597675
0.9585209,0.2752691,0.1986526,-0.1520871,-0.06156856,-0.158258
0.9572652,0.273622,0.1960056,-0.1506732,-0.04972826,-0.1527924
0.9566255,0.2725049,0.1894299,-0.1499419,-0.04673126,-0.1485033
0.9570105,0.2720093,0.1861683,-0.1479178,-0.04348514,-0.1478136
0.9569692,0.2720418,0.1883327,-0.1456148,-0.0375584,-0.1480827
0.9569575,0.2729419,0.1913794,-0.1426171,-0.03293423,-0.1530204
0.9565226,0.274271,0.1929864,-0.1401159,-0.03856154,-0.1556736
0.9552249,0.278269,0.1954185,-0.1383793,-0.04747086,-0.1540572
0.9534237,0.2794764,0.1979139,-0.1375323,-0.04905074,-0.1534835
0.9530154,0.2743367,0.1986847,-0.1370287,-0.05011135,-0.1526732
0.9530067,0.2703149,0.2001279,-0.1354222,-0.05164428,-0.147935
0.9527363,0.2701837,0.2002214,-0.133399,-0.05581662,-0.142926
0.9552759,0.2697928,0.2005817,-0.1314661,-0.06050899,-0.1425687
0.9594476,0.2687156,0.2028973,-0.1297539,-0.06155332,-0.1405102
0.963143,0.2697189,0.2046187,-0.1274731,-0.06250124,-0.1370403
0.9637931,0.2697776,0.2079492,-0.1236561,-0.06082232,-0.1361439
0.9583415,0.2688406,0.2079167,-0.1208204,-0.06336982,-0.1335744
0.9536019,0.2698968,0.2065486,-0.1194867,-0.06932438,-0.1305505
0.9552913,0.2697336,0.2061733,-0.1169394,-0.06659425,-0.1297934
0.9558987,0.2709388,0.1923658,-0.115089,-0.05602361,-0.1320724
0.9513438,0.2732202,0.1776732,-0.1186084,-0.04542851,-0.1351206
0.9488103,0.2720597,0.1825265,-0.1236204,-0.04826794,-0.1348135
0.951712,0.2723059,0.1898936,-0.1214265,-0.05302258,-0.1358284
0.9583631,0.2743306,0.1919322,-0.1160801,-0.04581328,-0.1413413
0.96473,0.2753395,0.1991824,-0.1145811,-0.04473874,-0.1441963
0.9627622,0.2745855,0.1981318,-0.1139912,-0.04653202,-0.1400441
0.9571337,0.2709972,0.1879354,-0.1133488,-0.04415488,-0.1366319
0.9563796,0.268539,0.187214,-0.1119738,-0.0481956,-0.1388412
0.9548762,0.2698497,0.188665,-0.1100277,-0.05553865,-0.1393501
0.9524305,0.2741014,0.1906929,-0.1109327,-0.06309468,-0.1359355
0.9518342,0.2795186,0.1943278,-0.1108331,-0.0640297,-0.1310635
0.9516661,0.2845879,0.1921846,-0.1079642,-0.06148172,-0.1244025
0.955066,0.2872125,0.1931463,-0.1058681,-0.06720722,-0.1186864
0.9576813,0.2847432,0.1924697,-0.1045758,-0.06796215,-0.1141037
0.9543773,0.2808068,0.1894792,-0.1029504,-0.0670445,-0.1101071
0.951419,0.277932,0.191327,-0.09987584,-0.07394757,-0.1081627
0.9528882,0.2752588,0.1915176,-0.09503189,-0.07814771,-0.1059712
0.9551567,0.2742317,0.1929808,-0.08608127,-0.07980761,-0.1037542
0.9577568,0.2729251,0.1896137,-0.07795597,-0.06612312,-0.1037643
0.9627705,0.2699748,0.1825166,-0.07991914,-0.04159635,-0.1046244
0.9633102,0.2686393,0.1834297,-0.08243544,-0.03398564,-0.1027369
0.9596506,0.2697825,0.1856261,-0.08010606,-0.02911831,-0.09827975
0.9590561,0.2713472,0.1898193,-0.0804997,-0.02467352,-0.09602744
0.9570254,0.2746872,0.1969686,-0.07957038,-0.03382933,-0.09540911
0.9548147,0.2795263,0.2016213,-0.0780756,-0.03756005,-0.096706
0.9564414,0.2794764,0.2008912,-0.07874118,-0.03513853,-0.09894111
0.9565645,0.2755817,0.1968851,-0.07608843,-0.03720089,-0.09298106
0.9525267,0.273706,0.195857,-0.07507554,-0.03962271,-0.08625154
0.9488457,0.274598,0.1904436,-0.07639486,-0.04163997,-0.0902114
0.9525351,0.2781655,0.1837301,-0.07673825,-0.04261625,-0.09379985
0.9577114,0.280248,0.1832105,-0.07856416,-0.04508116,-0.09289612
0.959621,0.2789458,0.1829955,-0.07758796,-0.04712873,-0.09274197
0.9653858,0.278376,0.1852442,-0.07815736,-0.04409515,-0.08860078
0.967787,0.2765952,0.1842621,-0.08148419,-0.04031344,-0.08441042
0.9614741,0.2728028,0.17768,-0.07816363,-0.03672444,-0.0863512
0.9578426,0.2710376,0.1763425,-0.07494283,-0.03597777,-0.08677249
0.9594892,0.2699817,0.1817591,-0.07442377,-0.04026373,-0.08277063
0.9606225,0.269163,0.1889008,-0.07275306,-0.04544545,-0.07971941
0.9591862,0.2718596,0.187744,-0.07326412,-0.04773485,-0.07790327
0.9563986,0.2764899,0.1820597,-0.07036804,-0.03503068,-0.07349243
0.9560699,0.2806002,0.1800716,-0.06446912,-0.01721653,-0.06916212
0.957739,0.2818849,0.1780135,-0.06573518,-0.02147279,-0.06907198
0.9569115,0.2757735,0.1794938,-0.06775261,-0.02585107,-0.06789552
0.956576,0.269802,0.1809785,-0.06364807,-0.01359678,-0.06521017
0.958449,0.272929,0.1807234,-0.06414055,-0.01200788,-0.06618435
0.9585067,0.2752171,0.1830061,-0.06596313,-0.01444094,-0.06653587
0.9591816,0.2729308,0.181736,-0.0613512,-0.008371021,-0.06381327
0.9602095,0.2745676,0.1814419,-0.06037484,-0.00722866,-0.06171112
0.9591426,0.2767908,0.1816478,-0.05956727,-0.00927173,-0.06069099
0.9580006,0.2761834,0.1759519,-0.05652921,-0.01249785,-0.06053926
0.9564293,0.2765171,0.1731282,-0.05683801,-0.0137653,-0.06116585
0.9567942,0.2766119,0.1775644,-0.0552732,-0.01092793,-0.06290725
0.9586115,0.2763551,0.1827863,-0.05539644,-0.009491655,-0.06712156
0.9591063,0.2752776,0.1807334,-0.05516879,-0.004743016,-0.06907475
0.9601463,0.2737406,0.1787693,-0.05198204,-0.001590795,-0.06684801
0.9594801,0.2769391,0.1832498,-0.05253531,-0.003918028,-0.07017427
0.9575296,0.2795752,0.1832549,-0.05179004,-0.005787925,-0.0743561
0.9567768,0.2785016,0.1819138,-0.05137058,-0.007549496,-0.06588179
0.9569194,0.279774,0.1834755,-0.05304002,-0.005918379,-0.05692785
0.9590884,0.2802497,0.1838334,-0.05166986,-0.003000138,-0.05720892
0.9602595,0.2802019,0.1842413,-0.04998454,-0.00187173,-0.05739105
0.9596388,0.2812844,0.182008,-0.04690406,-0.001731435,-0.05895375
0.9595009,0.2797168,0.1804216,-0.0429169,-0.004539602,-0.06499174
0.9580869,0.2787167,0.1826589,-0.04270233,-0.005011048,-0.06899028
0.9552845,0.2777045,0.1856612,-0.04588662,-0.001199441,-0.06666911
0.9551117,0.2771701,0.1868993,-0.04814233,0.002242283,-0.06098295
0.9591446,0.2798168,0.1819862,-0.04610282,0.002270269,-0.05940082
0.9596349,0.2809886,0.1797193,-0.04364283,0.0009791669,-0.06316689
0.9568936,0.2824279,0.1856843,-0.04329967,0.0006427685,-0.06680853
0.958787,0.2834741,0.1887707,-0.04257747,-0.002282681,-0.06391776
0.9590498,0.2825672,0.1867753,-0.0419185,-0.002769474,-0.05845392
0.9581089,0.2830179,0.1853492,-0.04200161,-0.0002438902,-0.05827917
0.9594671,0.2812097,0.187322,-0.04075928,0.0008009243,-0.05716851
0.9558408,0.2796493,0.1893847,-0.03834049,0.004571353,-0.05449086
0.9527605,0.2794544,0.1894902,-0.03689593,0.004180975,-0.05195848
0.9536207,0.2778129,0.190799,-0.03670795,0.0007622117,-0.04730927
0.9533472,0.2770249,0.1898629,-0.03698094,0.002548654,-0.04773147
0.9538064,0.2748206,0.1870818,-0.03580813,0.001653896,-0.04838844
0.9543095,0.277125,0.1861902,-0.03321431,0.0009384404,-0.04617012
0.955183,0.2834355,0.1876322,-0.03196416,0.001748915,-0.04719631
0.9557807,0.2838674,0.1918247,-0.03141348,-0.002409853,-0.04625774
0.9544096,0.2852811,0.192389,-0.0287453,-0.005051196,-0.04374513
0.9540364,0.2881868,0.1907987,-0.02333648,-0.008513184,-0.03728224
0.9543908,0.2888406,0.1903153,-0.01794956,-0.01716968,-0.02903086
0.9560512,0.2892907,0.1853922,-0.01735841,-0.02082971,-0.02981872
0.9574259,0.2865703,0.1815774,-0.01909784,-0.01606028,-0.02847962
0.9552711,0.2854393,0.1823871,-0.01807264,-0.01259058,-0.0250086
0.9515722,0.2865131,0.1822907,-0.0190745,-0.01447779,-0.02724162
0.9490597,0.2858531,0.1804593,-0.01961213,-0.01532688,-0.02422823
0.9508537,0.2862783,0.1766055,-0.01465056,-0.01426411,-0.0198413
0.9532865,0.2860841,0.1722877,-0.01308318,-0.01245387,-0.01759097
0.9531751,0.2859643,0.173519,-0.0138077,-0.009618755,-0.01533503
0.9556076,0.2865617,0.1801606,-0.01386345,-0.008479185,-0.01738869
0.9587965,0.2867208,0.1850384,-0.01576922,-0.008295665,-0.01703958
0.9587464,0.2879501,0.1866266,-0.01498054,-0.01133989,-0.01651382
0.9577809,0.2875999,0.1838244,-0.01598511,-0.01460324,-0.01620254
0.9573002,0.2869639,0.1798726,-0.01877137,-0.007581332,-0.01052946
0.9559825,0.2871174,0.1814817,-0.01822156,0.0007253125,-0.007398859
0.9556544,0.2867405,0.1804069,-0.0179032,0.0001809213,-0.005114888
0.9593408,0.2885562,0.1767797,-0.01673364,0.00447038,-0.008239309
0.9618249,0.2892366,0.1768764,-0.01781335,0.01650709,-0.01591325
0.958557,0.2867444,0.1780447,-0.02227874,0.01995247,-0.01062626
0.9555369,0.2855481,0.1832879,-0.0237916,0.01658465,-0.004019141
0.9569481,0.2853742,0.1873418,-0.02125481,0.01591464,-0.003437937
0.9576663,0.2824232,0.1878458,-0.01729357,0.01614903,-0.003025039
0.956325,0.2775415,0.1899067,-0.0156601,0.01893695,-0.007932678
0.9563609,0.2771096,0.1889957,-0.01282892,0.01999991,-0.009888669
0.9536755,0.2808754,0.1843018,-0.01050855,0.01704753,-0.009103065
0.9498376,0.2836461,0.1790467,-0.01205023,0.01906729,-0.01004024
0.9514778,0.2856116,0.1811206,-0.0101541,0.01893168,-0.007396246
0.9528643,0.2859525,0.1855987,-0.009227252,0.0128933,-0.006934651
0.9515688,0.2860399,0.1806359,-0.00994647,0.01021713,-0.005161779
0.9513614,0.2884303,0.1796605,-0.007300313,0.009410842,-0.001211748
0.9519767,0.2889216,0.1835156,-0.006996197,0.01042969,-0.001424735
0.9550027,0.2870399,0.1826018,-0.007005399,0.01214941,0.0003055499
0.9581429,0.2859715,0.1811058,-0.006282028,0.01355352,-0.0001125961
0.9570243,0.2875276,0.1786698,-0.006473419,0.01667828,-0.002153117
0.95516,0.2900218,0.1816077,-0.005295008,0.01493701,-0.0001783319
0.954429,0.2888454,0.1873625,-0.005534246,0.01029455,-0.0004344296
0.9520876,0.288453,0.1869357,-0.007439236,0.008083485,0.001343903
0.950592,0.2904451,0.1877522,-0.008335201,0.007769603,0.00327509
0.9517801,0.290209,0.1884537,-0.005321888,0.006532302,-0.001192204
0.9524456,0.2897984,0.1866217,-0.001754177,0.002603779,-0.003065281
0.953161,0.2877018,0.1852187,-0.003143921,0.002812885,-9.786773e-05
0.9544833,0.2850252,0.1847514,-0.00355115,0.001781307,0.004228077
0.9545853,0.2864473,0.1895091,-0.001744488,-0.001433303,0.007177796
0.9552024,0.2883387,0.1913622,-0.0003641355,0.003099448,0.006164623
0.9572369,0.2891189,0.181793,0.001251802,0.01027021,0.00481838
0.9571717,0.2887964,0.1728484,-0.0006997945,0.02073258,0.0039833
0.9536633,0.2867892,0.1755213,-0.002757717,0.02779233,0.002534967
0.9520783,0.2853144,0.1794866,-0.001024808,0.02420592,0.001060177
0.9538691,0.2840258,0.179273,-0.0008320142,0.0269256,0.0001752447
0.9545378,0.2821478,0.1865125,-0.003114272,0.03263944,-0.001060679
0.9541703,0.281368,0.1914161,-0.006627452,0.03004032,-0.005001851
0.9540143,0.2823273,0.1895475,-0.009716565,0.02942621,-0.006385749
0.9540329,0.2832023,0.1971317,-0.008388592,0.03148344,-0.004643466
0.9526914,0.2841805,0.2017341,-0.006083653,0.02907809,-0.007340765
0.9487162,0.2854937,0.1946819,-0.006833833,0.0231427,-0.009377859
0.9461837,0.2858608,0.1891146,-0.006090243,0.01699365,-0.006385464
0.9469884,0.2879115,0.1877203,-0.002643842,0.01630085,-0.004061727
0.9478222,0.2904273,0.1882034,-0.0004692483,0.01595544,0.0003294601
0.9476855,0.2915261,0.1887775,-0.0006464655,0.007014247,0.007873492
0.9509288,0.294299,0.191937,-0.001339168,0.003108371,0.01066276
0.9557375,0.2938177,0.1953001,0.0004589567,0.00739208,0.01292874
0.9545899,0.2884533,0.1935511,0.003969258,0.006413504,0.01856458
0.9523718,0.2864399,0.1889496,0.005804529,0.005455795,0.01921373
0.9535527,0.2874271,0.1853083,0.00466244,0.005649361,0.01921949
0.9530536,0.2868889,0.1856972,0.003441756,0.004055965,0.02134964
0.9526932,0.2851501,0.1839442,0.005078341,0.005771898,0.01562977
0.9557602,0.2828732,0.1863894,0.005827077,0.006707435,0.005387702
0.9579023,0.2801083,0.1955866,0.008713681,0.006121318,-0.001188385
0.9563829,0.2807389,0.1945662,0.01368055,0.006660496,-0.005694482
0.9539033,0.2873117,0.1950664,0.00981872,0.006489202,-0.009821327
0.9522429,0.2908314,0.1990746,0.004324961,0.004583261,-0.005482069
0.9520319,0.2884021,0.1944117,0.004592302,0.001626499,0.003041575
0.9515392,0.2884695,0.1938422,0.007554803,0.000335475,-8.606145e-05
0.9499648,0.2903296,0.1949015,0.01285948,-0.003454435,-0.002409666
0.9531753,0.2930668,0.1926002,0.01218071,-0.008628376,0.0006585781
0.9574177,0.2971993,0.1877662,0.009094757,-0.006424471,0.0003283652
0.9553161,0.295621,0.1817962,0.01085761,-0.004794485,0.007244484
0.9538294,0.2901777,0.1882312,0.01340633,-0.01054137,0.01255576
0.9546499,0.2881146,0.1959532,0.02015535,-0.01382615,0.01034891
0.9539861,0.2885584,0.191725,0.02483282,-0.01191949,0.01309537
0.955068,0.288777,0.186683,0.02264604,-0.009451978,0.01552043
0.9561091,0.2862413,0.1840468,0.02160851,-0.006906862,0.01210486
0.9554916,0.2842283,0.1837711,0.0185513,-0.004542978,0.002995203
0.9564585,0.2883608,0.1856843,0.0142554,0.0007848101,-0.004463841
0.9571364,0.292057,0.1846186,0.01275045,0.007368878,-0.001758658
0.9560339,0.2914546,0.1844603,0.009853276,0.005644756,0.004815185
0.9551827,0.2933005,0.1872578,0.007362185,0.001541403,0.009916926
0.955126,0.2962657,0.1878476,0.008621511,0.002732843,0.01448277
0.9533228,0.2950114,0.1882772,0.01056699,0.00280048,0.01954094
0.9484696,0.2928173,0.1878274,0.01074492,0.002755649,0.02130804
0.9457389,0.292982,0.1834158,0.01232932,0.003839466,0.02117236
0.9466448,0.293129,0.178311,0.01309103,0.002378456,0.0234695
0.9474293,0.2929687,0.1757088,0.008608912,6.985687e-05,0.0229664
0.9496995,0.2931766,0.178319,0.005990794,-0.001877237,0.02425039
0.9525757,0.2927596,0.1806118,0.007956938,-8.201514e-05,0.03168283
0.951934,0.2922171,0.1802276,0.00917699,0.002154131,0.0361929
0.9523992,0.291433,0.1827758,0.008429088,-0.001676647,0.03481031
0.9552777,0.2910871,0.1849305,0.008767124,-0.003106631,0.03266806
0.9541574,0.2902269,0.185257,0.01270316,0.002449379,0.03447544
0.9524996,0.28814,0.1840489,0.01521945,0.007256573,0.03638824
0.9531676,0.2886575,0.1834576,0.01304762,0.007285306,0.03617286
0.9533518,0.2892995,0.1845669,0.01094984,0.008364321,0.03617348
0.9572383,0.2875818,0.1823241,0.01215904,0.0125012,0.03133916
0.9608635,0.2876459,0.1834827,0.01292073,0.01253727,0.02488023
0.9569878,0.2893778,0.1864638,0.01060141,0.01202586,0.02346936
0.953088,0.2907624,0.186647,0.01058179,0.01444139,0.02260666
0.9538651,0.2907534,0.1907516,0.01312888,0.01411805,0.01946635
0.9538181,0.2906734,0.1925464,0.01486182,0.009878371,0.01720351
0.9524657,0.2921784,0.1922422,0.01492939,0.004044778,0.0217922
0.9544901,0.2915328,0.1902557,0.01316381,0.003803908,0.02805732
0.9565655,0.2893569,0.1834136,0.01277951,0.00546336,0.02727354
0.9551526,0.2887403,0.1804952,0.01197173,0.001680953,0.02856681
0.9542474,0.2882332,0.1777197,0.01129135,-2.26215e-05,0.03193715
0.952951,0.2873336,0.1787953,0.01299971,-0.002156469,0.02851196
0.9504236,0.285656,0.1844351,0.0141009,-0.004238307,0.02570965
0.9499624,0.2857503,0.1799349,0.01652516,0.0004456429,0.02592714
0.9517099,0.2875697,0.1755674,0.01722188,0.002996523,0.02521366
0.9538978,0.2867096,0.1752601,0.01590778,0.004462033,0.0255226
0.9548743,0.2861314,0.1749196,0.01696911,0.007552881,0.02500954
0.9564749,0.2857889,0.1815959,0.01502405,0.006968444,0.02166437
0.9578278,0.2853269,0.1869299,0.01117201,0.008612351,0.01696606
0.9563844,0.2895599,0.1874755,0.008991698,0.01103142,0.0147542
0.955681,0.2937,0.1876456,0.008256931,0.006678477,0.01723997
0.9548474,0.2941484,0.1866628,0.009040945,0.002101959,0.02093839
0.9533973,0.2922522,0.1842579,0.008552478,0.004386059,0.02392564
0.9544059,0.2890638,0.177902,0.008963472,0.008250177,0.02389186
0.9542112,0.2900676,0.1745607,0.01068152,0.01122236,0.02216532
0.9528728,0.2918297,0.1772012,0.01239606,0.01623921,0.02467744
0.9528288,0.2894539,0.1790398,0.01389458,0.01685865,0.0286352
0.9527296,0.2884875,0.182011,0.01231615,0.01288455,0.03137346
0.9537972,0.2889234,0.1844993,0.01072056,0.01193042,0.03043858
0.9543569,0.2888379,0.1829412,0.01020455,0.01394828,0.02540769
0.9529552,0.288728,0.1813993,0.01081408,0.01678069,0.02563709
0.9518261,0.2867065,0.1818257,0.01314688,0.01680699,0.02778014
0.9524219,0.284747,0.182225,0.01238813,0.01728861,0.02710609
0.9561851,0.2845398,0.1823383,0.01192826,0.02005932,0.02718508
0.9598081,0.2858476,0.1842393,0.01351309,0.01881463,0.02478805
0.9588994,0.2875301,0.1847139,0.01296017,0.01867716,0.02378289
0.9533345,0.287569,0.1799768,0.01315946,0.02120542,0.02320971
0.9486851,0.2875463,0.177016,0.01381717,0.02308983,0.0184317
0.952974,0.2880177,0.1821463,0.01305339,0.02709307,0.01699449
0.9577111,0.2900716,0.1868923,0.01193774,0.02749521,0.0179318
0.9533879,0.2926841,0.1850322,0.009923497,0.02101599,0.01796518
0.9512575,0.2918064,0.185882,0.008207083,0.01571884,0.01781072
0.9536718,0.2903963,0.1903006,0.007882197,0.01896804,0.01713991
0.952677,0.2884748,0.1894296,0.008325901,0.02279391,0.01688806
0.9524017,0.2846157,0.1878331,0.008741915,0.01725942,0.01491244
0.953257,0.2837331,0.1894678,0.009644026,0.01418284,0.01334935
0.9528067,0.2841639,0.1889785,0.01116416,0.01662344,0.01254157
0.9546469,0.2845842,0.1880675,0.01132504,0.01659377,0.009714404
0.9560494,0.2879548,0.1879099,0.01053376,0.01797185,0.008315095
0.9544691,0.2895848,0.1860884,0.009733295,0.01812664,0.01035924
0.9527982,0.2902444,0.1846525,0.008586667,0.01587388,0.01247241
0.9524849,0.2936087,0.1839373,0.007484611,0.01511747,0.009624575
0.9531369,0.2933144,0.1858799,0.007833039,0.01391945,0.006822783
0.9539997,0.2914651,0.1873308,0.01026341,0.01502792,0.008632564
0.9561477,0.2919417,0.1832637,0.01135413,0.01802906,0.008557446
0.9571879,0.291339,0.1833317,0.009570038,0.01811415,0.007915678
0.9541503,0.2921255,0.1882541,0.007749527,0.01718479,0.008845382
0.9517183,0.2943785,0.19234,0.007983437,0.01895434,0.01046327
0.952697,0.2981659,0.1964279,0.009109066,0.02056516,0.0167509
0.953315,0.3011395,0.1948963,0.009226378,0.01820515,0.02232622
0.9527828,0.2962641,0.1900141,0.01081651,0.01483109,0.02098641
0.9545269,0.2898514,0.1865092,0.01284367,0.01103949,0.01975311
0.9563954,0.2879469,0.1862631,0.01215637,0.009120606,0.02077359
0.9551044,0.2887878,0.189046,0.01140423,0.01085552,0.01901128
0.9540306,0.2906594,0.1869957,0.01094296,0.01095458,0.01952997
0.9550076,0.2916067,0.1859229,0.01078885,0.01296072,0.02350842
0.9565272,0.2945785,0.1842786,0.01074066,0.01565684,0.02307821
0.9556633,0.2961168,0.1785156,0.008387962,0.01177296,0.02077056
0.9528875,0.2911359,0.182687,0.006895146,0.008845786,0.02010828
0.9526134,0.2872541,0.1883405,0.008180207,0.009810214,0.01937992
0.9530235,0.2886617,0.1886359,0.008667776,0.008610447,0.01696083
0.953485,0.2899541,0.1902665,0.007961364,0.006937575,0.0136302
0.9547285,0.2892853,0.1897106,0.008346809,0.007906365,0.01429128
0.9536964,0.2905607,0.1900019,0.008611841,0.008794555,0.01542467
0.9521871,0.2918313,0.1886374,0.008487061,0.008888904,0.0148197
0.9513184,0.2915787,0.1865191,0.009866503,0.01110004,0.0165099
0.9518173,0.2938445,0.1895318,0.01074057,0.012224,0.01728358
0.9539503,0.2946512,0.1891299,0.0113952,0.01021737,0.01699309
0.9544797,0.2924596,0.1894743,0.01242637,0.007164114,0.0182407
0.9558679,0.2914166,0.1932585,0.01278619,0.003899368,0.01847557
0.9571653,0.2925491,0.1933742,0.01468193,0.005713176,0.01380163
0.9564899,0.2952885,0.1951747,0.01424944,0.01138571,0.007967015
0.9569325,0.294347,0.1973434,0.009595653,0.01452097,0.008950394
0.9550344,0.2911673,0.1962301,0.00647039,0.01632165,0.009963327
0.9519811,0.2899438,0.1921033,0.006200806,0.01518734,0.005816603
0.9506057,0.2879856,0.1868523,0.00935956,0.01080503,0.004096984
0.9473439,0.2885206,0.1890208,0.01423389,0.00789127,0.005128926
0.9446704,0.2936866,0.1923792,0.01587848,0.006473914,0.006256671
0.944869,0.2971845,0.1898434,0.01442512,0.003801638,0.007532358
0.9478852,0.2965212,0.1868154,0.01264136,-0.001233431,0.009454849
0.9522724,0.2957694,0.1857108,0.01143334,-0.003420127,0.0135534
0.9547236,0.2917502,0.1898475,0.01083228,-0.001016627,0.01597211
0.9569028,0.2851162,0.1928605,0.01141349,0.004190139,0.01528607
0.9553929,0.2877673,0.1884356,0.01175081,0.01133991,0.01809133
0.9510536,0.2908281,0.1854089,0.01250831,0.008941098,0.02243432
0.9535307,0.2867744,0.1865171,0.01460374,0.003500547,0.02037505
0.9554856,0.2875867,0.1890543,0.01382992,0.008097265,0.01703101
0.9515552,0.2899185,0.1910388,0.01203196,0.008998522,0.01728259
0.9490929,0.2900092,0.1911463,0.01069379,0.008160935,0.01608519
0.9464919,0.2900105,0.1934673,0.007695526,0.009266741,0.01438348
0.9463257,0.2886368,0.1965409,0.007532729,0.004607463,0.01342727
0.9484684,0.291495,0.1936977,0.008391147,0.005215708,0.01309365
0.9466052,0.2944745,0.1898163,0.008377729,0.006514859,0.01509231
0.9475319,0.2927457,0.1915,0.01118561,0.002108856,0.01629168
0.9508161,0.2922288,0.1903748,0.01157977,0.00116299,0.01842248
0.9528843,0.2907246,0.1856129,0.01040601,-1.364141e-05,0.01890887
0.9564564,0.2875373,0.1858082,0.01202242,-0.0002695525,0.01276254
0.9574735,0.2867974,0.1864442,0.01155672,0.002221791,0.008134229
0.9578708,0.2862372,0.1858269,0.01191369,0.005999885,0.005961436
0.9581651,0.2860908,0.1867174,0.01308468,0.0109089,0.005151295
0.9552081,0.2890834,0.1878981,0.008487587,0.007975214,0.006330663
0.9526887,0.2914336,0.1907356,0.004363038,0.003926576,0.00413163
0.9520594,0.2909225,0.1922884,0.003678565,0.007102672,0.004456971
0.952506,0.2907316,0.1913074,0.003168047,0.007554856,0.006537202
0.9493743,0.2903723,0.1898048,0.006834623,0.006295652,0.004924393
0.9459136,0.2900611,0.1878911,0.01309903,0.007707455,0.007043316
0.9496955,0.291444,0.1874254,0.01326295,0.00713512,0.008886619
0.9537857,0.2914018,0.1876821,0.007863071,0.005776912,0.006421554
0.9551974,0.2889079,0.1890979,0.004737971,0.004818753,0.005496613
0.9564626,0.2870476,0.190206,0.004490718,0.002492515,0.005405587
0.9560405,0.2891147,0.1884863,0.005129807,-0.0004398902,0.005715955
0.9534496,0.2927504,0.1890833,0.006576303,-0.005710209,0.006724394
0.9501349,0.2935955,0.1920574,0.007175225,-0.01291041,0.007083626
0.9481614,0.294905,0.192513,0.007597753,-0.02045641,0.004951774
0.9471333,0.2961313,0.1880547,0.007001209,-0.02579688,0.002033573
0.9505276,0.2942951,0.1825775,0.005715828,-0.02246585,0.002921253
0.954729,0.2940094,0.1845932,0.005531947,-0.01306812,0.004122394
0.951953,0.2950379,0.1879936,0.005516874,-0.002707686,0.006332306
0.9495999,0.293272,0.187032,0.006472145,0.0008328732,0.01316091
0.9494889,0.2913819,0.1877712,0.006771149,-0.004416649,0.01547373
0.9494698,0.2909085,0.1877068,0.006268261,-0.0009679415,0.00937265
0.9511736,0.2882873,0.1876607,0.006291863,0.008386168,0.005257661
0.9514582,0.2868664,0.1921525,0.006372644,0.01224057,0.006535092
0.9530155,0.2893205,0.1965822,0.007984576,0.01052633,0.003911365
0.9536307,0.2918918,0.1974453,0.008715997,0.003116356,-0.001796418
0.9514423,0.2975673,0.1926242,0.007538638,0.003490901,-0.002228976
0.9510639,0.3009698,0.1888233,0.006177324,0.001770149,-0.001860975
0.9478981,0.2983764,0.193327,0.005729322,-0.008416871,-0.001288951
0.9460308,0.2975837,0.1968459,0.007857951,-0.006567463,0.004730269
0.9494564,0.2934995,0.194349,0.008878842,-0.005477642,0.01007131
0.9514579,0.2910658,0.1882419,0.006046211,-0.005888011,0.01245504
0.953545,0.2936137,0.1820099,0.002652017,0.0008287844,0.0133488
0.9540738,0.2908934,0.1829372,0.003521608,7.888103e-05,0.008766089
0.9524727,0.2911869,0.1851581,0.006965386,0.0003082884,0.003765979
0.952237,0.2934326,0.1809059,0.006505693,0.00450072,0.003354241
0.9508455,0.2942836,0.1794072,0.003912776,0.007488185,0.00298123
0.9509918,0.2989736,0.1828833,0.002381813,0.01229854,0.00380973
0.9511334,0.2989567,0.1848848,0.003257447,0.01136642,0.00694367
0.949152,0.2994017,0.1875951,0.007860213,0.008930708,0.008251471
0.9501149,0.3017649,0.18842,0.01129879,0.01071234,0.009908841
0.9501891,0.2948524,0.1869994,0.009945524,0.01151955,0.0123226
0.9489789,0.2893628,0.1894307,0.006584182,0.01046312,0.01152003
0.950115,0.2928858,0.1901406,0.005903919,0.005382069,0.01074062
0.9502858,0.296148,0.1883368,0.008173996,-0.002303746,0.011594
0.9501795,0.2958057,0.1904523,0.01013281,-0.004693151,0.01262413
0.9514071,0.2957668,0.1970779,0.01029495,-0.001654782,0.01829001
0.9525087,0.2969525,0.2032733,0.008242876,0.00397511,0.02687327
0.9539603,0.3000116,0.1990942,0.002825324,0.01659956,0.03115983
0.956846,0.3037805,0.1906065,-0.007994909,0.02697047,0.03564575
0.9564245,0.2997824,0.1866773,-0.01307677,0.0220586,0.04105197
0.950297,0.2911665,0.1819425,-0.002379276,0.01661553,0.03376744
0.9462372,0.2863141,0.181817,0.005650675,0.01724287,0.0234688
0.9454962,0.2830931,0.1845128,0.001790584,0.01543995,0.02713
0.9469484,0.2825918,0.1827694,0.000750692,0.02016305,0.02522651
0.9510339,0.282439,0.1891421,0.003368298,0.02755166,0.0131366
0.9527632,0.2809704,0.1983166,0.004070773,0.02695089,0.007913895
0.9529291,0.2837047,0.1969054,0.008274336,0.02722904,0.002893118
0.9519232,0.288424,0.1933025,0.01588199,0.02548782,0.0003931104
0.9506974,0.2929023,0.1911453,0.01973814,0.0165902,0.004473921
0.9515961,0.2930694,0.1929513,0.01880991,0.007538403,0.003908409
0.9504375,0.2897287,0.1975719,0.01576229,0.002713393,0.003359211
0.9499007,0.2913668,0.1983181,0.01289767,0.003942205,0.004615279
0.9519895,0.2910597,0.2004323,0.01052422,0.003989107,0.006379519
0.952862,0.2906873,0.2002113,0.009055899,0.002585998,0.01352415
0.9513116,0.2946431,0.1950939,0.007302472,0.003922061,0.01741584
0.9489511,0.2919914,0.1928695,0.003061262,0.0009175942,0.01563335
0.9499935,0.2904929,0.1914175,0.0039351,-0.002723801,0.01690071
0.9506107,0.2927075,0.1906481,0.006790795,-0.003992464,0.02224377
0.9493716,0.2910851,0.1892493,0.004387703,-0.006294378,0.02520198
0.9503126,0.2917572,0.1854449,0.005311282,-0.006006021,0.02292395
0.9502296,0.2919526,0.1864093,0.004866554,-0.004326469,0.02222785
0.9504314,0.2910134,0.1935688,0.001526242,-0.002084664,0.02301088
0.9518125,0.291059,0.2016462,0.002142146,-0.001155247,0.02075091
0.9524639,0.2888145,0.2039049,-0.000710117,-0.008298175,0.01444121
0.9526428,0.2885673,0.1976953,-0.007835699,-0.01649499,-0.0007824342
0.9488437,0.2891503,0.1902739,-0.01418409,-0.01677863,-0.01472289
0.9468418,0.2887085,0.1919083,-0.01046485,-0.0250766,-0.01111023
0.9503015,0.2888578,0.1955327,0.001259945,-0.0428628,-0.004778611
0.95136,0.2878772,0.1916308,0.005407947,-0.03958311,-0.008792997
0.9531023,0.2878202,0.1921559,0.006737456,-0.02177412,-0.00900913
0.9561369,0.2902811,0.1919204,0.005336044,-0.01307858,-0.007532322
0.956836,0.2938324,0.186805,0.001269924,-0.01018776,-0.007300851
0.9585359,0.2958414,0.191192,0.004346075,-0.01346085,0.000140817
0.9552029,0.2976498,0.1930595,0.006911168,-0.01389043,0.003640096
0.950743,0.3007298,0.1905713,0.008205019,-0.01047183,0.005244874
0.954171,0.3010993,0.1923332,0.008543613,-0.01450278,0.007999181
0.9548425,0.3008463,0.1910035,0.005342296,-0.01723083,0.00339913
0.9523766,0.3001286,0.1891534,0.003877867,-0.02063295,0.003183705
0.9519862,0.2976338,0.1850618,0.0003235288,-0.02146663,0.00469484
0.9509043,0.2974217,0.1815561,-0.000229686,-0.01666879,0.003263278
0.951437,0.2933524,0.1834596,0.001944233,-0.0188849,0.003824075
0.9516301,0.2854,0.1818243,-0.0002695101,-0.01610574,-0.0005652016
0.9510729,0.28522,0.1796143,0.001381316,-0.006604201,-0.004635865
0.9521696,0.2889458,0.1805737,0.001783626,-0.001799553,-0.007985775
0.9539534,0.2898715,0.181429,3.739071e-06,-0.003417048,-0.01198563
0.9556494,0.292393,0.1830635,0.003503236,-0.008202955,-0.008412576
0.9524015,0.2955469,0.1853975,0.004517868,-0.0003960353,-0.002332242
0.9483284,0.2948089,0.1853608,0.004758656,0.005703261,0.0007419209
0.9508953,0.2937056,0.1841896,0.00808147,-0.002472985,0.0003946337
0.9525428,0.2946214,0.1868744,0.009962086,-0.007211113,0.0007291733
0.9507515,0.293872,0.1890485,0.009622396,-0.009455984,0.002457671
0.9515389,0.2932952,0.1906479,0.00838727,-0.005651857,0.003992276
0.9526778,0.2951016,0.1943086,0.007525408,0.004163157,0.01057146
0.9526448,0.2955731,0.1939817,0.004015044,0.006674742,0.01512374
0.9530806,0.2956523,0.1948398,0.001235975,0.003895218,0.01477547
0.952624,0.2962459,0.1984382,0.004674591,0.0001461206,0.01655804
0.9526656,0.295043,0.1962267,0.006345436,0.00157618,0.01862878
0.9530571,0.2929341,0.1929006,0.003085429,0.004981239,0.02024493
0.952512,0.2900207,0.1922875,0.001374424,0.007920936,0.01966019
0.9530718,0.2885219,0.1899752,0.002994078,0.01398057,0.01675382
0.9537396,0.2892877,0.1883412,0.004931976,0.01188324,0.01474389
0.9542463,0.2886905,0.1889927,0.005226543,0.007814384,0.01247295
0.9546654,0.2889176,0.1877966,0.005170816,0.007997321,0.0107404
0.9548906,0.2901594,0.1882067,0.005305105,0.004266743,0.009832157
0.9566657,0.2901871,0.1910592,0.005432996,0.004942203,0.008546279
0.9563831,0.2905477,0.1901358,0.0049154,0.006957204,0.006631247
0.9540257,0.2901543,0.190548,0.003764129,0.004537258,0.004139716
0.9539211,0.2899505,0.1945609,0.004160604,0.006098319,0.00215094
0.9542997,0.2900596,0.1954901,0.004425775,0.01015308,-0.0005667794
0.9541585,0.2902872,0.1919031,0.004003252,0.01343368,-0.002929235
0.9541522,0.2931199,0.1870046,0.005285614,0.01281317,-0.002851507
0.9539618,0.2936597,0.1886084,0.006332416,0.008933223,-0.003576045
0.9533391,0.2915214,0.1923224,0.005856935,0.007985924,-0.005971421
0.952439,0.2914219,0.1910531,0.004668205,0.008297858,-0.006314771
0.952342,0.2908035,0.1930359,0.004175505,0.009563091,-0.004661497
0.9512236,0.2897656,0.1973746,0.005035908,0.01044109,-0.003933659
0.9492891,0.2894011,0.2006453,0.004386462,0.007351301,-0.00235075
0.9496375,0.2888605,0.1994832,0.0009315839,0.00224325,0.0009662044
0.9494122,0.2898464,0.1908032,-0.002941265,-0.001990099,0.003823857
0.9471471,0.2916001,0.1863132,-0.002802924,-0.0007166571,0.00492228
0.946823,0.2919934,0.1858413,0.000652513,0.001728645,0.002831474
0.9482555,0.2915261,0.1864786,0.002062771,0.0002503508,0.0007473491
0.9506733,0.2916187,0.1888137,0.002341783,0.0009518807,-0.0006570199
0.95383,0.2917923,0.186855,0.0009617161,0.001944435,-0.0009999493
0.9533277,0.2915595,0.1873075,-0.002132145,0.003933154,0.002742272
0.9518144,0.291709,0.1882568,-0.000690264,0.0106182,0.003143018
0.9529181,0.2922255,0.1869782,0.001913193,0.01364859,-0.00144857
0.951136,0.2942836,0.1898953,0.003306931,0.01293098,-0.005011435
0.9489491,0.2961846,0.1906868,0.00728666,0.01431987,-0.005723013
0.9502686,0.2934284,0.1910714,0.006572875,0.01667074,-0.004522177
0.9500271,0.2907696,0.1948955,0.00253372,0.01587524,-0.004854216
0.9489781,0.2943555,0.1982257,0.002098956,0.01028488,-0.001179703
0.9498022,0.2973596,0.1974779,-0.0009948256,0.005980451,0.003207653
0.9518713,0.295182,0.1930456,-0.001510921,0.005024269,0.0009273236
0.9532663,0.2933981,0.1939232,0.002952671,0.005025085,0.00212224
0.9509556,0.2921789,0.1950002,0.002992268,0.00584938,0.004388906
0.9490298,0.2910755,0.1915423,0.002844205,0.005502908,0.002037939
0.9503842,0.2928276,0.1910987,0.001273895,0.004921095,0.0005986645
0.9511386,0.2937383,0.1895751,-0.001869075,0.004337919,-0.0008769608
0.9513717,0.2939857,0.1863135,-0.0008308871,0.002276656,-0.001417867
0.951452,0.2968036,0.18709,-0.001385496,0.00204638,0.002449344
0.9501352,0.298602,0.1887665,-0.001049724,0.005211503,0.006825465
0.9488366,0.2977278,0.1888321,0.0007377031,0.008322386,0.004229678
0.9485363,0.2959715,0.1905731,0.0003545921,0.009306844,0.0006309271
0.9494635,0.295379,0.1911461,0.0007468066,0.01043823,0.001638758
0.9500939,0.2960729,0.1892727,-0.001485023,0.01036641,-0.004036997
0.948196,0.2958409,0.1906784,-0.003752539,0.006454501,-0.01157606
0.9468204,0.2951615,0.1906129,-0.002732263,0.004546352,-0.01149614
0.948999,0.2933023,0.1895219,-0.00151786,0.00782159,-0.0127789
0.9505278,0.2907548,0.1913584,0.0006701751,0.01088378,-0.01434673
0.947639,0.292436,0.1920649,0.003600622,0.009111254,-0.007361439
0.9436066,0.2976909,0.1954562,0.00735566,0.002928688,0.004274584
0.9430754,0.3007245,0.1977613,0.01099875,-0.003799762,0.01211762
0.9466497,0.2977273,0.1951312,0.01071912,-0.007178886,0.01461089
0.9499698,0.2933556,0.1922986,0.005537258,-0.005562073,0.01107548
0.9490538,0.2952428,0.1890242,0.0003038213,-0.004207082,0.005401682
0.9486203,0.2978867,0.1898571,-0.00149184,-0.005048268,0.006481055
0.9508546,0.2968776,0.1913598,-0.0006397838,-0.001531379,0.008646618
0.9501257,0.2973214,0.1894774,0.001865071,0.002871126,0.006507599
0.9502502,0.2966892,0.1904454,0.001393711,0.003534908,0.002108112
0.9550632,0.2932847,0.1902586,-0.0009274546,0.003618963,-0.003768725
0.9571792,0.2914706,0.1879736,-0.003044403,0.001918561,-0.006897359
0.9525117,0.2937291,0.1878955,-0.00829424,-0.003659175,-0.01158092
0.9461669,0.2970843,0.1907082,-0.0131185,-0.01047425,-0.01282568
0.9470113,0.293826,0.1972724,-0.01417414,-0.009435426,-0.008700577
0.9520288,0.289647,0.2003234,-0.009568603,-0.001968447,-0.01370917
0.9524853,0.2905123,0.1980224,-0.002185252,0.001913365,-0.01527148
0.9493834,0.2902983,0.1973623,0.002017327,0.004116662,-0.01160845
0.944785,0.2910925,0.1966524,0.005226069,-0.001996195,-0.01277256
0.9439977,0.2926407,0.1933773,0.006293076,-0.01164839,-0.008637208
0.9454899,0.29329,0.1907217,0.006312241,-0.004647891,-0.007406317
0.9434255,0.2970799,0.1921602,0.007724043,0.0008900513,-0.006534442
0.9436527,0.3017033,0.1968523,0.003906885,-0.006407933,-0.0003726764
0.9446127,0.3051761,0.198585,-0.002185939,-0.007760653,-0.000407533
0.9483631,0.3035916,0.1936046,-0.002491271,-0.006859951,7.319811e-05
0.9555318,0.2981803,0.1887326,-0.001322052,-0.007282772,-0.001632385
0.953074,0.2963031,0.1933771,-0.00133806,-0.004794363,-0.005278499
0.9500951,0.2942201,0.1977674,0.00242292,-0.002716208,-0.003070682
0.9525004,0.2915892,0.191628,0.006108276,0.00444068,-0.004162749
0.9509322,0.2899643,0.188719,0.004088266,0.01103529,-0.004684651
0.9509466,0.2885685,0.192801,0.002302316,0.00703364,-0.004796417
0.950615,0.2934564,0.193521,0.003452334,0.003122182,-0.00828909
0.9464254,0.3010848,0.192039,0.003313196,0.002302241,-0.006790376
0.9455748,0.3051972,0.1914112,0.002692783,-0.002549837,-0.006002533
0.9477422,0.3061198,0.1928987,0.003269913,-0.006445251,-0.006784588
0.950271,0.3034384,0.1954415,0.001836369,-0.006714135,-0.004108408
0.9504911,0.3018389,0.1961358,-0.002646185,-0.007162036,-0.00271212
0.9494395,0.3017326,0.1965494,-0.006092838,-0.005092521,-0.001377533
0.9503021,0.2994036,0.198429,-0.004565209,-0.002532533,-0.001065047
0.9496655,0.2978921,0.2017469,-9.21906e-05,-0.004803706,-0.002523769
0.9474299,0.2985827,0.201309,0.001938302,-0.005580726,-0.003012036
0.9443073,0.2989795,0.1960897,0.003078424,-0.0004262812,-0.007899899
0.9421525,0.2983578,0.1928728,0.004720542,0.003549558,-0.01455573
0.9450061,0.2987524,0.1914174,0.004039169,0.00132226,-0.01539529
0.9468853,0.299754,0.1900519,0.003227865,-0.0005879764,-0.01291566
0.9456567,0.2999953,0.1898649,0.003077779,0.002167228,-0.008302358
0.946603,0.3002567,0.1919132,0.002284008,0.003032359,-0.002636902
0.9477271,0.2998264,0.1976601,0.001118039,0.002222434,-0.0008058503
0.9473706,0.2999266,0.2031453,0.0002279343,0.00364976,-0.0005338315
0.9479222,0.300438,0.203939,0.001488163,0.005112894,0.001726303
0.949032,0.3006161,0.2069334,0.002322858,0.006673337,0.002294224
0.9487212,0.3018093,0.2139205,0.001542438,0.0065265,0.001851683
0.9479286,0.3017111,0.2078346,0.0006565649,0.004599547,0.00257809
0.9470624,0.3018949,0.1980072,-0.002021077,0.004234467,0.002155554
0.9454359,0.3023064,0.2029731,-0.002841859,0.002432431,0.001535376
0.9467316,0.2973972,0.2003892,0.0006900856,2.596561e-05,-0.0001180287
0.9498925,0.2923601,0.1911894,0.003654946,0.0006383028,-0.0009318378
0.9494099,0.2935319,0.1948294,0.003533901,0.002017738,0.00163143
0.9454979,0.2956925,0.2014446,0.0004672407,0.004396296,0.002762026
0.9420263,0.2963577,0.2061978,-0.002918751,0.006890854,0.004282001
0.9442346,0.2996659,0.2009035,-0.003425521,0.004982063,0.005630077
0.9475687,0.3025704,0.1916796,-0.00229486,0.001651817,0.005402714
0.9455875,0.3007066,0.1972048,-0.0008702532,0.0003644997,0.009553542
0.9463061,0.2973774,0.199338,0.0001852989,-0.001542882,0.01100332
0.9494395,0.2950215,0.1952785,-0.001339719,-0.001245923,0.007316875
0.9491337,0.2955599,0.1978834,-0.003261251,0.0005743021,0.007763889
0.9495234,0.2972929,0.1967365,-0.001005269,-4.195174e-05,0.007972019
0.9495654,0.2964222,0.1954791,0.001181433,0.0006132428,0.005120034
0.9496252,0.2962497,0.197841,-0.0004291038,-0.002452791,0.004301061
0.9507168,0.2966744,0.1980905,-0.0004304307,-0.006433368,0.004730121
0.9495825,0.295623,0.2006004,0.001214085,-0.001231771,0.006034171
0.9488316,0.2956091,0.2017933,0.001885628,0.001832099,0.007705449
0.945088,0.2960539,0.2001292,0.003103366,-0.001170498,0.009004159
0.9398989,0.2957936,0.1988504,0.003471648,-0.004763318,0.009750753
0.9434486,0.2961007,0.194645,0.002424555,-0.008644054,0.005172596
0.9480411,0.297715,0.1931585,-0.0004291659,-0.007996331,-0.0007347827
0.9469429,0.2991375,0.1953396,-0.006149943,-0.005697652,6.012805e-05
0.9462029,0.2984067,0.1942723,-0.01021914,-0.003363166,0.001858404
0.9463295,0.2965014,0.1946359,-0.008678447,0.001469097,0.001104699
0.9481735,0.2954267,0.1976272,-0.00507441,0.003741457,0.001598061
0.9511572,0.2958851,0.1988761,-0.002212164,0.00381106,0.0007011942
0.9498726,0.2969654,0.1976204,0.001272097,0.002288253,-0.001853776
0.9474293,0.2977666,0.1937657,0.001612266,-0.0007934265,-0.0006058785
0.9470695,0.299039,0.1930831,0.0005463715,0.004225919,0.002421546
0.9456795,0.3006399,0.1979533,0.003058929,0.009548582,0.002966617
0.9438901,0.3007862,0.2024684,0.0006635486,-0.0008556239,0.0007443586
0.9434972,0.2994758,0.2032312,-0.007978264,-0.009431234,-0.002112363
0.9473327,0.2983449,0.2031806,-0.01582978,-0.003954877,-0.0005238468
0.9528525,0.2982892,0.2059093,-0.01824152,0.0008064497,0.003424603
0.9517191,0.2990805,0.2070141,-0.01459138,0.001534763,0.004742247
0.9488863,0.2993508,0.2052909,-0.01350101,-0.002768347,0.003320755
0.947767,0.2975184,0.2007205,-0.007999436,-0.01102947,-0.0001736417
0.9449773,0.2906654,0.1923311,0.002723292,-0.01125528,-0.002377087
0.9462861,0.2836021,0.19135,0.002628461,-0.01009782,-0.002780176
0.948291,0.2871449,0.1946522,0.003799837,-0.0193523,0.0008141504
0.9457604,0.2916421,0.1924505,0.01195984,-0.0265422,0.007177271
0.9456168,0.2897765,0.1936662,0.0149771,-0.02354006,0.004813599
0.9472596,0.2956243,0.1985636,0.01477652,-0.02244891,-0.000670413
0.9479735,0.3022165,0.2025229,0.01171774,-0.02709913,-0.001080226
0.9485754,0.2986616,0.2041727,0.009321988,-0.03140138,-0.001337444
0.9486226,0.2965794,0.2016261,0.00926466,-0.03405036,0.001312814
0.9502541,0.2966652,0.199934,0.008584091,-0.03245657,0.004341434
0.9503402,0.2952929,0.1957203,0.00884479,-0.02592956,0.00476072
0.9474888,0.2958636,0.1907412,0.003687052,-0.02064166,0.006192533
0.9469096,0.2962208,0.193655,-0.00122133,-0.01945351,0.005115091
0.9479762,0.2965307,0.195421,0.004167037,-0.02053419,0.00343593
0.9507543,0.2975786,0.1934076,0.01033126,-0.01935436,0.003258273
0.9538481,0.2975165,0.1909034,0.01087795,-0.01390673,0.002911103
0.9519425,0.2978686,0.1840283,0.007365602,-0.01077823,0.003394788
0.9494845,0.2984718,0.1803026,0.003560678,-0.01179393,0.002416204
0.950093,0.2953764,0.1835133,0.003413867,-0.01168601,0.000371207
0.9500857,0.2897015,0.1847277,0.006153814,-0.007865655,-0.003442271
0.9489501,0.2885925,0.183773,0.008103477,-0.003874749,-0.0063463
0.9456698,0.2935649,0.1866321,0.005788662,-0.0041808,-0.003600242
0.9421722,0.2975384,0.1893998,0.003411951,-0.00405508,-0.002812248
0.9455247,0.296232,0.189733,0.003630516,-0.004534115,-0.004755674
0.9509501,0.295729,0.193216,0.003029932,-0.01038505,-0.003453557
0.9502756,0.2981791,0.194236,0.003084537,-0.01429413,0.00172231
0.9494175,0.2973268,0.1919327,0.004857042,-0.01299366,0.008083632
0.9503135,0.296535,0.1927882,0.00531456,-0.01148003,0.007677867
0.9488696,0.2978826,0.1897119,0.002572378,-0.01239124,0.004605628
0.9483045,0.2967653,0.1858201,3.663703e-05,-0.01142908,0.004634203
0.9489018,0.2961878,0.1869422,0.002162951,-0.007957681,0.001767507
0.9494407,0.2959469,0.1844281,0.004374528,-0.007239572,0.001034598
0.9503732,0.2951523,0.1813406,0.0023577,-0.004338386,0.002912036
0.9499999,0.2953759,0.1860645,0.0005652743,0.003409089,6.867875e-05
0.9498357,0.2946063,0.1912042,-0.0003556071,0.009111596,-0.0008810651
0.9501582,0.2967924,0.1888986,-0.000774372,0.009104512,0.0002785825
0.9499082,0.3000087,0.1882117,0.002184709,0.008203339,0.002185928
0.9500319,0.2985173,0.1926665,0.003005526,0.009626164,0.007453414
0.9500044,0.297535,0.193703,0.000124927,0.007912552,0.006817032
0.9499761,0.2964342,0.1937304,-0.0008544877,0.008730294,0.004159752
0.9500355,0.2932595,0.1937036,-0.001096619,0.01222159,0.00507241
0.9496016,0.2931452,0.191537,-0.001420363,0.009385265,0.00223547
0.9482528,0.2934194,0.1901997,-0.003986311,0.009683739,0.001788171
0.9468282,0.2915987,0.1878396,-0.006235092,0.01354056,0.002616662
0.9479079,0.2915223,0.1855126,-0.0004641475,0.01537932,-0.001295321
0.9493163,0.2927435,0.1861684,0.003406609,0.01590068,-0.002009971
0.9483027,0.2959145,0.1888397,-0.001405038,0.009911724,0.0002835629
0.9474625,0.2996153,0.1898089,-0.004880712,0.005655365,0.00314265
0.9477934,0.2964222,0.1884013,-0.0043322,0.008257176,0.003915953
0.9496419,0.2926545,0.1898436,-0.002918442,0.00897649,-0.0005169184
0.952019,0.2957301,0.1909486,-0.002725565,0.006006322,-0.003046177
0.9499759,0.2963915,0.1902128,-0.005087352,0.003816673,-0.002432081
0.9477735,0.29282,0.1927649,-0.007799542,0.00652552,-0.002272488
0.9515883,0.2900463,0.1966556,-0.007236579,0.00984516,-0.002956538
0.9540461,0.2883578,0.2002617,-0.004541822,0.01303331,-0.004406665
0.9517804,0.290666,0.2024319,-0.003686021,0.01656465,-0.005960601
0.9489459,0.2937632,0.2020351,-0.00113993,0.0134895,-0.007318285
0.9464179,0.2930505,0.1979134,0.002541632,0.009755507,-0.006562217
0.9470487,0.2928184,0.1905454,0.001683579,0.01037638,-0.006761684
0.9494347,0.2938502,0.1889076,0.002050407,0.007912807,-0.008360291
0.9487908,0.2959132,0.1920001,0.005391607,0.00418663,-0.007585092
0.9481229,0.299535,0.19263,0.006116161,0.005311485,-0.007533221
0.9485544,0.2991172,0.1944696,0.006945134,0.00664861,-0.006978317
0.9471799,0.2961678,0.1962871,0.007394848,0.005210851,-0.00656337
0.9465443,0.2971859,0.1947673,0.001231112,0.004863265,-0.009218334
0.9480458,0.2987863,0.1942197,-0.005365244,0.002004747,-0.01084187
0.9490624,0.2984323,0.1935903,-0.003839168,-0.002377427,-0.01069135
0.9498121,0.2983846,0.1917831,-0.003055914,-4.096858e-05,-0.008709991
0.9487882,0.2965307,0.1923442,-0.006951184,0.004847299,-0.008135366
0.9461349,0.2932852,0.191227,-0.006023274,0.007223454,-0.01020455
0.9474375,0.2930503,0.1900797,-0.00496113,0.007034607,-0.01007995
0.9497774,0.2960221,0.1940618,-0.007759792,0.004556252,-0.01118975
0.9491496,0.2996154,0.1962288,-0.006978047,0.004917455,-0.01203291
0.9468676,0.3017665,0.1972856,-0.00637048,0.008694908,-0.01084133
0.9436962,0.302872,0.1981865,-0.006954648,0.01098927,-0.01251712
0.9464515,0.3024374,0.1962682,-0.004984417,0.007255736,-0.01224537
0.9509352,0.3011221,0.198026,-0.003607328,-0.001445804,-0.01001997
0.9489856,0.3040091,0.2003531,-0.0007932416,-0.005303776,-0.005884256
0.9492709,0.3062384,0.2010568,0.001920133,-0.004400878,0.003578806
0.9492656,0.3013734,0.2004271,0.001080953,-0.00561745,0.007296767
0.9458205,0.296739,0.1962689,-0.0004813098,-0.006032367,0.00415437
0.9472628,0.2965142,0.1968719,-0.001929793,-0.003704887,0.002345386
0.9475697,0.2967122,0.198122,-0.001974833,-0.002170736,0.0001568624
0.9446975,0.2962974,0.1963589,-0.003167031,-0.004268999,0.0003831207
0.9439284,0.299029,0.1984095,-0.005105028,-0.006922187,0.001883705
0.9426354,0.3026004,0.2000932,-0.004047252,-0.006640732,-0.001445135
0.94217,0.2998238,0.1999151,-0.004104481,-0.003347223,-0.004252489
0.9441095,0.2971014,0.1969031,-0.003007424,0.006520702,-0.003383317
0.9479339,0.2993099,0.1946322,9.320651e-05,0.01323909,-0.003295333
0.9521265,0.2997746,0.1970065,-0.000368014,0.006439576,-0.005300724
0.9519168,0.2997536,0.1955424,-0.0008961374,0.003771851,-0.006486834
0.9495791,0.3004813,0.1951576,-0.0007194688,0.01351496,-0.00504138
0.9486703,0.2998746,0.1969228,-0.003318014,0.02112221,-0.004321641
0.9467002,0.3010511,0.1949909,-0.006273681,0.02152357,-0.004275892
0.9448492,0.3028,0.1953372,-0.006844893,0.01727359,-0.003089826
0.9452068,0.3028803,0.1933669,-0.003534719,0.01130293,-0.002801952
0.9453841,0.3026572,0.1916946,0.002272581,0.00630374,-0.002063978
0.9456621,0.3019652,0.1953609,0.003392036,0.002476979,-0.001750379
0.9464788,0.3016648,0.1934484,-0.0002111515,-0.0003557866,-0.003083331
0.9468219,0.3007136,0.1915133,-0.002559008,-0.004121518,-0.005373468
0.9491801,0.296956,0.194997,-0.005032553,-0.004912701,-0.008391457
0.9509788,0.2945873,0.1974648,-0.005519186,0.001183953,-0.009971155
0.9495097,0.2959754,0.2007768,-0.004603502,0.007328236,-0.01581124
0.9487557,0.2970597,0.1999355,-0.007151799,0.007764126,-0.02069325
0.9477639,0.2989017,0.1923872,-0.007171851,0.003711251,-0.01629123
0.9457042,0.3028101,0.1900413,-0.005354392,-0.0006440555,-0.01412809
0.9429572,0.302904,0.1963245,-0.002993843,-0.004273456,-0.009561334
0.9394021,0.3018786,0.2024404,0.001727405,-0.005669662,-0.0001331011
0.9416478,0.3030283,0.2007181,0.0007536265,-0.004737645,0.0009026281
0.946968,0.2999782,0.1981254,-0.0004978992,-0.006388839,0.0009385764
0.9477998,0.2973155,0.2011471,0.003250299,-0.005925796,0.002827434
0.9485377,0.299136,0.2001896,0.003460329,-0.0040857,0.002019402
0.948381,0.2996703,0.1983721,0.001501991,-0.006169664,0.004731287
0.9465899,0.3000263,0.1979635,-0.002465204,-0.005267342,0.007810153
0.949174,0.3002705,0.1915348,-0.007991699,-0.002261161,0.005322517
0.9509848,0.2997025,0.1894913,-0.006390551,0.001270012,0.0003063769
0.9492608,0.2998077,0.1913719,-0.002313474,0.005314523,-0.005335358
0.9480231,0.2982033,0.1923105,-0.002468218,0.005867247,-0.00829293
0.9459146,0.2969418,0.1984536,-0.001757375,0.005537667,-0.00497786
0.944866,0.2989207,0.2015532,-2.242719e-05,0.002394522,-0.002734264
0.9444546,0.3006753,0.1999974,0.0009927231,-0.0004340352,-0.003125322
0.942072,0.2991792,0.1999918,0.001878544,0.0009916833,0.0001408639
0.940937,0.2978254,0.2000253,0.0008704867,-0.0001534443,0.001711625
0.9406654,0.2989153,0.2010342,0.0007322949,-0.001608364,0.0006961553
0.9415378,0.2989263,0.2037173,0.001338246,-0.003866583,0.001618305
0.9439688,0.2990046,0.2036536,-0.0007527839,-0.008001301,0.001796736
0.9436706,0.3000154,0.1987445,-0.004271396,-0.006456285,0.001863454
0.9441057,0.30011,0.1949714,-0.00736103,-0.004343612,0.001989008
0.9469106,0.3015778,0.191543,-0.004677362,-0.004283426,0.0006225378
0.9459902,0.3020565,0.1905507,-0.0001673885,-0.0009951961,-0.0005483404
0.9452776,0.3012848,0.1963768,-0.002443518,0.000630953,-0.001830701
0.9473576,0.3036953,0.1993674,-0.003922538,0.0007074496,-0.002655146
0.94693,0.3044944,0.2026475,-0.003085598,0.001957614,-0.001387449
0.9451741,0.3028095,0.2064564,-0.00364171,0.001124812,0.0002587813
0.9433563,0.3039197,0.2044781,-0.001283232,0.002755768,0.001504867
0.9433995,0.3032734,0.2046031,0.0002178117,0.004818154,0.002736587
0.9466597,0.3003337,0.2036074,-0.0009979668,0.0005705735,0.001556573
0.9488252,0.2998298,0.200597,-0.0005408564,-0.002366423,0.0002055747
0.9500876,0.2983393,0.2000626,-0.0004199948,-0.001386271,0.00320027
0.9486344,0.2980029,0.1998789,-0.002222908,-0.000841843,0.005242499
0.944832,0.3006044,0.2003426,-0.003473045,-0.0002512387,0.003314228
0.9446036,0.3007924,0.1992425,-0.00240273,0.001470927,0.002266623
0.9437933,0.3009455,0.1979887,-0.001224618,0.005181457,0.002568538
0.9423684,0.2992586,0.1955448,-0.001488052,0.007816963,0.002722578
0.9446714,0.2958755,0.1946859,0.0004216012,0.006092182,0.002913205
0.9466002,0.2985586,0.1978703,0.003871407,0.002723628,0.002791917
0.9477357,0.3020718,0.1969066,0.004039974,0.002829765,0.000551957
0.9482564,0.3048852,0.1983792,0.001554783,0.004424788,-0.00289513
0.9473175,0.3084388,0.2016592,-0.00153369,0.002755266,-0.003055391
0.9462511,0.3066799,0.1994337,-0.003936063,-0.001134005,-0.001682566
0.9444173,0.3045278,0.1997463,-0.003053398,-0.006238279,-0.001760898
0.9442772,0.3048289,0.200523,-0.001039387,-0.005812446,-0.001008369
0.9456741,0.3034477,0.199762,0.0002719289,-0.001261715,0.0004369622
0.9458832,0.3016816,0.2012571,0.002016046,-0.001958388,0.002336268
0.9460122,0.3008006,0.202557,0.0003192028,-4.133335e-05,0.006015044
0.9458781,0.301311,0.2027127,-0.002382913,0.00322802,0.007349593
0.9466583,0.3008298,0.2002671,-0.0006078845,0.001649073,0.002865785
0.9477243,0.2991298,0.1964322,0.0003920197,0.001719149,-0.0005185643
0.9470837,0.2995756,0.1963472,0.0001873126,0.0002497003,0.002668315
0.9469655,0.3005757,0.1988457,0.001026382,-0.001854936,0.006751486
0.9464676,0.3023622,0.1982205,0.000434127,-0.0009774317,0.007794346
0.9456159,0.3035362,0.1970661,0.001300914,-0.002352243,0.007685032
0.9467063,0.3014173,0.1981857,0.003659912,-0.003564385,0.008328916
0.9476553,0.3007938,0.1960781,0.004796938,-0.001304001,0.01077974
0.947414,0.3008615,0.1939885,0.004613772,-0.0001545882,0.01172101
0.9480726,0.2994853,0.1940727,0.003667142,-0.005935539,0.008971993
0.9499401,0.2999968,0.1913448,0.004793956,-0.01302655,0.006503471
0.9500285,0.3002425,0.1910234,0.005199969,-0.01227669,0.007090193
0.9479743,0.3002912,0.1947875,0.003910667,-0.01010926,0.01173757
0.9470946,0.3028238,0.1970712,0.004223012,-0.01001249,0.01621416
0.9488366,0.3044113,0.1970899,0.003787584,-0.007651016,0.01337439
0.9508839,0.3014185,0.1966214,0.003973983,-0.007891891,0.008688283
0.9500859,0.2968349,0.1990957,0.004810795,-0.01310148,0.008815298
0.949442,0.2969519,0.2033594,0.003693784,-0.016485,0.01001107
0.9501143,0.2995991,0.2072981,0.003579904,-0.01463621,0.01067984
0.9480866,0.3004495,0.2103543,0.004080551,-0.01165555,0.009945812
0.9464923,0.3005594,0.2048244,0.002941313,-0.01065531,0.007827781
0.9476797,0.2992754,0.1946378,0.0009843703,-0.0087236,0.00696283
0.9491667,0.2986517,0.1938531,0.0006367036,-0.006979307,0.005158152
0.9504369,0.2990543,0.1985427,0.001091314,-0.008128923,0.00372356
0.9502028,0.2962729,0.2006598,0.0005967829,-0.008264941,0.003784102
0.9496439,0.2945116,0.1983588,0.001054856,-0.007971333,0.002666069
0.950003,0.2964492,0.1937164,0.0005933754,-0.007916389,0.004161632
0.949144,0.2959485,0.1933141,-0.0005163471,-0.004660256,0.006481994
0.948016,0.2940713,0.1939337,-0.0001833927,-0.002983169,0.005005577
0.9480916,0.2937962,0.1960146,0.0005336112,-0.00643646,0.001562593
0.9487272,0.2926074,0.1999934,0.001499482,-0.009873319,-0.0005831218
0.9497575,0.2928323,0.1969317,0.0007557241,-0.01079423,0.001240192
0.9505831,0.2936283,0.194335,2.557362e-05,-0.01186666,3.849296e-05
0.9517183,0.2932781,0.1964678,-0.0004879023,-0.00980503,-0.002857483
0.9536806,0.2967839,0.1955443,-0.001826449,-0.002073836,-0.0008609633
0.9537349,0.2998971,0.1940937,-0.0004523049,0.001139716,-0.002391064
0.9504485,0.2986513,0.1947166,0.0009125502,-0.0006801894,-0.00375237
0.9460828,0.2981489,0.1969725,0.00109183,0.0005894005,-0.001707977
0.9437251,0.2988264,0.1981079,0.0006228201,0.00253846,-0.00243693
0.9439919,0.298743,0.1967422,-0.001573268,0.003201466,0.000204828
0.9469683,0.2983564,0.1971375,-0.003031541,0.001866108,0.004561281
0.9514324,0.2987444,0.1976018,-0.002992566,-0.001791713,0.005434606
0.9497678,0.2988746,0.19598,-0.0004907715,-0.003794967,0.004408633
0.9458239,0.2992645,0.1925363,0.00101044,-0.001051696,0.001837052
0.9477991,0.3005223,0.1872119,-0.0004930278,0.002908047,-0.0005027854
0.9474696,0.2997997,0.1878214,-0.002241934,0.00136398,-0.0033452
0.9464361,0.2988538,0.1965618,-0.004758309,-0.0009149842,-0.005545313
0.948068,0.2986237,0.2013693,-0.003462928,-0.0002791989,-0.008407319
0.9465482,0.2983172,0.195705,0.0007648348,3.735311e-05,-0.01365832
0.946665,0.2988773,0.1886368,0.002505534,0.001883596,-0.01429917
0.9476096,0.298554,0.1898936,0.002671348,0.001856943,-0.01119016
0.9480885,0.2984671,0.1926063,0.001924329,0.001285235,-0.008804992
0.9503624,0.2988417,0.1919182,0.004284675,0.004659119,-0.005005788
0.9504905,0.2984187,0.1935994,0.006619101,0.005754788,-0.002818117
0.9502966,0.2988694,0.1927133,0.00447629,0.00604788,-0.005385624
0.9497081,0.2993668,0.1895439,0.00248358,0.00886663,-0.006155968
0.9497445,0.299617,0.1919569,-0.002343716,0.01127179,-0.0007967428
0.9506658,0.3000108,0.1968891,-0.007482599,0.01214212,0.003550935
0.9493827,0.3000907,0.1987518,-0.005937424,0.0110217,0.001431158
0.9496675,0.3000549,0.1948782,-0.005160515,0.01104338,-0.001632396
0.9476057,0.2998393,0.1910368,-0.006835032,0.01054071,-0.0003992779
0.9446118,0.3001102,0.1888552,-0.004865028,0.005821105,0.002039475
0.9471564,0.2996809,0.187757,-0.004003655,0.001795408,0.001431703
0.948524,0.298404,0.1931414,-0.0046185,0.002563997,-0.00176723
0.9477414,0.2981249,0.1962199,0.001473293,0.004991751,-0.00449209
0.9470614,0.2982411,0.1968721,0.007120438,0.003169835,-0.005921903
0.9469099,0.2988616,0.1986968,0.004383708,-2.287862e-05,-0.007171197
0.9479919,0.3002168,0.1960914,0.001911552,-0.0005219841,-0.006681047
0.9487785,0.3006944,0.1970708,0.002531607,-0.001995572,-0.005642093
0.9501601,0.3001275,0.1972413,0.001840426,-0.003713694,-0.006277982
0.948641,0.2998038,0.1943611,-2.689497e-05,-0.004242185,-0.005722417
0.9463496,0.2985861,0.1967516,-0.00193056,-0.004738353,-0.005013439
0.9492052,0.2983095,0.196765,-0.003067485,-0.003586791,-0.00617906
0.9509641,0.3019649,0.1969361,-0.004029687,-0.0006017,-0.006899227
0.9493734,0.3035934,0.1977056,-0.004618559,0.0003979101,-0.005852014
0.9482255,0.302368,0.1946264,-0.004188081,-0.0009870845,-0.001661974
0.9476131,0.3021205,0.1942826,-0.004659879,-0.0001618768,0.00234083
0.9471571,0.3017206,0.1941695,-0.005038683,0.002208091,0.0004927903
0.9447364,0.3021584,0.193512,-0.004185712,0.004578235,-0.00130563
0.9421839,0.3011002,0.1936487,-0.003919574,0.006384603,0.0007474211
0.9448512,0.2989819,0.1951549,-0.002241853,0.00656023,-0.0009906907
0.9484279,0.2989915,0.1980753,0.0004112521,0.007169197,-0.003875915
0.9488864,0.2999845,0.194683,0.0007539311,0.006984667,-0.004421697
0.9497803,0.3018269,0.1913551,-1.334622e-05,0.007071775,-0.00719727
0.947703,0.2999664,0.1949672,-0.002059458,0.00753732,-0.006422702
0.9432336,0.2972258,0.2008418,-0.00383067,0.005599341,-0.002575215
0.9432994,0.2990267,0.2073551,-0.00259771,0.004878325,-0.002941295
0.9434235,0.2989008,0.2064437,-0.0002576304,0.004878268,-0.004711846
0.9424492,0.2981032,0.2003513,0.001124671,0.004809349,-0.006559868
0.9434462,0.298826,0.2002518,-0.0008181798,0.004544567,-0.007332693
0.9433936,0.2975593,0.1980755,-0.003452522,0.002504664,-0.007455528
0.9445913,0.2974378,0.1912491,-0.002491702,0.001889237,-0.008258223
0.9463406,0.300487,0.1897772,-0.001777525,0.0005868171,-0.00735761
0.9440424,0.3049266,0.1910018,-0.001632248,0.0001514469,-0.006140072
0.9421406,0.3067082,0.1927168,0.0008570264,0.001917332,-0.004825169
0.9431467,0.3046361,0.1985179,0.0008825377,-0.0003325347,-0.004239323
0.9433875,0.3026469,0.2030392,-0.002223799,-0.004333442,-0.003551978
0.9427658,0.3011456,0.2011923,-0.002058178,-0.008239456,-0.002054193
0.9438178,0.3016974,0.1971699,-0.0007328113,-0.00826418,-0.003091627
0.9467792,0.3040793,0.1969013,-0.003016068,-0.005053745,-0.001499954
0.9493211,0.3044724,0.1994367,-0.007714254,-0.007347511,-0.001054476
0.9482714,0.3054342,0.2004697,-0.01198995,-0.009804951,-0.009496904
0.9461198,0.3054437,0.2000877,-0.008975081,-0.0167797,-0.01625063
0.9477758,0.305493,0.1999362,-0.0006559042,-0.03134659,-0.01272021
0.9495239,0.3158355,0.200967,0.002739857,-0.03941688,0.00150587
0.8839261,0.2451025,0.4252911,-0.03481387,-0.1401684,0.1046179
0.8830468,0.24786,0.4246158,-0.03034849,-0.1436713,0.1087876
0.8811482,0.2490527,0.4214389,-0.02774794,-0.1448154,0.1088342
0.8811414,0.2507874,0.4182981,-0.03112644,-0.1460889,0.1080943
0.8814898,0.2521673,0.4187901,-0.03460749,-0.1513613,0.1088262
0.8822461,0.2527365,0.4213189,-0.03396541,-0.1544621,0.1061138
0.8841169,0.2527681,0.4211715,-0.03598049,-0.1531505,0.103322
0.8849663,0.2497567,0.42475,-0.03982438,-0.1513197,0.1065569
0.8849827,0.2473341,0.4253529,-0.03801672,-0.1520343,0.1059344
0.884458,0.2465376,0.4243954,-0.03617711,-0.1513215,0.1075931
0.8847192,0.2437461,0.428741,-0.03563132,-0.1509425,0.1124468
0.8853089,0.2414271,0.4290932,-0.031899,-0.1519474,0.1061999
0.8862365,0.2394983,0.4259011,-0.03041302,-0.1503965,0.1015906
0.8885558,0.2357976,0.4216104,-0.02971628,-0.1511095,0.1017699
0.8895245,0.2361646,0.4205874,-0.02912568,-0.15014,0.09858436
0.8902489,0.2423028,0.4278313,-0.03166516,-0.1438913,0.09742036
0.8907151,0.2459871,0.4319773,-0.03062888,-0.1420272,0.09720523
0.8887296,0.2451614,0.4281511,-0.02960428,-0.1444146,0.09905013
0.887734,0.2466152,0.4250038,-0.03148817,-0.1464631,0.1001622
0.8865784,0.2506338,0.4282092,-0.03037716,-0.1493411,0.09832998
0.8827107,0.2509546,0.4303797,-0.02989984,-0.1545839,0.09783659
0.880088,0.2498261,0.4251558,-0.02894199,-0.1579167,0.095737
0.8827381,0.2511025,0.4184559,-0.02749845,-0.1561456,0.09493752
0.8875251,0.2500976,0.4123761,-0.03097487,-0.1546931,0.09474044
0.8873683,0.2484223,0.4116241,-0.03490186,-0.1512711,0.09382098
0.8867778,0.2472038,0.414572,-0.03632691,-0.1458189,0.09681776
0.8878883,0.2429565,0.4146111,-0.03564693,-0.1434365,0.09917546
0.8843633,0.2429703,0.419098,-0.03413516,-0.139282,0.1002993
0.8824992,0.2452744,0.4219626,-0.03210269,-0.1361707,0.101839
0.8845179,0.2447671,0.4210348,-0.02888702,-0.1356773,0.1032821
0.8849805,0.247535,0.4238996,-0.03001726,-0.1315052,0.1040983
0.8848774,0.248952,0.420807,-0.03175406,-0.1284532,0.1018114
0.8844274,0.2489879,0.4188872,-0.03068956,-0.1290616,0.09803953
0.8848308,0.2504122,0.4226357,-0.03496141,-0.1290906,0.0926047
0.884372,0.2470331,0.4202547,-0.03893077,-0.1271926,0.09114077
0.8816748,0.2447282,0.4202545,-0.03556562,-0.1244587,0.0947132
0.8799048,0.245878,0.4219148,-0.03301424,-0.1249584,0.09556173
0.8790048,0.2450712,0.4188576,-0.0345303,-0.1297874,0.09861187
0.8785428,0.244119,0.4158236,-0.03474662,-0.132728,0.09922996
0.8780637,0.2442388,0.4121541,-0.03331593,-0.1304637,0.0964487
0.8810221,0.2451273,0.4171997,-0.03283078,-0.1308574,0.1004423
0.8851017,0.246127,0.4269717,-0.0306514,-0.1334596,0.1003348
0.8832493,0.2474011,0.4258533,-0.02699851,-0.1311345,0.09712608
0.8823984,0.2468836,0.4258178,-0.02572169,-0.1313657,0.09642209
0.8831786,0.2448534,0.4303203,-0.0281764,-0.1327597,0.08905365
0.8811507,0.2458531,0.4299561,-0.03124357,-0.1277789,0.08382179
0.880905,0.2451679,0.4293895,-0.02879104,-0.1244637,0.08595751
0.880728,0.24269,0.427544,-0.02629581,-0.1261797,0.08757403
0.880095,0.2431044,0.4228791,-0.02767944,-0.1307716,0.08762582
0.8814169,0.2430371,0.4215471,-0.02635898,-0.1344214,0.08881614
0.8832051,0.2433583,0.4237582,-0.02439113,-0.1304399,0.09141216
0.8853567,0.2446467,0.4245711,-0.02120839,-0.1242167,0.09103594
0.8856273,0.2447279,0.4227395,-0.01758571,-0.1230149,0.08956625
0.8853904,0.2447007,0.4224513,-0.01985853,-0.1226369,0.08655534
0.886748,0.2461994,0.421497,-0.02065037,-0.1202641,0.08176175
0.885326,0.2493062,0.4189237,-0.01960285,-0.1197474,0.08290916
0.8843866,0.2504149,0.420799,-0.02382872,-0.1211645,0.08458873
0.8855725,0.2498701,0.425862,-0.02666611,-0.1211804,0.08366727
0.883806,0.2491244,0.4299806,-0.02422236,-0.1202554,0.08398815
0.882597,0.2480977,0.4267799,-0.0220554,-0.1204715,0.08198238
0.8813636,0.2487867,0.4209444,-0.02343484,-0.1205162,0.08082769
0.8802477,0.2483652,0.4248312,-0.02478566,-0.119224,0.08362185
0.8832379,0.2463765,0.4271413,-0.02462795,-0.1183725,0.0853291
0.8839681,0.2446906,0.4262224,-0.02519936,-0.1159972,0.08278051
0.8845842,0.2437466,0.4306369,-0.0230437,-0.1133687,0.07989576
0.8868421,0.2446355,0.4300145,-0.01998557,-0.1128661,0.08113877
0.8864516,0.2436497,0.4291311,-0.02073709,-0.1084383,0.08173196
0.8876375,0.2425782,0.4308551,-0.02149334,-0.1020814,0.07897268
0.8852334,0.2444265,0.4260936,-0.02178399,-0.1017878,0.07707939
0.8788561,0.2455807,0.423044,-0.02407954,-0.1079343,0.07828777
0.8774596,0.2461148,0.4216121,-0.02473089,-0.1128485,0.0794667
0.8802556,0.2462296,0.4193881,-0.02226605,-0.1097161,0.07814219
0.8842711,0.2477298,0.4218494,-0.02336158,-0.1067389,0.08050797
0.8838359,0.2512035,0.4229613,-0.02515266,-0.1081198,0.08387983
0.8823256,0.2518257,0.423315,-0.02208942,-0.1066611,0.08178363
0.884125,0.2499304,0.4245566,-0.0227259,-0.1051237,0.08043728
0.8829125,0.2478473,0.4225733,-0.02350249,-0.1052328,0.07916223
0.8821604,0.2466988,0.4218092,-0.02168965,-0.1026484,0.07835248
0.8820498,0.2471972,0.4221061,-0.02496767,-0.1015273,0.07985752
0.8805851,0.247447,0.4261719,-0.0242715,-0.1042141,0.0777262
0.881509,0.2470945,0.4335054,-0.02117054,-0.1055109,0.07669064
0.8812972,0.2470084,0.4309025,-0.02217807,-0.102421,0.07791443
0.8810223,0.2468004,0.4249758,-0.0209681,-0.09712605,0.07888057
0.8819085,0.2469063,0.4235221,-0.02117567,-0.09625997,0.08023783
0.8827599,0.2472586,0.4224418,-0.02145148,-0.101293,0.07742642
0.8845641,0.2457928,0.4247387,-0.02000263,-0.1050245,0.07535254
0.8831528,0.2449924,0.4257149,-0.0197939,-0.1015266,0.07436062
0.8807538,0.2466675,0.426428,-0.0166289,-0.0956228,0.07121895
0.8809232,0.2465325,0.4302975,-0.01407825,-0.09476578,0.07142954
0.8820703,0.2463079,0.4305252,-0.01310296,-0.09369624,0.07038817
0.883846,0.2471215,0.4302779,-0.01224277,-0.0916251,0.06727741
0.882407,0.2472166,0.4271568,-0.01552153,-0.09193661,0.06621305
0.879218,0.2493926,0.420425,-0.01819085,-0.08971414,0.06249347
0.8792918,0.2500399,0.4185406,-0.01731555,-0.08663369,0.05787011
0.8809564,0.2471057,0.4192852,-0.01763907,-0.08432106,0.05744637
0.8826794,0.2451252,0.4212999,-0.01938067,-0.08388752,0.05824432
0.8829763,0.2453997,0.4228255,-0.01737207,-0.0838856,0.0572485
0.8823054,0.2465132,0.4237062,-0.01342696,-0.07981676,0.05845116
0.8828219,0.2456036,0.4242207,-0.01401075,-0.07862187,0.06112775
0.8831888,0.245504,0.4218711,-0.01713704,-0.07849169,0.06053355
0.8853251,0.2464276,0.4231138,-0.01948863,-0.07738545,0.05932996
0.8885674,0.2453542,0.4269883,-0.01744452,-0.07895684,0.057158
0.8871859,0.2464978,0.4294219,-0.01391895,-0.07722993,0.05455216
0.8832048,0.2487465,0.427642,-0.01640402,-0.07563149,0.05563286
0.8811815,0.2500262,0.4232914,-0.01718998,-0.07600103,0.05802325
0.8819999,0.2489506,0.42786,-0.01493895,-0.07551754,0.05914394
0.8842559,0.2460063,0.4311877,-0.01597443,-0.07541218,0.05447838
0.8847152,0.2481784,0.4278805,-0.01680259,-0.07159757,0.04769974
0.8820869,0.2498377,0.426898,-0.01813375,-0.06809242,0.04944365
0.8768244,0.2487411,0.41973,-0.01856545,-0.06979822,0.05170497
0.8737683,0.2500163,0.4129835,-0.01722831,-0.07077944,0.05121621
0.8769531,0.2471843,0.4201372,-0.01778381,-0.06720811,0.05455476
0.8799529,0.2426981,0.4314199,-0.01645071,-0.06466031,0.05364197
0.8792567,0.2426411,0.4352167,-0.01526114,-0.06742531,0.05073627
0.8798402,0.243973,0.4321701,-0.01735052,-0.06914751,0.05242341
0.8811015,0.2467103,0.4300875,-0.01779601,-0.06843453,0.05237792
0.8804872,0.2497145,0.4306164,-0.01527791,-0.06909605,0.05334396
0.8801972,0.2503664,0.4306908,-0.01216092,-0.06932564,0.05388142
0.8798528,0.2512906,0.4304094,-0.01229025,-0.06757766,0.05155331
0.8788026,0.252971,0.4305752,-0.01484654,-0.06690062,0.05427172
0.8797633,0.2495329,0.4306823,-0.0150921,-0.06848733,0.05566649
0.8830125,0.2452678,0.4303682,-0.01206878,-0.06774581,0.0523442
0.8851075,0.247254,0.4308634,-0.008381386,-0.06660418,0.05084425
0.88247,0.2469103,0.431454,-0.008917586,-0.06714688,0.04962726
0.8790138,0.244029,0.4315441,-0.01060272,-0.06733999,0.04919494
0.8805246,0.245725,0.4285037,-0.01025185,-0.0688969,0.04975736
0.8814085,0.2480281,0.4222865,-0.01254942,-0.06775946,0.0518731
0.8797936,0.2488972,0.4233835,-0.01373491,-0.06529413,0.05407824
0.8813143,0.2479115,0.4312677,-0.01128652,-0.06341586,0.04980578
0.8835183,0.2464914,0.4320795,-0.009833066,-0.05661995,0.04479274
0.8845052,0.2479668,0.4272547,-0.01004844,-0.0516285,0.04382536
0.8827735,0.2500877,0.4277341,-0.01181906,-0.05103135,0.04105424
0.8789694,0.2515446,0.4302019,-0.01321418,-0.0518147,0.0390571
0.8805878,0.2501505,0.4303273,-0.01365521,-0.0545812,0.04243626
0.882671,0.247365,0.4293109,-0.01365976,-0.05388383,0.04379412
0.8821541,0.2482957,0.4240635,-0.01315491,-0.05214698,0.04030995
0.883896,0.2474787,0.4207699,-0.01395226,-0.05234084,0.03753237
0.8824002,0.2451601,0.4235264,-0.01300514,-0.05043674,0.03390651
0.880117,0.2485854,0.4267251,-0.009553774,-0.04714573,0.03515967
0.8808536,0.2513592,0.4331777,-0.006559728,-0.04461464,0.04218183
0.8797641,0.249764,0.4377145,-0.003885056,-0.04781816,0.04274887
0.8779368,0.2496399,0.42718,-0.001573502,-0.05318957,0.04350169
0.8757559,0.2503587,0.4131658,-0.0002671399,-0.05194036,0.04473447
0.8768036,0.2498927,0.4165081,-0.001813853,-0.05044267,0.04076374
0.8826947,0.2506104,0.4256688,-0.003266339,-0.04969942,0.03953975
0.884986,0.2537336,0.4265604,-0.002507244,-0.04726929,0.03669532
0.8807493,0.2563766,0.4271902,-0.002796641,-0.05339664,0.03662762
0.8758729,0.2548944,0.4260739,-0.003047761,-0.06059642,0.04146487
0.8782042,0.2522595,0.4244342,-0.004059811,-0.05591413,0.03982075
0.8806738,0.2523517,0.4213714,-0.00516136,-0.05390614,0.0416084
0.8762969,0.2507753,0.4150469,-0.003240572,-0.06170427,0.0476375
0.8772071,0.2464286,0.4223404,-0.002110909,-0.06469624,0.04783787
0.8841413,0.2448228,0.4298415,-0.004452444,-0.05816814,0.04208537
0.8889636,0.2450524,0.4220109,-0.007814928,-0.05185718,0.03500097
0.8871525,0.2445797,0.4176903,-0.008387525,-0.05204613,0.03795884
0.8804461,0.2450867,0.419788,-0.007080548,-0.05046716,0.04036656
0.8802117,0.246242,0.4223447,-0.006707361,-0.04460209,0.03330101
0.8824632,0.2460273,0.42318,-0.00558737,-0.04366172,0.03124837
0.8842713,0.2454372,0.4221928,-0.004778756,-0.04215929,0.03191458
0.8877088,0.2460591,0.4241816,-0.005542876,-0.03809568,0.0308041
0.885821,0.2460785,0.4263222,-0.004734079,-0.03812114,0.03021346
0.8847931,0.2464613,0.428198,-0.004393176,-0.03589229,0.0284743
0.8834079,0.2481342,0.4276461,-0.008724364,-0.03314619,0.0282937
0.878599,0.2489657,0.4250432,-0.01202147,-0.03347081,0.02824403
0.8789991,0.2504797,0.4268063,-0.01024862,-0.03325023,0.02891007
0.8771386,0.2515677,0.4262906,-0.00786576,-0.0357272,0.03124981
0.8736627,0.2519557,0.4229191,-0.006367991,-0.03736194,0.03010537
0.8773101,0.2534146,0.423302,-0.005315015,-0.03667554,0.02719253
0.8807367,0.2528096,0.4279157,-0.00367276,-0.03724906,0.02673999
0.8809043,0.2523365,0.4342971,-0.002774195,-0.03730602,0.02999753
0.881602,0.2523425,0.4317452,-0.002868317,-0.04032928,0.03485346
0.8830837,0.2480868,0.4245553,-0.0006407167,-0.04287468,0.03609353
0.8835219,0.2444186,0.4233228,-0.0002365352,-0.03857679,0.03422104
0.8822014,0.245524,0.4227376,-0.0006079114,-0.03522266,0.03319973
0.8806578,0.2464449,0.4230791,0.001434529,-0.03681649,0.03205036
0.8802785,0.2445867,0.4227983,0.001126116,-0.03921414,0.0308257
0.8806631,0.244122,0.4231053,0.001299744,-0.04282308,0.03128183
0.8809276,0.2457189,0.4272672,0.002603063,-0.04538473,0.0298318
0.8824735,0.2459484,0.4255143,0.002309862,-0.04306545,0.02837768
0.8848105,0.2455258,0.4230374,0.003752427,-0.04216272,0.02949229
0.8851802,0.2440427,0.4237645,0.005229579,-0.04328287,0.02888516
0.884441,0.2432598,0.4209491,0.003934846,-0.04126037,0.02937549
0.8846912,0.2475298,0.4186013,0.001490985,-0.04017984,0.03022675
0.8849262,0.251078,0.4166896,-0.0008770713,-0.03981788,0.0274348
0.8845318,0.2473123,0.4175954,-0.00228272,-0.03770604,0.02593215
0.8847866,0.2422363,0.42165,-0.0007901759,-0.03446249,0.02616961
0.884795,0.2436168,0.4226569,0.001408708,-0.02963852,0.02577988
0.8845742,0.2481238,0.423054,0.0003408791,-0.02573087,0.02471899
0.8850403,0.2506902,0.4245206,0.0002264993,-0.02204045,0.02249121
0.8855468,0.2496868,0.4271945,0.001955569,-0.01946895,0.02073683
0.8863628,0.2462953,0.4269532,0.001139,-0.01972566,0.01988526
0.8861286,0.2460097,0.4243192,-0.001487143,-0.01963416,0.01742686
0.8848991,0.2453053,0.4254063,-0.004455074,-0.01881115,0.0131871
0.8846376,0.2431657,0.4242761,-0.004371475,-0.01584722,0.01218334
0.8842686,0.2444508,0.4209987,-0.00399714,-0.01301941,0.01280548
0.8828224,0.244678,0.4191706,-0.007091167,-0.01340348,0.01118077
0.8805712,0.2457479,0.4195637,-0.006297254,-0.01439227,0.01187631
0.8799183,0.2465078,0.4230189,-0.004832361,-0.01754795,0.01181955
0.8806433,0.2431048,0.4223751,-0.006594764,-0.01982326,0.01028074
0.8787256,0.2429574,0.4217162,-0.005175813,-0.01834165,0.01303102
0.8771714,0.2443051,0.4240964,-0.003770069,-0.02034496,0.01412244
0.878941,0.2456871,0.4244056,-0.003435476,-0.02251465,0.01231854
0.8807267,0.2483972,0.4261982,-0.00398267,-0.01739488,0.01118497
0.8816529,0.2487112,0.4249086,-0.007736606,-0.0142231,0.01094386
0.8821469,0.2488368,0.418662,-0.008076627,-0.01557083,0.01525819
0.8818262,0.2484971,0.4144588,-0.005290759,-0.01375255,0.01741901
0.8809299,0.248576,0.4141537,-0.003649509,-0.01252549,0.008374342
0.8803135,0.2499357,0.4154246,-0.002965235,-0.01159569,3.715562e-06
0.8805227,0.2498784,0.4140938,-0.00364692,-0.01077882,0.005846869
0.8811905,0.2502615,0.4167955,-0.004377358,-0.01295695,0.01150885
0.8830205,0.2495712,0.4214258,-0.00747405,-0.01207226,0.005649522
0.8846182,0.2479842,0.4182394,-0.009062864,-0.01129514,0.003889705
0.8830655,0.2470775,0.4170442,-0.004260433,-0.01102645,0.005685584
0.8808061,0.2466576,0.419528,-0.001772474,-0.007686497,0.004950374
0.8804966,0.2475955,0.4213235,-0.003026501,-0.006877685,0.009746677
0.8804082,0.2462405,0.4252264,-0.002914955,-0.008029544,0.01020761
0.8809073,0.2451923,0.4268652,-0.002491758,-0.009795973,0.004652234
0.8825594,0.2468061,0.4274206,-0.003570913,-0.009214101,0.004408834
0.8838002,0.2483101,0.4277499,-0.006142119,-0.005313209,0.003881334
0.8843751,0.2508193,0.426097,-0.007319887,-0.00255428,0.001520702
0.8837789,0.2501226,0.4290393,-0.007193322,-0.0004412862,-0.0008141658
0.8826077,0.2473387,0.4329898,-0.006726769,-0.001331289,-0.002354101
0.8802963,0.2477698,0.4317508,-0.004686292,-0.003536616,-0.000439571
0.87652,0.249827,0.4301679,-0.002473363,-0.006341138,0.0007374497
0.8758077,0.2531952,0.4279483,-0.0007821751,-0.01055459,0.002768854
0.8785167,0.25322,0.4256165,0.002206152,-0.009088104,0.00579678
0.8825746,0.2497488,0.4281122,0.005849166,-0.007129595,0.007289834
0.8856681,0.2480743,0.4295847,0.002952574,-0.005720433,0.008195943
0.8831631,0.2467695,0.4251595,-0.003528778,-0.001010772,0.00277044
0.8797888,0.2478869,0.4215037,-0.003082244,-0.003764219,-0.00340049
0.8814226,0.2495363,0.4226042,-0.002289882,-0.006623585,-0.00315638
0.8826739,0.2485395,0.4237315,-0.004164239,0.001835807,-0.003453697
0.8815984,0.2503344,0.4226851,-0.00523709,0.008521057,-0.004919073
0.881759,0.2520818,0.4234724,-0.008173333,0.006537079,-0.005658425
0.8812433,0.2503555,0.4243069,-0.00682287,0.003160103,-0.004418277
0.8800582,0.2500757,0.4230928,-0.00333568,0.002650031,-0.002018266
0.8806058,0.2527264,0.4236521,-0.004431492,0.001124718,-0.00195725
0.8805396,0.2551769,0.4237598,-0.004432753,-0.001791962,-0.001092856
0.8793217,0.2537935,0.4223035,-0.004139653,-0.0009133572,0.0007321672
0.8780829,0.2506743,0.4225683,-0.003987942,-0.002430406,0.00281613
0.8773833,0.2487516,0.4238877,-0.001764059,-0.006259975,0.005041146
0.8778658,0.247769,0.4252108,-0.001515588,-0.003915575,0.006052384
0.8778977,0.2480109,0.4235842,-0.004596633,-0.00145571,0.009244832
0.8781593,0.2471547,0.4219071,-0.007645111,-0.0002094017,0.01052051
0.8805454,0.2470351,0.4270471,-0.004221578,0.001509257,0.005876003
0.8827554,0.2495712,0.4318852,0.0006897067,-0.0002847016,0.001787284
0.88187,0.2503439,0.4292052,-0.001006742,-0.001218217,0.0006616702
0.8795759,0.250023,0.4218959,-0.001142485,-0.0008714053,0.0002983407
0.878729,0.2496175,0.4178584,0.000646742,0.0001692039,0.0003407378
0.8781801,0.2480676,0.4270331,-0.001292245,0.00248938,0.001016622
0.8777677,0.2469129,0.4368455,-0.002727001,0.002887772,0.0006117127
0.8790064,0.2466695,0.4284411,-0.003273075,0.004158526,0.0002902431
0.8812543,0.2467282,0.4206881,-0.001975592,0.00350156,0.003181531
0.8826229,0.2455347,0.4270861,0.001289565,0.002542432,0.00506665
0.8813827,0.2452246,0.4295798,0.00156548,0.005009024,0.002838951
0.8789341,0.2455653,0.4298957,0.00150061,0.001544058,0.0008729241
0.8776361,0.2438126,0.4320511,0.002009794,-0.001266202,0.002134952
0.8796521,0.2446347,0.4283801,0.001021322,0.0009778994,0.003457617
0.8843381,0.2468026,0.427873,0.0007968885,-0.0001028547,0.00174264
0.8852586,0.2472331,0.4284357,-0.0004256563,-0.0001598964,-0.001401727
0.8823739,0.247685,0.4265011,-0.001467227,-6.744983e-05,-0.004112271
0.8805253,0.2468747,0.4277136,-0.000856254,0.0004948226,-0.003817417
0.8801543,0.2471534,0.4263322,-0.001281028,0.003858326,-0.00173385
0.8811461,0.2476216,0.4275553,-0.0001977945,0.004794569,0.0006084176
0.8820497,0.246765,0.4303838,0.001899335,0.004592697,0.00510425
0.8818394,0.2474931,0.4264247,0.00315675,0.001407841,0.003505641
0.8801333,0.2474146,0.4242691,0.002609119,-0.0006299157,-0.004036855
0.8783485,0.2480501,0.4247506,-6.658288e-05,0.003491736,-0.006575258
0.8796244,0.2501054,0.4248584,-2.417444e-05,0.005840006,-0.005982088
0.8809064,0.2502977,0.4238493,-0.0004091628,0.008674952,-0.00457499
0.8806855,0.2508903,0.4227005,-0.003239383,0.01164839,-0.004661245
0.8806947,0.2518093,0.4252667,-0.003373478,0.007208084,-0.006269782
0.8812443,0.2523445,0.4253233,-0.001098806,0.001959483,-0.005212311
0.8824849,0.252977,0.424443,0.001168304,0.004077367,-0.005956187
0.8817676,0.2521128,0.4259352,-0.0008654741,0.009490755,-0.006333206
0.8807028,0.2491437,0.4263998,-0.003775555,0.01035959,-0.004132638
0.8805112,0.246292,0.4285669,-0.002530349,0.00875102,-0.002843009
0.8794727,0.2477382,0.4285911,-0.002985375,0.007483735,-8.082814e-05
0.8803906,0.2498863,0.4262924,-0.004076598,0.002689811,0.002151255
0.8825577,0.2486034,0.4259536,-0.003304627,-0.00104576,0.003495443
0.8833718,0.2478596,0.4239076,-0.001646633,0.001822904,0.0041462
0.8809013,0.2482804,0.4209379,0.002767728,0.004350031,0.002749588
0.8777625,0.2499478,0.419848,0.004298604,0.002449001,0.002543022
0.8785279,0.2512977,0.4206461,0.003281849,0.001229112,0.001884047
0.8762281,0.25015,0.418649,0.005355901,0.0002945187,0.001055685
0.8720598,0.2515005,0.4155747,0.00442791,-0.001644361,2.056431e-05
0.874374,0.252606,0.4195537,0.002343376,-0.001441279,-0.002571431
0.8761609,0.2522193,0.4223065,0.003980903,-0.001110972,-0.002124353
0.8748039,0.2542364,0.4210662,0.003592537,-0.001426314,-0.0009127452
0.8766779,0.2499833,0.4248365,0.003812706,-0.001023975,-0.001074705
0.8785495,0.2439045,0.4319551,0.004908781,0.0001818188,0.0002611272
0.8767606,0.2458726,0.4397674,0.002706582,0.001895469,0.001108902
0.87615,0.246337,0.4442807,0.002072535,0.000430059,-0.001115583
0.8785875,0.244154,0.4396766,0.001709075,-0.002251653,-0.003370276
0.8806601,0.2435482,0.4324203,0.0008818225,-0.002620508,-0.0003294475
0.8805454,0.2430355,0.4312824,0.001988122,-0.001020507,0.002549266
0.8785551,0.2448298,0.4281356,0.002384675,0.001496083,0.0005442636
0.8772084,0.2465882,0.4210133,0.003228395,0.0003264163,0.0009658703
0.878259,0.2460301,0.4229792,0.00390744,-0.002469515,0.00480048
0.8807142,0.2463997,0.4263344,0.004614273,-0.004468005,0.006780538
0.8826321,0.2477061,0.4267545,0.006126827,-0.006571648,0.004157104
0.8820319,0.2478998,0.431987,0.005660736,-0.004458434,0.001242499
0.8805646,0.249502,0.4307632,0.005879022,-0.001160595,0.004765811
0.8804931,0.2524993,0.4270372,0.006324052,0.001100727,0.0074563
0.8805688,0.2513209,0.4303501,0.005151104,0.002639676,0.003865145
0.8813956,0.2487944,0.4302951,0.004637143,0.0006561219,0.0007092273
0.8851136,0.2486308,0.4292371,0.00427146,0.002410827,-0.0004922987
0.8884366,0.2479703,0.4279364,0.005532255,0.004817541,0.000156904
0.8858952,0.2467697,0.4234694,0.007551552,0.001382497,0.0004694185
0.8812309,0.2447531,0.4254737,0.006791244,0.001385846,-0.005565304
0.8807207,0.2448667,0.4279542,0.005560737,0.001629881,-0.01111001
0.8807523,0.24848,0.4247825,0.005081348,0.0005400008,-0.008100376
0.8798905,0.248837,0.4232077,0.004596532,0.002877864,-0.003634429
0.8802313,0.2461523,0.422019,0.005728299,0.001514988,-0.00252633
0.8793732,0.2439801,0.4231396,0.007198997,-0.0004495162,-0.0001515944
0.8786763,0.2445538,0.425405,0.006169488,-0.002200846,0.004297871
0.8779361,0.2496566,0.4244853,0.005433682,-0.005712421,0.006340348
0.8771246,0.2526883,0.4268087,0.007704805,-0.004628796,0.004701631
0.879244,0.2508891,0.4274325,0.01016511,-0.005260293,0.003958159
0.8795176,0.2486388,0.4248959,0.01108204,-0.007382805,0.005463107
0.878715,0.2476436,0.425824,0.0108236,-0.006385353,0.004223698
0.8801237,0.2473397,0.4231072,0.01085666,-0.007448507,0.0007063579
0.8815909,0.2462822,0.4212036,0.01190637,-0.008269626,-0.0006082865
0.8841545,0.2469346,0.4251568,0.0113087,-0.008014471,0.003369104
0.8838838,0.2482542,0.4268058,0.009419139,-0.00850758,0.009522608
0.882187,0.2475557,0.4261669,0.007662972,-0.009123944,0.007713906
0.8832293,0.2490162,0.4219669,0.006694345,-0.009173731,0.002727189
0.8823661,0.2500876,0.4163997,0.007581315,-0.007964038,0.001452051
0.8825613,0.2495223,0.4152019,0.006233718,-0.00723903,0.0003940492
0.8842835,0.2499893,0.4179325,0.00359858,-0.005952337,0.002325583
0.8844911,0.2471687,0.4239428,0.004781541,-0.00599454,0.001982113
0.8852996,0.2450885,0.4265038,0.006342196,-0.007155884,-0.002155931
0.8841465,0.2477947,0.4257298,0.005816291,-0.005051014,-0.003419132
0.8824394,0.2495424,0.424839,0.004953975,-0.004542551,-0.003927495
0.8810926,0.2495614,0.4208625,0.004897381,-0.006138921,-0.002151285
0.8797697,0.2498702,0.4200385,0.004752791,-0.004889421,-0.002394257
0.8822489,0.2501687,0.4214594,0.004404876,-0.004409393,-0.003331401
0.8842256,0.2488212,0.420856,0.006551591,-0.007361486,-0.0001549194
0.8849592,0.2472189,0.4223679,0.007539303,-0.009039886,0.0003298775
0.8863747,0.2472126,0.4215388,0.005092041,-0.007510372,0.00393874
0.8866785,0.2472361,0.415862,0.002732422,-0.004481187,0.008177355
0.888052,0.2478846,0.4119405,0.001144124,0.0001978357,0.008245195
0.8876951,0.2471632,0.4126999,0.001426462,0.005688674,0.008891444
0.887044,0.2451581,0.4123745,0.001293924,0.0128915,0.003547646
0.8889987,0.2456839,0.4098941,-0.002585414,0.01735913,-0.002586284
0.8888935,0.2461856,0.4113493,-0.008362527,0.01560345,-0.004331983
0.8886908,0.2453026,0.4123902,-0.01112612,0.01638937,-0.002947907
0.8878152,0.2440125,0.4135202,-0.007224875,0.0178363,0.0004743975
0.8851167,0.2424355,0.4165334,-0.003644965,0.01939965,-0.002552567
0.8845729,0.2419027,0.4136686,-0.006242308,0.02365325,-0.006510147
0.8854407,0.2422952,0.4128985,-0.008463221,0.02087635,-0.008768684
0.8866437,0.2441376,0.4169877,-0.006749758,0.01767236,-0.008589772
0.8860264,0.2466937,0.4167452,-0.005142912,0.0172721,-0.001891886
0.8845708,0.2459405,0.4170723,-0.004794396,0.01322112,-0.0008978376
0.8840173,0.2432397,0.4196297,-0.005478317,0.01457874,-0.00779387
0.8829231,0.2428977,0.4210875,-0.007832296,0.0183397,-0.01489041
0.8842394,0.2428549,0.4205745,-0.008561396,0.01891299,-0.01506755
0.885384,0.2420669,0.4184476,-0.007281159,0.02033089,-0.01127207
0.8843681,0.2416556,0.4200458,-0.007135336,0.01982211,-0.01470466
0.8848032,0.241476,0.4230884,-0.007858579,0.01899133,-0.01722075
0.8847937,0.2428548,0.4254904,-0.007560969,0.01826756,-0.0196129
0.8845864,0.2433671,0.4276776,-0.004987693,0.0158748,-0.02254725
0.8848708,0.2428351,0.4247492,-0.001500585,0.01379118,-0.01718179
0.8845963,0.2432449,0.4196724,0.0005692148,0.01176236,-0.01577703
0.8847992,0.2429093,0.4159036,-0.0008008779,0.01304432,-0.01700183
0.8847091,0.243449,0.4178042,-0.002927572,0.01531515,-0.01473532
0.8846751,0.2449506,0.4253862,-0.002355296,0.01396635,-0.01180815
0.8842733,0.2466983,0.4268817,-0.003017858,0.01429918,-0.0045929
0.8819491,0.2489583,0.4268336,-0.00431137,0.01553169,-0.004809695
0.8799844,0.2502522,0.4284181,-0.00388874,0.01348545,-0.01115369
0.8812818,0.2503613,0.4248881,-0.005450803,0.008600113,-0.01204077
0.8842488,0.2485013,0.4216602,-0.007705356,0.004324842,-0.01302526
0.8861398,0.2473347,0.419429,-0.006866201,0.008847554,-0.01106772
0.8876719,0.2473475,0.4197905,-0.00570977,0.01560888,-0.007692604
0.8863292,0.2469813,0.4228286,-0.005691396,0.01375018,-0.007929074
0.8831882,0.2480981,0.4221257,-0.004770845,0.01164088,-0.005499491
0.8844757,0.2474446,0.4226534,-0.004792305,0.01148834,-0.004655229
0.8862352,0.246162,0.425167,-0.003357597,0.01064692,-0.008156658
0.8865579,0.246122,0.4257708,-0.002319684,0.01478907,-0.009901378
0.8865968,0.2450572,0.4216956,-0.006934726,0.01980951,-0.01057876
0.8842445,0.2471107,0.4163068,-0.008126179,0.02054358,-0.009974173
0.8833345,0.2489056,0.4214661,-0.005705215,0.01920307,-0.006993509
0.8817117,0.2477278,0.4271607,-0.002025366,0.01870512,-0.004988388
0.879694,0.2490863,0.4244524,0.005078752,0.01948591,-0.003298442
0.8827593,0.2487968,0.4247688,0.003717484,0.01774321,-0.00257838
0.8837515,0.246549,0.4265518,0.0001387077,0.01667738,-0.00704809
0.8812519,0.2461598,0.4261909,0.00354621,0.01616738,-0.009887447
0.8797213,0.2451151,0.4271796,0.001642324,0.01181722,-0.007915991
0.8784736,0.2459376,0.4289658,-0.0004102156,0.01162666,-0.008684659
0.8779496,0.2464564,0.4307304,0.00161017,0.01401675,-0.00795294
0.8783589,0.2446368,0.4284215,-0.0009429388,0.01184202,-0.005456956
0.8807872,0.2445424,0.425279,-0.002192632,0.01061962,-0.006826193
0.8822181,0.2426047,0.4291413,-0.00057768,0.007998634,-0.007933615
0.8824919,0.2428153,0.4314548,0.0003714695,0.002157599,-0.01023212
0.8840836,0.2468407,0.4258045,-0.0001291821,0.0017237,-0.01106364
0.883198,0.2475387,0.4200292,-0.004856441,0.004347769,-0.008663434
