accx,accy,accz,gyrox,gyroy,gyroz
1.9421428571428572,0.8214285714285714,-1.4785714285714284,-0.3014285714285714,0.3442857142857143,-0.4378571428571428
1.4172727272727272,0.13,-1.3918181818181818,-0.3618181818181818,0.4381818181818182,-0.4372727272727272
0.5771428571428572,-0.7221428571428571,-0.7642857142857142,-0.3757142857142857,0.4821428571428571,-0.4242857142857142
0.48363636363636364,-1.2309090909090907,-0.2590909090909091,-0.3036363636363636,0.49,-0.4654545454545454
0.33571428571428563,-1.7557142857142858,0.3985714285714286,-0.1228571428571428,0.4542857142857143,-0.4292857142857142
0.5327272727272727,-1.729090909090909,0.44,0.0272727272727272,0.3809090909090908,-0.3727272727272727
0.5700000000000001,-1.2635714285714286,0.2985714285714285,0.0692857142857143,0.3578571428571428,-0.3085714285714286
0.5581818181818182,-1.050909090909091,0.1154545454545454,0.0018181818181818,0.3527272727272727,-0.2754545454545454
0.5321428571428573,-1.0814285714285714,0.0128571428571428,-0.0628571428571428,0.3078571428571429,-0.2492857142857143
0.520909090909091,-1.3572727272727272,0.1554545454545454,-0.0672727272727272,0.2118181818181818,-0.2154545454545454
0.17928571428571427,-1.5064285714285717,0.6664285714285715,-0.0249999999999999,0.1264285714285714,-0.1557142857142857
-0.15999999999999992,-0.9836363636363636,1.0818181818181818,0.1136363636363636,0.1027272727272727,-0.0463636363636363
0.06461538461538463,-0.1315384615384615,0.926923076923077,0.2492307692307692,0.103076923076923,0.063076923076923
0.8116666666666668,0.1883333333333333,0.4891666666666667,0.2775,0.1141666666666666,0.1166666666666666
2.196428571428571,0.1399999999999999,0.2135714285714285,0.2542857142857143,0.1328571428571428,0.0492857142857142
2.400909090909091,-0.1972727272727272,0.2036363636363636,0.2145454545454545,0.1963636363636363,-0.0645454545454545
1.6600000000000001,-0.5269230769230769,0.343076923076923,0.1853846153846154,0.3230769230769231,-0.1276923076923077
1.2508333333333332,-0.565,0.6491666666666667,0.2275,0.4766666666666666,-0.1475
1.1457142857142857,-0.3064285714285714,0.7507142857142857,0.3014285714285714,0.6371428571428571,-0.1214285714285714
1.4745454545454546,-0.049090909090909,0.4727272727272727,0.3218181818181818,0.7372727272727272,-0.1036363636363636
1.4028571428571428,0.2735714285714286,-0.0542857142857142,0.2607142857142857,0.7942857142857144,-0.1007142857142857
1.0054545454545454,0.3081818181818181,-0.1136363636363636,0.1609090909090909,0.859090909090909,-0.1290909090909091
0.6038461538461538,0.5007692307692307,0.6361538461538461,0.0723076923076923,0.8776923076923077,-0.1815384615384615
0.5966666666666667,0.8075,1.6083333333333334,-0.0341666666666666,0.8216666666666667,-0.2433333333333333
0.61,1.4357142857142855,3.2378571428571425,-0.11,0.705,-0.2992857142857143
0.3927272727272727,1.661818181818182,3.7145454545454544,-0.0609090909090909,0.5218181818181818,-0.3754545454545454
-0.5146153846153847,1.9215384615384616,3.011538461538461,0.0961538461538461,0.2546153846153846,-0.4423076923076923
-1.3450000000000002,2.308333333333333,1.6850000000000005,0.27,-0.0575,-0.3891666666666666
-1.5064285714285721,3.4792857142857145,-0.5942857142857143,0.3321428571428572,-0.3242857142857143,-0.345
-0.5481818181818183,4.279090909090909,-2.191818181818182,0.2709090909090909,-0.5627272727272727,-0.4972727272727272
0.895,4.217142857142857,-3.637857142857143,0.05,-0.8242857142857142,-0.7292857142857143
0.6054545454545455,2.5836363636363635,-3.8518181818181816,-0.1536363636363636,-0.8836363636363637,-0.7009090909090909
0.5284615384615384,-0.5876923076923077,-3.683076923076922,-0.3953846153846153,-0.8061538461538462,-0.4869230769230769
0.6441666666666668,-2.3875,-3.42,-0.6625,-0.6925,-0.11
1.032142857142857,-3.46,-2.267142857142857,-0.7342857142857142,-0.5121428571428571,0.4078571428571428
1.7054545454545456,-3.149090909090909,-1.3781818181818182,-0.5718181818181818,-0.3681818181818181,0.8536363636363636
2.8815384615384616,-2.2146153846153847,-0.7492307692307693,-0.3184615384615384,-0.3484615384615385,1.0615384615384615
3.6291666666666664,-1.3491666666666668,-0.7033333333333335,-0.095,-0.3333333333333333,0.92
3.8530769230769226,-0.0807692307692307,-0.8084615384615385,-0.0053846153846153,-0.3861538461538462,0.5976923076923076
2.8674999999999997,0.6175,-0.895,-0.015,-0.3658333333333333,0.335
1.2242857142857142,0.3178571428571429,-1.2242857142857144,-0.1071428571428571,-0.395,0.2592857142857143
0.8409090909090909,-0.1363636363636363,-1.3327272727272728,-0.2290909090909091,-0.3709090909090909,0.3427272727272727
1.3392857142857144,-0.9178571428571428,-1.007857142857143,-0.2542857142857143,-0.3578571428571428,0.4721428571428571
1.9572727272727275,-1.2263636363636363,-0.8599999999999999,-0.2409090909090909,-0.3072727272727272,0.6054545454545455
2.8328571428571427,-1.4378571428571427,-0.6735714285714286,-0.225,-0.2614285714285714,0.6178571428571429
2.912727272727273,-1.619090909090909,-0.1436363636363636,-0.1054545454545454,-0.2527272727272727,0.4690909090909091
1.9115384615384616,-1.8753846153846152,0.4338461538461538,0.0361538461538461,-0.2692307692307692,0.3399999999999999
1.2291666666666665,-2.1775,0.6408333333333334,0.1091666666666666,-0.2883333333333333,0.2625
1.1084615384615384,-2.0538461538461537,0.3692307692307692,0.0292307692307692,-0.3092307692307692,0.25
1.7908333333333335,-1.89,0.1775,-0.0775,-0.2591666666666667,0.1833333333333333
2.92,-1.6546153846153848,0.2415384615384615,-0.07,-0.213076923076923,0.0515384615384615
3.3275,-1.4766666666666666,0.4733333333333333,0.0341666666666666,-0.2008333333333333,-0.1183333333333333
3.3030769230769232,-1.3446153846153843,0.786923076923077,0.1307692307692307,-0.1684615384615384,-0.31
2.6725000000000003,-0.9808333333333332,1.0925,0.2633333333333333,-0.1091666666666666,-0.4108333333333333
1.2838461538461539,0.2561538461538462,1.43,0.3784615384615384,-0.0953846153846153,-0.3130769230769231
0.3936363636363637,1.1881818181818182,1.5554545454545454,0.4618181818181818,-0.1354545454545454,-0.109090909090909
-0.06357142857142861,1.9157142857142857,1.0114285714285711,0.4514285714285714,-0.1621428571428571,0.0721428571428571
0.43333333333333335,1.9575,0.5291666666666667,0.295,-0.155,0.1291666666666666
1.4715384615384615,1.9530769230769232,0.5523076923076923,0.0038461538461538,-0.25,0.13
1.9983333333333335,2.1375,1.3183333333333334,-0.3025,-0.3916666666666666,0.1233333333333333
2.008461538461538,2.201538461538461,2.916153846153846,-0.4546153846153846,-0.4161538461538461,0.1461538461538461
2.018181818181818,1.549090909090909,3.809090909090909,-0.4154545454545454,-0.33,0.2309090909090909
2.5335714285714284,0.4442857142857143,4.2057142857142855,-0.0214285714285714,-0.2942857142857143,0.2814285714285715
2.5700000000000003,0.6516666666666667,2.89,0.3925,-0.2658333333333333,0.3058333333333333
2.579230769230769,1.6900000000000002,-0.3953846153846154,0.6307692307692307,-0.1684615384615384,0.35
1.895,2.0216666666666665,-2.7475,0.7283333333333334,0.0466666666666666,0.4533333333333333
0.5438461538461539,1.7184615384615385,-5.082307692307693,0.6115384615384616,0.1892307692307692,0.6961538461538462
-0.27,0.7925,-5.540833333333333,0.3108333333333333,0.2283333333333333,0.9416666666666668
-0.39230769230769247,-0.6169230769230769,-5.190769230769231,-0.0746153846153846,0.2207692307692307,0.96
-0.13636363636363646,-0.9136363636363636,-4.295454545454546,-0.3790909090909091,0.1609090909090909,0.7072727272727273
0.3630769230769231,-0.1969230769230769,-2.77,-0.4953846153846154,-0.0084615384615384,0.2938461538461538
1.1558333333333333,0.345,-2.5125,-0.66,-0.0508333333333333,-0.2425
2.4657142857142853,0.2457142857142857,-2.6621428571428574,-0.8735714285714286,-0.0607142857142857,-0.7157142857142856
2.6525,0.3608333333333333,-1.9308333333333327,-0.9566666666666668,0.1083333333333333,-0.8341666666666666
2.3546153846153848,0.3553846153846154,-0.1023076923076923,-0.7753846153846153,0.24,-0.7476923076923078
2.5741666666666667,-0.7416666666666667,0.2116666666666666,-0.4591666666666666,0.4016666666666666,-0.7058333333333332
1.7133333333333334,-2.6808333333333336,0.3858333333333333,-0.1125,0.4808333333333333,-0.7216666666666667
-0.0838461538461539,-3.231538461538461,0.2307692307692307,0.0669230769230769,0.483076923076923,-0.5684615384615385
-1.6184615384615384,-2.753846153846154,0.1123076923076923,0.19,0.6176923076923078,-0.3830769230769231
-1.1441666666666666,-2.1525000000000003,0.2033333333333333,0.3466666666666667,0.62,-0.2133333333333333
0.633846153846154,-1.1946153846153846,0.0415384615384615,0.4569230769230769,0.5615384615384615,-0.2338461538461538
1.2216666666666667,-0.8658333333333333,-0.36,0.3891666666666666,0.58,-0.2708333333333333
1.2716666666666665,-1.0508333333333333,-0.555,0.2275,0.6333333333333333,-0.2516666666666666
1.1046153846153846,-1.429230769230769,-0.1707692307692307,0.1646153846153846,0.6607692307692308,-0.2376923076923076
0.5307692307692307,-1.9446153846153849,0.6307692307692309,0.2315384615384615,0.6330769230769231,-0.2123076923076923
-0.12181818181818183,-1.9954545454545447,0.9027272727272728,0.3627272727272727,0.6045454545454545,-0.1072727272727272
-0.7553846153846151,-1.4907692307692306,0.88,0.5476923076923077,0.6053846153846154,0.09
-0.24615384615384617,-0.4853846153846154,0.64,0.6607692307692308,0.6307692307692307,0.2276923076923077
1.5507692307692307,0.8453846153846154,0.0576923076923076,0.5984615384615385,0.6376923076923078,0.1407692307692307
1.9808333333333332,1.0558333333333334,-0.0691666666666666,0.4341666666666666,0.6116666666666667,-0.0741666666666666
1.1607692307692308,0.7753846153846153,0.1076923076923076,0.2646153846153846,0.6084615384615385,-0.2392307692307692
0.46818181818181825,0.5245454545454545,0.4172727272727272,0.1081818181818181,0.6081818181818182,-0.2909090909090909
-0.017142857142857126,0.4871428571428571,1.1885714285714286,0.0235714285714285,0.5564285714285714,-0.2707142857142857
-0.3583333333333334,0.8266666666666667,1.7583333333333335,0.0416666666666666,0.4858333333333333,-0.2108333333333333
-0.28692307692307706,1.3792307692307693,2.221538461538461,0.0092307692307692,0.4746153846153846,-0.1815384615384615
0.35583333333333333,1.413333333333333,2.708333333333333,-0.0941666666666666,0.5041666666666667,-0.2133333333333333
1.2208333333333332,0.8725,3.494166666666666,-0.0991666666666666,0.4916666666666667,-0.31
0.9084615384615385,0.7607692307692309,3.642307692307692,0.2392307692307692,0.473076923076923,-0.3392307692307692
-0.07250000000000001,1.5416666666666667,1.5991666666666668,0.7275,0.3899999999999999,-0.2558333333333333
-0.4423076923076923,2.781538461538461,-1.4792307692307691,0.9253846153846154,0.1361538461538461,-0.2492307692307692
0.21846153846153848,4.598461538461539,-6.250769230769231,0.6792307692307692,-0.1692307692307692,-0.453076923076923
1.4958333333333333,4.528333333333333,-7.4725,0.0958333333333333,-0.3325,-0.755
2.913333333333333,1.5633333333333332,-6.286666666666666,-0.4508333333333333,-0.4008333333333333,-0.92
2.6741666666666664,-0.7466666666666667,-4.9225,-0.7708333333333334,-0.4708333333333334,-0.8725
1.0692307692307692,-2.343076923076924,-2.143846153846154,-0.8592307692307692,-0.3546153846153846,-0.5315384615384615
0.06692307692307675,-2.1353846153846154,-0.6892307692307692,-0.6838461538461539,-0.15,0.1107692307692307
0.060833333333333406,-1.3433333333333335,-0.2016666666666666,-0.4991666666666667,-0.1766666666666666,0.7458333333333332
0.9266666666666667,-0.8391666666666667,-0.4383333333333333,-0.3525,-0.2625,1.0266666666666666
1.95,-0.5338461538461539,-1.2123076923076923,-0.2615384615384615,-0.3692307692307692,0.956153846153846
2.0650000000000004,-0.4541666666666666,-1.5358333333333334,-0.2466666666666666,-0.525,0.6541666666666667
1.6214285714285714,-1.012857142857143,-1.4435714285714287,-0.2371428571428571,-0.6771428571428572,0.3607142857142857
0.3954545454545454,-1.9027272727272728,-1.0954545454545457,-0.1327272727272727,-0.8263636363636363,0.3409090909090909
-0.08692307692307688,-2.3846153846153846,-0.7230769230769231,0.0361538461538461,-0.8769230769230769,0.4876923076923077
0.7775,-1.7608333333333333,-0.7858333333333333,0.0925,-0.8825,0.5991666666666666
2.483846153846154,-0.4461538461538461,-0.966153846153846,0.0092307692307692,-0.8453846153846154,0.6330769230769231
3.249166666666667,-0.06,-1.0,-0.1066666666666666,-0.83,0.5766666666666667
3.056153846153846,-0.5223076923076924,-0.5584615384615385,-0.1338461538461538,-0.7692307692307693,0.4523076923076923
2.2716666666666665,-1.0125,-0.0825,-0.15,-0.7233333333333333,0.3333333333333333
1.4892857142857143,-1.7814285714285716,0.18,-0.1935714285714285,-0.6571428571428573,0.2385714285714285
1.4454545454545455,-2.268181818181818,0.1672727272727272,-0.1990909090909091,-0.5809090909090909,0.1963636363636363
2.3964285714285714,-2.636428571428571,0.4535714285714285,-0.0621428571428571,-0.5092857142857142,0.0735714285714285
3.208181818181818,-2.458181818181818,0.8454545454545456,0.2045454545454545,-0.4690909090909091,-0.1663636363636363
3.142307692307692,-1.7292307692307691,1.0876923076923075,0.4223076923076923,-0.4184615384615385,-0.3892307692307692
2.1615384615384614,-0.903846153846154,0.946923076923077,0.5046153846153847,-0.3392307692307692,-0.4284615384615385
0.685,0.1291666666666666,0.6966666666666667,0.4983333333333333,-0.2383333333333333,-0.2783333333333333
0.1416666666666666,0.5666666666666667,0.705,0.4858333333333333,-0.1258333333333333,-0.0425
0.5553846153846154,1.1015384615384616,0.4476923076923076,0.4446153846153846,-0.0538461538461538,0.11
1.2466666666666666,1.3591666666666669,-0.0516666666666666,0.285,-0.0591666666666666,0.1291666666666666
1.6853846153846153,1.935384615384616,-0.2076923076923076,-0.0284615384615384,-0.2276923076923077,0.0761538461538461
1.3358333333333334,2.2216666666666667,0.7133333333333334,-0.3141666666666666,-0.4216666666666667,0.0366666666666666
0.36076923076923073,1.9607692307692304,2.823076923076924,-0.4076923076923077,-0.4746153846153846,0.0692307692307692
0.02416666666666678,1.2325,3.9,-0.3183333333333333,-0.4641666666666666,0.2775
1.4323076923076923,-0.293076923076923,4.171538461538462,-0.1015384615384615,-0.4407692307692308,0.4184615384615384
2.498333333333333,-0.3525,3.4766666666666666,0.2083333333333333,-0.4191666666666667,0.3283333333333333
2.7053846153846153,1.4653846153846155,1.3661538461538465,0.3815384615384615,-0.2469230769230769,0.2307692307692307
2.59125,2.285,0.3887499999999999,0.4825,-0.08625,0.2675
1.3633333333333333,3.3683333333333336,-2.878888888888889,0.4661111111111111,0.2116666666666666,0.5677777777777778
0.9545454545454546,3.2154545454545453,-4.2309090909090905,0.3027272727272727,0.520909090909091,1.0409090909090908
1.3830769230769229,1.3030769230769232,-4.163846153846153,0.1438461538461538,0.5838461538461538,1.1746153846153846
1.6716666666666669,-0.2558333333333333,-3.973333333333333,-0.0124999999999999,0.47,0.9708333333333332
1.77,-1.6307692307692307,-3.914615384615385,-0.2938461538461538,0.2476923076923077,0.5046153846153846
1.1341666666666665,-1.76,-3.545833333333333,-0.5541666666666667,0.0633333333333333,-0.07
0.0607692307692308,-1.093076923076923,-2.333076923076923,-0.6238461538461538,-0.0192307692307692,-0.5315384615384615
0.0641666666666666,-0.7808333333333333,-1.4608333333333334,-0.5566666666666666,-0.0483333333333333,-0.7058333333333332
0.8046153846153847,-0.4576923076923077,-0.2961538461538461,-0.4492307692307692,0.0092307692307692,-0.6146153846153847
1.0833333333333333,0.1091666666666666,-0.0516666666666666,-0.3275,0.1691666666666666,-0.3808333333333333
1.9330769230769231,-0.193076923076923,-0.4923076923076923,-0.1976923076923076,0.2023076923076923,-0.3907692307692307
1.5750000000000002,-0.9658333333333332,-0.7433333333333333,-0.1191666666666666,0.2408333333333333,-0.4958333333333333
-0.7407692307692306,-1.5092307692307694,-0.4623076923076923,-0.0923076923076923,0.1630769230769231,-0.4392307692307692
-1.1591666666666667,-1.3816666666666666,-0.2708333333333333,-0.095,0.2125,-0.38
-0.38769230769230756,-0.9223076923076924,0.0369230769230769,-0.0761538461538461,0.1569230769230769,-0.4176923076923077
0.2533333333333333,-1.0316666666666667,0.3091666666666666,-0.0025,0.04,-0.4783333333333333
0.46153846153846156,-1.7315384615384617,0.7899999999999999,0.0746153846153846,0.06,-0.4361538461538461
0.56,-2.015833333333333,0.9825,0.0866666666666666,0.1941666666666666,-0.3483333333333333
0.65,-1.5823076923076924,1.2307692307692308,0.0984615384615384,0.37,-0.2561538461538462
0.73,-1.3016666666666663,1.3291666666666668,0.1241666666666666,0.4858333333333333,-0.2225
0.4838461538461538,-1.226153846153846,1.3761538461538465,0.153076923076923,0.5607692307692308,-0.1646153846153846
0.14833333333333343,-1.09,1.3233333333333333,0.19,0.62,-0.08
-0.3984615384615384,-0.5969230769230769,1.086153846153846,0.273076923076923,0.6784615384615384,0.0076923076923076
-0.46399999999999997,-0.228,0.844,0.33,0.706,0.099
0.2433333333333334,0.362,0.2926666666666666,0.3333333333333333,0.61,0.106
0.43000000000000005,0.875,-0.3125,0.2375,0.3941666666666667,-0.045
0.06000000000000005,1.7292307692307691,-0.7146153846153847,-0.06,0.3215384615384615,-0.2630769230769231
-0.11499999999999999,2.0175,0.2108333333333333,-0.4433333333333333,0.4491666666666666,-0.4333333333333333
0.653846153846154,1.7123076923076923,2.674615384615384,-0.6338461538461538,0.66,-0.4246153846153845
2.0,0.805,3.8816666666666655,-0.5675,0.7891666666666667,-0.3891666666666666
1.9146153846153844,-1.1561538461538463,3.735384615384616,-0.1684615384615384,0.7615384615384616,-0.3623076923076923
-0.2733333333333332,-1.3358333333333334,1.8216666666666663,0.3408333333333333,0.5741666666666666,-0.1666666666666666
-1.733076923076923,1.1930769230769231,-1.81,0.746923076923077,0.4123076923076923,-0.1007692307692307
0.2941666666666666,4.028333333333333,-4.260000000000001,0.9525,0.1983333333333333,-0.4158333333333333
4.706153846153846,5.823846153846153,-7.06923076923077,0.6484615384615384,-0.0469230769230769,-1.0623076923076924
6.085,4.366666666666666,-7.329999999999999,-0.11,-0.2825,-1.4866666666666666
3.776923076923077,1.7761538461538462,-5.7784615384615385,-0.8876923076923077,-0.3123076923076923,-1.3807692307692307
0.5458333333333334,1.1841666666666666,-3.71,-1.3475,-0.0775,-0.6558333333333334
-2.3800000000000003,0.2577777777777778,-1.1966666666666663,-1.4266666666666667,0.1733333333333333,0.2877777777777777
-2.010625,-0.906875,-0.31,-1.15125,0.313125,1.18625
1.4691666666666667,-2.3683333333333336,0.1708333333333333,-0.5941666666666666,0.2525,1.4741666666666668
2.696153846153846,-2.9661538461538464,0.5,-0.1376923076923077,0.1161538461538461,1.169230769230769
2.1958333333333337,-3.7283333333333335,0.4875,0.1766666666666666,-0.2191666666666666,0.7141666666666667
1.6730769230769231,-3.880769230769231,0.1723076923076923,0.3546153846153846,-0.5776923076923077,0.3523076923076923
1.2072727272727273,-3.3572727272727274,-0.3054545454545455,0.4599999999999999,-0.7509090909090909,0.1672727272727272
0.9271428571428572,-2.5857142857142854,-0.3678571428571429,0.5214285714285715,-0.7657142857142858,0.2078571428571428
2.103846153846154,-0.7623076923076924,-0.7530769230769232,0.4176923076923077,-0.7246153846153847,0.2392307692307692
2.900833333333334,0.3183333333333333,-1.0991666666666666,0.2225,-0.6583333333333333,0.2066666666666666
3.4615384615384617,0.9030769230769232,-1.320769230769231,0.0146153846153846,-0.5276923076923077,0.1553846153846154
3.1291666666666664,0.1175,-1.295,-0.2241666666666666,-0.37,0.1366666666666667
1.7838461538461539,-1.696153846153846,-0.3715384615384615,-0.3653846153846153,-0.2,0.2392307692307692
2.0625,-2.315,0.5966666666666667,-0.2733333333333333,-0.0691666666666666,0.3208333333333333
3.4238461538461538,-2.103076923076923,1.4784615384615385,0.0469230769230769,-0.0876923076923077,0.1523076923076923
3.7575000000000003,-1.5083333333333335,1.538333333333333,0.4191666666666667,-0.1133333333333333,-0.2116666666666666
2.7074999999999996,-0.0591666666666666,0.8458333333333333,0.6241666666666666,-0.0766666666666666,-0.505
1.2307692307692306,0.6453846153846154,0.0992307692307692,0.5446153846153846,-0.0715384615384615,-0.5284615384615384
-0.29000000000000004,1.1476923076923078,-0.7538461538461539,0.2507692307692307,-0.08,-0.3092307692307692
-0.3616666666666666,1.1483333333333332,-0.6066666666666667,-0.0275,-0.105,-0.03
0.39230769230769225,0.696923076923077,0.3892307692307692,-0.083076923076923,-0.1323076923076923,0.1538461538461538
0.7225000000000001,0.1999999999999999,0.855,-0.0249999999999999,-0.1933333333333333,0.2433333333333333
1.096153846153846,-0.5138461538461538,1.0453846153846154,0.0515384615384615,-0.3007692307692308,0.2392307692307692
1.2708333333333333,-0.6833333333333332,1.0275,0.1475,-0.4066666666666667,0.1566666666666666
1.5353846153846153,-0.1984615384615384,0.953846153846154,0.2338461538461538,-0.4976923076923076,0.0415384615384615
1.4183333333333332,0.3666666666666667,0.9758333333333332,0.2308333333333333,-0.5708333333333333,0.0258333333333333
1.1615384615384614,1.0076923076923077,1.2084615384615385,0.1407692307692307,-0.6253846153846154,0.1184615384615384
1.2258333333333333,1.2608333333333333,1.4625,0.0308333333333333,-0.6166666666666667,0.2033333333333333
1.7330769230769232,1.476153846153846,1.9284615384615384,-0.0407692307692307,-0.5630769230769231,0.243076923076923
2.019166666666667,1.575,2.1925,0.0275,-0.47,0.2875
2.1776923076923076,1.91,1.676923076923077,0.1484615384615384,-0.31,0.36
2.705833333333333,2.060833333333333,0.9758333333333332,0.2608333333333333,-0.11,0.4183333333333333
3.176923076923077,2.0753846153846154,-0.3892307692307692,0.2761538461538461,0.0661538461538461,0.3769230769230769
2.6466666666666665,2.4391666666666665,-1.2175,0.22,0.2966666666666667,0.4333333333333333
2.7315384615384617,2.5138461538461536,-2.020769230769231,0.15,0.4746153846153846,0.53
2.9125,1.3958333333333333,-2.490833333333333,0.04,0.4741666666666667,0.4833333333333333
2.3054545454545456,-1.079090909090909,-2.913636363636364,-0.0736363636363636,0.2972727272727273,0.3454545454545454
1.1785714285714284,-2.617142857142857,-2.85,-0.2142857142857142,0.0978571428571428,0.1285714285714286
-0.8438461538461537,-3.4376923076923074,-1.913846153846154,-0.3046153846153846,-5.337610695313253e-19,-0.1015384615384615
-1.545833333333333,-2.7591666666666668,-1.211666666666667,-0.2058333333333333,-0.09,-0.27
-1.8246153846153845,-0.8684615384615385,-0.93,-0.0115384615384615,-0.1561538461538461,-0.2815384615384615
-0.8190909090909091,0.1627272727272727,-1.411818181818182,-0.0054545454545454,-0.1372727272727272,-0.2181818181818181
1.2264285714285714,1.2007142857142858,-2.197857142857143,-0.2442857142857142,-0.0335714285714285,-0.2278571428571428
2.0774999999999997,1.5141666666666669,-2.0575,-0.4475,0.135,-0.1775
3.503846153846154,0.926153846153846,-1.4861538461538462,-0.5076923076923077,0.2276923076923077,-0.2915384615384615
2.850833333333333,0.3808333333333333,-1.3141666666666667,-0.4949999999999999,0.2841666666666667,-0.4283333333333333
1.2981818181818183,-0.7963636363636364,-0.7863636363636364,-0.4572727272727273,0.3790909090909091,-0.4572727272727273
0.8535714285714286,-1.595,-0.1135714285714285,-0.2971428571428571,0.49,-0.4685714285714285
0.2715384615384616,-1.9515384615384617,0.7446153846153846,-0.0661538461538461,0.5415384615384616,-0.4607692307692307
-0.004166666666666874,-1.7641666666666669,0.96,0.1825,0.5183333333333334,-0.3908333333333333
-0.12692307692307692,-1.356153846153846,0.7030769230769232,0.3769230769230769,0.5484615384615384,-0.3076923076923077
0.03916666666666657,-1.005,0.22,0.3725,0.5975,-0.2416666666666666
0.32000000000000006,-0.6107692307692307,-0.19,0.2084615384615384,0.6115384615384616,-0.2053846153846154
0.35,-0.7058333333333332,-0.0383333333333333,0.0658333333333333,0.585,-0.1925
0.1576923076923078,-1.196923076923077,0.4153846153846154,0.0507692307692307,0.4853846153846154,-0.1461538461538461
0.015833333333333588,-1.4533333333333334,0.6808333333333333,0.1016666666666666,0.3758333333333333,-0.06
-0.1681818181818182,-1.2718181818181815,1.011818181818182,0.2109090909090909,0.3054545454545454,0.0472727272727272
-0.12428571428571411,-0.8042857142857143,0.9821428571428572,0.33,0.2521428571428571,0.1035714285714285
0.6566666666666667,-0.0458333333333333,0.3166666666666666,0.3308333333333333,0.2474999999999999,0.0666666666666666
1.2630769230769232,0.33,0.1623076923076923,0.2384615384615384,0.243076923076923,-0.03
1.4715384615384615,0.5046153846153847,0.4376923076923077,0.1630769230769231,0.2630769230769231,-0.1069230769230769
1.4418181818181819,0.3336363636363636,0.5654545454545454,0.1272727272727273,0.2709090909090909,-0.1627272727272727
0.9141666666666667,0.125,0.5241666666666667,0.0933333333333333,0.31,-0.1725
0.48571428571428565,0.2407142857142857,0.5207142857142857,0.05,0.4178571428571428,-0.1221428571428571
0.6807692307692308,0.6369230769230769,1.0207692307692309,-0.0307692307692307,0.5238461538461539,-0.0861538461538461
1.33,0.8108333333333334,1.7925000000000002,-0.0633333333333333,0.5833333333333334,-0.1491666666666666
1.7591666666666668,0.6583333333333333,2.7641666666666667,-0.015,0.645,-0.2625
1.44,0.4053846153846154,2.9238461538461538,0.0623076923076923,0.6476923076923077,-0.3130769230769231
0.3192307692307692,0.3338461538461538,2.393846153846153,0.1338461538461538,0.5861538461538461,-0.3123076923076923
-0.3583333333333334,0.7933333333333333,1.6833333333333331,0.2633333333333333,0.4258333333333333,-0.2799999999999999
-0.49923076923076914,2.4523076923076923,0.0415384615384615,0.3453846153846154,0.1638461538461538,-0.3053846153846154
-0.14166666666666683,3.630833333333333,-1.3941666666666668,0.2783333333333333,-0.1466666666666666,-0.5533333333333333
-0.1315384615384616,3.8484615384615375,-3.227692307692308,0.0738461538461538,-0.4346153846153846,-0.8053846153846155
-0.10749999999999993,2.668333333333333,-3.529166666666667,-0.15,-0.6008333333333333,-0.7941666666666666
0.014615384615384586,0.2107692307692308,-3.125384615384616,-0.3276923076923076,-0.6630769230769231,-0.5715384615384616
0.057499999999999996,-1.1408333333333334,-2.984166666666667,-0.4983333333333333,-0.625,-0.2483333333333333
0.7338461538461539,-1.903076923076924,-2.180769230769231,-0.566923076923077,-0.5076923076923078,0.1238461538461538
1.1183333333333334,-1.7108333333333334,-1.5433333333333332,-0.4941666666666666,-0.4183333333333333,0.4624999999999999
1.8923076923076922,-1.005384615384615,-1.2515384615384617,-0.39,-0.3769230769230769,0.6846153846153846
2.7,-0.3774999999999999,-1.205833333333333,-0.31,-0.4033333333333333,0.6475
2.961538461538461,0.37,-1.1923076923076923,-0.2469230769230769,-0.4330769230769231,0.4753846153846153
2.4733333333333336,0.4949999999999999,-1.245,-0.2383333333333333,-0.4191666666666666,0.3525
1.5646153846153847,-0.4215384615384615,-1.1476923076923078,-0.2507692307692307,-0.4092307692307692,0.3007692307692308
0.8575,-1.2075,-0.8716666666666667,-0.225,-0.3725,0.4025
0.9592307692307693,-1.7392307692307691,-0.2261538461538461,-0.1023076923076923,-0.3269230769230769,0.5515384615384615
1.5533333333333332,-1.6208333333333331,-0.0766666666666666,0.0183333333333333,-0.2041666666666667,0.6808333333333333
2.8618181818181814,-1.1681818181818182,-0.0181818181818181,0.1518181818181818,-0.1081818181818181,0.6481818181818182
2.967857142857143,-0.9928571428571428,-0.1364285714285714,0.2378571428571428,-0.1028571428571428,0.4621428571428571
1.7907692307692307,-0.9223076923076924,-0.1946153846153846,0.23,-0.0976923076923076,0.3423076923076923
1.1108333333333333,-1.0,0.0349999999999999,0.1641666666666666,-0.0916666666666666,0.3433333333333333
1.3353846153846154,-1.1123076923076924,0.353076923076923,0.15,-0.12,0.2746153846153846
1.48,-1.3958333333333333,0.3283333333333333,0.1691666666666667,-0.1316666666666666,0.2075
1.8492307692307692,-1.4861538461538462,0.26,0.1623076923076923,-0.1692307692307692,0.1569230769230769
2.158333333333333,-1.4683333333333335,0.5308333333333334,0.1925,-0.2258333333333333,0.0633333333333333
2.1746153846153846,-1.2823076923076924,1.073076923076923,0.31,-0.2807692307692307,-0.0792307692307692
1.9491666666666667,-0.7999999999999999,1.2049999999999998,0.3974999999999999,-0.3025,-0.2233333333333333
1.4263636363636363,0.3845454545454546,0.8918181818181818,0.42,-0.29,-0.2863636363636364
1.1892857142857143,1.2664285714285717,0.5764285714285714,0.4328571428571428,-0.2514285714285714,-0.2257142857142857
1.5015384615384615,1.9146153846153848,0.1476923076923076,0.4307692307692307,-0.1107692307692307,-0.0915384615384615
1.9041666666666668,2.0091666666666668,-0.0291666666666666,0.2691666666666666,-0.1208333333333333,-0.0066666666666666
1.3838461538461537,2.127692307692308,0.6661538461538462,-0.0684615384615384,-0.2753846153846154,0.1015384615384615
0.5533333333333335,2.044166666666667,2.098333333333333,-0.2799999999999999,-0.45,0.215
-0.6376923076923076,1.1407692307692308,4.033076923076923,-0.2469230769230769,-0.5530769230769231,0.32
-0.6066666666666669,-0.0266666666666666,4.309166666666666,0.0158333333333333,-0.6916666666666668,0.4191666666666667
0.8030769230769231,-0.583076923076923,2.637692307692308,0.3169230769230769,-0.7430769230769231,0.3315384615384615
1.7983333333333333,0.5499999999999999,1.135,0.465,-0.6275000000000001,0.2316666666666667
2.0776923076923075,2.0784615384615384,-0.893076923076923,0.58,-0.4892307692307692,0.2553846153846154
1.331,2.632,-2.0420000000000003,0.633,-0.206,0.54
1.3606666666666667,2.4253333333333336,-3.5153333333333334,0.5686666666666667,0.104,0.906
1.9141666666666666,1.21,-4.234166666666667,0.3325,0.2241666666666666,0.9991666666666666
2.183076923076923,-0.8638461538461539,-4.816923076923077,0.0053846153846153,0.0746153846153846,0.7907692307692309
1.795,-1.62,-4.654166666666667,-0.4158333333333333,-0.0716666666666666,0.3983333333333334
0.9084615384615385,-1.209230769230769,-3.083076923076923,-0.67,-0.0953846153846153,-0.123076923076923
0.3158333333333333,-0.6625,-1.9783333333333333,-0.6866666666666666,-0.0425,-0.5241666666666667
0.3746153846153846,0.0215384615384615,-0.7161538461538461,-0.5676923076923077,0.0453846153846153,-0.6746153846153846
0.9266666666666667,0.2025,-0.2549999999999999,-0.4275,0.1966666666666666,-0.6266666666666667
1.5669230769230769,-0.2315384615384615,-0.643846153846154,-0.3315384615384615,0.3746153846153846,-0.4746153846153846
2.1933333333333334,-0.9583333333333334,-0.8316666666666667,-0.1716666666666666,0.425,-0.465
1.0446153846153845,-1.859230769230769,-0.6715384615384615,0.0138461538461538,0.4923076923076923,-0.4076923076923077
-0.16666666666666674,-1.9866666666666664,-0.5225000000000001,0.1166666666666666,0.5125000000000001,-0.3291666666666666
-0.5007692307692306,-1.683076923076923,-0.4523076923076923,0.1738461538461538,0.6115384615384616,-0.2869230769230769
-0.16833333333333322,-0.94,-0.4983333333333333,0.2041666666666667,0.605,-0.3433333333333333
0.0623076923076924,-0.1446153846153846,-0.5823076923076923,0.1846153846153846,0.4984615384615385,-0.3869230769230769
0.22000000000000008,-0.3058333333333333,-0.5866666666666667,0.1425,0.4658333333333333,-0.3625
0.6123076923076924,-0.9107692307692308,-0.2976923076923077,0.0738461538461538,0.4946153846153845,-0.3007692307692308
0.765,-1.1641666666666668,0.1425,0.0533333333333333,0.5291666666666667,-0.2666666666666666
0.52,-1.4107692307692308,0.6499999999999999,0.0992307692307692,0.5438461538461539,-0.2469230769230769
0.32166666666666666,-1.5575,0.7441666666666666,0.14,0.5533333333333333,-0.2075
-0.09307692307692306,-1.51,0.953846153846154,0.2107692307692308,0.5323076923076923,-0.1215384615384615
-0.42999999999999994,-1.2241666666666666,1.1333333333333333,0.3383333333333333,0.4916666666666667,0.0016666666666666
-0.38923076923076905,-0.7,0.8892307692307693,0.4315384615384615,0.4492307692307692,0.1015384615384615
-0.014166666666666883,-0.3166666666666667,0.7216666666666667,0.4558333333333333,0.4175,0.1066666666666666
0.45769230769230773,0.1423076923076923,0.6869230769230769,0.4653846153846154,0.39,0.053076923076923
0.5958333333333334,0.3341666666666666,0.8183333333333334,0.49,0.375,-0.015
0.6258333333333332,0.3941666666666666,0.8983333333333334,0.4866666666666666,0.4083333333333334,-0.0641666666666666
0.5307692307692307,0.533076923076923,0.8776923076923077,0.4592307692307692,0.4646153846153846,-0.06
0.4307692307692308,0.6499999999999999,0.4884615384615384,0.3407692307692307,0.5392307692307692,-0.0538461538461538
0.5133333333333334,1.0741666666666665,0.6,0.1291666666666666,0.6608333333333333,-0.0608333333333333
1.636923076923077,1.540769230769231,1.6023076923076922,-0.0638461538461538,0.7038461538461538,-0.1884615384615384
1.9516666666666667,1.5825000000000002,2.245833333333333,-0.1016666666666666,0.6675,-0.3775
0.9615384615384616,1.5953846153846152,1.823846153846154,0.0738461538461538,0.5923076923076923,-0.4823076923076922
0.09999999999999998,2.19,0.47,0.245,0.3458333333333334,-0.5058333333333334
-0.9761538461538459,3.84,-2.23,0.1992307692307692,0.023076923076923,-0.5523076923076924
-0.49749999999999983,4.656666666666666,-3.713333333333333,-0.1216666666666666,-0.2775,-0.7025
0.573076923076923,3.812307692307692,-3.924615384615384,-0.4707692307692308,-0.5838461538461538,-0.9507692307692308
0.7808333333333334,1.843333333333333,-3.169166666666667,-0.5675,-0.5975,-1.035
0.8130769230769231,-1.136923076923077,-1.8061538461538464,-0.4723076923076924,-0.4569230769230769,-0.9076923076923078
0.5941666666666667,-2.4858333333333333,-1.5408333333333333,-0.5116666666666667,-0.3383333333333333,-0.51
0.4130769230769231,-2.9823076923076925,-1.0915384615384616,-0.5776923076923077,-0.1607692307692307,0.0776923076923077
0.9883333333333334,-2.689166666666667,-0.7008333333333333,-0.4808333333333334,0.0266666666666666,0.6091666666666667
2.586923076923077,-1.7484615384615383,-0.7207692307692307,-0.3130769230769231,0.0776923076923077,0.87
3.115833333333333,-1.0375,-1.235,-0.225,0.0141666666666666,0.8091666666666667
2.3761538461538465,0.14,-1.5492307692307692,-0.2115384615384615,-0.1153846153846153,0.6623076923076923
1.2225,0.3941666666666666,-1.2616666666666667,-0.175,-0.315,0.5033333333333333
-0.03230769230769237,-0.0061538461538461,-0.9215384615384616,-0.1269230769230769,-0.4753846153846153,0.3323076923076923
-0.4983333333333333,-0.5991666666666667,-0.7875,-0.095,-0.5741666666666666,0.315
-0.008000000000000007,-1.11,-0.697,-0.03,-0.688,0.386
0.6986666666666668,-1.046,-0.8706666666666667,-0.004,-0.7773333333333333,0.5026666666666667
1.9023076923076925,-0.693076923076923,-1.0623076923076924,-0.0315384615384615,-0.7246153846153847,0.6138461538461538
2.753333333333333,-0.6675,-0.7458333333333335,-0.04,-0.6708333333333334,0.5766666666666667
3.0690909090909093,-1.2518181818181815,-0.0881818181818182,-0.0127272727272727,-0.5927272727272727,0.4663636363636363
2.6464285714285714,-1.7257142857142858,0.3221428571428571,0.0114285714285714,-0.5107142857142858,0.4007142857142857
2.3041666666666667,-2.0125,0.7241666666666666,0.0233333333333333,-0.4358333333333333,0.365
2.449230769230769,-2.053076923076923,0.9746153846153848,0.0676923076923076,-0.3869230769230769,0.2623076923076923
2.583846153846154,-1.8492307692307688,1.3523076923076922,0.2215384615384615,-0.3576923076923077,0.0853846153846153
2.3475,-1.53,1.4058333333333335,0.3558333333333334,-0.2891666666666667,-0.0875
1.962,-1.062,1.189,0.4059999999999999,-0.218,-0.2
1.8133333333333332,-0.7306666666666667,0.92,0.3906666666666666,-0.1113333333333333,-0.2666666666666666
1.6923076923076923,-0.1176923076923077,0.7030769230769232,0.3407692307692307,-0.0092307692307692,-0.2669230769230769
1.6591666666666667,0.4599999999999999,0.8541666666666666,0.3725,0.0341666666666666,-0.1925
1.7007692307692306,1.2453846153846155,0.8130769230769231,0.4176923076923077,0.05,-0.0792307692307692
1.6199999999999999,1.316,0.5529999999999999,0.388,0.022,-0.013
1.1721428571428572,1.2557142857142856,0.1357142857142857,0.2964285714285714,-0.0642857142857143,-0.0342857142857142
0.3915384615384615,1.4284615384615384,0.2415384615384615,0.1353846153846153,-0.2507692307692308,-0.0053846153846153
-0.5792307692307692,1.9146153846153848,1.0707692307692307,-0.0292307692307692,-0.4769230769230769,0.1153846153846153
-0.6691666666666669,2.1125000000000003,1.7016666666666669,-0.1158333333333333,-0.6333333333333333,0.2725
-0.21307692307692294,1.5946153846153843,2.2584615384615385,-0.1923076923076923,-0.7430769230769231,0.4107692307692308
0.1924999999999999,0.8408333333333333,2.515833333333333,-0.265,-0.8316666666666667,0.48
0.99,-0.0646153846153846,3.093076923076924,-0.2169230769230769,-0.7923076923076924,0.5130769230769231
1.9333333333333331,0.2133333333333333,3.0066666666666664,0.0008333333333333,-0.7208333333333333,0.455
2.2616666666666667,1.4216666666666666,2.035833333333333,0.1999999999999999,-0.6141666666666666,0.3766666666666666
2.5061538461538464,2.4861538461538464,0.7892307692307692,0.383076923076923,-0.3646153846153846,0.3653846153846153
2.758181818181818,3.69,-1.588181818181818,0.3963636363636364,0.0127272727272727,0.4718181818181818
3.005,4.002142857142856,-2.6235714285714287,0.2342857142857143,0.4428571428571429,0.7364285714285714
4.147692307692308,1.9861538461538464,-3.174615384615385,-0.0007692307692307,0.7061538461538461,0.8023076923076923
4.0408333333333335,-0.1249999999999999,-3.1991666666666667,-0.1983333333333333,0.6166666666666667,0.5508333333333334
2.75,-2.44,-3.057,-0.397,0.492,0.25
1.2553333333333332,-3.268666666666667,-2.47,-0.5513333333333333,0.4473333333333333,-0.084
-0.4233333333333331,-3.019166666666667,-1.0608333333333333,-0.5008333333333334,0.3175,-0.4883333333333333
-1.4607692307692308,-2.2876923076923075,-0.2815384615384615,-0.2638461538461538,0.2030769230769231,-0.6284615384615384
-1.705,-1.288333333333333,-0.0658333333333333,-0.0608333333333333,0.1366666666666667,-0.5366666666666666
-0.98,-0.3541666666666667,-0.3441666666666667,-0.0475,0.1758333333333333,-0.3916666666666666
0.3821428571428571,1.197142857142857,-0.6742857142857143,-0.0849999999999999,0.2892857142857142,-0.2885714285714286
1.7008333333333332,1.2391666666666663,-0.8408333333333333,-0.0675,0.2283333333333333,-0.3475
1.5266666666666666,0.3883333333333333,-0.9616666666666668,-0.1983333333333333,0.1875,-0.4425
0.5146153846153847,-0.2884615384615384,-0.4892307692307692,-0.2923076923076922,0.2553846153846154,-0.46
-0.03600000000000003,-1.285,0.252,-0.226,0.294,-0.471
0.10533333333333339,-1.83,0.75,-0.02,0.242,-0.5006666666666667
0.39083333333333337,-1.9916666666666665,1.3575,0.2375,0.2016666666666666,-0.4766666666666666
0.5338461538461539,-1.7992307692307692,1.3346153846153848,0.3507692307692307,0.3061538461538461,-0.3976923076923077
0.6227272727272727,-1.1754545454545455,1.0654545454545454,0.3572727272727272,0.4336363636363636,-0.3127272727272727
0.5257142857142858,-1.0,0.8728571428571428,0.3085714285714286,0.48,-0.2607142857142857
-0.1625000000000001,-1.3108333333333333,0.8758333333333334,0.2083333333333333,0.4775,-0.2108333333333333
-0.4769230769230768,-1.330769230769231,1.1707692307692308,0.13,0.5153846153846154,-0.1476923076923076
-0.3181818181818179,-1.0036363636363637,1.63,0.1418181818181818,0.5554545454545455,-0.1127272727272727
-0.2846153846153845,-0.573076923076923,1.610769230769231,0.2261538461538461,0.5684615384615385,-0.0723076923076923
-0.034615384615384714,0.2453846153846153,1.1546153846153846,0.2676923076923077,0.5661538461538462,-0.0315384615384615
0.5283333333333333,0.5633333333333334,0.8308333333333334,0.2216666666666666,0.5733333333333334,-0.0533333333333333
1.1276923076923078,1.0146153846153845,0.3523076923076923,0.0869230769230769,0.4653846153846154,-0.1223076923076923
0.8130769230769231,1.4507692307692308,0.3653846153846153,-0.1361538461538461,0.3407692307692307,-0.2315384615384615
-0.0609090909090908,2.010909090909091,1.3627272727272728,-0.3290909090909091,0.3318181818181818,-0.3118181818181818
-0.20799999999999996,2.083,2.199,-0.387,0.347,-0.355
0.39812500000000006,1.534375,3.24125,-0.249375,0.3525,-0.426875
0.44153846153846155,1.2715384615384615,2.567692307692308,0.0992307692307692,0.2623076923076923,-0.446923076923077
-0.47,2.6266666666666665,-0.6858333333333334,0.3175,0.0208333333333333,-0.4408333333333333
-0.42000000000000015,4.120769230769231,-3.43,0.2146153846153846,-0.1323076923076923,-0.5423076923076923
1.5436363636363637,4.740909090909091,-5.292727272727273,-0.1009090909090909,-0.2709090909090909,-0.7672727272727272
2.4283333333333337,3.151666666666667,-5.1325,-0.4091666666666667,-0.3658333333333333,-0.8858333333333334
2.402857142857143,-0.6778571428571428,-3.735714285714285,-0.6542857142857142,-0.38,-0.777142857142857
1.9107692307692308,-2.1792307692307693,-2.581538461538462,-0.7946153846153846,-0.31,-0.4461538461538461
0.6618181818181819,-2.061818181818182,-0.5072727272727273,-0.6990909090909091,-0.0745454545454545,0.0563636363636363
0.17300000000000004,-1.551,0.333,-0.476,0.05,0.613
1.490625,-0.38,0.250625,-0.2,0.001875,0.960625
2.3453846153846154,0.1869230769230769,-0.7176923076923077,-0.0753846153846153,-0.1038461538461538,0.84
2.1675,-0.04,-1.705833333333333,-0.1616666666666666,-0.1933333333333333,0.5633333333333334
1.855,-0.4691666666666667,-1.4458333333333335,-0.2391666666666666,-0.3233333333333333,0.355
1.3646153846153846,-1.99,-0.3076923076923077,-0.1923076923076923,-0.4930769230769231,0.22
0.7677777777777778,-2.888888888888889,0.2833333333333333,-0.0266666666666666,-0.59,0.2822222222222222
0.9400000000000001,-2.94375,0.58125,0.15,-0.628125,0.453125
1.9261538461538459,-2.0938461538461537,0.5084615384615385,0.3030769230769231,-0.5615384615384615,0.5630769230769231
3.144615384615385,-0.9769230769230768,0.25,0.3938461538461538,-0.5015384615384615,0.4807692307692308
3.238,-0.6599999999999999,-0.015,0.387,-0.462,0.309
2.1020000000000003,-0.7586666666666666,-0.0686666666666666,0.2766666666666666,-0.4306666666666666,0.2233333333333333
1.4933333333333332,-1.1716666666666666,0.2191666666666666,0.1183333333333333,-0.4141666666666666,0.2058333333333333
1.68,-1.6723076923076925,0.856923076923077,0.04,-0.3723076923076923,0.19
2.169166666666667,-1.87,1.2558333333333334,0.1016666666666666,-0.3408333333333333,0.0949999999999999
2.631666666666667,-1.725833333333333,1.5483333333333336,0.2725,-0.3566666666666666,-0.0825
2.622727272727273,-1.35,1.4754545454545456,0.3954545454545454,-0.3509090909090909,-0.2581818181818182
1.9215384615384616,-0.6799999999999999,1.1807692307692308,0.4492307692307692,-0.3046153846153846,-0.3453846153846154
1.4235714285714285,-0.15,1.007857142857143,0.4614285714285714,-0.1999999999999999,-0.2721428571428571
1.358,0.725,0.914,0.472,-0.124,-0.109
1.4993333333333334,1.454,0.6993333333333334,0.4546666666666666,-0.032,0.028
1.5345454545454547,2.4481818181818182,-0.0963636363636363,0.3036363636363636,-0.0009090909090909,0.0945454545454545
1.4457142857142857,3.171428571428572,-0.1957142857142857,-0.0678571428571428,-0.2135714285714285,0.1214285714285714
0.33000000000000007,3.791538461538461,1.79,-0.4476923076923077,-0.5084615384615385,0.183076923076923
-0.6133333333333333,3.2175,3.614166666666667,-0.5108333333333334,-0.6058333333333333,0.35
-0.45999999999999996,1.0218181818181815,5.015454545454546,-0.3290909090909091,-0.6118181818181818,0.5336363636363637
0.6572727272727272,-0.1945454545454545,4.851818181818182,0.0045454545454545,-0.6372727272727272,0.5809090909090909
2.970625,0.4575,2.5987500000000003,0.345,-0.574375,0.42375
3.3175000000000003,1.8941666666666668,0.5716666666666667,0.6091666666666666,-0.4266666666666667,0.3541666666666667
2.2254545454545456,2.713636363636364,-2.3718181818181816,0.7427272727272727,-0.1863636363636364,0.5227272727272727
1.7066666666666666,2.744166666666666,-3.635,0.7324999999999999,0.0725,0.8366666666666666
1.5993333333333335,0.8313333333333334,-4.674666666666667,0.5393333333333333,0.2433333333333333,1.042
1.3533333333333333,-0.8758333333333334,-4.7491666666666665,0.1958333333333333,0.29,0.9633333333333334
1.2015384615384614,-1.863076923076923,-4.11,-0.2,0.2738461538461539,0.6361538461538461
1.0327272727272727,-1.5972727272727274,-3.25,-0.4536363636363636,0.1618181818181818,0.21
0.8453846153846154,-0.2769230769230769,-1.9030769230769229,-0.6030769230769231,0.1046153846153846,-0.2315384615384615
1.3044444444444445,0.2311111111111111,-1.4177777777777778,-0.7333333333333333,0.1344444444444444,-0.58
2.2506250000000003,0.229375,-0.42125,-0.72625,0.18125,-0.764375
2.332307692307692,0.3476923076923076,0.1715384615384615,-0.5761538461538461,0.36,-0.7684615384615385
2.0854545454545454,-0.1072727272727272,0.42,-0.3427272727272727,0.5254545454545455,-0.7109090909090908
1.810714285714286,-1.015,-0.1242857142857143,-0.2557142857142857,0.65,-0.695
-0.0018181818181814968,-1.883636363636364,-0.4809090909090909,-0.2718181818181818,0.739090909090909,-0.6736363636363637
-1.5071428571428571,-1.9742857142857144,-0.2978571428571429,-0.2478571428571428,0.7685714285714286,-0.495
-1.0991666666666662,-2.0391666666666666,0.6666666666666666,-0.065,0.7008333333333333,-0.4124999999999999
-0.2353846153846153,-1.831538461538461,1.1738461538461538,0.1907692307692307,0.546923076923077,-0.4453846153846154
0.2981818181818182,-1.5363636363636362,1.0445454545454549,0.3027272727272727,0.4709090909090909,-0.4718181818181817
0.3550000000000001,-1.3892857142857142,0.8250000000000001,0.2657142857142857,0.4992857142857143,-0.3935714285714285
0.746923076923077,-1.2384615384615385,0.6338461538461538,0.1638461538461538,0.5276923076923077,-0.3169230769230769
0.86,-1.3608333333333336,0.8391666666666667,0.1183333333333333,0.5175,-0.295
0.33272727272727276,-1.5581818181818183,1.4327272727272726,0.1918181818181818,0.5136363636363637,-0.2481818181818181
-0.13714285714285723,-1.6492857142857142,1.6807142857142856,0.3735714285714286,0.5085714285714286,-0.1107142857142857
-0.3181818181818179,-1.338181818181818,1.5636363636363635,0.5645454545454546,0.4854545454545454,0.0572727272727272
-0.09857142857142831,-0.7371428571428572,1.2614285714285711,0.6242857142857143,0.4635714285714286,0.1392857142857143
0.73,0.2223076923076923,0.8184615384615385,0.5538461538461539,0.4569230769230769,0.0569230769230769
0.8516666666666667,0.6275000000000001,0.8525,0.4599999999999999,0.4441666666666666,-0.0133333333333333
0.8527272727272728,0.9081818181818182,0.8963636363636364,0.3836363636363636,0.4345454545454545,-0.09
0.6564285714285714,0.9364285714285714,0.7649999999999999,0.2921428571428571,0.4614285714285714,-0.1564285714285714
0.5007692307692309,1.0623076923076922,0.6561538461538461,0.1592307692307692,0.5700000000000001,-0.1623076923076923
0.8708333333333333,1.4125,1.1266666666666667,0.0141666666666666,0.685,-0.1808333333333333
1.6218181818181818,1.943636363636364,2.356363636363636,-0.1154545454545454,0.7490909090909091,-0.239090909090909
2.142142857142857,2.1557142857142857,3.3035714285714284,-0.275,0.7592857142857143,-0.3635714285714285
1.7754545454545454,1.720909090909091,3.756363636363636,-0.44,0.7018181818181818,-0.4936363636363636
0.5464285714285715,1.2264285714285716,3.8114285714285714,-0.3721428571428571,0.5721428571428572,-0.5685714285714286
-2.2100000000000004,1.29,2.7254545454545456,-0.0118181818181818,0.4218181818181818,-0.4609090909090909
-2.804615384615385,2.236923076923077,0.8253846153846153,0.3176923076923076,0.1938461538461538,-0.3630769230769231
-1.149230769230769,4.054615384615385,-3.300769230769231,0.3676923076923077,-0.2123076923076922,-0.5630769230769231
0.51,4.421666666666667,-5.206666666666666,0.0691666666666666,-0.6216666666666667,-0.9875
1.5869230769230769,2.1338461538461537,-5.236153846153846,-0.3023076923076923,-0.9353846153846154,-1.2046153846153846
0.6253846153846154,-0.0784615384615384,-4.280769230769231,-0.5423076923076923,-1.0084615384615383,-0.9161538461538462
-1.080909090909091,-1.2645454545454546,-3.0454545454545454,-0.7827272727272727,-0.7618181818181818,-0.3754545454545454
-1.145,-1.0285714285714287,-2.0942857142857143,-0.8928571428571429,-0.4228571428571429,0.36
0.17000000000000004,-0.1490909090909091,-1.1654545454545455,-0.890909090909091,-0.3209090909090909,1.07
1.5035714285714286,0.1857142857142857,-0.9492857142857144,-0.7778571428571429,-0.4064285714285715,1.38
3.0336363636363632,-0.2145454545454545,-0.6945454545454545,-0.5890909090909091,-0.4581818181818182,1.211818181818182
2.797857142857143,-1.3257142857142856,-0.6042857142857143,-0.3921428571428572,-0.5428571428571428,0.8414285714285714
1.4945454545454546,-3.3318181818181816,-0.2827272727272727,-0.1872727272727272,-0.6118181818181818,0.5445454545454546
0.5078571428571429,-4.438571428571429,-0.2228571428571428,0.05,-0.7335714285714285,0.4335714285714286
0.64,-4.451666666666667,-0.1158333333333333,0.3308333333333333,-0.8175,0.44
1.5538461538461537,-3.19,-0.0061538461538461,0.5376923076923077,-0.73,0.4315384615384615
2.8291666666666666,-0.5941666666666667,-0.2225,0.5783333333333333,-0.6191666666666666,0.4466666666666667
3.603846153846154,0.9423076923076924,-0.5892307692307692,0.4323076923076923,-0.5376923076923077,0.3399999999999999
3.210909090909091,1.4090909090909092,-1.1745454545454546,0.1545454545454545,-0.4727272727272727,0.2145454545454545
1.9284615384615384,0.6815384615384616,-0.86,-0.1284615384615384,-0.3861538461538461,0.2
0.9700000000000001,-1.0546153846153847,0.3776923076923077,-0.3215384615384615,-0.3284615384615384,0.2215384615384615
1.24,-2.069230769230769,1.1115384615384616,-0.3084615384615384,-0.3461538461538461,0.2069230769230769
1.997272727272727,-3.0327272727272727,1.9772727272727275,-0.0818181818181818,-0.3945454545454545,0.0872727272727272
2.3885714285714283,-3.095,2.4014285714285712,0.2485714285714285,-0.3921428571428572,-0.1264285714285714
2.635,-2.0716666666666668,2.3775,0.4691666666666667,-0.3833333333333333,-0.3583333333333333
1.9476923076923076,-0.9046153846153846,2.126923076923077,0.5661538461538462,-0.3969230769230769,-0.4261538461538461
0.40909090909090906,0.6972727272727273,1.6081818181818184,0.630909090909091,-0.3527272727272727,-0.2827272727272727
-0.04214285714285704,1.685,0.9885714285714284,0.6514285714285715,-0.1485714285714285,-0.0507142857142857
0.6336363636363636,2.920909090909092,-0.3745454545454545,0.4727272727272727,-0.0572727272727272,0.1109090909090909
1.005,3.665,-0.6285714285714284,-0.0807142857142857,-0.3085714285714286,0.195
-0.07000000000000006,3.8508333333333336,2.1641666666666666,-0.6008333333333333,-0.5933333333333334,0.3416666666666666
-0.8623076923076924,2.7684615384615388,4.550000000000001,-0.663076923076923,-0.6576923076923078,0.5084615384615385
-0.489090909090909,0.0009090909090908,6.255454545454546,-0.3263636363636363,-0.6827272727272727,0.6345454545454546
1.2157142857142857,-1.1649999999999998,5.148571428571429,0.31,-0.755,0.4478571428571428
2.730833333333333,0.8841666666666667,1.3550000000000002,0.7333333333333334,-0.6441666666666667,0.1858333333333333
2.6476923076923073,2.393076923076923,-1.0715384615384616,0.8853846153846153,-0.5323076923076923,0.18
0.8590909090909091,3.001818181818182,-3.998181818181818,0.8154545454545455,-0.2518181818181818,0.5290909090909092
0.3271428571428572,2.64,-4.835714285714286,0.5964285714285714,-0.0628571428571428,1.0207142857142857
0.09545454545454557,1.2818181818181815,-5.24,0.3636363636363636,-0.0654545454545454,1.3572727272727272
-0.23642857142857143,0.4485714285714285,-5.18,-0.0071428571428571,-0.1914285714285714,1.2942857142857145
-0.5825000000000002,-0.06,-4.7941666666666665,-0.6083333333333333,-0.2408333333333333,0.8391666666666667
-0.08749999999999991,0.1658333333333333,-4.1475,-1.0133333333333334,-0.2025,0.2416666666666666
