accy,accz,accx
-2.3146153846153847,1.1615384615384614,0.6753846153846155
0.1508333333333333,0.4308333333333333,-0.9891666666666663
2.9408333333333334,-0.2233333333333333,-2.296666666666667
4.827857142857143,-0.5992857142857143,-2.948571428571429
5.4375,-1.3733333333333333,-1.8175000000000003
4.807692307692308,-1.1715384615384616,0.2584615384615384
3.424166666666667,-0.6358333333333334,1.7258333333333336
1.9966666666666668,-0.7458333333333335,2.21
0.7757142857142857,-0.7564285714285715,2.238571428571429
0.6018181818181818,-0.7836363636363637,2.1063636363636364
0.5269230769230769,-0.2823076923076923,1.709230769230769
0.1066666666666666,0.35,1.2233333333333334
0.1346153846153846,0.1223076923076923,1.6046153846153848
0.29,0.379,2.2569999999999997
0.5700000000000001,1.972,2.502
0.4192307692307692,2.14,2.276923076923077
0.3892307692307692,1.1653846153846152,1.8892307692307693
0.1690909090909091,0.6372727272727272,1.75
-0.056,0.578,1.721
-0.09625,0.3843749999999999,1.8743750000000001
-0.0325,0.2216666666666666,1.9808333333333332
-0.0646153846153846,0.1546153846153846,1.996923076923077
-0.266,0.495,2.1020000000000003
-0.4593333333333333,1.0006666666666668,2.434
-0.5953846153846153,1.290769230769231,2.5938461538461537
-1.0316666666666667,1.1283333333333334,2.185
-1.4425,1.2033333333333334,1.2491666666666665
-1.2675,1.0666666666666669,0.5258333333333334
-0.901,0.712,0.28600000000000003
-0.740625,0.653125,0.49375
-0.8816666666666667,0.5966666666666667,0.8208333333333334
-1.3123076923076924,0.3115384615384615,0.7892307692307693
-1.4875,-0.0008333333333333,0.5125
-1.3111111111111111,-0.3966666666666667,0.011111111111111183
-1.23,-1.3388235294117647,-0.3829411764705879
-1.5424999999999998,-1.74,0.1825
-2.178333333333333,-0.7200000000000001,1.2475
-3.080833333333333,1.1308333333333334,1.4883333333333333
-3.036,2.697,0.62
-1.639375,2.97,-1.0499999999999998
1.5623076923076922,2.1538461538461537,-2.816923076923077
4.029090909090909,0.3990909090909091,-3.1509090909090913
5.466363636363636,-0.6754545454545454,-1.9890909090909088
5.403846153846154,-0.4976923076923076,0.0623076923076924
4.736666666666666,0.3013333333333333,1.6906666666666665
3.0127272727272727,0.3636363636363636,2.298181818181818
0.6753846153846154,0.4692307692307692,1.6853846153846153
0.2358333333333333,0.0466666666666666,1.14
1.055,-0.6375000000000001,0.8341666666666667
1.6284615384615384,-0.9192307692307692,1.066153846153846
1.616923076923077,-0.1076923076923076,2.1561538461538463
0.1199999999999999,0.3984615384615384,3.468461538461539
-1.285,0.93,4.390000000000001
-1.7613333333333332,0.6933333333333334,4.02
-0.75,0.3253846153846154,2.073076923076923
1.2639999999999998,0.2029999999999999,0.04500000000000004
2.6292857142857144,-0.625,-0.38928571428571446
2.6738461538461538,-1.2707692307692309,0.47615384615384615
0.9055555555555556,-1.468888888888889,1.6366666666666667
-1.6246666666666667,-1.145333333333333,2.739333333333333
-3.580769230769231,-0.7484615384615385,3.8369230769230764
-3.1766666666666663,-0.7808333333333334,3.874166666666667
-2.193076923076924,-0.5907692307692307,3.2292307692307696
-0.0283333333333332,-0.0341666666666666,1.8341666666666665
1.1676923076923076,0.4723076923076924,0.826923076923077
1.4391666666666667,0.3208333333333333,0.5
0.7242857142857143,0.1671428571428571,0.19999999999999996
-0.6575000000000001,-0.2491666666666666,0.2566666666666667
-2.186153846153846,-0.4646153846153846,0.5761538461538462
-3.0036363636363634,0.0445454545454545,0.5936363636363637
-2.733076923076923,1.166923076923077,-0.06846153846153857
-1.4233333333333336,1.933333333333333,-0.9616666666666669
-0.7733333333333334,2.063333333333333,-0.5233333333333334
-0.665,1.065,0.65
-2.6107142857142853,-0.89,2.172142857142857
-4.1193333333333335,-2.019333333333333,1.6893333333333334
-3.813846153846154,-2.509230769230769,-0.5192307692307692
-1.919,-2.27,-2.282
1.84,-2.178,-3.892666666666667
4.6575,-2.97,-3.8466666666666667
5.829999999999999,-3.2476923076923074,-1.0384615384615383
6.183333333333334,-1.6308333333333334,1.8741666666666665
6.07,0.623,3.569
4.973076923076923,1.8815384615384616,3.6215384615384614
2.829333333333333,2.4553333333333334,2.9266666666666667
-2.9408333333333334,2.8016666666666663,3.0108333333333333
-3.1958333333333333,1.8475,2.2491666666666665
-0.6184615384615384,-0.0461538461538461,0.9076923076923077
1.3025,-2.1108333333333333,0.3208333333333333
2.3507692307692305,-2.1784615384615384,0.99
0.8866666666666667,0.7933333333333333,1.5308333333333333
-1.0733333333333333,2.2891666666666666,2.0
-2.19,2.117272727272727,2.1418181818181816
-0.8081818181818182,1.007272727272727,1.7354545454545454
1.6823529411764706,-0.0188235294117647,0.9235294117647059
2.4066666666666667,-0.2066666666666666,1.525
1.5216666666666667,0.6591666666666667,1.8575
-0.3791666666666666,1.78,2.7575000000000003
-2.1100000000000003,2.209,3.486
-2.489375,2.53125,3.353125
-2.086153846153846,1.8492307692307688,2.917692307692308
-0.015,0.5616666666666666,1.5333333333333332
0.772,-0.558,0.4019999999999999
1.1018181818181818,-0.81,0.21909090909090911
0.5835294117647059,-0.9076470588235294,0.5129411764705882
-1.0308333333333335,0.0558333333333333,1.4075
-2.63,1.4423076923076923,1.853846153846154
-3.151818181818182,2.1727272727272724,1.3918181818181818
-2.726153846153846,1.946153846153846,0.6061538461538463
-1.9315384615384608,0.6469230769230769,0.17461538461538462
-1.7808333333333335,-0.71,0.04083333333333339
-1.9491666666666667,-0.7583333333333333,0.13666666666666671
-2.38,0.1985714285714285,0.5035714285714286
-2.28125,1.1687500000000002,0.67875
-0.5170588235294117,2.297058823529412,-0.45176470588235285
2.46,2.395,-2.945833333333333
4.491538461538462,0.7884615384615384,-4.62
5.327,-0.6140000000000001,-3.883
5.45,-0.5907142857142856,-1.2871428571428574
5.161538461538461,0.2669230769230769,1.7115384615384617
2.243076923076923,-0.1407692307692307,3.3676923076923075
-0.98,-0.3072727272727272,3.57
-1.3490909090909091,-0.3754545454545454,3.118181818181818
-0.8607142857142858,-1.0142857142857142,2.2357142857142858
0.5938461538461539,-1.1153846153846154,1.3492307692307692
1.4861538461538462,-0.6192307692307693,1.28
1.606666666666667,0.1324999999999999,1.7241666666666666
0.903846153846154,0.6269230769230769,2.7300000000000004
-0.0315384615384615,-0.1361538461538461,3.043076923076923
-0.4827272727272726,-0.8227272727272728,2.326363636363636
-0.7442857142857143,-1.4414285714285715,1.6507142857142858
-0.6416666666666667,-1.2891666666666666,1.1166666666666667
-0.3038461538461539,-0.6453846153846154,1.2676923076923077
-0.4183333333333334,-0.5033333333333333,1.9466666666666668
-0.7941666666666668,-0.6291666666666668,2.5825000000000005
-1.195,-0.5741666666666667,2.7525000000000004
-1.7357142857142858,-0.7021428571428572,2.725714285714286
-1.71,-0.8841666666666667,2.8125
-1.488,-0.829,2.761
-1.3853333333333333,-0.3419999999999999,2.356
-1.320769230769231,-0.3123076923076923,1.396153846153846
-0.7981818181818181,-0.7190909090909091,-0.006363636363636349
0.0285714285714285,-0.4571428571428572,-1.0028571428571427
0.1763636363636363,0.1972727272727272,-1.268181818181818
-0.3785714285714286,0.8621428571428572,-1.15
-1.8741666666666668,1.6050000000000002,-0.5233333333333334
-3.0258333333333334,1.825,0.4525
-3.16,0.4953846153846154,1.356923076923077
-1.9691666666666665,-0.9725,0.5283333333333333
-0.0507692307692307,-2.1353846153846154,-1.8400000000000003
1.9315384615384608,-2.8423076923076924,-3.453846153846154
2.728181818181818,-2.751818181818182,-3.9372727272727284
2.723846153846154,-3.421538461538461,-2.756923076923077
3.0207692307692304,-3.5215384615384617,-0.22769230769230764
3.3400000000000003,-2.3869230769230767,2.3015384615384615
3.278333333333333,-0.0641666666666666,3.9525
2.6791666666666667,1.1575,4.1825
1.4815384615384617,1.9807692307692308,3.213076923076923
0.0846153846153846,2.986923076923077,1.946923076923077
-0.1708333333333333,3.215833333333333,1.1675
0.5346153846153846,2.511538461538461,0.5938461538461538
1.3836363636363638,0.9663636363636364,0.40909090909090906
1.9928571428571429,-0.08,0.91
1.4058333333333335,0.3241666666666666,1.6183333333333332
0.2561538461538462,0.5892307692307692,2.073846153846154
-0.2616666666666666,-0.3125,2.4541666666666666
-0.5915384615384615,-0.0623076923076923,2.2946153846153847
-0.3618181818181818,0.5072727272727273,2.2745454545454544
-0.1630769230769231,0.8123076923076924,2.213846153846154
-0.0746153846153846,0.9153846153846156,2.26
-0.3692307692307692,1.066153846153846,2.136153846153846
-0.7545454545454546,1.2518181818181815,1.9863636363636363
-0.9592307692307692,1.449230769230769,2.035384615384615
-1.0,1.44,2.3427272727272728
-0.972,1.2673333333333334,2.366
-1.11,0.8916666666666667,2.0166666666666666
-1.0984615384615386,0.41,1.5423076923076924
-0.951818181818182,0.1109090909090909,1.1072727272727272
-0.7615384615384616,0.0646153846153846,0.6530769230769231
-0.535,0.2591666666666667,0.2858333333333333
-0.4328571428571428,0.0385714285714285,0.28214285714285725
-0.6533333333333333,-0.5591666666666667,0.21416666666666673
-1.1175,-0.8491666666666666,0.14500000000000002
-2.2775000000000003,-0.6525,0.020000000000000018
-3.2671428571428573,-0.5657142857142857,0.1607142857142857
-3.703333333333333,0.0733333333333333,0.5833333333333333
-3.614615384615385,1.7323076923076923,0.5784615384615384
-2.1575,3.0558333333333336,-0.47916666666666674
0.3716666666666666,3.1366666666666667,-2.013333333333333
3.72,2.225384615384616,-3.3807692307692303
5.806923076923076,-0.1330769230769231,-3.4361538461538457
5.427499999999999,-1.6175,-1.1341666666666668
4.1866666666666665,-1.165,1.4741666666666666
2.4066666666666667,0.8075,2.5458333333333334
0.6849999999999999,1.945,2.2942857142857145
0.2875,1.6375,1.345
0.6683333333333333,-0.0025,0.8458333333333334
1.169166666666667,-1.6708333333333334,0.9975
1.3976923076923076,-1.8084615384615383,1.813076923076923
1.4866666666666666,-0.2983333333333333,3.023333333333333
1.2076923076923076,0.8307692307692308,3.573076923076924
0.6246153846153846,0.5507692307692308,3.784615384615385
0.1849999999999999,-0.0075,3.7675
0.2776923076923077,-0.7915384615384615,3.167692307692308
0.4841666666666667,-2.1766666666666667,2.1100000000000003
0.1966666666666666,-2.3608333333333333,1.545
-0.2541666666666666,-0.7958333333333334,1.4258333333333333
-0.5478571428571428,0.3228571428571428,1.4664285714285714
-0.5808333333333333,0.0766666666666666,1.6716666666666669
-0.6661538461538462,-0.7492307692307693,2.0323076923076924
-0.705,-1.4075,2.1333333333333333
-0.6008333333333333,-1.5625,1.8483333333333332
-0.5615384615384615,-1.1730769230769231,1.55
-0.8016666666666667,-0.5258333333333334,1.1566666666666665
-0.96,-0.1146153846153846,0.6699999999999999
-0.7591666666666667,0.1558333333333333,0.22000000000000008
-0.5746153846153846,0.4861538461538461,-0.18153846153846143
-0.7641666666666667,1.2225,-0.4233333333333331
-1.4184615384615382,1.6438461538461535,-0.4823076923076923
-2.9572727272727275,2.136363636363636,-0.4318181818181821
-4.3133333333333335,2.3586666666666667,-0.1479999999999999
-4.304545454545455,0.7163636363636363,0.3572727272727273
-3.241538461538461,-1.383076923076923,0.5761538461538462
-1.4908333333333337,-2.7383333333333333,-1.2525
0.5871428571428572,-2.774285714285714,-3.375
2.5745454545454547,-1.5672727272727272,-4.02
3.894615384615385,-1.1153846153846154,-3.026923076923077
4.4575000000000005,-1.4608333333333334,-0.23833333333333329
4.755,-1.025,2.5166666666666666
4.287692307692307,-0.2984615384615384,3.9284615384615384
3.177692307692308,0.3023076923076923,3.891538461538462
1.8016666666666667,0.9391666666666666,2.935
0.3876923076923076,0.963076923076923,2.0300000000000002
-0.8424999999999999,1.1158333333333337,1.0208333333333333
-1.106428571428571,0.7457142857142858,0.10928571428571432
0.13,-0.6845454545454546,1.0536363636363637
0.823076923076923,-0.9292307692307692,2.3053846153846154
0.625,0.7000000000000001,3.0166666666666666
0.1823076923076923,1.2453846153846155,2.5684615384615386
0.1992307692307692,0.7192307692307692,2.0938461538461537
0.27,0.2658333333333333,1.9575
0.1058333333333333,0.7875,2.2891666666666666
-0.4423076923076923,0.9638461538461538,2.5300000000000002
-0.9441666666666668,0.6749999999999999,2.4483333333333333
-1.1107142857142858,0.8035714285714286,2.5214285714285714
-1.1245454545454543,1.1536363636363636,2.668181818181818
-1.1192307692307693,1.6023076923076922,2.5415384615384617
-0.9875,1.6583333333333332,2.2199999999999998
-1.0353846153846151,1.2484615384615383,1.5815384615384616
-1.1266666666666667,0.1591666666666666,0.835
-0.8223076923076923,-0.6923076923076923,0.14846153846153842
-0.3075,-0.9091666666666668,-0.24583333333333313
-0.0515384615384615,-0.4115384615384616,-0.23923076923076914
-0.8241666666666667,0.475,-0.19999999999999996
-2.695,0.7941666666666668,-0.2649999999999999
-4.242142857142857,0.8628571428571429,-0.08071428571428552
-4.5475,1.51,-0.019166666666666776
-3.078333333333333,2.1300000000000003,-0.21416666666666662
-0.6799999999999999,2.403076923076924,-1.3892307692307693
1.9508333333333328,1.8791666666666669,-2.936666666666667
3.945384615384616,0.1753846153846154,-3.993846153846154
4.611666666666667,-0.6358333333333334,-2.5675000000000003
4.553076923076923,-0.6023076923076923,0.3392307692307692
3.8175,-0.3391666666666666,2.2783333333333333
2.540769230769231,0.1938461538461538,2.73
1.2033333333333334,0.2133333333333333,2.2133333333333334
0.7064285714285715,-0.3671428571428571,1.74
0.6566666666666666,-0.7183333333333333,1.6216666666666666
0.4853846153846154,-0.413076923076923,1.8146153846153847
0.6081818181818182,0.7790909090909092,2.286363636363636
0.7676923076923077,0.7684615384615385,2.651538461538461
0.7661538461538462,0.0215384615384615,2.91
0.84,-0.5499999999999999,3.1216666666666666
0.8466666666666667,-0.9958333333333332,2.6866666666666665
0.7176923076923077,-1.533076923076923,1.916923076923077
0.61,-1.9666666666666668,1.3883333333333332
0.095,-2.172857142857143,1.585
-0.365,-0.7341666666666667,1.8891666666666667
-0.5,-0.1469230769230769,2.1607692307692306
-0.5618181818181819,-0.4636363636363636,2.715454545454545
-0.8215384615384616,-0.7538461538461539,3.265384615384616
-0.9591666666666666,-0.9675,3.1625
-0.9014285714285716,-0.98,2.4578571428571427
-1.0245454545454544,-0.459090909090909,1.6754545454545455
-1.2315384615384617,0.0476923076923076,0.946923076923077
-1.2625,0.0575,0.030000000000000027
-0.9846153846153846,0.0792307692307692,-0.6261538461538465
-0.3575,0.2358333333333333,-0.8866666666666667
-0.2338461538461538,0.3,-1.2092307692307696
-1.39,0.5158333333333333,-1.5508333333333333
-3.222857142857143,0.9892857142857142,-1.2878571428571428
-4.111818181818181,1.0872727272727272,0.030000000000000027
-4.018461538461539,0.2861538461538461,1.5046153846153847
-2.529166666666667,-0.9366666666666666,1.2775
-0.5161538461538462,-1.4553846153846155,-0.3038461538461541
1.774166666666667,-1.39,-1.665833333333333
3.5323076923076924,-1.0592307692307692,-2.4100000000000006
3.825833333333333,-1.245,-1.2866666666666662
3.508571428571429,-1.1685714285714286,0.7728571428571429
3.582222222222222,-0.2344444444444444,2.322222222222222
3.321333333333333,0.9533333333333334,2.963333333333333
2.3675,1.495,2.0166666666666666
1.7292307692307691,1.2746153846153847,0.6553846153846155
1.5775,0.0991666666666666,0.26250000000000007
0.8123076923076924,-0.7630769230769231,0.38615384615384607
-0.1058333333333333,-0.9541666666666666,0.17333333333333334
0.1561538461538461,-1.5130769230769232,1.146923076923077
0.1483333333333333,-0.7783333333333333,2.7275
-0.0476923076923077,1.3153846153846156,3.240769230769231
-0.1436363636363636,2.37,2.954545454545454
-0.5421428571428571,1.7378571428571428,2.474285714285714
-0.6525,0.8816666666666667,2.0275
-0.4576923076923077,0.8607692307692307,2.1015384615384614
-0.3091666666666666,0.8258333333333333,2.330833333333333
-0.443076923076923,0.6369230769230769,2.4276923076923076
-0.8850000000000001,0.6766666666666666,2.3875
-1.1607692307692308,1.0592307692307692,2.419230769230769
-1.12,1.4741666666666668,2.291666666666667
-1.0746153846153847,1.2692307692307692,1.85
-1.044166666666667,0.5825,1.2633333333333332
-0.926923076923077,0.0069230769230769,0.6846153846153846
-0.8316666666666667,-0.4575,0.44999999999999996
-0.7784615384615385,-0.92,0.28538461538461546
-0.6583333333333333,-0.5641666666666667,0.12083333333333324
-0.8846153846153846,0.1792307692307692,-0.07846153846153858
-1.5691666666666668,0.3358333333333334,-0.2583333333333335
-2.3469230769230767,0.0161538461538461,-0.20769230769230762
-2.853333333333333,0.5016666666666666,-0.011666666666666714
-3.088461538461538,1.8553846153846152,0.62
-2.703333333333333,3.376666666666667,0.39583333333333337
-1.0792307692307692,4.110769230769231,-1.1761538461538463
1.8575,3.3966666666666665,-3.4591666666666665
4.256153846153846,1.3453846153846152,-4.837692307692308
4.235833333333333,-0.1608333333333333,-3.2225
3.8346153846153848,-0.2353846153846154,0.41846153846153844
3.333333333333333,-0.0666666666666666,3.445
2.387692307692308,0.13,4.857692307692308
0.9433333333333332,-0.6441666666666667,3.9475
-0.0269230769230769,-1.566923076923077,2.147692307692308
0.1608333333333333,-2.169166666666667,0.52
0.9461538461538462,-1.4515384615384617,-0.38769230769230756
1.36,0.2358333333333333,-0.16083333333333338
1.4130769230769231,1.773846153846154,1.0692307692307692
1.0541666666666667,1.7875,2.658333333333333
0.3849999999999999,1.0071428571428571,3.869285714285714
-0.1509090909090909,-0.2218181818181817,3.7845454545454547
-0.305,-0.86,3.1041666666666665
-0.2,-1.8525,2.0116666666666667
-0.1928571428571428,-2.66,1.582142857142857
-0.4083333333333332,-1.836666666666667,1.6324999999999998
-0.4499999999999999,-1.110769230769231,1.8307692307692307
-0.6108333333333333,-1.235,2.185833333333333
-0.8769230769230769,-1.1930769230769231,2.7615384615384615
-1.231666666666667,-1.1291666666666669,3.1083333333333334
-1.3553846153846154,-0.8676923076923077,2.831538461538461
-1.1316666666666666,-0.3616666666666666,1.97
-0.8853846153846153,0.2146153846153846,0.8892307692307693
-0.8833333333333333,0.525,0.020000000000000018
-0.8123076923076924,0.8353846153846154,-0.5407692307692309
-0.3441666666666667,1.02,-0.4383333333333337
-0.1792307692307692,1.073846153846154,-0.27538461538461556
-1.1175,1.205833333333333,-0.5466666666666669
-2.513076923076923,1.2115384615384617,-0.9946153846153849
-3.355,1.0433333333333334,-0.9491666666666667
-3.3915384615384614,0.2623076923076923,0.006153846153846176
-3.56,-0.5091666666666667,0.8708333333333333
-4.12,-1.1715384615384614,0.9707692307692308
-3.750833333333333,-2.1633333333333336,0.505
-1.6084615384615384,-1.9146153846153848,-0.1761538461538461
1.2033333333333334,-1.9125,-0.4066666666666665
4.066153846153847,-1.3923076923076925,-0.3592307692307697
5.065,0.2241666666666666,-1.185
5.009230769230769,0.8423076923076922,-1.0823076923076922
4.529166666666667,1.0141666666666669,-0.2633333333333334
3.8846153846153846,1.1046153846153846,0.466923076923077
2.688333333333333,0.2041666666666667,0.655
1.863076923076923,-1.2369230769230768,1.1915384615384614
1.5925,-2.5416666666666665,2.360833333333334
0.9646153846153848,-1.4961538461538462,2.1453846153846152
-0.2058333333333333,-0.7566666666666667,2.373333333333333
-1.0454545454545454,-0.5772727272727273,3.678181818181818
-1.083,0.926,3.8
-0.3405882352941176,3.3776470588235297,3.26
0.0308333333333333,2.980833333333333,2.5308333333333337
-0.0815384615384615,0.47,1.7053846153846153
-0.3016666666666667,-0.9033333333333332,1.54
-0.4938461538461538,-0.546923076923077,1.5623076923076924
-0.57,0.09,2.105
-0.9984615384615384,0.6684615384615384,2.5446153846153847
-1.4325,1.4025,3.0141666666666667
-1.8736363636363635,2.039090909090909,3.3018181818181818
-2.04,2.142,3.14
-1.665294117647059,1.2458823529411764,2.1117647058823525
-1.1891666666666667,0.1316666666666666,1.02
-1.02,-0.2309090909090909,0.14181818181818184
-0.8192307692307692,-0.2507692307692308,-0.2907692307692309
-0.5035714285714286,-0.0485714285714285,-0.19285714285714284
-1.3091666666666666,0.0391666666666666,-0.1691666666666669
-3.234615384615384,-0.1469230769230769,-0.6123076923076924
-4.401666666666666,-1.1291666666666669,-0.7083333333333333
-4.377272727272727,-1.66,-0.25636363636363635
-4.175,-0.4925,0.4508333333333333
-3.5766666666666667,2.037333333333333,1.1253333333333333
-1.2433333333333334,3.843333333333333,-0.3608333333333331
2.507692307692308,3.603076923076924,-2.8215384615384616
6.693636363636363,0.8818181818181817,-4.816363636363636
9.256428571428572,-1.535,-4.2092857142857145
8.8075,-0.3066666666666666,-0.9891666666666667
6.820769230769231,2.3546153846153848,1.3746153846153846
2.938333333333333,3.534166666666667,2.1641666666666666
-0.032,2.709,2.421
-1.133846153846154,1.2623076923076924,2.4023076923076925
-1.2186666666666666,-1.928,2.389333333333333
-0.4566666666666666,-2.7375000000000003,3.345
0.0038461538461538,-2.413846153846154,4.073846153846154
0.3872727272727272,-1.3945454545454543,4.1472727272727266
0.4918181818181818,-0.3527272727272727,3.743636363636364
0.5606666666666666,-0.1513333333333333,2.968
0.6861538461538461,-0.1446153846153846,1.876153846153846
0.6149999999999999,-1.1908333333333332,1.1225
0.6218181818181818,-1.7645454545454546,0.7336363636363636
0.2607142857142857,-0.6164285714285714,1.3442857142857143
-0.4738461538461538,0.2569230769230769,2.744615384615385
-1.2991666666666666,-0.3558333333333333,4.249166666666667
-1.925384615384616,-1.4415384615384614,5.352307692307692
-2.2218181818181817,-1.6781818181818182,5.377272727272727
-2.057857142857143,-0.8314285714285715,3.7407142857142857
-1.505,0.3141666666666666,1.2458333333333333
-0.9738461538461538,1.123076923076923,-0.753076923076923
-0.1758333333333333,0.9758333333333332,-1.7974999999999999
0.7445454545454545,0.4436363636363636,-2.041818181818182
0.48,0.1715384615384615,-2.149230769230769
-1.8564285714285715,0.745,-2.272142857142857
-4.819999999999999,1.6375,-1.5474999999999999
-5.977692307692307,0.8769230769230768,0.1876923076923076
-4.495454545454546,-1.2445454545454546,1.4036363636363636
-1.1607692307692308,-2.436923076923077,0.34999999999999987
2.3446153846153845,-1.772307692307692,-1.8207692307692307
5.256923076923077,-0.3853846153846154,-3.167692307692308
6.111666666666667,0.195,-1.98
5.706363636363637,0.3509090909090909,0.20727272727272716
4.892857142857143,-0.1771428571428571,1.4992857142857143
3.786923076923077,-0.0646153846153846,1.8315384615384613
2.6791666666666667,-0.3308333333333333,1.3808333333333334
1.5992307692307692,-0.7623076923076924,1.5007692307692309
0.3181818181818182,-0.8772727272727273,2.2609090909090908
-1.3615384615384616,-0.5692307692307692,2.386923076923077
-1.4823076923076923,-0.2884615384615384,1.79
-0.53,-0.8715384615384616,2.3269230769230766
-0.0208333333333333,0.1074999999999999,2.9275
-0.1309090909090909,2.1509090909090904,3.0009090909090905
-0.2742857142857143,2.06,2.6714285714285717
-0.4869230769230769,0.6284615384615384,2.2215384615384615
-0.4975,0.2616666666666666,2.2266666666666666
-0.5707692307692308,0.8676923076923078,2.39076923076923
-0.7472727272727272,1.0454545454545454,2.5272727272727273
-0.9709090909090908,1.3145454545454545,2.678181818181818
-1.29,1.9006666666666667,2.778
-1.7376923076923076,2.3315384615384613,2.713846153846154
-1.6933333333333334,1.955833333333333,2.17
-1.217,1.082,1.4509999999999998
-1.052,0.34,0.7313333333333334
-1.1566666666666665,-0.1975,0.11499999999999988
-1.0892307692307692,-0.3515384615384616,-0.25230769230769234
-0.86,-0.36,-0.39923076923076906
-1.241,-0.366,-0.5389999999999999
-2.4481818181818182,-0.6463636363636364,-0.6454545454545453
-3.796875,-1.325625,-0.653125
-4.194615384615385,-1.6215384615384614,-0.24
-2.313333333333333,0.3783333333333333,-0.1416666666666666
0.914,2.721,-1.4449999999999998
4.656000000000001,2.996666666666667,-3.1133333333333333
7.553333333333334,1.7091666666666667,-4.46
6.712307692307693,0.2776923076923077,-2.44
4.248461538461539,0.8323076923076923,0.98
2.4690000000000003,2.479,2.646
1.189230769230769,3.166923076923077,3.256923076923077
0.2585714285714285,1.82,2.76
0.0699999999999999,-0.26,2.05
-0.0158333333333333,-2.021666666666667,1.5291666666666668
-0.143,-2.193,1.861
0.178,-1.165,2.653
1.0027777777777778,0.1261111111111111,3.447222222222222
1.7375,0.6483333333333333,3.5933333333333333
1.681818181818182,0.5054545454545455,3.04
1.3041666666666665,-0.0091666666666666,1.9908333333333332
0.8835714285714286,-1.4642857142857142,0.5285714285714286
0.3492307692307692,-2.33,0.6215384615384616
-0.2158333333333333,-0.8383333333333334,1.7850000000000001
-0.7392307692307691,-0.0261538461538461,3.306153846153846
-1.176,-0.146,4.142
-1.38,-0.58,4.339333333333334
-1.419090909090909,-1.2063636363636363,3.9681818181818183
-1.2042857142857142,-1.2814285714285716,3.2864285714285715
-0.9927272727272728,-0.7899999999999999,2.4727272727272727
-1.0091666666666663,-0.1608333333333333,1.5291666666666668
-1.279,0.721,0.13600000000000012
-1.54,1.1441176470588237,-0.7829411764705885
-1.2807692307692309,1.09,-1.1984615384615385
-0.97,1.0436363636363637,-1.2599999999999998
