accy,accz,accx
-0.01,-0.0075,1.04
-0.0046153846153846,-0.01,1.0384615384615383
-0.0066666666666666,-0.0166666666666666,1.0433333333333332
-0.005625,-0.0125,1.045625
-0.0072727272727272,-0.0027272727272727,1.04
-0.0042857142857142,-0.0035714285714285,1.045
-0.005,-0.0075,1.0425
0.0023076923076923,-0.01,1.0384615384615383
-0.0025,-0.01,1.045
-0.0053846153846153,-0.01,1.05
-0.01,-0.01,1.0425
-0.0041666666666666,-0.01,1.0391666666666666
-0.0027272727272727,-0.01,1.0427272727272727
-0.01,-0.0066666666666666,1.0453333333333332
-0.01,-0.01,1.04
-0.0084615384615384,-0.0007692307692307,1.0376923076923077
0.0075,-0.0075,1.0425
-0.0069230769230769,-0.0061538461538461,1.0384615384615383
-0.0075,-0.0025,1.03
-0.0078571428571428,-0.0092857142857142,1.0485714285714285
-0.0,-0.018,1.042
-0.005,-0.0135714285714285,1.04
-0.0166666666666666,-0.0066666666666666,1.04
-0.00625,-0.005625,1.045625
-0.0025,-0.0075,1.0375
-0.0053846153846153,-0.0023076923076923,1.0392307692307692
-0.0175,-0.0025,1.0475
-0.0053846153846153,-0.0053846153846153,1.0407692307692307
-0.0145454545454545,-0.01,1.0545454545454545
-0.0114285714285714,-0.01,1.0414285714285714
-0.01,-0.01,1.0375
-0.0061538461538461,-0.0023076923076923,1.0438461538461539
-0.0027272727272727,-0.0172727272727272,1.04
-0.0085714285714285,-0.0078571428571428,1.04
-0.0025,-0.0025,1.04
-0.0091666666666666,-0.0041666666666666,1.0441666666666667
-0.01,-0.0,1.0333333333333332
-0.0064285714285714,-0.005,1.04
-0.0025,-0.0025,1.05
-0.0069230769230769,-0.0015384615384615,1.0346153846153845
-0.0127272727272727,-0.0027272727272727,1.05
-0.0028571428571428,-0.0014285714285714,1.045
-0.0175,-0.0025,1.04
-0.0107692307692307,-0.0092307692307692,1.04
-0.01,-0.01,1.04
0.0023076923076923,-0.0023076923076923,1.0515384615384615
-0.0069230769230769,-0.01,1.04
-0.01,-0.0115384615384615,1.0438461538461539
-0.0025,-0.005,1.04
-0.0,-0.0092307692307692,1.04
-0.0072727272727272,-0.01,1.04
-0.0085714285714285,-0.01,1.0435714285714286
-0.0145454545454545,-0.0027272727272727,1.04
0.0028571428571428,-0.0035714285714285,1.045
-0.01,-0.0,1.0425
-0.0016666666666666,-0.005,1.0441666666666667
-0.01,-0.003076923076923,1.04
-0.01,-0.0,1.0492307692307692
-0.0027272727272727,-0.0072727272727272,1.05
-0.005,-0.01,1.0464285714285715
-0.01,-0.01,1.05
-0.0014285714285714,-0.01,1.045
-0.0,-0.0025,1.0475
-0.0023076923076923,-0.0092307692307692,1.0484615384615383
0.0025,-0.01,1.0475
-0.0038461538461538,-0.0061538461538461,1.0407692307692307
-0.0075,-0.01,1.04
-0.0007692307692307,-0.0084615384615384,1.0438461538461539
-0.0,-0.0072727272727272,1.0472727272727271
-0.0035714285714285,-0.0085714285714285,1.0442857142857143
-0.0072727272727272,-0.0072727272727272,1.0527272727272727
-0.0135714285714285,-0.01,1.0464285714285715
-0.01,-0.01,1.0425
-0.01,-0.0061538461538461,1.04
-0.01,-0.01,1.04
-0.0,-0.0141666666666666,1.0491666666666666
-0.0038461538461538,-0.01,1.0361538461538462
0.0015384615384615,-0.0046153846153846,1.0484615384615383
-0.01,-0.0,1.05
0.0007692307692307,-0.0115384615384615,1.046153846153846
0.0025,-0.0075,1.0425
-0.0053846153846153,-0.0023076923076923,1.0438461538461539
-0.01,-0.01,1.0475
-0.0023076923076923,-0.0046153846153846,1.05
-0.0027272727272727,-0.0072727272727272,1.05
-0.0035714285714285,-0.0085714285714285,1.05
-0.0,-0.0,1.05
-0.0,-0.0015384615384615,1.0423076923076924
-0.0,-0.0025,1.05
-0.0053846153846153,-0.0053846153846153,1.0446153846153845
-0.0025,-0.01,1.04
-0.0076923076923076,-0.0023076923076923,1.0438461538461539
-0.0,-0.01,1.04
-0.005,-0.01,1.0364285714285715
-0.0025,-0.01,1.04
-0.0115384615384615,-0.0123076923076923,1.0438461538461539
-0.0075,-0.0,1.0475
-0.0061538461538461,-0.0038461538461538,1.046153846153846
-0.0025,-0.0075,1.0425
-0.0115384615384615,-0.0061538461538461,1.0438461538461539
-0.0,-0.0027272727272727,1.0472727272727271
-0.0038461538461538,-0.0084615384615384,1.0415384615384615
-0.0,-0.01,1.0466666666666666
-0.005,-0.01,1.0464285714285715
-0.0025,-0.0025,1.05
-0.0136363636363636,-0.0045454545454545,1.05
-0.0,-0.0061538461538461,1.0361538461538462
-0.0084615384615384,-0.0061538461538461,1.04
-0.0166666666666666,-0.01,1.0466666666666666
-0.0064285714285714,-0.01,1.045
-0.0072727272727272,-0.01,1.04
-0.0,-0.0014285714285714,1.045
0.0027272727272727,-0.0072727272727272,1.05
-0.0085714285714285,-0.01,1.0464285714285715
-0.0025,-0.01,1.0425
-0.004,-0.005,1.045
-0.0014285714285714,-0.0042857142857142,1.0457142857142856
-0.0014285714285714,-0.0035714285714285,1.045
-0.01,-0.0072727272727272,1.0327272727272727
-0.01,-0.0064285714285714,1.0385714285714285
-0.01,-0.0172727272727272,1.04
-0.0064285714285714,-0.015,1.0435714285714286
-0.0027272727272727,-0.01,1.04
0.0061538461538461,-0.0092307692307692,1.0476923076923077
-0.0133333333333333,-0.0066666666666666,1.04
-0.0092307692307692,-0.013076923076923,1.04
-0.0066666666666666,-0.0,1.0466666666666666
-0.0107692307692307,-0.0076923076923076,1.0423076923076924
-0.0066666666666666,-0.0066666666666666,1.05
-0.0038461538461538,-0.01,1.0415384615384615
-0.0,-0.01,1.04
-0.0046153846153846,-0.013076923076923,1.0407692307692307
-0.01,-0.0066666666666666,1.05
0.0007142857142857,-0.0114285714285714,1.045
-0.0027272727272727,-0.0054545454545454,1.0472727272727271
-0.0076923076923076,-0.0076923076923076,1.046153846153846
-0.0066666666666666,-0.0,1.0433333333333332
-0.0061538461538461,-0.0007692307692307,1.0407692307692307
-0.004,-0.01,1.05
-0.004,-0.01,1.05
-0.0033333333333333,-0.0033333333333333,1.0433333333333332
-0.0028571428571428,-0.0085714285714285,1.0414285714285714
-0.0054545454545454,-0.01,1.05
-0.0085714285714285,-0.01,1.0485714285714285
-0.01,-0.0172727272727272,1.0327272727272727
-0.0053846153846153,-0.003076923076923,1.043076923076923
-0.0066666666666666,-0.0,1.0433333333333332
-0.0061538461538461,-0.0084615384615384,1.0407692307692307
-0.01,-0.0033333333333333,1.05
-0.0042857142857142,-0.01,1.045
-0.0054545454545454,-0.0054545454545454,1.04
-0.0121428571428571,-0.005,1.0435714285714286
-0.0027272727272727,-0.01,1.0327272727272727
-0.0046153846153846,-0.01,1.0392307692307692
-0.003076923076923,-0.01,1.043076923076923
-0.0174999999999999,-0.01,1.045
-0.01,-0.01,1.0566666666666666
-0.0061538461538461,-0.0061538461538461,1.0438461538461539
-0.01,-0.0033333333333333,1.0566666666666666
-0.01,-0.0038461538461538,1.0476923076923077
-0.01,-0.0066666666666666,1.0433333333333332
-0.0141666666666666,-0.01,1.0441666666666667
-0.0,-0.0038461538461538,1.05
-0.0084615384615384,-0.0046153846153846,1.046153846153846
-0.01,-0.01,1.05
-0.01,-0.0092307692307692,1.046153846153846
-0.01,-0.0066666666666666,1.0433333333333332
-0.0023076923076923,-0.0053846153846153,1.0438461538461539
-0.01,-0.0066666666666666,1.04
-0.0069230769230769,-0.01,1.0438461538461539
-0.0133333333333333,-0.0141666666666666,1.0466666666666666
-0.0058333333333333,-0.0016666666666666,1.0416666666666665
-0.0138461538461538,-0.0061538461538461,1.0338461538461539
-0.0092307692307692,-0.0023076923076923,1.0384615384615383
-0.0066666666666666,-0.0033333333333333,1.0466666666666666
-0.0092307692307692,-0.0053846153846153,1.0415384615384615
-0.0066666666666666,-0.0133333333333333,1.0466666666666666
-0.012,-0.01,1.052
-0.0173333333333333,-0.0153333333333333,1.04
-0.0076923076923076,-0.0115384615384615,1.0438461538461539
-0.01,-0.01,1.04
-0.0138461538461538,-0.013076923076923,1.0361538461538462
-0.01,-0.0066666666666666,1.04
-0.0092307692307692,-0.01,1.0438461538461539
-0.0066666666666666,-0.01,1.04
-0.01,-0.01,1.0445454545454544
-0.0135714285714285,-0.01,1.04
-0.0146153846153846,-0.01,1.0407692307692307
-0.0133333333333333,-0.01,1.05
-0.01,-0.0092307692307692,1.0415384615384615
-0.01,-0.0,1.04
-0.0069230769230769,-0.0038461538461538,1.0446153846153845
-0.0066666666666666,-0.0066666666666666,1.0433333333333332
-0.0038461538461538,-0.01,1.0446153846153845
-0.0,-0.01,1.0433333333333332
-0.0038461538461538,-0.0061538461538461,1.0407692307692307
-0.0133333333333333,-0.01,1.0433333333333332
-0.0107692307692307,-0.0092307692307692,1.0446153846153845
-0.0066666666666666,-0.0066666666666666,1.0433333333333332
-0.0145454545454545,-0.01,1.0354545454545454
-0.0042857142857142,-0.0157142857142857,1.04
-0.0041666666666666,-0.0075,1.04
-0.0038461538461538,-0.0061538461538461,1.0438461538461539
-0.0046153846153846,-0.01,1.04
-0.0033333333333333,-0.01,1.04
-0.0081818181818181,-0.0063636363636363,1.0354545454545454
0.005,-0.0092857142857142,1.0435714285714286
-0.0066666666666666,-0.0058333333333333,1.04
-0.0138461538461538,-0.0061538461538461,1.04
-0.01,-0.01,1.0441666666666667
-0.0161538461538461,-0.0038461538461538,1.046153846153846
0.0008333333333333,-0.0083333333333333,1.0458333333333334
-0.0,-0.0061538461538461,1.0438461538461539
-0.0041666666666666,-0.01,1.04
-0.01,-0.01,1.04
-0.009090909090909,-0.01,1.0445454545454544
-0.0071428571428571,-0.01,1.04
-0.01,-0.0018181818181818,1.04
-0.0041666666666666,-0.0091666666666666,1.0441666666666667
-0.0007142857142857,-0.0064285714285714,1.04
-0.0038461538461538,-0.0061538461538461,1.04
-0.0009090909090909,-0.0054545454545454,1.0445454545454544
-0.0064285714285714,-0.0007142857142857,1.0342857142857143
-0.0009090909090909,-0.0081818181818181,1.0372727272727271
-0.0142857142857142,-0.01,1.0428571428571427
-0.0036363636363636,-0.0054545454545454,1.0418181818181818
-0.0057142857142857,-0.0042857142857142,1.0457142857142856
-0.0054545454545454,-0.0045454545454545,1.0454545454545454
-0.0064285714285714,-0.0035714285714285,1.0464285714285715
-0.01,-0.0083333333333333,1.0458333333333334
-0.0161538461538461,-0.0,1.0361538461538462
-0.0081818181818181,-0.0036363636363636,1.048181818181818
-0.0057142857142857,-0.0007142857142857,1.0371428571428571
-0.0081818181818181,-0.0045454545454545,1.038181818181818
-0.01,-0.015,1.0492857142857142
-0.0063636363636363,-0.0036363636363636,1.0336363636363637
-0.0035714285714285,-0.0,1.0392857142857141
-0.0081818181818181,-0.0045454545454545,1.04
-0.0121428571428571,-0.0057142857142857,1.0435714285714286
-0.0081818181818181,-0.0109090909090909,1.04
-0.0038461538461538,-0.0,1.04
-0.0041666666666666,-0.0033333333333333,1.0433333333333332
-0.0057142857142857,-0.0042857142857142,1.0464285714285715
-0.0018181818181818,-0.0036363636363636,1.05
-0.0,-0.0061538461538461,1.0407692307692307
-0.0033333333333333,-0.0066666666666666,1.0441666666666667
0.005,-0.0071428571428571,1.0492857142857142
-0.0018181818181818,-0.0045454545454545,1.0454545454545454
-0.0061538461538461,-0.0038461538461538,1.0369230769230768
-0.01,-0.0075,1.0366666666666666
-0.0061538461538461,-0.0046153846153846,1.043076923076923
-0.0058333333333333,-0.0075,1.0325
-0.0061538461538461,-0.0046153846153846,1.0446153846153845
-0.0058333333333333,-0.0075,1.0425
-0.01,-0.0007142857142857,1.0342857142857143
0.003,-0.003,1.046
-0.0,-0.0085714285714285,1.0414285714285714
-0.01,-0.0033333333333333,1.0475
-0.0061538461538461,-0.0046153846153846,1.0407692307692307
-0.0075,-0.0075,1.0441666666666667
-0.01,-0.0007692307692307,1.0361538461538462
-0.0058333333333333,-0.0075,1.04
-0.01,-0.01,1.04
-0.01,-0.0058333333333333,1.0408333333333333
-0.01,-0.0042857142857142,1.0392857142857141
-0.009090909090909,-0.0036363636363636,1.04
-0.0069230769230769,-0.01,1.0415384615384615
-0.0066666666666666,-0.0091666666666666,1.0466666666666666
-0.0046153846153846,-0.0107692307692307,1.04
-0.0,-0.01,1.0366666666666666
-0.0,-0.0153846153846153,1.043076923076923
-0.0075,-0.005,1.0441666666666667
0.0007692307692307,0.0038461538461538,1.04
0.0025,-0.0,1.0433333333333332
-0.0015384615384615,-0.0053846153846153,1.05
-0.0027272727272727,-0.0081818181818181,1.0454545454545454
-0.01,-0.0114285714285714,1.045
-0.0091666666666666,-0.0058333333333333,1.0433333333333332
-0.0038461538461538,-0.01,1.0353846153846153
-0.0075,-0.0108333333333333,1.0375
-0.0008333333333333,-0.0041666666666666,1.0358333333333334
-0.0076923076923076,-0.0107692307692307,1.04
-0.0038461538461538,-0.01,1.0438461538461539
-0.0,-0.0066666666666666,1.0433333333333332
0.0053846153846153,-0.0053846153846153,1.0407692307692307
-0.0,-0.01,1.039090909090909
-0.0014285714285714,-0.01,1.032142857142857
-0.0,-0.0054545454545454,1.0418181818181818
-0.0135714285714285,-0.005,1.04
-0.005,-0.0,1.04
0.0107692307692307,-0.0092307692307692,1.04
0.005,-0.0066666666666666,1.04
-0.0041666666666666,-0.005,1.04
-0.0061538461538461,-0.013076923076923,1.0361538461538462
-0.0069230769230769,-0.0015384615384615,1.0438461538461539
-0.0009090909090909,-0.0072727272727272,1.0445454545454544
-0.0138461538461538,-0.0092307692307692,1.0438461538461539
-0.003076923076923,-0.003076923076923,1.0361538461538462
-0.0076923076923076,-0.0061538461538461,1.04
-0.0018181818181818,-0.0145454545454545,1.0445454545454544
0.0015384615384615,-0.01,1.0438461538461539
-0.0007692307692307,-0.01,1.043076923076923
-0.0084615384615384,-0.0046153846153846,1.0438461538461539
-0.0072727272727272,-0.0045454545454545,1.0372727272727271
-0.0085714285714285,-0.01,1.0435714285714286
-0.0027272727272727,-0.0127272727272727,1.0454545454545454
-0.0035714285714285,-0.01,1.045
-0.0045454545454545,-0.0072727272727272,1.04
-0.0046153846153846,-0.0046153846153846,1.0484615384615383
-0.0075,-0.0075,1.05
-0.0038461538461538,-0.0084615384615384,1.0415384615384615
-0.0066666666666666,-0.01,1.0425
-0.0015384615384615,-0.01,1.0423076923076924
-0.0041666666666666,-0.01,1.0433333333333332
-0.0084615384615384,-0.0138461538461538,1.0484615384615383
-0.01,-0.0116666666666666,1.0475
-0.0135714285714285,-0.0085714285714285,1.04
-0.0045454545454545,-0.01,1.0445454545454544
-0.0071428571428571,-0.0064285714285714,1.035
-0.0027272727272727,-0.01,1.0372727272727271
0.0038461538461538,-0.01,1.0361538461538462
-0.0,-0.0169230769230769,1.0361538461538462
-0.0038461538461538,-0.0161538461538461,1.0492307692307692
-0.0008333333333333,-0.0083333333333333,1.0425
-0.003076923076923,-0.0046153846153846,1.0453846153846154
0.0041666666666666,-0.0041666666666666,1.0466666666666666
-0.0092307692307692,-0.0092307692307692,1.0492307692307692
-0.0025,-0.0058333333333333,1.0425
-0.0092307692307692,-0.0153846153846153,1.04
-0.0,-0.0127272727272727,1.04
-0.003076923076923,-0.01,1.04
-0.0008333333333333,-0.0041666666666666,1.0433333333333332
-0.0084615384615384,-0.0,1.0438461538461539
-0.0058333333333333,-0.0066666666666666,1.0375
0.003076923076923,-0.0053846153846153,1.0384615384615383
0.0058333333333333,-0.0066666666666666,1.0333333333333332
-0.0023076923076923,-0.0053846153846153,1.043076923076923
-0.0,-0.0091666666666666,1.05
-0.0038461538461538,-0.0115384615384615,1.0415384615384615
-0.0025,-0.01,1.0425
-0.0061538461538461,-0.0107692307692307,1.0415384615384615
-0.003076923076923,-0.0061538461538461,1.033076923076923
-0.0,-0.0053846153846153,1.043076923076923
-0.0,-0.0145454545454545,1.0427272727272727
-0.0,-0.01,1.0415384615384615
0.0041666666666666,-0.01,1.04
0.0046153846153846,-0.0061538461538461,1.0484615384615383
0.005,-0.0058333333333333,1.0475
-0.0053846153846153,-0.0053846153846153,1.0407692307692307
-0.0,-0.0066666666666666,1.0391666666666666
0.0046153846153846,-0.0138461538461538,1.04
0.0058333333333333,-0.01,1.0466666666666666
0.0015384615384615,-0.0092307692307692,1.0369230769230768
-0.0,-0.0066666666666666,1.0391666666666666
0.0084615384615384,-0.0053846153846153,1.0423076923076924
0.0033333333333333,-0.0,1.0433333333333332
-0.0053846153846153,-0.0,1.04
0.0008333333333333,-0.0066666666666666,1.04
-0.0,-0.0146153846153846,1.0353846153846153
0.0025,-0.0133333333333333,1.0325
0.01,-0.0053846153846153,1.0476923076923077
0.0016666666666666,-0.0091666666666666,1.0425
0.0023076923076923,-0.0161538461538461,1.046153846153846
0.0058333333333333,-0.0066666666666666,1.045
0.0015384615384615,-0.0084615384615384,1.0469230769230768
-0.0,-0.01,1.0433333333333332
0.0046153846153846,-0.01,1.0446153846153845
0.0033333333333333,-0.0058333333333333,1.0475
0.0046153846153846,-0.01,1.0492307692307692
0.0058333333333333,-0.0083333333333333,1.0491666666666666
0.0015384615384615,-0.0115384615384615,1.0415384615384615
0.0025,-0.0075,1.04
-0.003076923076923,-0.0084615384615384,1.0353846153846153
-0.005,-0.0033333333333333,1.0341666666666667
0.0007692307692307,-0.0084615384615384,1.0469230769230768
-0.0016666666666666,-0.01,1.0433333333333332
0.003076923076923,-0.01,1.04
0.0075,-0.01,1.04
-0.0,-0.005,1.04
0.0018181818181818,-0.0,1.04
-0.0015384615384615,-0.0084615384615384,1.04
-0.0,-0.0016666666666666,1.04
0.0046153846153846,-0.0061538461538461,1.04
0.003076923076923,-0.01,1.04
0.0041666666666666,-0.01,1.0491666666666666
0.0066666666666666,-0.0124999999999999,1.0433333333333332
0.0069230769230769,-0.0161538461538461,1.0484615384615383
0.0025,-0.0158333333333333,1.0433333333333332
0.0038461538461538,-0.0115384615384615,1.0438461538461539
-0.0038461538461538,-0.003076923076923,1.0438461538461539
-0.0041666666666666,-0.0091666666666666,1.04
-0.0027272727272727,-0.0118181818181818,1.0463636363636364
0.0057142857142857,-0.0157142857142857,1.042142857142857
-0.0,-0.0124999999999999,1.0466666666666666
-0.0,-0.0153846153846153,1.0369230769230768
-0.0,-0.0058333333333333,1.0408333333333333
-0.0007692307692307,-0.0053846153846153,1.0438461538461539
-0.01,-0.0066666666666666,1.0466666666666666
0.0023076923076923,-0.01,1.0415384615384615
-0.003076923076923,-0.01,1.0438461538461539
-0.0058333333333333,-0.0058333333333333,1.0483333333333333
-0.003,-0.011,1.045
0.0033333333333333,-0.0166666666666666,1.0433333333333332
0.0033333333333333,-0.0116666666666666,1.0466666666666666
0.0046153846153846,-0.0115384615384615,1.05
0.0058333333333333,-0.01,1.0475
0.0014285714285714,-0.005,1.0485714285714285
-0.0,-0.0041666666666666,1.0458333333333334
-0.005,-0.0091666666666666,1.045
-0.0033333333333333,-0.0124999999999999,1.0425
-0.0046153846153846,-0.0153846153846153,1.0415384615384615
0.0045454545454545,-0.0081818181818181,1.0418181818181818
0.0042857142857142,-0.0114285714285714,1.042142857142857
-0.0,-0.0124999999999999,1.0425
-0.0046153846153846,-0.0115384615384615,1.046153846153846
-0.0033333333333333,-0.01,1.0433333333333332
-0.0,-0.01,1.0361538461538462
-0.0025,-0.01,1.0441666666666667
-0.0023076923076923,-0.0146153846153846,1.0438461538461539
-0.0033333333333333,-0.0133333333333333,1.04
-0.0,-0.0138461538461538,1.0492307692307692
-0.0,-0.0058333333333333,1.0466666666666666
-0.0084615384615384,-0.01,1.04
-0.0033333333333333,-0.01,1.0383333333333333
-0.0038461538461538,-0.01,1.0453846153846154
-0.0066666666666666,-0.0141666666666666,1.04
-0.0015384615384615,-0.01,1.0492307692307692
-0.005,-0.0124999999999999,1.0533333333333332
-0.0078571428571428,-0.0114285714285714,1.0414285714285714
-0.0,-0.0072727272727272,1.04
-0.003076923076923,-0.013076923076923,1.0407692307692307
-0.0033333333333333,-0.0108333333333333,1.05
0.0038461538461538,-0.0084615384615384,1.0453846153846154
-0.0,-0.01,1.0466666666666666
-0.0,-0.0053846153846153,1.046153846153846
-0.0041666666666666,-0.0066666666666666,1.0475
-0.0038461538461538,-0.01,1.0484615384615383
-0.0,-0.0083333333333333,1.0475
-0.0,-0.0076923076923076,1.0484615384615383
-0.0038461538461538,-0.0092307692307692,1.0469230769230768
0.005,-0.0058333333333333,1.045
0.009,-0.006,1.045
-0.0,-0.01,1.0426666666666666
0.0041666666666666,-0.0033333333333333,1.0508333333333333
0.0035714285714285,-0.0085714285714285,1.0464285714285715
-0.0027272727272727,-0.0072727272727272,1.05
-0.0028571428571428,-0.0,1.045
-0.0027272727272727,-0.0072727272727272,1.0427272727272727
-0.0046153846153846,-0.01,1.0453846153846154
-0.0083333333333333,-0.01,1.0416666666666665
0.0053846153846153,-0.0053846153846153,1.046153846153846
0.013,-0.005,1.044
-0.00625,-0.0075,1.044375
-0.0072727272727272,-0.0072727272727272,1.0472727272727271
-0.0015384615384615,-0.0123076923076923,1.04
-0.005,-0.0075,1.0425
0.0007692307692307,-0.0084615384615384,1.0415384615384615
0.0041666666666666,-0.01,1.0425
-0.0007692307692307,-0.0146153846153846,1.046153846153846
-0.0058333333333333,-0.0174999999999999,1.0433333333333332
-0.0015384615384615,-0.01,1.0446153846153845
-0.0083333333333333,-0.0124999999999999,1.05
-0.0046153846153846,-0.0115384615384615,1.0415384615384615
-0.01,-0.01,1.04
-0.0007692307692307,-0.0061538461538461,1.0492307692307692
-0.005,-0.0141666666666666,1.0574999999999999
0.0084615384615384,-0.01,1.05
0.005,-0.0124999999999999,1.0408333333333333
-0.0053846153846153,-0.0107692307692307,1.0423076923076924
-0.0108333333333333,-0.0066666666666666,1.0425
-0.0053846153846153,-0.0053846153846153,1.05
-0.0,-0.0066666666666666,1.05
-0.0,-0.01,1.046153846153846
-0.0,-0.0033333333333333,1.05
-0.0046153846153846,-0.0092307692307692,1.0415384615384615
-0.0033333333333333,-0.0158333333333333,1.04
-0.0046153846153846,-0.0069230769230769,1.0438461538461539
-0.004,-0.006,1.04
-0.005625,-0.005625,1.039375
-0.0,-0.0027272727272727,1.038181818181818
-0.0084615384615384,-0.01,1.0415384615384615
-0.0054545454545454,-0.01,1.04
-0.0064285714285714,-0.0107142857142857,1.0435714285714286
-0.0075,-0.0158333333333333,1.0441666666666667
0.005,-0.0114285714285714,1.045
0.0027272727272727,-0.01,1.0472727272727271
-0.0,-0.01,1.0438461538461539
0.0025,-0.01,1.0441666666666667
0.0015384615384615,-0.01,1.0438461538461539
-0.0,-0.0124999999999999,1.04
0.0038461538461538,-0.0069230769230769,1.0438461538461539
-0.0,-0.0063636363636363,1.04
-0.0042857142857142,-0.01,1.0435714285714286
-0.0016666666666666,-0.0141666666666666,1.0466666666666666
0.0021428571428571,-0.0085714285714285,1.0464285714285715
-0.0,-0.0072727272727272,1.05
-0.003076923076923,-0.01,1.05
0.0058333333333333,-0.01,1.0458333333333334
0.0061538461538461,-0.0053846153846153,1.0453846153846154
0.0075,-0.0108333333333333,1.0466666666666666
