accy,accz,accx,gyroy,gyroz,gyrox
-1.1358333333333333,0.8516666666666667,-0.155,0.6166666666666667,0.0058333333333333,0.2641666666666666
-0.7878571428571428,1.740714285714286,-0.9164285714285716,0.6407142857142858,0.2271428571428571,0.1328571428571428
-1.0436363636363637,1.6109090909090908,-0.1663636363636363,0.5436363636363637,0.3927272727272727,0.1018181818181818
-1.3215384615384616,0.9123076923076924,1.060769230769231,0.4615384615384615,0.3284615384615384,0.04
-1.3735714285714289,0.0399999999999999,1.7964285714285713,0.4257142857142857,0.1428571428571428,-0.0678571428571428
-1.0683333333333331,-0.3,1.85,0.3908333333333333,0.02,-0.1533333333333333
-0.6781818181818182,-0.1890909090909091,1.1845454545454546,0.3727272727272727,0.0272727272727272,-0.1909090909090909
-0.7042857142857143,-0.2314285714285714,0.2778571428571428,0.44,0.0128571428571428,-0.2342857142857143
-0.7045454545454546,0.1636363636363636,-0.7036363636363636,0.4799999999999999,-0.0236363636363636,-0.2581818181818182
-0.2715384615384615,0.4415384615384615,-1.4446153846153846,0.4938461538461538,0.0707692307692307,-0.1953846153846153
0.0275,0.9166666666666666,-2.2175,0.5258333333333334,0.2475,-0.0475
-0.2708333333333333,1.6258333333333332,-2.8641666666666663,0.4766666666666666,0.42,0.0575
-0.905,1.5635714285714286,-3.240714285714286,0.4321428571428571,0.4357142857142856,0.1128571428571428
-1.4469230769230768,1.1415384615384616,-3.4630769230769234,0.3807692307692308,0.3461538461538461,0.1692307692307692
-0.8890909090909092,0.75,-3.1236363636363635,0.3645454545454545,0.3190909090909091,0.26
-0.3835714285714285,0.535,-2.6914285714285717,0.3235714285714285,0.3007142857142857,0.2885714285714286
-0.1075,-0.2358333333333333,-2.599166666666666,0.335,0.2883333333333333,0.3366666666666666
-0.0369230769230769,-0.4446153846153846,-2.6623076923076923,0.3123076923076923,0.2946153846153846,0.3592307692307692
0.0054545454545454,-0.2636363636363636,-2.787272727272727,0.2590909090909091,0.2490909090909091,0.39
0.1642857142857142,-0.0178571428571428,-2.5228571428571427,0.2071428571428571,0.1992857142857143,0.3714285714285714
0.7300000000000001,0.1809090909090909,-1.8945454545454543,0.1572727272727272,0.2127272727272727,0.2909090909090909
1.2535714285714286,0.1371428571428571,-1.085714285714286,0.1364285714285714,0.305,0.1485714285714285
1.0825,0.1275,-0.0725,0.0766666666666666,0.3341666666666666,0.0124999999999999
0.5269230769230769,0.01,0.6815384615384615,-0.0207692307692307,0.2223076923076923,-0.09
0.5654545454545455,-0.019090909090909,0.9527272727272728,-0.0827272727272727,0.079090909090909,-0.1527272727272727
0.9778571428571428,0.0657142857142857,1.1407142857142856,-0.1157142857142857,-0.0457142857142857,-0.2064285714285714
1.6436363636363638,0.0736363636363636,1.270909090909091,-0.1345454545454545,-0.1318181818181818,-0.2399999999999999
1.9392857142857145,-0.0421428571428571,1.2935714285714286,-0.1507142857142857,-0.19,-0.2292857142857143
1.858181818181818,0.0381818181818181,1.4072727272727272,-0.1745454545454545,-0.1981818181818182,-0.1772727272727272
1.46,0.2772727272727273,1.4654545454545456,-0.1945454545454545,-0.0818181818181818,-0.1054545454545454
0.6666666666666666,0.8200000000000001,1.7266666666666666,-0.2486666666666666,0.1473333333333333,-0.064
0.2783333333333333,0.8608333333333333,2.74,-0.2408333333333333,0.2183333333333333,-0.0091666666666666
-0.0375,0.9025,3.6475,-0.205,0.22,0.0558333333333333
-0.9292857142857144,0.2971428571428571,3.562142857142857,-0.1092857142857142,0.2164285714285714,0.1285714285714286
-2.511,0.648,2.696,-0.048,0.128,0.044
-3.5685714285714285,1.0178571428571428,2.182857142857143,-0.1571428571428571,-0.0892857142857142,-0.1528571428571428
-3.26,-0.0249999999999999,1.7300000000000002,-0.2441666666666666,-0.3066666666666667,-0.2058333333333333
-2.2484615384615383,-1.046923076923077,1.4092307692307693,-0.2146153846153846,-0.3661538461538461,-0.1261538461538461
-1.285,-0.82,1.2375,-0.1866666666666666,-0.2941666666666667,-0.0775
-0.8023076923076923,0.0146153846153846,1.003076923076923,-0.2453846153846153,-0.2284615384615384,-0.1323076923076923
-0.3623076923076923,0.2299999999999999,0.8023076923076923,-0.3353846153846154,-0.2184615384615384,-0.1269230769230769
0.1038461538461538,0.6276923076923077,0.6869230769230769,-0.4576923076923077,-0.1869230769230769,-0.0415384615384615
0.0372727272727272,1.0218181818181815,0.2245454545454545,-0.6618181818181817,-0.1845454545454545,-0.0181818181818181
-0.2807142857142857,0.4857142857142857,-0.5057142857142857,-0.7464285714285713,-0.1521428571428571,-0.0292857142857142
-0.3854545454545455,-0.5727272727272728,-1.5627272727272727,-0.7127272727272728,-0.0518181818181818,-0.0054545454545454
-0.29,-1.2771428571428571,-2.251428571428572,-0.5728571428571428,0.0978571428571428,0.0364285714285714
-0.53,-1.4236363636363636,-2.855454545454545,-0.4809090909090909,0.1845454545454545,0.0236363636363636
-1.0230769230769232,-1.522307692307692,-3.3092307692307696,-0.4369230769230769,0.1646153846153846,-0.0215384615384615
-1.05,-1.43,-3.6633333333333336,-0.3575,0.1591666666666666,-0.0441666666666666
-0.8200000000000001,-0.8769230769230769,-3.4038461538461537,-0.3292307692307692,0.1715384615384615,-0.0561538461538461
-0.4946153846153845,-0.2923076923076923,-2.6584615384615384,-0.3484615384615385,0.19,-0.0707692307692307
-0.4192307692307692,0.1415384615384615,-2.143076923076923,-0.3869230769230769,0.1853846153846154,-0.0523076923076923
-0.4436363636363636,-0.2145454545454545,-2.016363636363636,-0.3281818181818182,0.1290909090909091,-0.0327272727272727
-0.5607142857142857,-0.38,-1.95,-0.2842857142857143,-0.0407142857142857,-0.0321428571428571
-0.3481818181818182,-0.4390909090909091,-2.000909090909091,-0.2781818181818182,-0.1854545454545454,-0.0336363636363636
0.1271428571428571,-0.6057142857142858,-2.145,-0.2614285714285714,-0.2435714285714285,-0.0621428571428571
0.8054545454545454,-0.8472727272727273,-2.0436363636363635,-0.2327272727272727,-0.1981818181818182,-0.06
1.1769230769230767,-0.9523076923076922,-1.6453846153846154,-0.1692307692307692,-0.1738461538461538,0.0
1.3083333333333331,-0.7558333333333334,-1.2291666666666667,-0.085,-0.2058333333333333,0.0808333333333333
1.4875,-0.6675,-1.0075,0.0308333333333333,-0.1791666666666666,0.1658333333333333
1.6146153846153848,-0.6538461538461539,-0.2523076923076923,0.1376923076923077,-0.0723076923076923,0.2453846153846153
1.5557142857142858,-0.525,0.8378571428571429,0.205,0.0192857142857142,0.3207142857142857
1.295,-0.3216666666666666,1.6083333333333334,0.2533333333333333,0.015,0.3633333333333333
1.1625,-0.1816666666666666,1.9258333333333333,0.2791666666666667,-0.0283333333333333,0.3483333333333333
0.7793333333333333,-0.7206666666666667,2.0886666666666667,0.3113333333333333,0.088,0.1793333333333333
0.0472727272727272,-1.43,2.5345454545454547,0.3572727272727272,0.2772727272727273,0.0636363636363636
-0.4883333333333333,-1.3983333333333334,4.5025,0.3608333333333333,0.2725,0.0191666666666666
-0.8476923076923076,-0.1784615384615384,6.033846153846154,0.2607692307692307,0.1592307692307692,-0.0684615384615384
-1.2636363636363637,1.130909090909091,5.5181818181818185,0.0372727272727272,-0.0045454545454545,-0.1709090909090909
-1.4476923076923076,0.9346153846153846,3.3546153846153848,-0.1153846153846153,-0.0792307692307692,-0.0438461538461538
-1.8207142857142853,0.1442857142857143,0.5314285714285714,-0.0057142857142857,0.0014285714285714,0.2935714285714286
-1.923333333333333,0.5041666666666667,-0.5975,0.2133333333333333,0.1341666666666666,0.4183333333333333
-1.8063636363636364,1.1063636363636364,0.1918181818181818,0.3399999999999999,0.1981818181818182,0.4818181818181818
-2.012142857142857,1.3285714285714287,1.3357142857142856,0.375,0.1435714285714286,0.5278571428571429
-2.601,1.237,1.88,0.3379999999999999,0.011,0.492
-3.035625,0.774375,1.7025,0.285625,-0.205,0.420625
-2.489,0.233,1.232,0.25,-0.404,0.376
-1.4814285714285715,-0.2107142857142857,0.6207142857142858,0.2485714285714285,-0.4778571428571428,0.285
-0.3507142857142857,-0.5392857142857143,-0.2928571428571428,0.3335714285714286,-0.4228571428571429,0.2107142857142857
0.2863636363636364,-0.3781818181818182,-1.1272727272727272,0.4536363636363636,-0.2945454545454545,0.1636363636363636
0.635,0.4666666666666667,-2.0316666666666667,0.4566666666666666,-0.0866666666666666,0.0925
0.5646153846153846,0.4676923076923077,-2.8430769230769237,0.4161538461538461,0.1153846153846153,-0.0146153846153846
0.0684615384615384,-0.35,-3.44,0.4692307692307692,0.213076923076923,0.0061538461538461
-0.495,-0.675,-3.775,0.524,0.189,0.051
-0.6475,-0.60625,-4.20125,0.541875,0.1543749999999999,0.0425
-0.5418181818181819,-0.4536363636363636,-4.428181818181819,0.53,0.1936363636363636,-0.0336363636363636
-0.2815384615384615,-0.2184615384615384,-4.003846153846154,0.4946153846153845,0.2638461538461538,-0.1169230769230769
-0.14,-0.2781818181818182,-3.061818181818182,0.4754545454545454,0.2936363636363636,-0.1409090909090909
-0.1108333333333333,-0.1591666666666666,-1.4358333333333333,0.4433333333333333,0.2508333333333333,-0.1233333333333333
-0.5257142857142857,0.3535714285714286,-0.2364285714285714,0.3457142857142857,0.0971428571428571,-0.1214285714285714
-0.8958333333333334,0.2683333333333333,0.325,0.2908333333333333,-0.0475,-0.0941666666666666
-0.7753846153846153,0.2053846153846154,0.4353846153846153,0.26,-0.1576923076923077,-0.0984615384615384
-0.4845454545454545,0.6845454545454546,0.2918181818181818,0.1845454545454545,-0.2463636363636363,-0.1236363636363636
-0.0407692307692307,0.8361538461538461,0.0646153846153846,0.103076923076923,-0.3015384615384615,-0.1538461538461538
0.4127272727272727,0.6081818181818182,-0.1527272727272727,0.0781818181818181,-0.3327272727272727,-0.1736363636363636
0.7633333333333333,0.7353333333333333,-0.0673333333333333,0.0453333333333333,-0.3013333333333333,-0.1813333333333333
0.9772727272727272,0.8572727272727273,0.0990909090909091,-0.0327272727272727,-0.22,-0.1890909090909091
0.9942857142857144,0.7699999999999999,0.1035714285714285,-0.1021428571428571,-0.1678571428571428,-0.2442857142857142
0.9436363636363636,0.4054545454545454,0.0045454545454545,-0.1281818181818182,-0.1490909090909091,-0.3272727272727272
1.06,0.152,-0.242,-0.1129999999999999,-0.123,-0.371
1.1166666666666667,0.026,-0.2333333333333333,-0.11,-0.1326666666666666,-0.4493333333333333
1.3013333333333332,-0.098,0.2266666666666666,-0.1253333333333333,-0.1526666666666666,-0.5006666666666667
1.364,-0.061,0.6729999999999999,-0.135,-0.153,-0.516
1.3342857142857143,0.0892857142857142,0.96,-0.15,-0.1242857142857142,-0.5057142857142857
0.7599999999999999,0.6454545454545454,1.098181818181818,-0.2045454545454545,0.0254545454545454,-0.4190909090909091
0.0099999999999999,0.7657142857142858,1.9942857142857144,-0.2321428571428571,0.0871428571428571,-0.3257142857142857
-0.2216666666666666,0.3183333333333333,4.258333333333333,-0.1433333333333333,-0.035,-0.2575
-0.0838461538461538,5.337610695313253e-19,5.194615384615385,0.0246153846153846,-0.0361538461538461,-0.0938461538461538
-0.39,0.6318181818181817,3.786363636363636,0.1427272727272727,0.1009090909090909,0.0363636363636363
-1.4453846153846153,1.5692307692307694,2.002307692307693,0.1276923076923077,0.1523076923076923,0.01
-1.9908333333333332,1.8441666666666665,0.9533333333333333,-0.02,0.0841666666666666,-0.115
-2.075,0.7035714285714285,0.4514285714285714,-0.2314285714285714,-0.0285714285714285,-0.235
-1.8325,-1.35,0.2016666666666666,-0.2758333333333334,-0.0275,-0.2191666666666666
-1.5608333333333333,-2.1566666666666667,0.1883333333333333,-0.2308333333333333,0.0741666666666666,-0.18
-1.5775,-1.915,0.155,-0.18,0.12875,-0.26375
-1.6817647058823528,-1.0429411764705885,-0.0423529411764705,-0.1841176470588235,0.0641176470588235,-0.3511764705882352
-1.0084615384615383,-0.19,0.1015384615384615,-0.2876923076923077,-0.0992307692307692,-0.2107692307692308
-0.1523076923076923,0.5238461538461539,0.373076923076923,-0.4169230769230769,-0.1423076923076923,-0.0684615384615384
0.0445454545454545,0.9354545454545454,0.3190909090909091,-0.5372727272727272,-0.0972727272727272,-0.0154545454545454
-0.0285714285714285,0.8964285714285715,-0.1885714285714285,-0.585,-0.0542857142857142,0.1507142857142857
-0.1363636363636363,0.6945454545454545,-1.1627272727272728,-0.6172727272727273,0.0081818181818181,0.2663636363636363
-0.1857142857142857,0.4164285714285714,-1.9564285714285716,-0.6635714285714285,0.0485714285714285,0.2735714285714286
-0.2425,-0.5816666666666667,-2.905,-0.71,0.065,0.2783333333333333
-0.2546153846153846,-1.62,-3.880769230769231,-0.6484615384615384,0.1223076923076923,0.2661538461538461
-0.2172727272727272,-2.2354545454545454,-4.270909090909091,-0.5336363636363637,0.2309090909090909,0.1772727272727272
-0.1157142857142857,-2.2071428571428573,-4.269285714285714,-0.4207142857142857,0.36,0.0849999999999999
-0.1916666666666666,-1.6875,-3.5341666666666662,-0.3366666666666666,0.4391666666666666,0.0391666666666666
-0.4323076923076923,-0.7861538461538462,-2.537692307692308,-0.3253846153846154,0.4192307692307692,0.0138461538461538
-0.729090909090909,-0.43,-1.4809090909090907,-0.2836363636363636,0.3081818181818181,-0.0309090909090909
-0.8138461538461539,-0.3584615384615385,-0.9046153846153846,-0.2661538461538461,0.1553846153846154,-0.0515384615384615
-0.4961538461538461,-0.963846153846154,-0.8661538461538462,-0.2030769230769231,0.0376923076923076,-0.0423076923076923
0.0961538461538461,-1.2538461538461538,-0.8715384615384616,-0.1015384615384615,0.0084615384615384,-0.03
0.3781818181818182,-0.7281818181818182,-0.7390909090909091,-0.0554545454545454,-0.0018181818181818,-0.0272727272727272
0.3993333333333334,-0.4273333333333333,-0.46,-0.026,-0.024,0.0213333333333333
0.0166666666666666,-0.3825,-0.7466666666666667,0.035,-0.1283333333333333,0.0349999999999999
-0.0333333333333333,-1.2300000000000002,-1.2950000000000002,0.1466666666666666,-0.285,0.0183333333333333
1.0285714285714287,-2.025,-0.7335714285714285,0.2664285714285714,-0.2907142857142857,0.1492857142857142
1.641,-1.907,-0.123,0.373,-0.152,0.266
1.8228571428571427,-0.9942857142857144,0.0542857142857142,0.4235714285714285,-0.0457142857142857,0.2635714285714286
1.8983333333333332,-0.3424999999999999,0.3275,0.3991666666666666,0.0533333333333333,0.2766666666666666
1.5745454545454545,-0.0654545454545454,1.3918181818181816,0.3372727272727273,0.21,0.2581818181818182
0.956,0.096,2.934,0.285,0.359,0.203
0.0546666666666666,0.2339999999999999,5.097333333333333,0.2306666666666666,0.384,0.1233333333333333
-0.923,0.35,6.7170000000000005,0.126,0.237,0.112
-0.9875,0.375,5.860625,-0.035,-0.011875,-0.02375
-0.6192857142857143,-0.4964285714285714,4.1657142857142855,-0.1442857142857143,-0.2114285714285714,-0.0171428571428571
-0.59,-1.09,3.11,-0.0933333333333333,-0.23,0.0633333333333333
-1.0209523809523808,-1.248095238095238,1.606190476190476,0.0723809523809523,-0.1952380952380952,0.1747619047619047
-1.5166666666666666,-0.1141666666666666,0.3899999999999999,0.2616666666666666,-0.1633333333333333,0.3791666666666666
-1.461666666666667,0.9475,0.0516666666666666,0.3075,-0.1125,0.505
-1.5475,1.4349999999999998,0.1425,0.2958333333333333,-0.06,0.4825
-2.0584615384615383,1.2507692307692309,0.2638461538461538,0.2676923076923077,-0.0876923076923077,0.4284615384615385
-2.35,0.9766666666666668,0.3666666666666667,0.2166666666666666,-0.1575,0.3933333333333333
-2.3357142857142854,0.5857142857142856,0.625,0.1942857142857143,-0.1999999999999999,0.3464285714285714
-2.3227272727272728,0.3427272727272727,0.9772727272727272,0.2227272727272727,-0.2345454545454545,0.3045454545454545
-2.107142857142857,0.2421428571428571,1.1892857142857145,0.2821428571428571,-0.2871428571428572,0.2528571428571428
-1.5024999999999995,0.755,1.3,0.325,-0.3233333333333333,0.2208333333333333
-0.7638461538461538,1.0946153846153843,1.1115384615384616,0.3184615384615384,-0.2861538461538461,0.1361538461538461
-0.4954545454545455,0.6636363636363637,0.4309090909090909,0.3081818181818181,-0.1899999999999999,0.0954545454545454
-0.7964285714285715,-0.1171428571428571,-0.5685714285714286,0.3471428571428571,-0.1135714285714285,0.1064285714285714
-1.1357142857142857,-0.5642857142857143,-2.025,0.3442857142857143,-0.0971428571428571,0.0021428571428571
-0.88,-0.9245454545454546,-3.321818181818182,0.3763636363636363,-0.0318181818181818,-0.1118181818181818
-0.3418181818181818,-1.1463636363636365,-4.118181818181818,0.4909090909090909,0.0281818181818181,-0.1963636363636363
0.1064285714285714,-0.8814285714285715,-4.572857142857143,0.5585714285714286,0.0807142857142857,-0.2835714285714285
0.4463636363636363,-0.6127272727272728,-4.865454545454545,0.5409090909090909,0.1827272727272727,-0.3163636363636363
0.648,-0.3873333333333333,-4.859333333333334,0.4733333333333333,0.2693333333333333,-0.3753333333333333
0.7345454545454545,-0.8763636363636365,-4.642727272727273,0.4663636363636363,0.3372727272727273,-0.3872727272727272
0.63,-1.033846153846154,-4.308461538461539,0.4646153846153846,0.3615384615384615,-0.4169230769230769
0.6607142857142857,-0.6071428571428571,-3.5535714285714284,0.4178571428571428,0.3685714285714286,-0.4657142857142857
0.739,-0.386,-2.688,0.36,0.3259999999999999,-0.517
0.755,-0.335,-1.2364285714285714,0.3028571428571429,0.2121428571428571,-0.5985714285714285
0.9483333333333334,0.3575,0.0074999999999999,0.1633333333333333,0.075,-0.6566666666666667
1.1666666666666667,0.9316666666666666,0.7200000000000001,0.0191666666666666,-0.0508333333333333,-0.6691666666666668
1.2984615384615383,0.8430769230769231,0.9807692307692308,-0.0861538461538461,-0.1792307692307692,-0.66
1.579090909090909,0.6809090909090908,1.1554545454545453,-0.1981818181818182,-0.2745454545454545,-0.6454545454545455
1.9606666666666668,0.502,1.246,-0.286,-0.338,-0.5993333333333334
1.9084615384615384,0.2561538461538462,1.2515384615384617,-0.3607692307692307,-0.3353846153846154,-0.5646153846153846
1.4090909090909092,0.2354545454545454,1.3027272727272727,-0.3845454545454546,-0.0818181818181818,-0.4409090909090908
-0.3363636363636363,0.9081818181818182,2.098181818181818,-0.3736363636363636,0.2245454545454545,-0.2881818181818181
-2.1557142857142857,1.3128571428571427,3.626428571428572,-0.1985714285714285,0.215,-0.25
-2.2484615384615383,0.8446153846153847,4.1000000000000005,0.0376923076923076,0.0961538461538461,-0.1538461538461538
-2.0007692307692304,0.5976923076923076,2.7169230769230768,0.0484615384615384,0.0269230769230769,-0.0753846153846153
-2.134,0.323,1.015,-0.09,-0.047,-0.202
-2.293333333333333,-0.6613333333333333,0.3533333333333333,-0.2233333333333333,-0.1146666666666666,-0.2986666666666666
-1.994,-1.0690000000000002,0.556,-0.358,-0.121,-0.172
-1.42,-0.8442857142857143,1.0685714285714287,-0.3921428571428572,-0.0071428571428571,0.0249999999999999
-0.8571428571428571,0.4642857142857143,1.48,-0.3357142857142857,0.1142857142857143,0.1535714285714285
-0.5745454545454546,1.9954545454545456,1.7072727272727273,-0.3463636363636364,0.1845454545454545,0.2590909090909091
-0.8816666666666667,2.615,1.923333333333333,-0.5425,0.2008333333333333,0.355
-1.566923076923077,1.916923076923077,2.099230769230769,-0.7530769230769232,0.1253846153846153,0.3876923076923076
-2.120769230769231,-0.3084615384615384,1.7815384615384615,-0.7923076923076924,-0.1115384615384615,0.3569230769230769
-1.8658333333333332,-1.5191666666666668,1.1233333333333333,-0.7425,-0.2958333333333333,0.3499999999999999
-0.7354545454545455,-2.0872727272727274,0.139090909090909,-0.6581818181818182,-0.2809090909090909,0.3536363636363636
-0.0357142857142857,-2.04,-0.6778571428571428,-0.5771428571428572,-0.1642857142857143,0.2814285714285714
-0.0542857142857142,-1.365714285714286,-1.8135714285714288,-0.54,-0.0507142857142857,0.1964285714285714
-0.0627272727272727,-0.729090909090909,-2.7472727272727275,-0.54,0.0663636363636363,0.1427272727272727
-0.0878571428571428,-0.2314285714285714,-3.957857142857143,-0.5528571428571428,0.2157142857142857,0.1021428571428571
-0.2483333333333333,0.1399999999999999,-4.883333333333334,-0.5433333333333333,0.2575,0.1083333333333333
-0.35,0.358,-5.674,-0.564,0.206,0.105
-0.156,0.5253333333333333,-6.35,-0.6366666666666667,0.2286666666666666,0.0953333333333333
0.5023076923076923,-0.663076923076923,-5.967692307692308,-0.5484615384615384,0.4661538461538462,0.153076923076923
0.6066666666666667,-1.615,-4.645833333333333,-0.3125,0.6425,0.1791666666666666
-0.1009090909090909,-2.1118181818181814,-2.183636363636364,-0.0918181818181818,0.6145454545454545,0.22
-0.8271428571428572,-2.001428571428572,-0.0228571428571428,0.0514285714285714,0.4171428571428571,0.1978571428571428
-1.272,-2.14,2.063,0.173,0.135,0.15
-1.0193333333333334,-2.2633333333333336,3.0899999999999994,0.2826666666666667,-0.1339999999999999,0.1513333333333333
0.0361538461538461,-1.4884615384615385,3.146153846153846,0.2823076923076923,-0.3307692307692307,0.12
0.8872727272727272,-0.3454545454545454,2.19,0.1554545454545454,-0.3872727272727272,0.0454545454545454
1.8645454545454547,0.7509090909090909,0.8527272727272728,0.0409090909090909,-0.3172727272727273,0.0145454545454545
2.4171428571428573,1.2635714285714286,0.2771428571428571,-0.0321428571428571,-0.2014285714285714,0.0242857142857142
2.632142857142857,0.9142857142857144,0.6050000000000001,-0.0464285714285714,-0.0714285714285714,0.1178571428571428
2.645454545454545,0.3909090909090909,1.1418181818181818,-0.02,0.0654545454545454,0.2490909090909091
2.2553846153846155,-0.4284615384615385,1.540769230769231,0.0176923076923076,0.3207692307692307,0.2538461538461538
1.2238461538461538,-1.4523076923076923,1.867692307692308,0.0761538461538461,0.6553846153846153,0.1461538461538461
-0.9407692307692308,-2.16,3.870769230769231,0.1923076923076923,0.5661538461538462,0.1276923076923077
-2.146,-1.473,5.612,0.222,0.214,0.021
-2.4553333333333334,-0.5426666666666667,5.180666666666667,0.1633333333333333,-0.0753333333333333,0.008
-2.1818181818181817,-0.3936363636363636,3.299090909090909,0.2018181818181818,-0.1745454545454545,0.1263636363636363
-2.1125000000000003,-0.3266666666666666,1.580833333333333,0.3408333333333333,-0.2175,0.2775
-2.237142857142857,0.3742857142857143,0.9357142857142856,0.4571428571428571,-0.3164285714285714,0.3257142857142857
-2.1408333333333336,1.0083333333333333,0.6758333333333333,0.4883333333333333,-0.3575,0.2725
-2.075,1.080833333333333,0.7508333333333334,0.4591666666666666,-0.3408333333333333,0.1325
-2.3183333333333334,0.6316666666666667,1.0233333333333334,0.4408333333333333,-0.3991666666666666,0.0458333333333333
-2.2423076923076923,0.2007692307692307,0.9007692307692308,0.4484615384615384,-0.5384615384615384,-0.0469230769230769
-1.22,-0.2207692307692307,0.2476923076923077,0.4361538461538461,-0.62,-0.1946153846153846
-0.1446153846153846,-0.7538461538461539,-0.56,0.5238461538461539,-0.5184615384615385,-0.21
0.3961538461538462,-0.1076923076923076,-1.6638461538461538,0.5753846153846154,-0.2923076923076922,-0.2492307692307692
0.4518181818181818,0.4209090909090909,-2.418181818181818,0.5581818181818182,-0.0254545454545454,-0.25
-0.0666666666666666,0.9375,-2.825833333333333,0.5041666666666667,0.1175,-0.2308333333333333
-0.6235714285714286,0.8892857142857142,-3.1207142857142856,0.4328571428571428,0.1142857142857143,-0.1907142857142857
-0.5154545454545455,0.2863636363636364,-3.828181818181818,0.4663636363636363,0.1572727272727272,-0.1509090909090909
-0.27,-0.2607692307692307,-4.072307692307692,0.556923076923077,0.2307692307692307,-0.0946153846153846
-0.4292307692307692,-0.1192307692307692,-3.892307692307692,0.5907692307692307,0.2015384615384615,-0.0569230769230769
-0.4646153846153846,0.0746153846153846,-3.281538461538461,0.5761538461538461,0.1323076923076923,-0.0638461538461538
0.033076923076923,0.0046153846153846,-2.427692307692308,0.5323076923076923,0.09,-0.0638461538461538
0.4441666666666666,-0.2491666666666666,-2.0058333333333334,0.4616666666666666,0.1374999999999999,-0.0883333333333333
0.4953846153846153,-0.1738461538461538,-2.0546153846153845,0.3630769230769231,0.2507692307692308,-0.1292307692307692
0.2009090909090909,-0.0472727272727272,-2.1609090909090907,0.2736363636363636,0.2718181818181818,-0.1109090909090909
0.155,0.3735714285714286,-1.712142857142857,0.21,0.1792857142857143,-0.1257142857142857
0.25,0.6475,-0.9875000000000002,0.1891666666666666,0.0966666666666666,-0.1541666666666666
0.3616666666666666,1.0608333333333333,-0.01,0.15,0.06,-0.1775
0.5023076923076923,1.169230769230769,0.62,0.1061538461538461,0.0423076923076923,-0.2376923076923076
0.5399999999999999,0.8945454545454545,0.8545454545454546,0.0781818181818181,3.1540426835941953e-19,-0.31
0.7715384615384615,0.473076923076923,0.7253846153846154,0.0546153846153846,-0.0938461538461538,-0.38
1.4546153846153846,-0.3253846153846154,0.4138461538461538,0.0515384615384615,-0.1815384615384615,-0.4792307692307692
2.330769230769231,-1.06,0.1069230769230769,0.1007692307692307,-0.1192307692307692,-0.6246153846153847
3.097,-1.45,-0.022,0.151,0.033,-0.723
3.2278571428571428,-1.537857142857143,0.2378571428571428,0.2421428571428571,0.1657142857142857,-0.8099999999999999
2.6,-1.087142857142857,0.765,0.3371428571428571,0.2392857142857143,-0.9671428571428572
1.9809090909090907,-0.7663636363636364,0.8381818181818183,0.3799999999999999,0.34,-0.9809090909090908
0.8635714285714285,-0.3707142857142857,0.7257142857142858,0.3735714285714286,0.5378571428571428,-0.7985714285714286
-0.5058333333333334,0.8491666666666666,2.135,0.3416666666666667,0.4275,-0.7000000000000001
-0.534,1.796,4.315,0.316,0.189,-0.446
0.3426666666666666,1.6746666666666667,4.517333333333332,0.4266666666666667,0.3319999999999999,-0.2573333333333333
-0.3424999999999999,2.4058333333333333,2.6566666666666667,0.5225000000000001,0.5191666666666667,-0.1608333333333333
-2.734615384615385,3.493846153846154,0.7592307692307693,0.1761538461538461,0.3753846153846153,-0.1853846153846154
-3.9125,2.7075,-0.4166666666666667,-0.2633333333333333,0.1158333333333333,-0.1608333333333333
-3.918461538461538,1.0553846153846154,-0.0884615384615384,-0.4153846153846153,-0.1153846153846153,0.0076923076923076
-3.536363636363636,0.1836363636363636,1.3136363636363635,-0.3736363636363636,-0.2254545454545454,0.0990909090909091
-3.435714285714286,0.3392857142857143,2.105,-0.3321428571428572,-0.3678571428571429,0.1357142857142857
-3.142,0.453,1.463,-0.347,-0.5890000000000001,0.308
-2.1557142857142857,0.2799999999999999,0.7742857142857142,-0.4078571428571428,-0.7007142857142857,0.5014285714285714
-0.4736363636363636,-0.4,0.4109090909090909,-0.4554545454545454,-0.6227272727272727,0.5990909090909091
0.43,-0.69,0.2713333333333333,-0.518,-0.43,0.6653333333333333
0.4407692307692307,-0.8099999999999999,-0.2569230769230769,-0.5984615384615384,-0.2146153846153846,0.6592307692307693
0.01,-0.8733333333333334,-0.6,-0.6383333333333333,-0.0808333333333333,0.6058333333333333
-0.5475,-0.8333333333333334,-0.7416666666666667,-0.6750000000000002,-0.1116666666666666,0.5291666666666667
-0.6591666666666667,-0.8716666666666667,-1.0191666666666668,-0.6741666666666667,-0.1716666666666666,0.4516666666666666
-0.3588888888888888,-0.9344444444444444,-1.4266666666666667,-0.6655555555555556,-0.1511111111111111,0.3988888888888888
-0.2446666666666666,-0.8553333333333334,-1.9986666666666664,-0.6926666666666667,-0.114,0.292
-0.436,-1.082,-2.356,-0.6853333333333332,-0.1699999999999999,0.1666666666666666
-0.565,-1.3358333333333334,-2.5741666666666667,-0.6733333333333333,-0.305,0.0983333333333333
-0.4176923076923077,-1.543846153846154,-2.983846153846154,-0.6315384615384616,-0.3461538461538461,0.1053846153846154
-0.223,-1.38,-3.553,-0.5730000000000001,-0.268,0.108
0.2373333333333333,-1.1386666666666667,-4.084,-0.4513333333333333,-0.1306666666666666,0.1166666666666666
0.7675000000000001,-0.7333333333333334,-4.0725,-0.2875,0.0241666666666666,0.1425
0.9918181818181818,-0.3918181818181818,-3.8454545454545457,-0.1899999999999999,0.1327272727272727,0.1554545454545454
1.2007142857142856,-0.3921428571428572,-3.385,-0.1228571428571428,0.1971428571428571,0.1857142857142857
1.3553846153846154,-0.8130769230769231,-2.2807692307692307,-0.0438461538461538,0.2015384615384615,0.2615384615384615
1.3441666666666665,-1.2641666666666669,-1.12,0.0741666666666666,0.1066666666666666,0.3291666666666666
0.6036363636363636,-1.5972727272727274,0.3936363636363636,0.2209090909090909,-0.0945454545454545,0.4136363636363636
-0.1571428571428571,-1.515,1.0678571428571428,0.35,-0.3828571428571429,0.4935714285714286
0.2836363636363636,-0.6309090909090909,0.9963636363636365,0.3581818181818181,-0.61,0.4881818181818182
1.8928571428571428,0.2685714285714285,1.0985714285714283,0.26,-0.5928571428571429,0.4471428571428571
3.1453846153846152,1.2523076923076923,1.6107692307692305,0.0707692307692307,-0.3130769230769231,0.3707692307692308
2.9933333333333336,1.41,2.283333333333333,-0.2158333333333333,-0.0325,0.2441666666666666
2.22,0.5409090909090909,3.315454545454545,-0.4818181818181818,0.0454545454545454,0.1354545454545454
1.6035714285714289,-0.5571428571428572,3.367142857142857,-0.6278571428571428,-0.0857142857142857,0.1071428571428571
2.036923076923077,-0.7723076923076924,2.2,-0.6161538461538462,-0.1407692307692307,0.1607692307692307
2.293333333333333,-0.3441666666666667,1.5933333333333335,-0.425,0.0375,0.3308333333333333
0.3853846153846154,0.4053846153846153,3.376153846153846,-0.3961538461538462,0.2661538461538461,0.2492307692307692
-2.8383333333333334,-0.7433333333333333,4.876666666666666,-0.475,0.2541666666666667,0.0125
-6.043333333333333,-2.060833333333333,3.71,-0.4599999999999999,-0.1408333333333333,-0.0483333333333333
-6.584615384615384,-1.493846153846154,1.2684615384615383,-0.3438461538461538,-0.5892307692307692,0.0746153846153846
-4.994615384615385,0.1138461538461538,-1.71,-0.2469230769230769,-0.893076923076923,-0.0069230769230769
-3.276666666666667,0.3033333333333333,-2.5341666666666667,0.0025,-0.9391666666666666,-0.0691666666666666
-1.468,0.445,-1.642,0.31,-0.741,0.06
-0.744,0.5966666666666666,-0.6806666666666666,0.6693333333333332,-0.4613333333333333,0.1273333333333333
-1.3815384615384616,1.1,-0.1461538461538461,0.8853846153846153,-0.3623076923076923,0.13
-1.7916666666666667,1.2275,-0.03,0.8141666666666666,-0.4116666666666666,0.1475
-0.9730769230769232,0.44,-0.3469230769230769,0.7592307692307693,-0.3038461538461539,0.2238461538461538
-0.42,0.3983333333333334,-0.9558333333333334,0.6774999999999999,-0.0025,0.2633333333333333
-0.7545454545454546,1.232727272727273,-2.0354545454545456,0.5172727272727273,0.2236363636363636,0.1872727272727272
-1.73,1.235,-2.3778571428571427,0.4071428571428571,0.3128571428571428,0.0885714285714285
-2.503076923076923,1.146923076923077,-2.0546153846153845,0.3661538461538461,0.2492307692307692,-0.0053846153846153
-2.285,0.7641666666666667,-1.2225,0.3833333333333333,0.2233333333333333,0.04
-1.9353846153846157,0.0999999999999999,0.1007692307692307,0.4007692307692307,0.0615384615384615,-0.03
-1.9166666666666667,-0.2625,0.9441666666666668,0.415,-0.2833333333333333,-0.1616666666666666
-1.813076923076923,-0.3384615384615385,0.816923076923077,0.3953846153846153,-0.583076923076923,-0.2761538461538461
-1.143333333333333,-0.1241666666666666,-0.02,0.2433333333333333,-0.635,-0.4208333333333333
0.0961538461538461,-0.6115384615384616,-1.6623076923076925,0.173076923076923,-0.48,-0.4769230769230769
0.6066666666666667,-0.7433333333333333,-2.703333333333333,0.2616666666666666,-0.235,-0.5241666666666667
0.7341666666666667,0.1875,-2.7291666666666665,0.3841666666666667,-0.0641666666666666,-0.6591666666666667
0.9084615384615384,1.4876923076923076,-1.793076923076923,0.3653846153846153,0.0776923076923077,-0.8123076923076924
1.093846153846154,1.8284615384615384,-0.3923076923076923,0.1953846153846153,0.1469230769230769,-0.8053846153846155
1.2008333333333334,1.2075,0.9108333333333332,0.0475,0.1375,-0.7600000000000001
1.27,0.5446153846153846,1.616923076923077,0.02,0.1215384615384615,-0.7899999999999999
1.3775000000000002,0.4599999999999999,1.5333333333333332,0.0291666666666666,0.1416666666666666,-0.8016666666666667
1.183846153846154,0.6076923076923076,0.9653846153846154,0.0369230769230769,0.2076923076923077,-0.693076923076923
0.7958333333333334,0.8566666666666668,0.9708333333333332,0.0041666666666666,0.3591666666666666,-0.5358333333333333
0.1776923076923077,0.99,2.3476923076923075,-0.0469230769230769,0.4461538461538461,-0.3961538461538462
-0.35,0.56,4.113333333333333,0.0808333333333333,0.3625,-0.2316666666666667
-0.7638461538461538,0.566923076923077,4.585384615384616,0.2746153846153846,0.3838461538461538,-0.0461538461538461
-1.6275000000000002,1.0783333333333334,3.4008333333333334,0.2991666666666666,0.4091666666666667,0.0425
-3.352307692307692,1.533846153846154,1.3461538461538465,0.1207692307692307,0.1684615384615384,-0.11
-3.4625,1.0475,0.3366666666666666,-0.1658333333333333,-0.08,-0.2708333333333333
-2.36,-0.6699999999999999,0.2107692307692308,-0.3707692307692308,-0.1184615384615384,-0.1876923076923076
-1.6966666666666663,-1.4508333333333334,0.5558333333333333,-0.4208333333333333,-0.0141666666666666,-0.0666666666666666
-1.567692307692308,-1.156153846153846,0.8438461538461538,-0.4176923076923077,0.0592307692307692,-0.0376923076923076
-1.6358333333333333,-0.5033333333333333,0.8566666666666666,-0.4541666666666666,0.0458333333333333,-0.0033333333333333
-1.7846153846153845,-0.1392307692307692,0.8707692307692307,-0.4538461538461539,-0.0623076923076923,0.0953846153846153
-1.8008333333333333,0.3658333333333333,0.5525,-0.5141666666666667,-0.24,0.1783333333333333
-1.6723076923076925,0.4138461538461538,-0.1323076923076923,-0.6315384615384616,-0.4,0.1807692307692307
-1.4800000000000002,-0.0549999999999999,-0.6975000000000001,-0.6891666666666666,-0.4958333333333333,0.2316666666666667
-0.9053846153846152,-0.46,-1.2492307692307694,-0.7092307692307691,-0.4607692307692307,0.2923076923076922
-0.525,-0.5924999999999999,-1.7308333333333332,-0.7383333333333333,-0.3058333333333333,0.3016666666666667
-0.5241666666666667,-1.2275,-2.536666666666666,-0.7124999999999999,-0.1383333333333333,0.255
-0.7553846153846154,-1.913076923076923,-3.3046153846153845,-0.6261538461538462,-0.0292307692307692,0.1892307692307692
-0.6953846153846153,-2.109230769230769,-3.7584615384615385,-0.4515384615384615,0.1376923076923077,0.1469230769230769
-0.7925,-1.5175,-3.963333333333333,-0.3675,0.205,0.0641666666666666
-0.6976923076923077,-0.6176923076923077,-3.7638461538461536,-0.35,0.2038461538461538,0.0323076923076923
-0.5381818181818182,-0.349090909090909,-3.473636363636364,-0.3290909090909091,0.2763636363636363,0.0527272727272727
-0.4021428571428571,-0.807142857142857,-2.967857142857143,-0.2392857142857143,0.3292857142857143,0.12
-0.4341666666666666,-0.9925,-2.48,-0.1541666666666666,0.2658333333333333,0.1366666666666667
-0.2976923076923077,-0.6869230769230769,-1.7623076923076924,-0.1715384615384615,0.2084615384615384,0.133076923076923
-0.1066666666666666,-0.75,-1.143333333333333,-0.1716666666666666,0.1891666666666666,0.1241666666666666
-0.0308333333333333,-0.8791666666666668,-0.1441666666666666,-0.1533333333333333,0.1575,0.1183333333333333
0.0138461538461538,-0.9538461538461538,0.6030769230769231,-0.1123076923076923,0.0869230769230769,0.1746153846153846
0.4576923076923076,-0.8407692307692307,0.6938461538461538,-0.0707692307692307,0.0461538461538461,0.2553846153846154
0.8441666666666667,-0.6466666666666666,0.5566666666666666,-0.0083333333333333,0.0816666666666666,0.3541666666666667
1.255384615384615,-0.1669230769230769,0.1169230769230769,0.023076923076923,0.1569230769230769,0.4261538461538461
1.5063636363636363,-0.0309090909090909,-0.1899999999999999,0.0381818181818181,0.2745454545454545,0.4718181818181817
1.637142857142857,-0.2892857142857142,0.2178571428571428,0.0428571428571428,0.4357142857142856,0.5085714285714286
1.495,-0.545,0.7749999999999999,0.065,0.6191666666666666,0.4516666666666666
0.4523076923076923,-0.833076923076923,1.6423076923076925,0.0246153846153846,0.783076923076923,0.2961538461538461
-0.425,-0.9075,2.618333333333333,-0.0125,0.695,0.2116666666666666
-1.0569230769230769,-0.2546153846153846,4.199230769230769,-0.053076923076923,0.36,0.1969230769230769
-0.944,0.246,4.462000000000001,0.033,0.252,0.181
-1.0433333333333334,0.2906666666666666,3.626,-0.03,0.3593333333333333,0.098
-1.9216666666666664,-1.5633333333333332,3.1208333333333336,0.015,0.2316666666666666,0.1366666666666667
-2.700714285714286,-1.8164285714285715,2.337142857142857,0.2414285714285714,-0.015,0.2257142857142857
-2.847,-0.54,1.668,0.4,-0.207,0.269
-2.481428571428572,0.8921428571428571,1.1942857142857142,0.4528571428571428,-0.2535714285714285,0.21
-2.405,1.4433333333333334,1.1,0.43,-0.2258333333333333,0.1091666666666666
-2.833846153846154,1.004615384615385,1.1292307692307693,0.3938461538461538,-0.2807692307692307,0.0215384615384615
-2.829166666666667,0.3441666666666667,0.8791666666666665,0.4208333333333333,-0.4341666666666666,-0.0191666666666666
-1.7674999999999998,0.0108333333333333,0.2608333333333333,0.4758333333333333,-0.5333333333333333,-0.0825
-0.8184615384615385,-0.0476923076923076,-0.4,0.5430769230769231,-0.4853846153846154,-0.1284615384615384
-0.2569230769230769,0.2269230769230769,-1.1938461538461538,0.58,-0.3115384615384615,-0.1784615384615384
-0.28,0.22,-1.8333333333333333,0.58,-0.1533333333333333,-0.2683333333333333
-0.5157142857142858,0.1921428571428571,-2.695,0.5664285714285714,-0.03,-0.2928571428571428
-0.634,0.197,-3.103,0.543,0.03,-0.268
-0.7035714285714285,0.0092857142857142,-3.726428571428571,0.5014285714285714,0.0592857142857142,-0.2971428571428571
-0.6891666666666666,-0.2991666666666666,-4.4025,0.51,0.1183333333333333,-0.2725
-0.666923076923077,-0.3169230769230769,-4.6923076923076925,0.5576923076923077,0.14,-0.2292307692307692
-0.4941666666666667,0.0733333333333333,-4.450833333333333,0.5441666666666667,0.1441666666666666,-0.155
-0.1346153846153846,0.4338461538461538,-3.5646153846153847,0.5184615384615385,0.1669230769230769,-0.1553846153846154
0.205,0.4666666666666667,-2.619166666666666,0.4641666666666666,0.2791666666666667,-0.1633333333333333
0.1815384615384615,0.7223076923076923,-1.320769230769231,0.3792307692307692,0.3338461538461538,-0.083076923076923
-0.1083333333333333,0.975,-0.5458333333333333,0.2683333333333333,0.3108333333333333,-0.0474999999999999
-0.3046153846153846,0.9492307692307692,-0.3115384615384615,0.16,0.2615384615384615,-0.043076923076923
-0.3936363636363636,0.8418181818181818,-0.1754545454545454,0.0954545454545454,0.1636363636363636,-0.0572727272727272
-0.0264285714285714,0.6721428571428572,0.27,0.0642857142857143,0.0864285714285714,-0.1314285714285714
0.1875,0.3191666666666666,0.7775,0.105,0.0108333333333333,-0.1541666666666666
0.1692307692307692,0.21,0.9384615384615383,0.1361538461538461,-0.1107692307692307,-0.1576923076923077
0.1958333333333333,0.3233333333333333,0.8333333333333334,0.0841666666666666,-0.2425,-0.1883333333333333
0.636,0.631,0.268,-0.012,-0.312,-0.264
1.3306666666666669,0.74,-0.1673333333333333,-0.1286666666666666,-0.3346666666666667,-0.4093333333333334
1.9061538461538456,0.2315384615384615,-0.1946153846153846,-0.2169230769230769,-0.2653846153846154,-0.5707692307692308
1.8891666666666664,-0.2041666666666667,0.0891666666666666,-0.2291666666666666,-0.1825,-0.6566666666666666
1.6723076923076925,-0.4330769230769231,0.7115384615384616,-0.2053846153846154,-0.1669230769230769,-0.7061538461538461
1.4163636363636365,-0.2827272727272727,1.0463636363636364,-0.2045454545454545,-0.0618181818181818,-0.6136363636363636
0.35,0.5128571428571428,1.5785714285714287,-0.2714285714285714,0.2307142857142857,-0.4692857142857143
-0.54,1.399166666666667,2.8175000000000003,-0.2583333333333333,0.3666666666666667,-0.26
-1.2438461538461536,2.4615384615384617,4.578461538461538,-0.1515384615384615,0.2453846153846153,-0.01
-1.383333333333333,2.1366666666666667,4.853333333333333,0.035,0.0875,0.1183333333333333
-1.5581818181818183,1.471818181818182,3.499090909090909,0.0354545454545454,0.0318181818181818,0.1318181818181818
-2.212857142857142,0.9685714285714286,1.262857142857143,-0.1571428571428571,0.0378571428571428,0.0428571428571428
-3.2453846153846158,0.1846153846153846,0.06,-0.3661538461538461,-0.0738461538461538,-0.1292307692307692
-3.4233333333333333,-0.6266666666666666,0.4566666666666666,-0.4925,-0.2525,-0.2575
-2.893076923076923,-1.4076923076923078,1.2699999999999998,-0.4946153846153845,-0.2746153846153846,-0.1884615384615384
-2.3341666666666665,-1.8475,1.92,-0.3683333333333333,-0.225,-0.0616666666666666
-1.9271428571428573,-1.1042857142857143,1.5614285714285714,-0.2385714285714286,-0.2578571428571429,0.0092857142857142
-1.6227272727272728,-0.0036363636363636,0.8300000000000001,-0.2490909090909091,-0.3263636363636363,0.0872727272727272
-0.8715384615384616,0.8776923076923077,-0.2823076923076923,-0.3653846153846153,-0.3707692307692308,0.2376923076923076
-0.2191666666666666,1.1291666666666669,-1.0041666666666669,-0.5508333333333333,-0.2991666666666666,0.3191666666666666
0.055,0.639,-1.6009999999999998,-0.6689999999999999,-0.152,0.3379999999999999
-0.0553333333333333,0.3793333333333333,-2.4773333333333336,-0.7786666666666666,-0.0106666666666666,0.362
-0.2923076923076922,-0.4315384615384615,-3.483076923076923,-0.7592307692307693,0.0953846153846153,0.3923076923076923
-0.6758333333333333,-0.8691666666666666,-4.146666666666667,-0.69,0.105,0.3491666666666667
-0.8984615384615384,-1.2284615384615385,-4.681538461538461,-0.6030769230769231,0.0738461538461538,0.3461538461538461
-0.772,-1.536,-4.786,-0.49,0.125,0.285
-0.8,-1.6329999999999998,-4.619,-0.36,0.149,0.143
-0.7158823529411764,-1.8694117647058823,-3.489411764705882,-0.1811764705882353,0.0976470588235294,0.0105882352941176
-0.6164285714285713,-1.7814285714285716,-1.922857142857143,-0.0321428571428571,-0.0192857142857142,-0.1078571428571428
-0.7345454545454545,-1.4754545454545456,-1.230909090909091,0.0054545454545454,-0.1272727272727273,-0.1618181818181818
-1.159,-0.966,-0.933,0.009,-0.287,-0.183
-1.164,-0.6466666666666666,-0.8426666666666667,-0.0193333333333333,-0.4613333333333333,-0.186
-0.3507692307692307,-0.3546153846153846,-0.8146153846153846,-0.0184615384615384,-0.5230769230769231,-0.2607692307692307
0.4433333333333333,-0.7333333333333334,-0.8441666666666667,0.0999999999999999,-0.455,-0.3208333333333333
1.1,-1.23,-0.0123076923076923,0.2684615384615385,-0.2992307692307692,-0.2530769230769231
1.0827272727272728,-1.304545454545455,0.7645454545454545,0.4336363636363636,-0.1899999999999999,-0.1145454545454545
0.7271428571428571,-0.5442857142857143,0.9107142857142856,0.5007142857142857,-0.1292857142857142,0.0407142857142857
0.555,0.1975,0.6833333333333332,0.4191666666666667,-0.0999999999999999,0.1416666666666666
0.755,0.0528571428571428,0.65,0.3864285714285714,-0.1292857142857142,0.1778571428571428
0.9436363636363636,-0.0199999999999999,0.5918181818181818,0.36,-0.1318181818181818,0.2690909090909091
1.152,0.262,0.448,0.254,-0.053,0.379
1.4493333333333331,0.2646666666666666,0.1426666666666666,0.1133333333333333,0.16,0.4333333333333333
1.4376923076923076,-0.5776923076923077,-0.0492307692307692,0.0453846153846153,0.4115384615384615,0.4369230769230769
1.1658333333333333,-1.2441666666666666,0.3208333333333333,0.075,0.53,0.5225000000000001
1.0138461538461538,-1.166153846153846,0.8607692307692307,0.0969230769230769,0.6130769230769231,0.5207692307692308
0.6736363636363637,-1.139090909090909,1.308181818181818,0.1036363636363636,0.8045454545454546,0.3509090909090909
-0.3135714285714285,-1.1914285714285715,2.397142857142857,0.0821428571428571,0.9921428571428572,0.1157142857142857
-1.3608333333333331,-0.5891666666666667,4.554166666666666,-0.0808333333333333,0.7799999999999999,-0.0391666666666666
-1.776923076923077,0.8215384615384616,6.562307692307693,-0.3053846153846153,0.3138461538461538,-0.0453846153846153
-1.34,1.5291666666666666,6.2700000000000005,-0.4041666666666666,0.0483333333333333,-0.0266666666666666
-0.861,0.721,4.241999999999999,-0.337,0.1629999999999999,0.1679999999999999
-1.9006666666666667,-1.0773333333333333,1.7013333333333334,-0.064,0.2633333333333333,0.476
-2.536923076923077,-0.2638461538461538,0.3638461538461539,0.2615384615384615,0.0976923076923076,0.64
-2.1533333333333333,0.8825,0.26,0.4333333333333333,-0.0475,0.6158333333333333
-1.800769230769231,1.706153846153846,0.3323076923076923,0.3953846153846153,-0.0323076923076923,0.4176923076923077
-1.970909090909091,1.3027272727272727,0.6054545454545455,0.28,0.0527272727272727,0.21
-2.4735714285714288,0.0607142857142857,0.8614285714285714,0.1885714285714285,-0.0264285714285714,0.0642857142857143
-2.45,-0.5125000000000001,0.4275,0.1583333333333333,-0.28,-0.0275
-0.9261538461538462,-0.5676923076923077,-0.9792307692307692,0.1507692307692307,-0.3753846153846153,-0.1323076923076923
0.0616666666666666,-0.6175,-2.056666666666666,0.2033333333333333,-0.2658333333333333,-0.2683333333333333
0.64,-0.281,-2.826,0.272,-0.065,-0.315
0.4613333333333333,0.0646666666666666,-3.1126666666666667,0.3026666666666667,0.0713333333333333,-0.408
-0.1971428571428571,0.2992857142857142,-3.152857142857143,0.3257142857142857,0.1321428571428571,-0.45
-0.4263636363636363,0.4190909090909091,-3.177272727272728,0.3036363636363636,0.1909090909090909,-0.4145454545454546
-0.3638461538461539,0.3399999999999999,-3.3546153846153848,0.3276923076923076,0.2738461538461538,-0.2838461538461538
-0.6216666666666667,0.6516666666666667,-3.3925,0.3999999999999999,0.2658333333333333,-0.1266666666666666
-0.98,1.6407692307692303,-3.229230769230769,0.4161538461538461,0.143076923076923,-0.043076923076923
-1.1325,1.695,-2.9250000000000003,0.4433333333333333,0.0375,0.0025
-0.6007692307692308,0.7907692307692307,-2.0138461538461536,0.4738461538461538,0.0438461538461538,0.0776923076923077
-0.1933333333333333,-0.0525,-1.3025,0.4808333333333333,0.065,0.0999999999999999
-0.1407692307692307,-0.3738461538461539,-0.8561538461538463,0.4276923076923076,0.0415384615384615,0.0515384615384615
-0.1133333333333333,-0.2633333333333333,-0.9633333333333332,0.3216666666666666,0.0558333333333333,-0.1075
0.1157142857142857,-0.145,-0.8885714285714286,0.2021428571428571,0.1235714285714285,-0.3071428571428571
0.2663636363636363,-0.49,-0.4345454545454545,0.1899999999999999,0.1254545454545454,-0.4681818181818182
0.3261538461538462,-0.4292307692307692,0.4161538461538461,0.1992307692307692,0.0046153846153846,-0.5615384615384615
0.484,-0.199,0.636,0.247,-0.116,-0.588
0.835,0.375625,-0.2881249999999999,0.23625,-0.17625,-0.62
1.15,0.5127272727272728,-0.8654545454545454,0.1827272727272727,-0.2354545454545454,-0.5772727272727273
1.459230769230769,0.5261538461538462,-0.7346153846153847,0.1138461538461538,-0.2769230769230769,-0.5284615384615384
1.721666666666667,0.6241666666666666,-0.3866666666666667,0.0391666666666666,-0.2191666666666666,-0.5033333333333333
1.77,0.732,0.052,0.003,-0.12,-0.484
1.46,0.8993333333333333,0.4873333333333333,-0.0406666666666666,0.0286666666666666,-0.456
0.343076923076923,1.1653846153846152,1.1684615384615389,-0.1884615384615384,0.2338461538461538,-0.4023076923076922
-0.5069230769230769,1.0276923076923077,2.430769230769231,-0.24,0.2892307692307692,-0.2
-1.2458333333333331,1.2375,4.550833333333333,-0.1141666666666666,0.27,0.0533333333333333
-1.465833333333333,1.3791666666666669,5.234166666666667,0.07,0.2558333333333333,0.2191666666666666
-1.9333333333333331,1.8,4.4783333333333335,0.1258333333333333,0.2208333333333333,0.2675
-3.045384615384616,1.936923076923077,3.337692307692308,-0.0153846153846153,-0.0253846153846153,0.1076923076923076
-3.975714285714286,1.0807142857142855,2.4235714285714285,-0.3214285714285714,-0.3364285714285714,-0.1414285714285714
-3.840909090909091,-0.6163636363636363,1.9727272727272729,-0.4954545454545455,-0.4527272727272727,-0.2054545454545454
-2.808,-1.93,1.908,-0.49,-0.374,-0.138
-1.926,-2.162,1.9233333333333331,-0.3633333333333333,-0.248,-0.07
-1.6007142857142858,-0.7071428571428572,1.4314285714285713,-0.3414285714285714,-0.255,0.0042857142857142
-1.1163636363636362,0.5363636363636364,0.8345454545454545,-0.44,-0.2845454545454545,0.1899999999999999
-0.3346153846153846,1.9815384615384612,-0.3046153846153846,-0.6146153846153847,-0.2976923076923076,0.3769230769230769
-0.1525,2.4775,-1.4141666666666666,-0.8766666666666666,-0.2766666666666666,0.4125
-0.2138461538461538,1.183846153846154,-2.963846153846154,-1.0253846153846151,-0.1376923076923077,0.4907692307692307
-0.4333333333333333,-0.4933333333333333,-4.193333333333333,-0.9708333333333332,0.0475,0.5
-0.7984615384615383,-2.2315384615384617,-4.9484615384615385,-0.7584615384615384,0.1461538461538461,0.4769230769230769
