accy,accz,accx
-0.1470588235294117,0.0070588235294117,-0.0094117647058823
-0.1508333333333333,0.0075,-0.0041666666666666
-0.1461538461538461,0.0084615384615384,-0.0084615384615384
-0.15,0.0033333333333333,-0.01
-0.156,0.003,-0.01
-0.15625,0.004375,-0.006875
-0.145,0.0041666666666666,-0.0058333333333333
-0.1525,0.0066666666666666,-0.0075
-0.1553846153846154,0.0061538461538461,-0.0084615384615384
-0.1555555555555555,0.01,-0.01
-0.15,0.00375,-0.013125
-0.1433333333333333,0.01,-0.01
-0.1492307692307692,0.0053846153846153,-0.0092307692307692
-0.1533333333333333,0.0025,0.0
-0.15,0.0053846153846153,-0.0046153846153846
-0.145,0.001,-0.01
-0.1543749999999999,0.005625,-0.01
-0.1527272727272727,0.0045454545454545,-0.0027272727272727
-0.15,0.0046153846153846,-0.0046153846153846
-0.15,0.01,-0.01
-0.153125,0.003125,-0.01
-0.15,0.0041666666666666,-0.01
-0.1461538461538461,0.0084615384615384,-0.0015384615384615
-0.15,0.0033333333333333,-0.005
-0.1546153846153846,0.0038461538461538,-0.0123076923076923
-0.1558333333333333,0.0066666666666666,-0.0133333333333333
-0.1515384615384615,0.0092307692307692,-0.0061538461538461
-0.15,0.0016666666666666,-0.0058333333333333
-0.1546153846153846,0.0023076923076923,-0.0146153846153846
-0.1544444444444444,0.0055555555555555,-0.0144444444444444
-0.143125,0.003125,-0.01
-0.1441666666666666,0.0041666666666666,-0.0124999999999999
-0.14,0.0038461538461538,-0.0115384615384615
-0.1441666666666666,0.0041666666666666,-0.0166666666666666
-0.145,0.008,-0.012
-0.1486666666666666,0.008,-0.012
-0.15,0.0046153846153846,-0.0069230769230769
-0.1541666666666666,0.0058333333333333,-0.0066666666666666
-0.1538461538461538,0.01,-0.0061538461538461
-0.1475,0.01,-0.0141666666666666
-0.1446153846153846,0.01,-0.0015384615384615
-0.1525,0.01,-0.0066666666666666
-0.1515384615384615,0.0053846153846153,-0.0092307692307692
-0.1472727272727272,0.0045454545454545,-0.0018181818181818
-0.1509090909090909,0.0072727272727272,-0.0072727272727272
-0.1513333333333333,0.0066666666666666,-0.002
-0.15,0.01,0.0023076923076923
-0.1583333333333333,0.0083333333333333,-0.0016666666666666
-0.15,0.0153846153846153,0.0015384615384615
-0.15,0.01,-0.0055555555555555
-0.15375,0.01,-0.006875
-0.16,0.0058333333333333,-0.01
-0.16,0.01,-0.0058333333333333
-0.1515384615384615,0.01,-0.0061538461538461
-0.156,0.01,-0.01
-0.16,0.01,-0.01
-0.1523076923076923,0.0015384615384615,-0.01
-0.1533333333333333,0.0091666666666666,-0.0141666666666666
-0.1507692307692307,0.0115384615384615,-0.0061538461538461
-0.1544444444444444,-0.0011111111111111,-0.01
-0.146875,0.0,-0.00375
-0.1525,0.0025,-0.01
-0.1553846153846154,0.0061538461538461,-0.01
-0.1483333333333333,0.01,-0.0033333333333333
-0.1522222222222222,0.01,-0.0022222222222222
-0.1535714285714285,0.01,-0.0057142857142857
-0.15,0.006,0.0
-0.1608333333333333,0.0066666666666666,-0.005
-0.1561538461538461,0.01,-0.0069230769230769
-0.1533333333333333,0.0033333333333333,-0.0066666666666666
-0.15,0.0081818181818181,-0.01
-0.15,0.01,-0.0064285714285714
-0.1454545454545454,0.0054545454545454,-0.009090909090909
-0.1464285714285714,0.0078571428571428,-0.0164285714285714
-0.158,0.013,-0.012
-0.1586666666666666,0.0046666666666666,-0.01
-0.1569230769230769,0.0076923076923076,-0.0069230769230769
-0.1541666666666666,0.0041666666666666,-0.0116666666666666
-0.1516666666666666,0.0016666666666666,-0.0041666666666666
-0.1561538461538461,0.0038461538461538,-0.01
-0.1544444444444444,0.0133333333333333,-0.01
-0.156875,0.008125,-0.01125
-0.1476923076923076,0.0084615384615384,-0.0046153846153846
-0.15,0.0075,-0.0058333333333333
-0.1541666666666666,0.0041666666666666,-0.01
-0.1553846153846154,0.0061538461538461,-0.01
-0.153076923076923,0.0053846153846153,-0.0015384615384615
-0.1541666666666666,0.0066666666666666,0.0
-0.1533333333333333,0.01,-0.0083333333333333
-0.16,0.0076923076923076,-0.0076923076923076
-0.1518181818181818,0.0045454545454545,-0.0163636363636363
-0.1464285714285714,0.0071428571428571,-0.0085714285714285
-0.1576923076923077,0.0123076923076923,-0.0038461538461538
-0.15,0.01,-0.0025
-0.1545454545454545,0.01,-0.0063636363636363
-0.15,0.0084615384615384,-0.0038461538461538
-0.15,0.0042857142857142,-0.0078571428571428
-0.1475,0.01,-0.0058333333333333
-0.1527272727272727,0.0054545454545454,-0.0063636363636363
-0.1557142857142857,0.0064285714285714,-0.0035714285714285
-0.1561538461538461,0.0015384615384615,-0.0084615384615384
-0.16,0.0066666666666666,-0.01
-0.1553846153846154,0.0061538461538461,-0.01
-0.1541666666666666,0.0058333333333333,-0.01
-0.15,0.01,-0.0077777777777777
-0.15,0.01,-0.0066666666666666
-0.156,0.004,-0.0146666666666666
-0.15,0.0007142857142857,-0.0078571428571428
-0.1536363636363636,0.0118181818181818,-0.0081818181818181
-0.1528571428571428,0.0064285714285714,-0.01
-0.1436363636363636,0.0054545454545454,-0.01
-0.1492857142857142,0.0135714285714285,-0.0064285714285714
-0.1522222222222222,0.0044444444444444,-0.01
-0.152,0.01,-0.0066666666666666
-0.15,0.01,-0.008
-0.156875,0.005,-0.006875
-0.1536363636363636,0.0054545454545454,-0.0118181818181818
-0.1464285714285714,0.0,-0.01
-0.1581818181818181,0.0045454545454545,-0.0054545454545454
-0.1533333333333333,0.0033333333333333,-0.0033333333333333
-0.1521428571428571,0.0064285714285714,-0.0035714285714285
-0.1518749999999999,0.005,-0.006875
-0.1518181818181818,0.0036363636363636,-0.0054545454545454
-0.1533333333333333,0.0066666666666666,-0.0066666666666666
-0.1538461538461538,0.0053846153846153,-0.0007692307692307
-0.1517647058823529,0.0029411764705882,-0.01
-0.1572727272727272,0.0,0.0009090909090909
-0.1571428571428571,0.0035714285714285,-0.0064285714285714
-0.15,0.01,-0.01
-0.153,0.0,-0.007
-0.15125,0.0,-0.011875
-0.1521428571428571,0.0057142857142857,-0.0064285714285714
-0.1509090909090909,0.0145454545454545,-0.0018181818181818
-0.16,0.0123076923076923,-0.0053846153846153
-0.1522222222222222,0.0055555555555555,-0.0111111111111111
-0.144375,0.003125,-0.015625
-0.157,0.0,-0.005
-0.155,0.003125,-0.01
-0.1581818181818181,0.0081818181818181,-0.0018181818181818
-0.152,0.006,-0.004
-0.15,0.0,-0.01
-0.1415384615384615,0.0076923076923076,-0.01
-0.1508333333333333,0.0108333333333333,-0.0066666666666666
-0.1453846153846154,0.013076923076923,-0.0053846153846153
-0.145,0.005,-0.01
-0.15,0.0,-0.0064285714285714
-0.1507692307692307,0.003076923076923,-0.0069230769230769
-0.1438461538461538,0.0046153846153846,-0.0038461538461538
-0.1508333333333333,0.0041666666666666,-0.0075
-0.16,0.0,-0.0133333333333333
-0.151875,0.003125,-0.010625
-0.1457142857142857,0.0035714285714285,-0.0142857142857142
-0.1555555555555555,0.0055555555555555,-0.0133333333333333
-0.1453333333333333,0.0,-0.0033333333333333
-0.1508333333333333,-0.0041666666666666,-0.0116666666666666
-0.16,0.0015384615384615,-0.0138461538461538
-0.1558333333333333,0.0025,-0.0025
-0.1561538461538461,0.0015384615384615,-0.0146153846153846
-0.1566666666666666,0.0091666666666666,-0.0124999999999999
-0.1538461538461538,0.0107692307692307,-0.0138461538461538
-0.1541666666666666,0.01,-0.0175
-0.15,0.01,-0.0146153846153846
-0.1583333333333333,0.0016666666666666,-0.0141666666666666
-0.15,0.0076923076923076,-0.0061538461538461
-0.15,0.0083333333333333,-0.0058333333333333
-0.153076923076923,0.01,-0.0115384615384615
-0.1508333333333333,0.0025,-0.0158333333333333
-0.15,0.0,-0.0107692307692307
-0.1527272727272727,0.0027272727272727,-0.01
-0.155,0.0035714285714285,-0.0114285714285714
-0.1616666666666666,-0.0025,-0.0166666666666666
-0.1546153846153846,-0.0023076923076923,-0.0115384615384615
-0.15,0.0091666666666666,-0.0158333333333333
-0.1446153846153846,0.0107692307692307,-0.0161538461538461
-0.1475,0.0033333333333333,-0.0124999999999999
-0.1508333333333333,-0.0008333333333333,-0.01
-0.1518181818181818,-0.0018181818181818,-0.01
-0.146,-0.0053333333333333,-0.0146666666666666
-0.1525,0.0,-0.0124999999999999
-0.1476923076923076,0.0,-0.0115384615384615
-0.1525,0.0008333333333333,-0.02
-0.1553846153846154,-0.01,-0.0107692307692307
-0.1525,0.0008333333333333,-0.01
-0.1538461538461538,0.01,-0.013076923076923
-0.16,0.003,-0.016
-0.1486666666666666,0.0033333333333333,-0.0133333333333333
-0.1441666666666666,0.0,-0.01
-0.1492307692307692,0.0038461538461538,-0.0138461538461538
-0.1466666666666666,0.0,-0.01
-0.1476923076923077,0.0,-0.0138461538461538
-0.1536363636363636,-0.0027272727272727,-0.01
-0.1507142857142857,-0.0014285714285714,-0.01
-0.15,0.0,-0.01
-0.1485714285714285,0.0042857142857142,-0.0135714285714285
-0.1461538461538461,0.003076923076923,-0.0107692307692307
-0.145,0.0,-0.0091666666666666
-0.1469230769230769,0.0,-0.0107692307692307
-0.1469230769230769,0.0,-0.0069230769230769
-0.1483333333333333,-0.0008333333333333,-0.0133333333333333
-0.15,0.0061538461538461,-0.0053846153846153
-0.157,0.008,-0.015
-0.1506666666666666,0.0033333333333333,-0.0133333333333333
-0.1441666666666666,0.0033333333333333,-0.01
-0.1453846153846154,0.0046153846153846,-0.0153846153846153
-0.1425,0.0,-0.0166666666666666
-0.1453846153846154,-0.0023076923076923,-0.0138461538461538
-0.1508333333333333,0.0066666666666666,-0.0133333333333333
-0.1453846153846154,-0.0038461538461538,-0.0153846153846153
-0.155,-0.01,-0.004
-0.1466666666666666,0.0,-0.01
-0.1486666666666666,0.0033333333333333,-0.01
-0.1523076923076923,-0.0038461538461538,-0.01
-0.1554545454545454,0.0,-0.0027272727272727
-0.155,0.0035714285714285,-0.0014285714285714
-0.1572727272727272,0.0,-0.0063636363636363
-0.16,-0.0014285714285714,-0.01
-0.1533333333333333,-0.0025,-0.01
-0.1546153846153846,0.0015384615384615,-0.01
-0.1575,0.0025,-0.0025
-0.1508333333333333,-0.0033333333333333,-0.0058333333333333
-0.15,0.0069230769230769,-0.013076923076923
-0.15,0.0038461538461538,-0.0084615384615384
-0.1427272727272727,-0.0072727272727272,-0.0054545454545454
-0.1407692307692307,-0.0092307692307692,-0.0115384615384615
-0.1481818181818181,0.0,-0.01
-0.14,-0.0007142857142857,-0.0064285714285714
-0.143076923076923,-0.003076923076923,-0.0092307692307692
-0.15,0.0038461538461538,-0.0146153846153846
-0.1572727272727272,0.0072727272727272,-0.01
-0.1515384615384615,0.0053846153846153,-0.0061538461538461
-0.1525,0.0,-0.0058333333333333
-0.155,0.0035714285714285,-0.015
-0.15,0.007,-0.013
-0.1492857142857142,0.0057142857142857,-0.01
-0.1483333333333333,-0.0025,-0.01
-0.1446153846153846,-0.0053846153846153,-0.01
-0.1576923076923077,-0.003076923076923,-0.0092307692307692
-0.1466666666666666,-0.005,-0.015
-0.1566666666666666,0.0,-0.01
-0.15,-0.0023076923076923,-0.01
-0.1527272727272727,-0.0054545454545454,-0.01
-0.1442857142857143,-0.0028571428571428,-0.01
-0.1566666666666666,-0.0033333333333333,-0.01
-0.1561538461538461,0.0,-0.0092307692307692
-0.1533333333333333,0.0066666666666666,-0.0066666666666666
-0.15,0.01,-0.0092307692307692
-0.1475,0.01,-0.0016666666666666
-0.1407692307692307,0.0092307692307692,-0.003076923076923
-0.1518181818181818,0.0,-0.0081818181818181
-0.1557142857142857,0.0007142857142857,-0.0042857142857142
-0.15,0.0058333333333333,-0.01
-0.1546153846153846,0.0015384615384615,-0.01
-0.1533333333333333,0.0025,-0.0033333333333333
-0.1461538461538461,0.0053846153846153,-0.0046153846153846
-0.1541666666666666,0.0025,-0.01
-0.1507692307692307,0.0015384615384615,-0.0092307692307692
-0.1490909090909091,0.0018181818181818,-0.009090909090909
-0.1492857142857142,0.0071428571428571,-0.0071428571428571
-0.1441666666666666,0.0066666666666666,-0.0025
-0.1446153846153846,0.0046153846153846,-0.01
-0.1541666666666666,0.0033333333333333,-0.0141666666666666
-0.1469230769230769,-0.003076923076923,-0.01
-0.1533333333333333,0.0083333333333333,-0.01
-0.1492307692307692,0.0115384615384615,-0.0107692307692307
-0.1418181818181818,-0.0018181818181818,-0.0145454545454545
-0.1521428571428571,0.0035714285714285,-0.0157142857142857
-0.155,0.005,-0.0124999999999999
-0.1607692307692307,0.0115384615384615,-0.0153846153846153
-0.1475,0.0058333333333333,-0.01
-0.1376923076923077,0.01,-0.01
-0.16,0.0016666666666666,-0.01
-0.1592307692307692,0.0107692307692307,-0.0061538461538461
-0.1454545454545454,0.0118181818181818,-0.01
-0.15,0.0038461538461538,-0.0138461538461538
-0.1592307692307692,0.0038461538461538,-0.0146153846153846
-0.15,0.0,-0.0127272727272727
-0.1457142857142857,0.0057142857142857,-0.0092857142857142
-0.1361538461538461,0.0092307692307692,-0.0023076923076923
-0.1491666666666666,0.0041666666666666,-0.0083333333333333
-0.15,0.0046153846153846,-0.0153846153846153
-0.15,0.01,-0.005
-0.1447058823529411,0.0011764705882352,-0.0094117647058823
-0.1591666666666666,0.0075,-0.0033333333333333
-0.1453846153846154,0.0038461538461538,0.0
-0.1558333333333333,0.0083333333333333,-0.0025
-0.1553846153846154,0.0038461538461538,-0.0046153846153846
-0.1475,0.0083333333333333,0.0008333333333333
-0.1484615384615384,0.0038461538461538,-0.01
-0.1454545454545454,0.0,-0.01
-0.15,0.0007142857142857,-0.01
-0.1541666666666666,0.0075,-0.01
-0.1553846153846154,0.0,-0.01
-0.1591666666666666,0.0041666666666666,-0.0116666666666666
-0.1584615384615384,0.0,-0.0038461538461538
-0.1516666666666666,0.0066666666666666,-0.0116666666666666
-0.15,0.0058333333333333,-0.01
-0.1558333333333333,0.0041666666666666,-0.0124999999999999
-0.1557142857142857,0.0042857142857142,-0.0078571428571428
-0.1516666666666666,0.0058333333333333,-0.01
-0.14,0.01,-0.01
-0.1421428571428571,0.0064285714285714,-0.0135714285714285
-0.1461538461538461,0.01,-0.0053846153846153
-0.15,0.0075,0.0
-0.1536363636363636,0.0036363636363636,-0.0036363636363636
-0.1453846153846154,0.01,-0.0046153846153846
-0.1371428571428571,0.01,-0.0035714285714285
-0.15,0.0058333333333333,-0.0041666666666666
-0.15,0.01,-0.0083333333333333
-0.1384615384615384,0.0061538461538461,-0.0123076923076923
-0.15,0.0063636363636363,-0.0163636363636363
-0.15,0.0107142857142857,-0.01
-0.1461538461538461,0.0007692307692307,-0.0053846153846153
-0.1436363636363636,0.0054545454545454,-0.0018181818181818
-0.1407142857142857,0.0057142857142857,-0.0092857142857142
-0.1525,0.0,-0.0041666666666666
-0.1546153846153846,0.0007692307692307,-0.0046153846153846
-0.1508333333333333,0.0058333333333333,-0.0083333333333333
-0.1458333333333333,0.01,-0.0116666666666666
-0.1461538461538461,0.0038461538461538,0.0
-0.1463636363636363,0.0,0.0
-0.1453846153846154,0.0092307692307692,-0.0053846153846153
-0.15,0.0066666666666666,-0.0066666666666666
-0.1492857142857142,0.0057142857142857,-0.0057142857142857
-0.1336363636363636,0.01,-0.01
-0.1464285714285714,0.0142857142857142,-0.0057142857142857
-0.1527272727272727,0.01,-0.01
-0.1514285714285714,0.01,-0.0064285714285714
-0.1516666666666666,0.01,-0.0058333333333333
-0.1541666666666666,0.0016666666666666,-0.0058333333333333
-0.1433333333333333,0.01,-0.0066666666666666
-0.145,0.0064285714285714,-0.0092857142857142
-0.15,0.01,-0.0058333333333333
-0.15,0.0038461538461538,-0.0061538461538461
-0.1463636363636363,0.0036363636363636,-0.0063636363636363
-0.1469230769230769,0.0076923076923076,-0.0076923076923076
-0.1566666666666666,0.0166666666666666,0.0
-0.1478571428571428,0.0078571428571428,-0.0057142857142857
-0.1436363636363636,0.0036363636363636,-0.0063636363636363
-0.1461538461538461,0.0061538461538461,-0.0076923076923076
-0.1533333333333333,0.01,-0.0033333333333333
-0.1471428571428571,0.0042857142857142,-0.0042857142857142
-0.1522222222222222,0.0022222222222222,0.0
-0.1518749999999999,0.005,-0.003125
-0.15,0.0036363636363636,-0.0036363636363636
-0.1484615384615384,0.01,-0.0023076923076923
-0.14,0.0133333333333333,-0.0066666666666666
-0.1438461538461538,0.0092307692307692,-0.0092307692307692
-0.1433333333333333,0.0,-0.01
-0.15,0.0107692307692307,-0.0046153846153846
-0.15,0.0166666666666666,-0.0033333333333333
-0.15,0.0058333333333333,-0.0141666666666666
-0.15,0.01,-0.01
-0.1538461538461538,0.01,-0.0046153846153846
-0.15,0.0066666666666666,-0.0033333333333333
-0.1576923076923077,0.0053846153846153,-0.01
-0.1466666666666666,0.01,-0.0066666666666666
-0.1476923076923076,0.01,-0.0053846153846153
-0.1466666666666667,0.01,-0.01
-0.16,0.0076923076923076,-0.0046153846153846
-0.1566666666666666,0.0133333333333333,-0.0033333333333333
-0.1538461538461538,0.0076923076923076,-0.0061538461538461
-0.1533333333333333,0.0,-0.01
-0.153076923076923,0.0092307692307692,-0.01
-0.1466666666666667,0.01,-0.0066666666666666
-0.1546153846153846,0.0061538461538461,-0.0053846153846153
-0.15,0.0025,-0.0025
-0.145,0.005,-0.0008333333333333
-0.15,0.0169230769230769,-0.0069230769230769
-0.1576923076923077,0.01,-0.0038461538461538
-0.15,0.01,0.0
-0.1438461538461538,0.01,-0.013076923076923
-0.1566666666666666,0.01,-0.0133333333333333
-0.15,0.013076923076923,-0.0107692307692307
-0.1466666666666666,0.02,-0.0066666666666666
-0.1453846153846154,0.0092307692307692,0.0
-0.1533333333333333,0.01,0.0
-0.1546153846153846,0.0061538461538461,0.0
-0.15,0.0133333333333333,0.0
-0.145,0.0058333333333333,-0.0008333333333333
-0.1461538461538461,0.0061538461538461,-0.0069230769230769
-0.1546153846153846,0.0069230769230769,-0.0038461538461538
-0.15,0.0133333333333333,0.0
-0.1515384615384615,0.0053846153846153,-0.0076923076923076
-0.1633333333333333,0.0033333333333333,0.0
-0.1476923076923076,0.01,-0.0092307692307692
-0.1533333333333333,0.01,-0.0033333333333333
-0.1492307692307692,0.01,-0.0069230769230769
-0.14,0.01,0.0
-0.145,0.005,0.0
-0.1466666666666666,0.0033333333333333,0.0
-0.1476923076923076,0.01,-0.0053846153846153
-0.1427272727272727,0.01,-0.01
-0.15,0.013076923076923,-0.0092307692307692
-0.15,0.0025,0.0
-0.1535714285714285,0.0085714285714285,0.0
-0.15,0.0027272727272727,-0.0027272727272727
-0.1514285714285714,0.0078571428571428,0.0021428571428571
-0.1545454545454545,0.0172727272727272,0.0
-0.1515384615384615,0.0138461538461538,-0.0038461538461538
-0.1461538461538461,0.0069230769230769,0.0
-0.1453846153846154,0.0038461538461538,0.0
-0.1433333333333333,0.0,0.0
-0.1446153846153846,0.0069230769230769,-0.0076923076923076
-0.14,0.0145454545454545,-0.0027272727272727
-0.1446153846153846,0.0046153846153846,-0.0053846153846153
-0.15,0.0075,-0.0025
-0.15,0.0085714285714285,0.0021428571428571
-0.1466666666666666,0.0066666666666666,-0.0033333333333333
-0.1491666666666666,0.0091666666666666,-0.005
-0.15,0.01,-0.0025
-0.1469230769230769,0.01,0.0023076923076923
-0.16,0.0069230769230769,0.0
-0.1475,0.0133333333333333,0.0
-0.16,0.01,-0.0025
-0.1561538461538461,0.0107692307692307,-0.0023076923076923
-0.1569230769230769,0.0138461538461538,-0.01
-0.1538461538461538,0.0092307692307692,-0.01
-0.15,0.01,-0.01
-0.1469230769230769,0.0061538461538461,-0.0023076923076923
-0.1575,0.01,-0.0075
-0.1607142857142857,0.005,-0.0014285714285714
-0.1445454545454545,0.0027272727272727,-0.0072727272727272
-0.1553846153846154,0.0023076923076923,-0.0076923076923076
-0.16,0.0075,0.0
-0.1516666666666666,0.0,0.0
-0.15,0.0046153846153846,0.0
-0.1538461538461538,0.003076923076923,0.0
-0.145,0.0025,0.0
-0.1507692307692307,0.01,-0.0076923076923076
-0.1475,0.01,-0.0025
-0.1492307692307692,0.0053846153846153,-0.0053846153846153
-0.1575,0.0025,0.0
-0.1507692307692307,0.0092307692307692,-0.0046153846153846
-0.1575,0.0025,-0.0075
-0.1469230769230769,0.0053846153846153,-0.0069230769230769
-0.1575,0.005,0.0075
-0.1584615384615384,0.0115384615384615,0.0
-0.155,0.01,-0.0025
-0.1484615384615384,0.0061538461538461,0.0023076923076923
-0.15,0.01,0.0
-0.1490909090909091,0.0054545454545454,-0.0081818181818181
-0.1485714285714285,0.0007142857142857,-0.0007142857142857
-0.1523076923076923,0.0046153846153846,-0.0069230769230769
-0.15,0.0075,0.005
-0.153076923076923,0.0076923076923076,-0.0053846153846153
-0.145,0.0025,-0.0025
-0.1476923076923076,0.0061538461538461,-0.0015384615384615
-0.1525,0.01,-0.0008333333333333
-0.1509090909090909,0.01,-0.0027272727272727
-0.1535714285714285,0.0035714285714285,-0.0035714285714285
-0.1553846153846154,0.0053846153846153,0.0023076923076923
-0.1475,0.0,0.0016666666666666
-0.1423076923076923,0.0046153846153846,-0.0092307692307692
-0.17,0.0075,0.0
-0.153076923076923,0.0084615384615384,-0.003076923076923
-0.15,0.01,0.005
-0.1576923076923077,0.0061538461538461,-0.0053846153846153
-0.15,0.01,0.0
-0.1541666666666666,0.0016666666666666,-0.0083333333333333
-0.1576923076923077,0.0076923076923076,-0.0023076923076923
-0.1541666666666666,0.0083333333333333,-0.0016666666666666
-0.1653846153846153,0.0153846153846153,-0.0076923076923076
-0.1461538461538461,0.0046153846153846,-0.0007692307692307
-0.15,0.0075,-0.0075
-0.1541666666666666,0.0041666666666666,0.0
-0.1446153846153846,0.01,0.0
-0.1561538461538461,0.01,-0.0084615384615384
-0.1575,0.01,-0.01
-0.1458333333333333,0.01,-0.0058333333333333
-0.1476923076923076,0.0023076923076923,0.0076923076923076
-0.1415384615384615,0.01,0.0
-0.16,0.01,0.0
-0.1446153846153846,0.0061538461538461,-0.0007692307692307
-0.155,0.0124999999999999,-0.0075
-0.1518181818181818,0.0072727272727272,-0.0009090909090909
-0.1507142857142857,0.0028571428571428,0.0007142857142857
-0.1583333333333333,0.0141666666666666,-0.0083333333333333
-0.1653846153846153,0.01,-0.0076923076923076
-0.1627272727272727,0.0136363636363636,0.0
-0.1507142857142857,0.0128571428571428,-0.0042857142857142
-0.15,0.0116666666666666,0.0008333333333333
-0.1523076923076923,0.0123076923076923,-0.0076923076923076
-0.1558333333333333,0.0116666666666666,0.0
-0.1523076923076923,0.0023076923076923,0.0
-0.1472727272727272,0.0063636363636363,0.0
-0.15,0.003076923076923,-0.0015384615384615
-0.1538461538461538,0.0123076923076923,-0.0023076923076923
-0.1523076923076923,0.01,0.0023076923076923
-0.1554545454545454,0.009090909090909,-0.0027272727272727
-0.1435714285714286,0.0128571428571428,0.0
-0.1545454545454545,0.0072727272727272,-0.0036363636363636
-0.15,0.0007142857142857,-0.0007142857142857
-0.1492307692307692,0.0115384615384615,0.0007692307692307
-0.145,0.0025,0.0075
-0.1518181818181818,0.01,-0.0036363636363636
-0.1592857142857142,0.0171428571428571,-0.0007142857142857
-0.1558333333333333,0.0058333333333333,0.0
-0.1523076923076923,0.01,0.0076923076923076
-0.1472727272727272,0.0027272727272727,-0.0118181818181818
-0.159,-0.01,-0.002
