accx,accy,accz,gyrox,gyroy,gyroz
1.444393,-0.8094473,-0.2922446,0.7697283,-0.5913489,-0.1395073
1.348603,-0.643017,-0.1584741,1.122663,-0.6491665,-0.1848951
1.093327,-0.4795513,-0.1239414,0.906184,-0.7106078,-0.179987
0.9614762,-0.5442742,-0.2703753,0.6916246,-0.6985365,-0.1971635
0.9963694,-0.5250438,-0.3657714,0.7445755,-0.4029954,-0.2826344
1.025182,-0.4819016,-0.3357745,0.860368,-0.08330496,-0.2906348
0.9828536,-0.4926431,-0.2217506,1.123744,-0.1558997,-0.3898364
0.9315856,-0.4499412,-0.1203141,1.434375,-0.2802112,-0.6191263
0.8044002,-0.3950891,-0.1383661,1.556466,-0.2034378,-0.7370113
0.6301373,-0.2734218,-0.1602718,1.552083,-0.2837036,-0.6366222
0.5517168,-0.1366927,-0.1237155,1.454623,-0.4474964,-0.4490232
0.5481993,-0.1221008,-0.13376,1.276121,-0.4808069,-0.3649647
0.5803879,-0.1565356,-0.1355878,1.175696,-0.4822754,-0.3996252
0.5987393,-0.1816827,-0.1081312,1.167505,-0.3343317,-0.4911013
0.5891384,-0.2077297,-0.10513,1.176202,-0.2242375,-0.4951636
0.6340179,-0.1962905,-0.06147589,1.151353,-0.250799,-0.3837806
0.7237311,-0.1441357,-0.02401035,1.140594,-0.2305364,-0.2711463
0.8546021,-0.08487583,-0.02990401,1.090594,-0.3030295,-0.1272639
1.061236,-0.03757782,-0.01020331,0.8723697,-0.3060662,-0.01633362
1.274529,-0.03055412,-0.007941668,0.648114,-0.2526741,-0.006991641
1.408594,-0.04460126,-0.003041887,0.4796914,-0.2558703,-0.02855944
1.460688,-0.03684682,0.04047206,0.3712154,-0.1594278,-0.003675337
1.469833,-0.03680627,0.06043394,0.2608569,-0.1600165,0.1007882
1.468853,-0.1007989,0.02916762,0.07493208,-0.09179562,0.2764916
1.51938,-0.3146724,-0.1149696,0.03062444,0.1900758,0.4087231
1.57794,-0.5852906,-0.267868,-0.1311237,0.347541,0.1033984
1.516787,-0.655962,-0.2061289,-0.3323878,0.2870545,-0.2597371
1.352813,-0.6608895,-0.1040644,0.06947996,0.1889535,0.08122247
1.170294,-0.7154975,-0.1478379,0.5802213,0.3537626,0.47796
1.097103,-0.606423,-0.142455,0.5918017,0.6671195,0.4283699
1.105247,-0.4568436,-0.09735934,0.2901729,0.8525461,0.3153002
1.039772,-0.3785563,-0.1024252,-0.1687476,0.6841105,0.2078477
0.9738538,-0.3294307,-0.04100016,-0.4338681,0.1716213,0.3439361
0.7854334,-0.3678256,-0.005417464,-0.2294667,-0.09532234,0.6133311
0.4457534,-0.3699593,-0.0481452,0.06367362,-0.1982663,0.5813312
0.3670989,-0.3964225,-0.06409296,0.198063,-0.2598651,0.4786782
0.4304211,-0.4141834,-0.04391166,0.3736485,-0.04753501,0.3450846
0.355802,-0.2980627,0.001217672,0.4197603,-0.001882545,0.134265
0.3437957,-0.2491793,0.01483219,0.2631638,-0.1392613,0.07906039
0.4038327,-0.1445089,0.03187902,0.1523336,-0.2808632,0.1052674
0.4386489,-0.05765212,0.05478476,-0.1291194,-0.4439015,0.1699492
0.521172,-0.1528029,0.06059271,-0.331965,-0.4514704,0.2172414
0.6783601,-0.1977801,0.1489055,-0.02462757,-0.3126359,0.1078345
0.8654489,-0.3197215,0.2274281,0.3179715,-0.03872175,-0.06776374
1.000402,-0.4058229,0.2580185,0.4606545,-0.02394782,-0.1883491
1.106398,-0.326521,0.2805285,0.492784,-0.2485179,-0.2138596
1.25993,-0.3547211,0.2255362,0.3769018,-0.2828992,-0.2711859
1.377703,-0.4204941,0.1078142,0.2431962,-0.34471,-0.3473534
1.42994,-0.6004547,-0.05530882,0.2476192,-0.2589502,-0.3162618
1.568423,-0.8288207,-0.1024489,0.5660056,-0.1167064,-0.3082145
1.623273,-0.730427,-0.04871675,0.875396,-0.2296027,-0.2949914
1.255164,-0.5888255,-0.1551108,0.660193,-0.2856858,-0.2507469
0.8920949,-0.6536085,-0.2948352,0.3917647,-0.3120669,-0.2872421
1.035759,-0.6399921,-0.3422605,0.5364821,-0.1138561,-0.3006383
1.189738,-0.5611692,-0.3057369,0.7717326,0.1758734,-0.2944466
1.06508,-0.5287811,-0.1858917,1.098988,-0.01996151,-0.3915013
0.9500668,-0.4292425,-0.1507715,1.370791,-0.2182488,-0.6052283
0.7318791,-0.3184379,-0.1677176,1.215794,-0.1768606,-0.764687
0.5674951,-0.1739012,-0.1592781,1.201953,-0.266627,-0.6231206
0.6313533,-0.04135934,-0.1583964,1.372872,-0.4111047,-0.3710879
0.5673139,-0.09965496,-0.1518989,1.250024,-0.5025038,-0.3263522
0.5247079,-0.1578523,-0.1721654,1.169429,-0.4443942,-0.4569893
0.5608796,-0.174964,-0.1508775,1.118318,-0.3017378,-0.5892031
0.5339943,-0.1903717,-0.1040152,1.1156,-0.3648825,-0.5169748
0.6539625,-0.1267175,-0.07813492,1.328943,-0.4375953,-0.3187933
0.7546195,-0.1032483,-0.02368877,1.369745,-0.4046542,-0.1591342
0.8421311,-0.03611124,-0.01949221,1.272464,-0.4663787,-0.01242356
1.035052,0.06815243,-0.01100701,1.037168,-0.4193447,-0.01768363
1.214569,0.09196218,0.05485594,0.6312944,-0.2761416,-0.02435635
1.406271,0.1118957,0.1114232,0.4241232,-0.18972,0.1171953
1.434885,0.06776683,0.1528234,0.3008601,-0.07403499,0.1659296
1.445979,0.002192771,0.1215156,0.1535661,0.04671318,0.3370574
1.573919,-0.1171158,0.03578542,0.1496401,0.2863451,0.6747688
1.627238,-0.4411405,-0.1418036,0.09955576,0.4372746,0.6588836
1.691288,-0.6918088,-0.3410381,-0.2896204,0.3775789,0.0781985
1.524036,-0.6419755,-0.2738492,-0.6094291,0.4243569,-0.4285036
1.176443,-0.5688725,-0.1424313,-0.1738738,0.4188098,0.009346765
1.094435,-0.6300032,-0.1744502,0.3452955,0.4852798,0.538093
1.116623,-0.536009,-0.1498332,0.1002381,0.857863,0.2878163
1.096254,-0.2933919,-0.08198895,-0.3283768,1.043827,0.2986839
1.034763,-0.1688597,-0.01369847,-0.6585635,0.58995,0.6293382
0.8612378,-0.1795947,0.05624375,-0.8911082,-0.2221697,0.7374003
0.5666054,-0.3284714,-0.02532516,-0.557861,-0.5063685,0.9102158
0.2915191,-0.4292049,-0.09251133,-0.1570726,-0.308366,0.8052911
0.2859786,-0.3966275,-0.07255291,-0.09736213,-0.09150169,0.5458621
0.3754301,-0.3740985,-0.08846264,-0.03247536,0.3621957,0.4039984
0.3810182,-0.2820943,-0.04019111,-0.1246882,0.5424968,0.02178785
0.4378605,-0.1795802,0.01325954,-0.2400732,0.238715,-0.06542206
0.5286631,-0.1271069,0.04068551,-0.3621445,0.01623561,0.1891264
0.6581464,-0.1378841,0.1036301,-0.6079575,-0.2028185,0.2800047
0.8307967,-0.2679301,0.1571792,-0.4967527,-0.2489097,0.3690392
0.9783966,-0.3840201,0.2282119,-0.2852741,0.003683328,0.2765171
1.081972,-0.431806,0.2612488,-0.1280206,0.1328331,0.04293875
1.097778,-0.3622745,0.2799529,0.07272905,0.08295876,-0.1341715
1.11985,-0.3187692,0.2865884,-0.03971848,-0.1276137,-0.3316156
1.238148,-0.4961445,0.1188564,-0.100224,-0.439794,-0.3577914
1.383752,-0.7609757,-0.1388458,0.01822494,-0.5627727,-0.3658036
1.534887,-0.9345167,-0.2443208,0.1959363,-0.4245818,-0.4229456
1.562783,-0.7522462,-0.1137009,0.6513189,-0.2772577,-0.3659908
1.288242,-0.4808961,-0.03986269,0.8091843,-0.2996054,-0.3640845
0.9663295,-0.5413834,-0.2072401,0.4884726,-0.4075059,-0.4255242
0.9970865,-0.5948949,-0.3379877,0.3747011,-0.4705098,-0.5021951
1.206733,-0.573274,-0.3394241,0.6132992,-0.2172507,-0.5464623
1.221914,-0.5631837,-0.2550191,1.018148,0.2068808,-0.5499865
1.027959,-0.4375314,-0.1448274,1.396531,0.2246096,-0.7132935
0.7475038,-0.3613659,-0.1510645,1.465785,0.06601907,-0.9740251
0.6401172,-0.3009559,-0.1730158,1.317644,0.05244755,-1.049079
0.7132356,-0.190433,-0.1542865,1.294477,-0.06658745,-0.8203434
0.651865,-0.1288769,-0.1596883,1.353484,-0.2444755,-0.5451694
0.6279994,-0.1154888,-0.1571653,1.412579,-0.30261,-0.5102428
0.7027123,-0.1721035,-0.1501806,1.527081,-0.2140691,-0.5542428
0.6554043,-0.2005782,-0.1309971,1.477081,-0.06847241,-0.525126
0.6391249,-0.2219484,-0.09803434,1.374431,0.01175992,-0.4684301
0.6363266,-0.2256647,-0.08434573,1.416824,-0.007995894,-0.383033
0.6545917,-0.09036179,-0.07400782,1.248121,-0.140107,-0.3017922
0.7895755,-0.01386407,-0.055689,0.9072609,-0.2576315,-0.2185641
0.8863401,0.02627015,-0.02830832,0.7016688,-0.3612806,-0.1070261
1.011621,0.07698064,0.02411798,0.5861284,-0.4387691,-0.03174337
1.142196,0.01400341,0.07280077,0.543587,-0.4255985,0.0287095
1.230913,-0.01111265,0.08628697,0.5449768,-0.4539632,0.1256119
1.385515,-0.03928839,0.0994222,0.5355397,-0.3655044,0.2094357
1.439181,-0.1253271,0.1054557,0.4948967,-0.1920372,0.3238403
1.446539,-0.2459549,0.07174503,0.4074508,-0.1712986,0.3876229
1.58356,-0.4760153,-0.0247268,0.2553,-0.1913472,0.1837533
1.650509,-0.6088825,-0.1418495,0.1466209,-0.261688,0.05741179
1.450372,-0.5826806,-0.1201494,0.3724941,-0.3164528,0.4355868
1.146186,-0.58981,-0.0707053,0.6241335,-0.2420435,0.7291875
1.087642,-0.6234649,-0.1425185,0.4888884,0.04290711,0.290462
1.153885,-0.4911727,-0.1317772,0.3315358,0.3768244,-0.1275494
1.104758,-0.223298,-0.03751078,0.3053737,0.1457503,0.1493912
1.075446,-0.161562,0.01593291,0.3728086,-0.3165063,0.464375
0.9961353,-0.3206333,0.02454001,0.6632127,-0.3509784,0.5872437
0.7868383,-0.4406678,-0.04960845,0.9404048,-0.1485537,0.6591469
0.5766797,-0.4217329,-0.07889239,1.114143,0.08735547,0.4629903
0.46838,-0.3713374,-0.0446945,1.293811,0.06523486,0.3037672
0.5141873,-0.3658497,-0.03786203,1.407069,-0.1288898,0.1416914
0.5701765,-0.2547831,-0.01281347,1.47737,-0.1210319,-0.1194437
0.6066365,-0.1260763,-0.009013808,1.440119,-0.1332839,-0.09180374
0.6095742,-0.1085128,0.01207639,1.221403,-0.1466397,-0.0978355
0.515556,-0.1096801,0.0539613,0.9211643,-0.1578225,-0.1586365
0.5232897,-0.1328209,0.05041739,0.6658571,-0.2612527,-0.1107683
0.6170306,-0.133133,0.1204431,0.6272988,-0.2154418,-0.1906513
0.7250783,-0.1403361,0.244793,0.6368043,-0.2348091,-0.1085618
0.8425044,-0.1581411,0.3023894,0.4708645,-0.3504131,0.03238349
0.8893669,-0.1386703,0.3280387,0.3584109,-0.3659836,0.06056265
1.012815,-0.2048814,0.3798706,0.3843212,-0.4285989,0.1598156
1.125846,-0.257761,0.400551,0.3481577,-0.4453198,0.1329331
1.210737,-0.2284985,0.3685741,0.1783354,-0.4873247,0.09817588
1.381833,-0.2629603,0.3328092,0.100106,-0.7065354,0.1188947
1.369315,-0.4399485,0.1650725,0.3011419,-0.8918407,0.03092872
1.396276,-0.7506376,-0.03464397,0.6220663,-0.8179136,-0.03701775
1.555406,-0.8758166,-0.03629986,0.9083549,-0.4950827,-0.1210944
1.327082,-0.6768537,-0.0824742,1.001607,-0.2940897,-0.2502011
0.9843392,-0.5606928,-0.2456753,0.8786926,-0.3664249,-0.3214758
0.9855041,-0.668932,-0.3229045,0.8556365,-0.406377,-0.3149544
1.193399,-0.7006782,-0.3584089,1.04084,-0.2017015,-0.2848488
1.345023,-0.5990825,-0.3215356,1.284904,-0.05753642,-0.3067909
1.134352,-0.5365909,-0.2228729,1.445365,-0.3114533,-0.4012416
0.7991124,-0.4691437,-0.2136424,1.470714,-0.6025062,-0.5590015
0.7585109,-0.3518372,-0.2263208,1.454098,-0.6605645,-0.6162494
0.7782221,-0.2475261,-0.2215976,1.466163,-0.6375107,-0.5461752
0.7376334,-0.1855283,-0.2157563,1.515134,-0.6252163,-0.5347321
0.6830366,-0.1991764,-0.1835127,1.570386,-0.6216406,-0.5949647
0.5731454,-0.2110259,-0.1810343,1.591543,-0.4700969,-0.7580813
0.5903384,-0.1865323,-0.1569401,1.555216,-0.1716323,-0.9144673
0.6341043,-0.1393988,-0.09918804,1.491255,0.09736505,-0.8463749
0.5805726,-0.03419118,-0.06040071,1.527523,0.1390321,-0.7166028
0.6117148,0.02656292,-0.02428391,1.540976,0.06722415,-0.5888987
0.6931825,0.03133879,-0.02511301,1.302827,0.1805409,-0.4362219
0.8226799,0.04817414,0.008356686,1.050406,0.1898814,-0.4369343
0.9947485,0.04434029,0.08174713,0.9871869,0.04585247,-0.4334126
1.106516,0.0488229,0.1177599,0.957994,-0.05166226,-0.2624675
1.257014,0.06208223,0.1499136,0.8662409,-0.2643044,-0.01860703
1.415419,0.05168039,0.1341159,0.6843651,-0.3884955,0.2293757
1.524959,-0.01231377,0.114666,0.5068971,-0.263568,0.2909497
1.617385,-0.1565747,0.1086365,0.3377821,-0.02554841,0.322334
1.60981,-0.2711089,0.009503323,-0.04244657,0.1121271,0.4844014
1.599133,-0.3254513,-0.0725083,-0.51007,-0.0283837,0.4602054
1.589174,-0.424419,-0.05702801,-0.6171201,-0.1448134,0.4655124
1.371554,-0.5311076,-0.06727622,-0.3111883,-0.07419605,0.6876864
1.09632,-0.5397503,-0.1481637,-0.1018265,0.09516705,0.7310003
1.029224,-0.4861962,-0.1700398,-0.1694728,0.3687533,0.6468973
1.068998,-0.4186841,-0.1211191,-0.3720045,0.5617799,0.5285679
1.008407,-0.2788997,-0.1007757,-0.7674335,0.5350253,0.3365769
0.961447,-0.2002539,-0.0523185,-0.9694636,0.3916559,0.3507263
0.9882402,-0.3052031,-0.03004251,-0.7047124,0.3419905,0.5288229
0.8529616,-0.3650133,-0.05212586,-0.3434186,0.5271355,0.6337717
0.6807842,-0.3399346,-0.02286449,-0.06086493,0.7499001,0.6437397
0.6141304,-0.3349818,-0.03358391,0.06928525,0.6991295,0.5410521
0.4992212,-0.2839326,-0.02836814,0.07228789,0.6197925,0.4001275
0.4895661,-0.2574676,0.01353154,0.1345187,0.7210263,0.2823591
0.5661435,-0.2786389,-0.003745423,0.1490983,0.6530714,0.2082218
0.5167034,-0.2736507,0.01295913,-0.003630481,0.4650637,0.234944
0.5126518,-0.2705618,0.02269633,-0.2542112,0.2848451,0.2320058
0.5447573,-0.2598463,0.02221125,-0.514244,0.1038409,0.1295573
0.5094131,-0.2602565,0.09118457,-0.5724041,-0.009265417,0.07289759
0.5817569,-0.3093838,0.1449875,-0.3482292,-0.2334079,0.08988174
0.7585575,-0.3557279,0.1887442,-0.1345345,-0.2440967,0.1070355
0.9538787,-0.3163165,0.2424873,-0.07402849,-0.09339677,0.08998653
1.099854,-0.2271346,0.2904671,-0.04862142,-0.2440618,0.06130322
1.157577,-0.2037262,0.3396364,-0.07539559,-0.2444389,0.04368367
1.303008,-0.2143594,0.3708714,-0.2081401,-0.2203031,0.03206298
1.467461,-0.2194294,0.3874752,-0.400654,-0.3841594,0.05976927
1.499161,-0.2714946,0.3388872,-0.5699128,-0.3626087,0.07236395
1.510595,-0.4603103,0.2042923,-0.5686873,-0.4124412,0.01560803
1.563417,-0.7244457,0.08199074,-0.2700992,-0.4102153,-0.02461402
1.620439,-0.7258047,0.09334464,0.09171262,-0.2000158,-0.0209196
1.392791,-0.4997855,0.1293582,0.1254487,-0.2019564,-0.03634731
0.8841176,-0.4153083,-0.002635441,-0.04575718,-0.4994467,-0.08925359
0.6963911,-0.4667441,-0.1444366,-0.1009745,-0.8048892,-0.1208846
0.9571634,-0.5173358,-0.2422132,-0.1174567,-0.5800369,-0.1643584
1.204563,-0.5208417,-0.3042807,-0.1250659,-0.1155189,-0.244042
1.140573,-0.4782026,-0.1859068,0.1073299,-0.03925839,-0.2901748
0.9103685,-0.431686,-0.1298977,0.4508743,-0.1289874,-0.4153315
0.6877081,-0.346951,-0.1956742,0.5529775,-0.2798171,-0.5590602
0.5297812,-0.2462517,-0.1844814,0.5089488,-0.3538365,-0.5135432
0.5624406,-0.1783941,-0.1819639,0.5453334,-0.3488714,-0.3827982
0.5958395,-0.1610124,-0.1669221,0.5790792,-0.4291617,-0.2591458
0.5862662,-0.1675328,-0.1289429,0.6275914,-0.2894404,-0.2555197
0.635852,-0.1362681,-0.09304926,0.7279416,-0.09028095,-0.4096633
0.5531707,-0.1325537,-0.04607342,0.6121563,0.008908752,-0.4728543
0.5097247,-0.1142036,-0.03244662,0.4168738,0.02757885,-0.4098407
0.6243723,-0.03436575,0.0005057578,0.4118939,-0.199483,-0.3193164
0.8302535,-0.01702855,-0.01242229,0.301905,-0.3120077,-0.2341746
1.111717,-0.01921728,-0.04190383,0.1281416,-0.2355693,-0.1454956
1.235297,0.009288607,-0.009567973,0.1208526,-0.1752054,-0.01531162
1.347915,0.03635311,-0.02071014,0.03744519,-0.08575483,0.03115709
1.479088,0.05372321,-0.01514178,-0.1596797,0.01229239,0.06627133
1.400518,-0.005504875,-0.001489508,-0.3231837,0.1471808,0.2109277
1.394851,-0.1583093,-0.0364988,-0.4138071,0.2381312,0.3135812
1.47956,-0.3832093,-0.08602215,-0.3383004,0.4014443,0.3921152
1.464458,-0.548152,-0.1600924,-0.2631404,0.5397448,0.4004189
1.438249,-0.5619822,-0.1332644,-0.4074982,0.3127549,0.3230329
1.299076,-0.6094684,-0.04823851,-0.4678342,0.1136063,0.3908902
1.115487,-0.6482538,-0.04362272,-0.2298548,0.1827412,0.5315711
1.115405,-0.5344134,-0.04891634,-0.05627152,0.3909453,0.6078036
1.113309,-0.4022325,-0.06264472,-0.2223415,0.6743212,0.4861285
1.037152,-0.2149419,-0.05192243,-0.5811666,0.7019193,0.2826401
1.045055,-0.0928722,0.01456443,-0.8508456,0.4018667,0.4706059
0.9828491,-0.2552078,0.04765603,-0.8588035,0.1393105,0.6913374
0.7892094,-0.3592009,0.0250808,-0.6082951,0.1772435,0.6101828
0.6114137,-0.3328509,-0.03284559,-0.3207627,0.3539345,0.5758738
0.4525836,-0.3667019,-0.04969096,-0.1946335,0.4293637,0.4584088
0.4346497,-0.3155962,-0.0309715,-0.1620612,0.4502358,0.2820435
0.5063787,-0.2487068,-0.04840805,-0.1916555,0.4624942,0.1862312
0.4596965,-0.231439,-0.04660134,-0.2746244,0.4798083,0.04411056
0.4967021,-0.2090283,-0.02381717,-0.3645962,0.4747398,0.02078711
0.5745421,-0.2181392,0.01888513,-0.4660774,0.3964667,-0.005931079
0.5096733,-0.2149025,0.1004615,-0.5278192,0.2677801,-0.1010376
0.5313885,-0.2548805,0.1686054,-0.5212385,0.1104967,-0.07039481
0.6508975,-0.2933332,0.2034835,-0.435744,-0.01377304,-0.08935017
0.7974077,-0.2430089,0.2063534,-0.390379,-0.1402921,-0.1546485
0.939342,-0.2125588,0.2335091,-0.3942001,-0.2610023,-0.1420509
0.9983999,-0.2202957,0.2757346,-0.3079956,-0.3090382,-0.1128899
1.139985,-0.2363456,0.2895063,-0.2727639,-0.384168,-0.08988199
1.310832,-0.2426034,0.311447,-0.3146013,-0.483078,-0.1086842
1.38454,-0.2551333,0.2732345,-0.4020904,-0.6012774,-0.1269855
1.429008,-0.3321805,0.1204046,-0.5675504,-0.7560353,-0.1032579
1.43556,-0.4926508,-0.1064247,-0.6371365,-0.8524022,-0.1011663
1.481759,-0.659708,-0.2050496,-0.4844758,-0.7983558,-0.1431189
1.554109,-0.6871387,-0.03270136,-0.108718,-0.5162373,-0.1805581
1.483588,-0.6986847,0.06900717,0.2165286,-0.3716038,-0.195386
1.063205,-0.758496,-0.03311943,0.34978,-0.6861811,-0.311759
0.6163006,-0.7417661,-0.09851482,0.5710497,-0.8665119,-0.5695236
0.9472952,-0.7659048,-0.1646484,0.8719312,-0.384059,-0.7075034
1.364164,-0.7095375,-0.2192623,1.154492,0.0843402,-0.6042946
1.001298,-0.5313041,-0.1484415,1.558047,-0.1398104,-0.5750767
0.8287479,-0.5208296,-0.103498,1.854283,-0.3135255,-0.7591734
0.9623519,-0.4452513,-0.1827549,1.780188,-0.172622,-0.8521241
0.8432816,-0.2306551,-0.2435553,1.729127,-0.3465338,-0.7251707
0.8632279,-0.1958938,-0.2377149,1.732911,-0.4250345,-0.6200688
0.8235829,-0.2438992,-0.2577327,1.527385,-0.3403297,-0.6928468
0.6827552,-0.2692895,-0.2532113,1.538827,-0.3728094,-0.7847179
0.7223478,-0.2789569,-0.1951839,1.795767,-0.1367454,-0.8166668
0.6542987,-0.2372263,-0.1761312,2.033035,0.02844447,-0.8486547
0.6415763,-0.1576654,-0.1655938,2.196526,-0.008539979,-0.7373959
0.6911046,-0.03161448,-0.1496235,2.015698,0.0804997,-0.5370728
0.678531,0.06393191,-0.1584967,1.668903,0.1527829,-0.4498655
0.762233,0.1000043,-0.1326124,1.331338,0.2788121,-0.3886053
0.7332115,0.1089764,-0.06455643,1.025491,0.2892159,-0.2686105
0.7185058,0.1136112,0.02129701,0.8903221,0.05550806,-0.02179161
0.8540953,0.1151424,0.09499365,0.7283094,-0.09458359,0.2460028
0.9913384,0.03751309,0.1272213,0.7114323,-0.05851308,0.3087354
1.165123,-0.03625622,0.1894398,0.8378697,0.1024318,0.3395877
1.256758,-0.01702757,0.2857032,0.7871811,0.1327942,0.4216127
1.320914,0.03710374,0.3142107,0.7053733,-0.0009454216,0.4201735
1.411814,0.05943391,0.2792038,0.4857441,-0.146554,0.4601023
1.437828,-0.01395083,0.2604409,0.300553,-0.2220378,0.5832526
1.492535,-0.1398954,0.2231281,0.3334595,-0.0899591,0.6211603
1.523402,-0.3338712,0.07459723,0.1818667,-0.04751185,0.5105022
1.497543,-0.5519941,-0.06525444,-0.03171176,-0.1779978,0.272037
1.367397,-0.5167597,-0.0398874,-0.131306,-0.2462785,0.1437361
1.156084,-0.3681341,-0.04213897,-0.03779065,-0.2253828,0.4698686
1.169945,-0.4007208,-0.2326261,0.1121027,0.02799192,0.8049463
1.246702,-0.3802919,-0.3232386,-0.2999145,0.3499866,0.5414221
1.155702,-0.2955492,-0.167168,-0.8748263,0.3754855,0.2814726
1.117379,-0.3403863,-0.03731181,-0.915052,0.01841287,0.4433819
1.073569,-0.385847,-0.04383994,-0.6041896,-0.2740042,0.5573034
0.9763276,-0.4721636,-0.08449898,-0.2304265,0.0180223,0.6287436
0.8898064,-0.5006709,-0.08398031,0.01373465,0.3987161,0.609816
0.6386312,-0.345454,-0.01991173,0.2023595,0.402029,0.4244582
0.4708973,-0.2485451,0.02491741,0.3157025,0.2435464,0.4316277
0.5928831,-0.1902568,-0.01317497,0.1322762,0.1000384,0.3346069
0.624759,-0.1522164,-0.0580869,-0.1149296,0.1606335,0.07623119
0.5376403,-0.1645244,-0.01366945,-0.3184183,0.2542215,0.06084559
0.5278157,-0.148926,0.02715513,-0.5424162,0.1653517,0.0773954
0.5274271,-0.1839831,0.02380344,-0.7321366,0.09168298,0.1058025
0.5649862,-0.2278596,0.08666693,-0.9001683,-0.007635888,0.1261699
0.6852649,-0.2764956,0.1361485,-0.8288159,-0.1082715,0.04048951
0.8158705,-0.2921514,0.1385139,-0.6869492,-0.0386931,0.03740495
0.9173698,-0.2129315,0.150497,-0.7706468,0.1013878,0.03831681
0.9541876,-0.1783858,0.1560945,-0.7584889,0.2244567,0.08109356
0.9729532,-0.1719807,0.1973071,-0.7298676,0.1498262,0.1226366
1.092424,-0.1845992,0.2265003,-0.8248441,-0.005072362,0.03547738
1.228372,-0.2264166,0.1816396,-0.8688971,0.05901891,-0.0123233
1.289236,-0.3437935,0.01031619,-0.9855053,-0.009682084,-0.04016984
1.416653,-0.645026,-0.2386293,-0.9549169,-0.1758072,-0.03521475
1.561189,-0.8502205,-0.2502474,-0.5524551,-0.08349599,-0.02180678
1.518779,-0.7613957,-0.07224481,-0.1230492,-0.006078895,-0.05244275
1.367379,-0.64012,-0.02434284,-0.03831922,-0.001913573,-0.08976653
1.081858,-0.645589,-0.07951963,-0.1750227,0.01205832,-0.2702273
0.770972,-0.6532515,-0.1791112,-0.05784052,0.02287536,-0.4462226
1.049226,-0.6362402,-0.2654758,0.1289029,0.1426165,-0.4448035
1.445356,-0.5918426,-0.2046353,0.3060308,0.1841084,-0.3871012
1.112944,-0.4807383,-0.1133284,0.7475824,0.02139647,-0.400491
0.8070583,-0.4619069,-0.1105522,0.8724251,-0.1268531,-0.5666314
0.7666838,-0.3950967,-0.1178712,0.6905748,-0.1462914,-0.6690582
0.5576696,-0.1734505,-0.1097265,0.7460969,-0.2884961,-0.465121
0.578252,-0.1084704,-0.1059377,0.6989776,-0.5198074,-0.238424
0.6437002,-0.1288061,-0.1026474,0.5339012,-0.3266445,-0.3501621
0.5991867,-0.1084464,-0.09488382,0.5198572,-0.02353521,-0.4668577
0.6479629,-0.1172225,-0.07635486,0.5157681,-0.05826084,-0.3737302
0.5854671,-0.1070661,-0.07024082,0.4759328,-0.06564689,-0.3913347
0.633778,-0.08956487,-0.0757718,0.3630819,-0.07938169,-0.3314502
0.7410463,-0.02732898,-0.06919692,0.1906963,-0.166058,-0.141455
0.7990901,0.03523144,-0.06750274,0.04228244,-0.1304935,-0.08153599
1.028898,0.007707589,-0.05451503,-0.1183748,-0.1376036,-0.02705652
1.142656,-0.01120352,-0.001697437,-0.1931693,-0.1500787,0.05247021
1.198757,0.03017249,0.07085463,-0.2069487,-0.09924071,0.2073026
1.36665,0.0672215,0.1252719,-0.4077081,-0.08451182,0.3069182
1.438617,0.03464599,0.1093748,-0.6161442,0.006249279,0.3440313
1.452824,-0.1051151,0.04919894,-0.6917263,0.1745935,0.6738851
1.528787,-0.3313237,-0.03278065,-0.9160996,0.2294215,0.8420978
1.605482,-0.4826993,-0.1462631,-1.120751,0.1605931,0.5411399
1.466448,-0.5522829,-0.1751681,-1.073644,0.1285747,0.3580702
1.253577,-0.6411966,-0.1592738,-0.9021917,0.1582552,0.5353372
1.197897,-0.5932897,-0.2007082,-0.6553837,0.391468,0.6709213
1.186613,-0.485866,-0.1768048,-0.6537573,0.8688682,0.5024389
1.184743,-0.4227208,-0.08869573,-0.9476626,1.082987,0.4247058
1.122585,-0.2676255,-0.002569302,-1.138107,0.9759959,0.512715
1.004325,-0.231183,0.03527452,-1.222382,0.9022978,0.5509634
0.8209972,-0.3299817,-0.01091436,-1.156518,0.8235924,0.6653157
0.5351709,-0.3167379,-0.01110962,-0.9920422,0.7736307,0.6655379
0.4048009,-0.2719855,-0.01243063,-0.8801393,0.7045798,0.5687139
0.4474498,-0.2389277,-0.04169987,-0.6884015,0.4959496,0.5269133
0.4952507,-0.241254,-0.01409068,-0.617962,0.429281,0.3327455
0.5114889,-0.2643261,-0.02946558,-0.6677263,0.5459846,0.1404104
0.4961192,-0.1903764,0.003878246,-0.7433099,0.5589888,0.08298395
0.4959915,-0.1306185,0.08951414,-0.997144,0.3666594,0.07887376
0.5055005,-0.1385307,0.08053201,-1.16462,0.07247458,0.1454847
0.5834228,-0.1863796,0.09560961,-1.213893,0.002241848,0.195203
0.7554145,-0.2921238,0.1578222,-1.103867,0.2493817,0.1774687
0.9232561,-0.3389078,0.2431618,-0.8501071,0.4179889,0.1422708
0.988152,-0.2915814,0.3236193,-0.9439175,0.3126694,0.1085625
0.9786946,-0.2393041,0.3150235,-1.090739,0.1518588,-0.0001130905
1.070899,-0.2536586,0.2945369,-1.050568,0.01210727,-0.1140917
1.182356,-0.3796592,0.2230892,-1.035337,-0.1827074,-0.1037514
1.2586,-0.6303727,0.01005875,-0.7911841,-0.3193075,-0.122314
1.470435,-0.818636,-0.1586101,-0.3852518,-0.3877244,-0.1674014
1.598898,-0.696183,-0.1134186,-0.0723913,-0.4168011,-0.1446377
1.391051,-0.5428289,-0.09146149,-0.09315782,-0.3767982,-0.1570968
1.08199,-0.5686924,-0.2326367,-0.3377115,-0.3925464,-0.1902155
0.954074,-0.5345525,-0.2653672,-0.2607195,-0.2270163,-0.2010931
1.018057,-0.5199034,-0.2287558,-0.1198706,0.1514233,-0.2140543
1.068585,-0.5327898,-0.1831385,0.07474499,0.2264569,-0.2848792
0.941912,-0.4449714,-0.05340833,0.4650947,0.005536382,-0.4497309
0.8015681,-0.3790875,-0.09431131,0.5003883,-0.1818794,-0.6048322
0.7365506,-0.238762,-0.1605622,0.4283252,-0.1692282,-0.6422906
0.6372884,-0.08203132,-0.08274367,0.4254896,-0.2020221,-0.5000554
0.6022495,-0.09236375,-0.1104915,0.3098601,-0.416717,-0.3238568
0.6184073,-0.1028304,-0.1222219,0.2974565,-0.3746808,-0.356826
0.5901663,-0.1184586,-0.09703061,0.1990975,-0.2603567,-0.4501885
0.5787174,-0.1800717,-0.134658,-0.0511821,-0.2769277,-0.466229
0.5968184,-0.1934729,-0.09406505,-0.2592556,-0.1665842,-0.5076301
0.6899434,-0.2041624,-0.04030414,-0.1652038,-0.06901767,-0.4638506
0.7957106,-0.2047556,-0.001815589,0.1263073,0.001825842,-0.2998984
0.8834977,-0.1600902,0.009296783,0.09567217,0.01237355,-0.1319998
1.088229,-0.06101177,-0.02190627,0.00688536,0.0101764,-0.0070658
1.270887,0.03830725,0.02262445,-0.1044325,0.1305385,-0.00117688
1.259196,0.0580232,0.05519711,-0.3762935,0.07785011,0.01830838
1.251602,0.07901691,0.07422515,-0.5224961,0.001870594,0.1173194
1.383233,0.05223486,0.0944206,-0.7849129,0.05943404,0.234085
1.48458,-0.1776662,-0.01470416,-0.9674609,0.1199545,0.511208
1.576335,-0.4550697,-0.1445816,-0.9046683,0.3745169,0.6649675
1.636239,-0.5252284,-0.1980313,-1.111218,0.537988,0.3337699
1.462933,-0.5057166,-0.1746659,-1.340153,0.3316088,0.04475854
1.262771,-0.5860431,-0.1381812,-1.109685,0.2111252,0.2830506
1.200145,-0.6047871,-0.164625,-0.740845,0.4729491,0.5399864
1.199092,-0.5443645,-0.1369914,-0.7044661,0.8949492,0.46639
1.179371,-0.4800415,-0.08227702,-0.8432774,1.067558,0.4143913
1.086656,-0.3004391,-0.05802762,-1.059079,0.8018796,0.4027722
1.065702,-0.2128883,-0.03261736,-1.359236,0.4414294,0.4592972
1.003927,-0.287041,-0.0181386,-1.32694,0.4303456,0.6198769
0.8240295,-0.2684756,0.0427443,-1.167937,0.5498922,0.5436201
0.667127,-0.2507477,0.02164325,-1.135202,0.5413749,0.4657789
0.4514494,-0.2868407,-0.05384208,-0.9771031,0.5998169,0.4701271
0.3973691,-0.2844824,-0.008639195,-0.903828,0.6651107,0.2716272
0.507668,-0.2897259,-0.0115732,-0.9421995,0.6966296,0.1306527
0.438668,-0.2584296,-0.01764683,-0.9570267,0.6471491,0.1031001
0.4505594,-0.1793517,0.04585971,-1.065051,0.4266167,0.1239937
0.5845348,-0.1435507,0.04491042,-1.163641,0.3511826,0.2127288
0.6085769,-0.2014377,0.0728165,-1.22741,0.3904858,0.2483612
0.6973604,-0.3125643,0.1441055,-1.179257,0.3906418,0.2617169
0.8083645,-0.3723264,0.2113608,-0.9631637,0.4534616,0.1694797
0.9007209,-0.3559949,0.2757818,-0.8988156,0.452528,0.02588598
1.0424,-0.2799681,0.3281182,-0.9720543,0.2603325,-0.03979999
1.096996,-0.2015817,0.3987936,-1.013012,-0.1071179,-0.100778
1.162559,-0.256358,0.3303936,-1.100553,-0.375026,-0.1127615
1.278739,-0.5171441,0.03577497,-1.098387,-0.397401,-0.2115542
1.378721,-0.8136717,-0.218158,-0.8354729,-0.2884822,-0.3525227
1.547105,-0.8242933,-0.129978,-0.3385574,-0.1193835,-0.2461245
1.564741,-0.6414703,0.02463773,-0.0003788595,-0.1707791,-0.1419129
1.226519,-0.5639259,-0.1364312,-0.1415691,-0.2816872,-0.2264038
0.8996116,-0.508471,-0.2323003,-0.2684476,-0.1823298,-0.273872
0.9934899,-0.487503,-0.2201506,-0.2031006,-0.04568003,-0.3036597
1.219017,-0.5302531,-0.3020224,-0.1944058,0.2475301,-0.4121791
1.20593,-0.4720938,-0.1627177,0.1228826,0.4088498,-0.5211336
1.065376,-0.4375827,-0.0532954,0.6144968,0.1401804,-0.6490442
0.8278469,-0.3843562,-0.1280319,0.67811,-0.03495597,-0.725776
0.6825517,-0.1978368,-0.1058416,0.5947044,-0.09987225,-0.6104283
0.7287675,-0.1038394,-0.1182284,0.6576112,-0.3611114,-0.4217695
0.701109,-0.1014646,-0.133853,0.6331635,-0.4995071,-0.3122907
0.7044839,-0.1200018,-0.117329,0.5559985,-0.2863777,-0.3534541
0.6798493,-0.1565203,-0.09341662,0.4855633,-0.1232144,-0.4545388
0.5752104,-0.1673349,0.0007928179,0.3750863,-0.2004933,-0.4724896
0.6348838,-0.1737764,0.01649263,0.4110481,-0.1780912,-0.4679603
0.6614925,-0.1210154,-0.02386923,0.477458,-0.1045461,-0.3705967
0.6890204,-0.05675078,-0.04884616,0.2995519,-0.1269808,-0.1820093
0.827798,-0.008136232,-0.04072817,0.08350479,-0.1386724,-0.1283099
0.8895915,0.02995794,0.003185933,-0.05999811,-0.2690843,-0.1744055
1.019428,-0.007048356,0.0324833,-0.1651534,-0.4085694,-0.1586017
1.248127,-0.0005390939,0.09327546,-0.1502105,-0.28637,-0.01438554
1.412192,0.04118835,0.1039097,-0.2466916,-0.1416429,0.1817201
1.472861,0.03346733,0.08530674,-0.4274039,-0.167197,0.3049926
1.525566,-0.05771133,0.08704835,-0.3677644,-0.0902469,0.4351675
1.62426,-0.2694242,-0.01555672,-0.3935348,0.07768246,0.5111519
1.615487,-0.378745,-0.1029327,-0.8172914,0.09227026,0.255441
1.548215,-0.3646937,-0.07346139,-1.104256,0.1202287,-0.0002619828
1.164905,-0.561194,0.1015127,0.370153,-0.4443149,-0.4103979
1.551077,-0.7804536,-0.07477907,0.8665204,-0.3525293,-0.3766774
1.786872,-0.7257828,-0.06803066,0.9154,-0.4011821,-0.3079898
1.451168,-0.498805,-0.08733341,0.5797094,-0.3856181,-0.3220801
1.000915,-0.4665264,-0.2914188,0.3215288,-0.3371247,-0.2978246
1.127927,-0.5214322,-0.31791,0.316166,-0.2082962,-0.267739
1.258955,-0.5808516,-0.1833963,0.6441119,-0.04700634,-0.3492299
1.025826,-0.6326629,-0.1770868,1.175567,-0.1765829,-0.5037634
0.9954518,-0.5176319,-0.07299953,1.444662,-0.3708027,-0.6835655
0.805697,-0.3534491,-0.05906789,1.397321,-0.3605743,-0.7304176
0.5765485,-0.1608688,-0.1575728,1.391647,-0.4941297,-0.5513538
0.6257675,-0.06295326,-0.08314577,1.35505,-0.6993994,-0.4203679
0.4866324,-0.171689,-0.1178961,1.080678,-0.6241407,-0.5425627
0.4670544,-0.1846226,-0.1352223,0.8914008,-0.5358617,-0.6443998
0.5514348,-0.163102,-0.05590751,0.9830959,-0.5268069,-0.5819874
0.564295,-0.1873483,-0.0919479,1.060458,-0.374277,-0.5392387
0.7156528,-0.128361,-0.0580018,1.060957,-0.2662197,-0.433045
0.7381173,-0.07775822,-0.0471035,1.036824,-0.2797861,-0.2313537
0.8231164,-0.03616154,-0.0612702,0.8775864,-0.2860644,-0.1794564
1.027762,-0.03984011,-0.0051345,0.6975971,-0.3028335,-0.1940758
1.145317,-0.06257167,0.004976289,0.6647099,-0.2289904,-0.140107
1.286788,-0.01974808,0.08212056,0.6541206,-0.1338535,-0.1094068
1.324512,0.001889611,0.1268594,0.4874435,-0.175875,-0.01987629
1.408175,0.01513922,0.07521425,0.24792,-0.1688663,0.159238
1.5367,-0.04689057,0.04987817,0.13239,-0.03318424,0.3835835
1.535896,-0.2285964,-0.05458084,0.1073279,0.1465787,0.5083091
1.546951,-0.3958709,-0.1694761,-0.145164,0.2735461,0.1818955
1.420147,-0.5012753,-0.1580167,-0.4859975,0.2387564,-0.149227
1.218687,-0.5116571,-0.1236693,-0.2876021,0.2323582,0.1477827
1.163879,-0.501214,-0.1515516,0.1165509,0.4277978,0.4821682
1.170987,-0.5281099,-0.1519262,0.1151652,0.7277083,0.4509847
1.198071,-0.4620015,-0.100192,-0.07989776,0.8964762,0.4131325
1.208497,-0.3382022,-0.05350921,-0.4181578,0.6582224,0.4011564
1.165189,-0.2998536,0.02198905,-0.6118672,0.3279201,0.4954149
0.9927577,-0.3478538,0.0368319,-0.3635916,0.3151702,0.6787093
0.728501,-0.3742082,-0.008298573,-0.1842248,0.304137,0.6488911
0.534092,-0.3073593,-0.0116888,-0.1514268,0.2273717,0.5579085
0.4306889,-0.243888,-0.03233864,-0.1171705,0.2578884,0.4810377
0.4433048,-0.2302783,-0.01238583,-0.1763273,0.2347486,0.3228149
0.4758212,-0.1996616,0.0275714,-0.2502803,0.2168915,0.2265703
0.4324615,-0.1784158,0.01184717,-0.3875263,0.2021901,0.1477503
0.4508108,-0.1876308,0.04158488,-0.4775402,0.09995908,0.1153495
0.5100935,-0.1932145,0.08730685,-0.4916429,0.05787232,0.1973514
0.578661,-0.2195782,0.1232153,-0.5218676,0.09018743,0.2198702
0.7891064,-0.2907815,0.2084764,-0.3530361,0.2056501,0.1719204
0.9502219,-0.3287124,0.2810801,-0.1466332,0.326886,0.09024472
0.9005913,-0.2610341,0.2899694,-0.172134,0.2537451,-0.03902454
0.9461854,-0.1942629,0.3072598,-0.2568775,0.008864226,-0.2145556
1.123351,-0.2550235,0.2966112,-0.2580698,-0.2717785,-0.4174266
1.244032,-0.4502814,0.1038487,-0.1748133,-0.3674341,-0.4731404
1.49611,-0.7306785,-0.07659136,0.1091353,-0.283382,-0.4169611
1.743884,-0.8389078,-0.03027016,0.5630272,-0.2794697,-0.4193564
1.482504,-0.6286093,-0.0478301,0.7099833,-0.3165908,-0.3593597
1.073746,-0.4770639,-0.2415149,0.4977162,-0.3459419,-0.2690454
1.106302,-0.5375296,-0.319133,0.3922976,-0.3634858,-0.3051329
1.18188,-0.5408142,-0.2848746,0.4116088,-0.1748801,-0.3363575
1.10107,-0.5148008,-0.2619927,0.5600213,-0.03254095,-0.364868
1.108922,-0.5260126,-0.1528829,0.9602621,-0.2454196,-0.4981525
0.9810239,-0.4643121,-0.07160048,1.228372,-0.4310732,-0.6628514
0.7802428,-0.3430784,-0.1295693,1.166611,-0.4269416,-0.7429184
0.7302491,-0.2152182,-0.1561369,1.14522,-0.585734,-0.5269247
0.6674492,-0.1470875,-0.1440653,1.189233,-0.8047526,-0.2043061
0.6073966,-0.1522007,-0.1655625,1.06655,-0.6870666,-0.239778
0.6019184,-0.1867313,-0.1708545,0.9515558,-0.4738545,-0.4255356
0.5904809,-0.2301368,-0.1164617,0.9376467,-0.4490644,-0.5096002
0.5672022,-0.2063828,-0.04309764,0.9415438,-0.4283017,-0.5424166
0.5818082,-0.1500499,-0.0366312,0.9973246,-0.5201638,-0.3949487
0.6709776,-0.1071176,-0.03966049,1.014383,-0.6413713,-0.1889694
0.8048822,-0.02225883,-0.01150162,0.9822107,-0.5396971,-0.1109321
1.016217,0.01007134,-0.00990872,0.8789875,-0.4306946,-0.1133003
1.167572,-0.006003457,0.02148681,0.626225,-0.3162736,-0.1353468
1.171563,0.04741517,0.1057739,0.4072248,-0.2655105,-0.05686425
1.205325,0.07081723,0.1450469,0.2362849,-0.31328,0.05099928
1.269885,-0.0004368466,0.1301518,0.1389672,-0.156413,0.1466314
1.343768,-0.1536397,0.08246558,0.2215804,0.04259868,0.3147368
1.438568,-0.4008032,-0.08677602,0.1531348,0.1442614,0.3346785
1.493552,-0.5768762,-0.2621901,-0.2251291,0.1961354,0.06349086
1.453132,-0.5664443,-0.2081841,-0.4656424,0.1193644,-0.1239944
1.295787,-0.5667193,-0.1332887,-0.04166246,0.1111878,0.2468706
1.203173,-0.6575368,-0.2069414,0.5578953,0.3445076,0.6551334
1.222976,-0.6118101,-0.1769851,0.413556,0.6297652,0.4259005
1.221477,-0.4272547,-0.06280963,0.06193462,0.6199635,0.3013197
1.1977,-0.2653875,0.004429085,-0.01734579,0.3362492,0.5570142
1.101875,-0.1989712,0.05642879,-0.131604,0.0953097,0.5857352
0.8784084,-0.3097054,0.01319718,0.02825838,0.01839263,0.5896622
0.5977447,-0.3855485,-0.01746342,0.2558951,0.1525437,0.5799401
0.4415861,-0.3274452,0.005090084,0.3028379,0.2715781,0.4152082
0.4722646,-0.3270311,-0.01089428,0.4819815,0.211068,0.3329249
0.5241016,-0.2720636,0.03518613,0.4942251,0.202753,0.1438035
0.552163,-0.175319,0.03694979,0.35007,0.1764678,-0.02226369
0.5642403,-0.1357636,0.02436682,0.2311431,0.05322194,0.05907307
0.5561154,-0.09729346,0.09353181,0.0882264,-0.02708984,0.09703995
0.574763,-0.1727685,0.09469929,0.007362629,-0.08604725,0.09796377
0.6175233,-0.2857151,0.1755562,-0.06662932,-0.1357347,0.06372738
0.7578842,-0.2984127,0.3046496,0.09866167,-0.2058079,-0.04655004
0.9519101,-0.2586217,0.2971548,0.2657709,-0.2630618,-0.07396024
1.018194,-0.2019704,0.3020556,0.1213788,-0.2582884,-0.1191973
1.018051,-0.1983457,0.3293638,0.06538759,-0.3206756,-0.2166172
1.103305,-0.259844,0.287416,0.02520557,-0.4903753,-0.2682216
1.205203,-0.3979322,0.1353429,0.02425652,-0.7121407,-0.3162349
1.199265,-0.5314692,-0.0184943,0.2622012,-0.8775498,-0.3409259
1.235422,-0.5263802,-0.006361555,0.6462549,-0.7993616,-0.3260771
1.359471,-0.5276384,-0.04008328,0.9925189,-0.5201933,-0.2940565
1.275415,-0.5730998,-0.1912684,0.9161818,-0.4025885,-0.2543046
1.006542,-0.576853,-0.2025899,0.8424613,-0.6124597,-0.3045086
0.883593,-0.6543805,-0.1934137,1.128916,-0.7672447,-0.4205047
1.107908,-0.7183212,-0.2507036,1.424823,-0.5062277,-0.4750416
1.383133,-0.6400017,-0.1793806,1.881923,-0.1703135,-0.5388576
1.156707,-0.5679543,-0.1351234,2.203116,-0.1967912,-0.6336023
0.8541166,-0.465336,-0.15717,2.146373,-0.3291014,-0.6546268
0.9048731,-0.2780619,-0.1454012,2.158091,-0.3956763,-0.5678078
0.8638743,-0.1704601,-0.2185389,2.040421,-0.4905184,-0.4300535
0.8359958,-0.1637447,-0.2104397,1.886604,-0.4758043,-0.4264479
0.8543223,-0.211145,-0.1385785,2.008506,-0.4342263,-0.5322728
0.7017269,-0.247362,-0.1308962,2.176025,-0.3816614,-0.5979975
0.6309337,-0.2246599,-0.07379778,2.338277,-0.2823692,-0.6347681
0.556148,-0.2061923,-0.09142083,2.219679,-0.2894245,-0.553774
0.5772001,-0.1506431,-0.1035301,2.000323,-0.2332669,-0.4026654
0.72381,-0.03880745,-0.05989386,2.074405,-0.1525311,-0.3318324
0.6594379,0.03629686,-0.09491161,1.846047,-0.239126,-0.3175337
0.6904689,0.04743404,-0.05894914,1.390076,-0.3257679,-0.3348461
0.844727,0.03022059,0.01985858,1.223433,-0.3574358,-0.2808341
0.9260234,0.01373522,0.1148639,1.119551,-0.3803862,-0.1475451
1.054409,-0.02278578,0.2211194,1.092876,-0.3942478,-0.02033258
1.117412,-0.05523313,0.2135981,1.09147,-0.3856739,0.07920852
1.196971,-0.05510763,0.2166693,0.8974969,-0.3450727,0.09605059
1.314507,-0.09382779,0.2435763,0.8089643,-0.3225834,0.1726121
1.388858,-0.202388,0.2111906,0.8725084,-0.2948432,0.3744896
1.520969,-0.344187,0.1045653,0.7901103,-0.276845,0.4952597
1.573217,-0.4553545,-0.07058604,0.5350522,-0.3480704,0.4530215
1.514217,-0.496232,-0.1419656,0.1330195,-0.394967,0.3948225
1.391834,-0.5390741,-0.1355352,-0.08133565,-0.2502233,0.5080595
1.243962,-0.5720556,-0.1732989,0.1737011,-0.04232588,0.6763844
1.218955,-0.528324,-0.1745225,0.3181186,0.05298757,0.7324741
1.218123,-0.4841657,-0.1509308,0.1346355,0.133805,0.6302989
1.171888,-0.4075176,-0.1096819,0.0452522,0.1825967,0.4670096
1.135903,-0.3331164,-0.0318812,0.04207758,0.1025764,0.5721896
1.058939,-0.4347522,-0.03432478,0.1802356,0.1038484,0.7278555
0.8829296,-0.5274689,-0.06268523,0.5475266,0.2827013,0.6914986
0.7089283,-0.4702531,-0.02263227,0.8455033,0.4098131,0.6781861
0.6449541,-0.3636355,-0.004968342,0.9865762,0.3090536,0.5506989
0.5458717,-0.2288318,0.01645587,1.015682,0.1237627,0.3701589
0.5207637,-0.1575132,0.03260557,0.9122118,0.09269307,0.2733482
0.6199055,-0.09686908,0.004333124,0.7073402,0.07669073,0.2063377
0.5429987,-0.03423912,0.03455483,0.3735272,-0.007687607,0.2582085
0.491809,-0.1006555,0.06222002,0.08360055,-0.01938081,0.220881
0.5421101,-0.1421483,0.07617782,-0.04928399,-0.06363729,0.1542293
0.5151029,-0.1870425,0.1290314,-0.1845802,-0.1211218,0.137557
0.6288317,-0.2926323,0.1568392,-0.1932693,-0.08861197,-0.02508787
0.8153182,-0.2864618,0.2301512,-0.106967,0.0004536854,-0.08749103
0.9348023,-0.2932705,0.3122507,-0.1532461,0.1339543,-0.06385404
1.009436,-0.3042938,0.3404227,-0.2021496,0.1201339,-0.08772264
1.036186,-0.2548914,0.3842246,-0.3503961,-0.05932287,-0.09712636
1.199358,-0.3213267,0.3603886,-0.5759802,-0.2217416,-0.1677418
1.393085,-0.4685817,0.221897,-0.5356696,-0.3122346,-0.1923045
1.485621,-0.6466758,0.08060887,-0.3148831,-0.2624184,-0.2269731
1.504292,-0.6886776,0.08363009,0.006940571,-0.2246258,-0.3003268
1.332944,-0.526354,0.1213734,0.2537241,-0.3178227,-0.2660443
1.105625,-0.4737327,0.0168246,0.1139174,-0.4669676,-0.253089
0.9604648,-0.4919986,-0.08620028,-0.07508055,-0.6410157,-0.2781542
1.001155,-0.4850832,-0.2113258,-0.08527071,-0.5222613,-0.2660162
1.236279,-0.506938,-0.298511,-0.05909811,-0.1210014,-0.2278847
1.31827,-0.4710112,-0.1884043,0.1204106,0.07514746,-0.2269212
1.137192,-0.4514346,-0.146514,0.3301962,0.01917736,-0.4206117
0.8512586,-0.4278895,-0.1495553,0.4493349,-0.1224204,-0.7071511
0.711573,-0.3417921,-0.1040627,0.638565,-0.2196064,-0.7575615
0.7103745,-0.2641208,-0.1388624,0.7659244,-0.2967011,-0.5696083
0.64017,-0.1951668,-0.123838,0.87008,-0.4098874,-0.43828
0.661755,-0.1914813,-0.1015194,1.022587,-0.4080277,-0.4127106
0.6529799,-0.2158589,-0.1098173,0.9687574,-0.4067493,-0.4283588
0.5495218,-0.2085645,-0.0664336,0.8641367,-0.3846023,-0.4688493
0.5944596,-0.1831343,-0.05975395,0.8424441,-0.2581998,-0.4182832
0.6327392,-0.1303845,-0.0585792,0.7743073,-0.2239619,-0.316602
0.7099666,-0.09845398,-0.04892088,0.7528326,-0.2297847,-0.24333
0.8746366,-0.02893739,-0.03407694,0.6966012,-0.2652518,-0.1802006
1.026138,0.04527477,-0.001972974,0.4749865,-0.2695823,-0.1172841
1.221448,0.01999007,0.01904156,0.2108425,-0.1602211,-0.03929839
1.277404,0.01099073,0.06938516,0.06798389,-0.0684485,0.06217368
1.291991,0.004755859,0.06801966,0.01367164,-0.01025593,0.2573497
1.468969,-0.06325827,0.0479212,-0.1171594,-0.02117091,0.4319348
1.576517,-0.1013711,0.08885252,-0.1865518,0.04158232,0.5054642
1.536435,-0.1119851,0.0507144,-0.1849387,0.1780298,0.6280467
1.522544,-0.134527,-0.05836984,-0.3520125,0.1920936,0.6624893
1.564179,-0.1641433,-0.1416646,-0.6762176,0.2142737,0.5407181
1.512575,-0.2724204,-0.1307116,-0.9668056,0.2722411,0.4648041
1.356831,-0.4659539,-0.06302084,-0.8625411,0.3788108,0.4647558
1.148742,-0.534551,-0.08494241,-0.60569,0.5112162,0.4769881
1.004781,-0.4832855,-0.1087476,-0.6498101,0.6918776,0.4246281
1.057202,-0.5264805,-0.106626,-0.6959868,0.952044,0.2886169
1.07976,-0.5200373,-0.1159315,-0.9044615,0.8471222,0.1984656
1.072839,-0.3892942,-0.04393912,-1.218137,0.5187125,0.3046243
1.125018,-0.3432506,0.00366069,-1.077621,0.4127707,0.476887
1.001349,-0.3923917,-0.006561775,-0.8894683,0.4050532,0.4648364
0.7890626,-0.4711446,-0.004160025,-0.7255894,0.4700252,0.3775369
0.6143334,-0.4867539,-0.01347864,-0.4163957,0.4699469,0.2741312
0.5234389,-0.4194069,0.004512653,-0.3061986,0.419123,0.1001002
0.5616657,-0.3719152,0.01445596,-0.1873902,0.4630527,0.0129799
0.5372345,-0.2981839,0.0184892,-0.09716031,0.413435,-0.006264054
0.4957976,-0.200159,0.03691532,-0.2973867,0.3502016,0.01543627
0.5120904,-0.1332804,0.03815222,-0.5210181,0.2247718,0.1043552
0.5296971,-0.1332437,0.09259562,-0.6775344,0.04489634,0.12475
0.6110874,-0.2059028,0.1571057,-0.7095368,0.07099596,0.1298419
0.6687008,-0.2305243,0.1778892,-0.5953489,0.03304495,0.1106405
0.6875306,-0.2192794,0.1932682,-0.5331372,-0.09788032,-0.00304314
0.8005395,-0.214601,0.2249675,-0.5186785,-0.1303848,-0.04098507
0.9600858,-0.209645,0.2851324,-0.5252856,-0.221709,-0.01581481
1.046118,-0.2275056,0.311976,-0.5822818,-0.2928418,-0.03972533
1.133495,-0.2364364,0.3221663,-0.6467992,-0.2999218,-0.1225389
1.31156,-0.2921252,0.3041905,-0.6727253,-0.3884113,-0.2206175
1.405518,-0.4468904,0.1516928,-0.5615891,-0.4624965,-0.2140304
1.440755,-0.7013857,-0.01067473,-0.1826927,-0.4091427,-0.1888051
1.538422,-0.8580539,-0.008910022,0.3312894,-0.3290047,-0.2212011
1.441878,-0.6877124,0.005040951,0.4557956,-0.3131694,-0.2174087
1.101162,-0.5173721,-0.1194022,0.2622547,-0.4050148,-0.2333595
0.8736711,-0.5492423,-0.208936,0.3351971,-0.4867444,-0.2747414
1.031169,-0.5721069,-0.2232962,0.4534416,-0.2158634,-0.2983384
1.280885,-0.5890509,-0.2072958,0.5932249,0.12808,-0.4010176
1.174052,-0.5655407,-0.1096255,1.040642,0.05018741,-0.5765941
0.9756866,-0.4492684,-0.07656366,1.202241,-0.08133071,-0.7319979
0.8378947,-0.3061518,-0.1012185,1.003974,-0.1026081,-0.7664799
0.6717767,-0.1355438,-0.107801,0.9324954,-0.3123438,-0.5797059
0.7149088,-0.05645107,-0.1314827,0.873749,-0.5071097,-0.3627262
0.7550588,-0.09237951,-0.1093115,0.7918767,-0.4670581,-0.3775417
0.7013021,-0.124657,-0.09633118,0.7871618,-0.3329922,-0.4681582
0.6751865,-0.190972,-0.08158565,0.7524413,-0.2578631,-0.4772361
0.5379601,-0.2390387,-0.05823846,0.6719964,-0.2351522,-0.5049782
0.572016,-0.1921219,-0.0793332,0.7490413,-0.1435606,-0.4907459
0.6685744,-0.1457855,-0.07842342,0.8665317,-0.03620317,-0.4164025
0.6223413,-0.09339865,-0.09713934,0.7081018,-0.050445,-0.3875923
0.7284123,0.01321673,-0.06720911,0.5063801,-0.1580071,-0.3069678
0.8530809,0.06768527,0.01904267,0.3564907,-0.2760528,-0.1601619
0.9639263,0.03018815,0.02827737,0.1881381,-0.3136544,-0.05497344
1.0793,0.00350478,0.04793001,0.1548847,-0.2408045,0.03045161
1.180829,-0.00433864,0.09826319,0.09908365,-0.1914162,0.1482256
1.379951,-0.01196956,0.1311185,-0.0208777,-0.2008611,0.2406474
1.425222,-0.00137935,0.130173,-0.1113661,-0.1359602,0.2937051
1.449158,-0.06391397,0.1212283,-0.1693162,-0.02846641,0.5501332
1.547641,-0.2363997,0.106351,-0.1824837,0.01084942,0.8141362
1.571237,-0.43884,-0.09103272,-0.4046012,-0.002833311,0.5859048
1.644375,-0.5433932,-0.2794482,-0.6552761,-0.009387426,0.2887624
1.425392,-0.5266485,-0.1303097,-0.4613783,0.0413194,0.360552
1.081126,-0.5707015,0.01418718,-0.1047237,0.2046829,0.4347241
1.141907,-0.5949937,-0.1367522,-0.01911929,0.561329,0.3742491
1.197199,-0.4499678,-0.2010667,-0.2262015,0.8479237,0.1672986
1.119409,-0.2953135,-0.04583802,-0.5518505,0.6838476,-0.07114462
1.127645,-0.1961882,0.04566819,-0.63208,0.3151323,0.2046357
1.074549,-0.2514184,0.0689234,-0.3718892,0.1151998,0.6396395
0.9095182,-0.4313808,0.02876807,-0.08059439,0.2076007,0.5759174
0.6829784,-0.4524032,-0.0348699,0.1428274,0.3735381,0.4725039
0.5280842,-0.3871452,0.01546991,0.3399403,0.1421887,0.4797993
0.5428088,-0.3060006,0.02209626,0.4803648,-0.1601255,0.3637953
0.5991989,-0.1808047,-0.01640698,0.5110158,-0.1986637,0.3150179
0.6073507,-0.1314503,-0.01169912,0.3415561,-0.2481481,0.2376404
0.5881991,-0.1080592,-0.02946184,0.08294184,-0.2107128,0.133804
0.566078,-0.1208804,-0.01115047,-0.1167393,-0.1798568,0.1174305
0.5773505,-0.1694856,0.02164588,-0.2009103,-0.1866848,0.06560566
0.6158998,-0.1852771,0.072155,-0.1467605,-0.03863034,0.02139897
0.670598,-0.1935804,0.1676879,-0.1131327,-0.02824908,-0.02669228
0.772234,-0.1453096,0.2166221,-0.1226012,-0.07777323,-0.02863191
0.8468926,-0.1334924,0.2441323,-0.08235406,-0.06556273,0.01791735
0.8964318,-0.188844,0.2947132,-0.08834273,-0.08897831,-0.04561912
1.021134,-0.2150901,0.3671777,-0.1742931,-0.08549761,-0.1285713
1.129104,-0.2665643,0.3564679,-0.2344245,-0.2542842,-0.2148533
1.195987,-0.4109493,0.1485006,-0.190563,-0.5032468,-0.2573516
1.341282,-0.6624319,-0.06001522,0.0248492,-0.6130694,-0.2106129
1.588633,-0.7522975,-0.08100146,0.4316713,-0.5535397,-0.2180509
1.708407,-0.6256655,-0.06070423,0.7117132,-0.3090239,-0.1390002
1.314224,-0.620898,-0.1400015,0.5659035,-0.2178219,-0.04934985
0.8706573,-0.6729717,-0.2432174,0.4268559,-0.3307789,-0.2019818
1.121002,-0.6631136,-0.3268598,0.5473099,-0.2896748,-0.3130054
1.411625,-0.6252928,-0.335922,0.5456068,-0.02248803,-0.1933919
1.267687,-0.5370953,-0.2283643,0.6281024,0.1725769,-0.1261674
1.142271,-0.4915447,-0.1740712,0.9012835,-0.001454931,-0.308756
0.9210738,-0.4487868,-0.1758523,0.9284303,-0.2339637,-0.5548828
0.7930151,-0.3539538,-0.1615298,0.9440616,-0.2124531,-0.6221021
0.8820931,-0.2788778,-0.17465,1.086048,-0.2889571,-0.50312
0.7198258,-0.243712,-0.1586769,1.137696,-0.4588554,-0.3943136
0.658593,-0.2535361,-0.1560464,1.163327,-0.4206937,-0.4862251
0.7109123,-0.2460079,-0.1454682,1.181031,-0.4086974,-0.588387
0.6181001,-0.1853714,-0.08541182,1.322479,-0.4023872,-0.5700047
0.6623455,-0.1192386,-0.0913129,1.389194,-0.2704739,-0.5572937
0.6181903,-0.09617521,-0.1300674,1.13268,-0.2254265,-0.4932283
0.5700618,-0.1200322,-0.1584433,0.9075735,-0.2047956,-0.4381021
0.6837378,-0.1078412,-0.1280936,0.844271,-0.1907132,-0.4112025
0.7301812,-0.07489041,-0.04465422,0.8472147,-0.1137041,-0.3529894
0.8044814,-0.06283615,-0.01766669,0.7914772,0.04223341,-0.3401179
0.854758,-0.005121159,0.02183487,0.6540553,0.0101922,-0.2261809
0.9897163,0.06348428,0.07947951,0.480229,-0.003542012,-0.05290998
1.2135,0.06437092,0.09357265,0.1555071,0.07370403,0.05771043
1.276954,0.006706003,0.0969079,-0.02058985,0.09985074,0.2062639
1.353792,-0.06947176,0.1106499,-0.0008558402,0.166948,0.3369558
1.426054,-0.1239688,0.1480178,-0.03727423,0.1516008,0.5208007
1.474853,-0.1566034,0.1361573,-0.05315874,0.1200123,0.6781012
1.564111,-0.2571679,-0.0007234282,-0.3419823,0.1486524,0.573936
1.566407,-0.4510485,-0.1481631,-0.8890687,0.0678993,0.3870468
1.472205,-0.5650928,-0.1152938,-1.030869,-0.04586105,0.2908117
1.23893,-0.5849362,-0.05312897,-0.5256662,-0.05366588,0.4087583
1.077735,-0.5755563,-0.1292376,-0.02654775,0.1829487,0.6175437
1.129913,-0.4808919,-0.1201539,-0.2058884,0.6065694,0.5352387
1.12747,-0.4271676,-0.07798466,-0.5058779,0.7773547,0.377474
1.083228,-0.3495037,-0.07496617,-0.6815211,0.5794269,0.3726141
1.102413,-0.2171152,0.0223316,-1.02425,0.3998728,0.4349937
1.047309,-0.3160234,0.02698285,-0.9305315,0.4223515,0.5916074
0.8349151,-0.4386674,-0.01295589,-0.5696532,0.5313621,0.5883373
0.5913844,-0.4119459,0.02385517,-0.3816118,0.6456549,0.4699118
0.4863585,-0.3732953,0.007024891,-0.1267793,0.6413749,0.4493804
0.5227071,-0.2536879,0.01313439,-0.1497125,0.5757268,0.2825787
0.5393848,-0.1809253,0.0211682,-0.2506131,0.5901051,0.1407452
0.4885465,-0.1734125,0.002389382,-0.2850954,0.5100737,0.1546737
0.504306,-0.1343144,0.03174147,-0.6575021,0.3403629,0.1337446
0.5342523,-0.1702315,0.04933372,-0.7703986,0.1974832,0.1328988
0.5445583,-0.1984274,0.0968573,-0.6400817,0.07314755,0.08052764
0.6010184,-0.2309601,0.1988359,-0.6915952,-0.07632577,0.03831383
0.6785212,-0.2850309,0.2797589,-0.643033,-0.3875728,0.01547304
0.869178,-0.2398546,0.2662411,-0.7204916,-0.430421,-0.08275318
1.064098,-0.2246077,0.2283325,-0.9187755,-0.03596798,-0.06180962
1.113701,-0.2783719,0.3351916,-0.9760878,0.1104164,-0.008362346
1.211569,-0.3143763,0.4195529,-0.9894985,-0.05979375,0.01329362
1.390394,-0.3640123,0.3328994,-0.9685694,-0.2220707,0.05073282
1.498938,-0.4941803,0.1441234,-0.9275938,-0.1909034,-0.02972493
1.617485,-0.6924974,-0.05225907,-0.672045,0.03437056,-0.136636
1.741578,-0.702482,-0.01422383,-0.3541816,0.1848734,-0.1991113
1.457884,-0.4783515,0.0648801,-0.3580023,0.1613052,-0.2156329
0.9180984,-0.3477892,-0.1055981,-0.464886,-0.2341569,-0.1660216
0.8163271,-0.4001958,-0.2478836,-0.5928128,-0.5645677,-0.12857
1.076051,-0.4963751,-0.3068886,-0.7025172,-0.1553501,-0.1139928
1.234848,-0.5495708,-0.3076776,-0.4769537,0.2838794,-0.1753874
1.11306,-0.5400356,-0.1967864,0.01692474,0.1974257,-0.3439558
0.8898282,-0.4723471,-0.1876734,0.3521203,0.08469646,-0.5684025
0.7610363,-0.3360621,-0.2000385,0.3155732,0.08900823,-0.7485608
0.6099126,-0.1932799,-0.1686317,0.2254482,-0.1075482,-0.6960758
0.5948724,-0.1250228,-0.1822227,0.286834,-0.3934427,-0.4718525
0.6829561,-0.143324,-0.1603292,0.2708264,-0.4324611,-0.3050853
0.6577653,-0.1901302,-0.165543,0.2486864,-0.2440284,-0.2943155
0.6619299,-0.2133877,-0.1282564,0.3467981,-0.01571063,-0.4003364
0.6024002,-0.2242337,-0.04474256,0.3722901,0.0169357,-0.4264752
0.557945,-0.1848845,-0.05670469,0.3313641,-0.08823522,-0.3545493
0.6604004,-0.1092588,-0.05135518,0.2688813,-0.1670682,-0.2821975
0.765311,-0.048515,-0.04658262,0.1520951,-0.2742987,-0.1408257
0.9413369,-0.01028101,-0.04829663,0.05964853,-0.2997935,-0.02479271
1.122357,-0.02581679,-0.01255978,-0.05742619,-0.2857449,-0.02955539
1.251787,-0.02417935,0.005427362,-0.1961164,-0.2230165,-0.03219075
1.335777,0.01360888,0.05906963,-0.2926522,-0.02781079,0.04561379
1.346366,0.03857819,0.09382897,-0.4088102,0.02640966,0.1764224
1.380693,0.04845516,0.07461204,-0.5655899,-0.000540395,0.3026387
1.397045,-0.04468978,0.05144617,-0.6874513,0.1313136,0.5197474
1.440272,-0.1874217,0.007043172,-0.7018475,0.3797117,0.7401025
1.44318,-0.3407746,-0.08955187,-0.8624078,0.6029164,0.5529176
1.330319,-0.5675946,-0.2050427,-1.263996,0.6177923,0.08734165
1.300577,-0.628316,-0.1800493,-1.404875,0.5924613,-0.06961259
1.272386,-0.5343236,-0.1108629,-1.074071,0.8222858,0.2207191
1.221996,-0.5886439,-0.1229889,-0.6837836,1.137375,0.5257889
1.209164,-0.5839473,-0.0785523,-0.6993804,1.237904,0.4697619
1.145475,-0.3908102,-0.05815651,-1.074769,1.147924,0.3863432
1.096953,-0.258609,-0.07526865,-1.456439,1.027287,0.5372866
1.04094,-0.2250028,-0.02788395,-1.60632,0.8327362,0.5899286
0.8746893,-0.2787083,-0.02708946,-1.392347,0.5894148,0.6323247
0.6150081,-0.329047,-0.02915726,-1.113769,0.4882348,0.7139131
0.4759891,-0.3320096,-0.01114051,-0.9296003,0.4500128,0.5893026
0.4657102,-0.3743935,-0.04526415,-0.7021641,0.4352066,0.4336807
0.3897886,-0.3309748,-0.04432734,-0.6516254,0.5132359,0.2478305
0.4213916,-0.2729877,-0.03716115,-0.7098272,0.495412,0.1099267
0.4669809,-0.2319218,-0.03016344,-0.8070345,0.3328597,0.1202796
0.4367675,-0.1205449,0.04309386,-0.9988235,0.125869,0.07167715
0.5237995,-0.1311737,0.1108531,-1.014873,-0.01577589,0.1611853
0.5797343,-0.2102417,0.1567148,-0.9820784,0.002998862,0.2593314
0.7415405,-0.2929768,0.2127952,-0.8614779,0.123548,0.1320098
0.9871317,-0.3635892,0.2801196,-0.6147885,0.2847768,0.05446104
1.021071,-0.3057068,0.3264179,-0.7369369,0.2460108,-0.01537635
1.090639,-0.2914738,0.3686157,-0.9113388,0.0044774,-0.1172174
1.230878,-0.3384642,0.3757854,-0.7664594,-0.3045891,-0.1785856
1.333934,-0.4356931,0.1635047,-0.606958,-0.7071992,-0.2035605
1.524988,-0.6578403,-0.07560132,-0.3244886,-0.6753326,-0.1479495
1.700212,-0.7481178,-0.05461935,-0.01591103,-0.4209313,-0.1051677
1.559962,-0.6219463,-0.03406513,-0.06121717,-0.517801,-0.09415967
1.182329,-0.4992287,-0.1890763,-0.2518499,-0.4376469,-0.1446899
1.079224,-0.4754657,-0.3004732,-0.4011568,-0.2790141,-0.2302702
1.198997,-0.4832292,-0.2891349,-0.4696589,-0.1321735,-0.2380037
1.204357,-0.4823979,-0.2306446,-0.2928691,0.1591234,-0.2862836
1.075736,-0.475099,-0.1388355,0.04576593,0.00376753,-0.4132874
0.8481309,-0.4191534,-0.1036979,0.3487623,-0.1682164,-0.5586507
0.7307332,-0.3079503,-0.1358882,0.4562865,-0.07939154,-0.6498647
0.6720301,-0.1695966,-0.1248081,0.4018219,-0.2203475,-0.5546021
0.5902557,-0.1054781,-0.1240715,0.380388,-0.2739713,-0.3879684
0.6114045,-0.1402355,-0.1338815,0.3455036,-0.247509,-0.3479813
0.5831967,-0.1657235,-0.1071842,0.3850221,-0.1974295,-0.4015587
0.5303764,-0.2009909,-0.09772671,0.4717179,-0.00497209,-0.4516268
0.5189616,-0.2155319,-0.09429914,0.2692949,-0.009706054,-0.4873678
0.5468382,-0.1531794,-0.07960207,0.0879741,-0.05678791,-0.5014287
0.6795704,-0.09313198,-0.0528997,0.1819582,-0.0297003,-0.4464947
0.7867842,-0.05774319,-0.04354129,0.1867962,-0.1000096,-0.3148437
0.9257058,-0.04744211,-0.04151414,0.09306018,-0.1566533,-0.1712366
1.141902,-0.04757824,0.005191499,0.03083876,-0.1678892,-0.04647748
1.320725,-0.04528734,0.05037922,-0.03926837,-0.0531313,0.0758718
1.429843,-0.05918006,0.1020341,-0.07717557,0.1720196,0.1767677
1.414117,-0.04490102,0.1487272,-0.1742122,0.3278161,0.2692343
1.385449,-0.009697064,0.1436669,-0.3762576,0.3953771,0.4006246
1.415174,-0.01880558,0.08720483,-0.5352417,0.3631126,0.6045461
1.50058,-0.1570765,-0.0937879,-0.8685508,0.3160614,0.7081095
1.608991,-0.4138969,-0.24786,-1.477396,0.324636,0.4564796
1.483468,-0.5515349,-0.1763468,-1.642254,0.3167047,0.1921065
1.204288,-0.5271522,-0.1138193,-1.186544,0.3588757,0.2787627
1.088597,-0.5325976,-0.175976,-0.7721412,0.5723009,0.3646111
1.142787,-0.5719444,-0.1678218,-0.6446212,0.956306,0.298795
1.19233,-0.5741691,-0.1310999,-0.7566402,1.186735,0.237121
1.120199,-0.4768832,-0.09441996,-1.004034,0.9604823,0.1507453
1.082682,-0.3093774,0.0203007,-1.270431,0.6523836,0.2315932
1.096819,-0.2774042,0.03310847,-1.375649,0.5465209,0.4506882
0.9681451,-0.3505519,-0.02906616,-1.205449,0.4933756,0.4602794
0.7764865,-0.3534433,0.0006052143,-1.108248,0.5305512,0.3929792
0.6063063,-0.3297927,0.00754936,-1.063263,0.5366108,0.3611525
0.5384624,-0.3147791,0.01898252,-0.9113334,0.4678403,0.2863757
0.5797395,-0.2919564,0.04258824,-0.9050741,0.4812283,0.234274
0.539064,-0.2696991,-0.007587935,-0.9266144,0.4284712,0.1370595
0.5141166,-0.2154621,-0.02145549,-0.939785,0.3828368,0.0624608
0.5665247,-0.1703184,0.005813343,-1.062862,0.3773645,0.09015461
0.5743983,-0.1905209,0.04948721,-1.13685,0.2490343,0.1460463
0.5848855,-0.2385368,0.1253736,-1.097584,0.1441021,0.2589141
0.629138,-0.2762901,0.1855445,-0.9092664,0.07377443,0.295699
0.7593918,-0.2749668,0.2281798,-0.7222987,0.07405906,0.1736551
0.9384843,-0.2349565,0.2599388,-0.6960308,0.1721381,0.03886415
1.009562,-0.2150281,0.3182479,-0.7289029,0.1849915,-0.05169431
1.024207,-0.2263853,0.3656565,-0.7349002,0.1012491,-0.1852234
1.085793,-0.2713444,0.3171975,-0.6659934,-0.1572726,-0.3416484
1.202575,-0.4485471,0.1262352,-0.5346805,-0.4228542,-0.3303898
1.416928,-0.734177,-0.1011385,-0.237214,-0.3856484,-0.2541748
1.617167,-0.8211299,-0.0562367,0.04283014,-0.2446856,-0.2529409
1.406242,-0.5762087,0.03124356,-0.03905788,-0.2311397,-0.2460417
0.9292175,-0.3959143,-0.1438379,-0.1514711,-0.3963659,-0.2739332
0.8642522,-0.5112993,-0.2342024,-0.1476545,-0.5150572,-0.285614
1.163461,-0.5671089,-0.2315974,-0.1911249,-0.2222645,-0.2763269
1.348599,-0.4627118,-0.2162427,-0.06264182,0.1423335,-0.3680688
1.212179,-0.4302886,-0.0894902,0.2343091,0.06025779,-0.55346
0.9102115,-0.3748356,-0.0948175,0.4418367,-0.1792529,-0.7559857
0.786685,-0.252337,-0.1233858,0.4616052,-0.2599035,-0.7814312
0.7376001,-0.2043249,-0.07513682,0.4204314,-0.2933103,-0.6923396
0.7139898,-0.1797997,-0.09899474,0.540605,-0.2632628,-0.6711319
0.7392249,-0.1660795,-0.06739649,0.7161927,-0.2331573,-0.6289965
0.6583293,-0.1701486,-0.06601983,0.7742489,-0.1905959,-0.6829312
0.6404746,-0.1488463,-0.1001342,0.7717139,-0.0797493,-0.7904099
0.6090925,-0.154749,-0.07444152,0.7049496,-0.1039909,-0.6793207
0.5761455,-0.1549627,-0.1013237,0.6151566,-0.1116275,-0.5429731
0.7176458,-0.1299758,-0.1046327,0.5730778,-0.04381736,-0.4965514
0.7848105,-0.1143951,-0.1080847,0.5130445,-0.03147465,-0.4008049
0.8019424,-0.08265861,-0.1345447,0.391126,0.04876061,-0.2698276
0.8310965,-0.0781554,-0.1073751,0.2514934,0.04546711,-0.1337049
0.8740768,-0.09826095,-0.09322755,0.2311555,-0.03970232,-0.08752511
0.9507823,-0.1055763,-0.05126645,0.2855066,-0.06044386,-0.07340635
1.094266,-0.5012337,-0.1575531,1.173397,-0.2105289,-0.3838917
0.9355986,-0.4342993,-0.1650212,1.260263,-0.3387938,-0.6068932
0.7486686,-0.3659448,-0.1955439,1.297438,-0.3301232,-0.816053
0.672547,-0.2553535,-0.1525201,1.420589,-0.3462657,-0.8161272
0.6447533,-0.1442638,-0.1907389,1.400788,-0.5080873,-0.6091352
0.6033509,-0.08662883,-0.1755088,1.364176,-0.5893847,-0.4571865
0.6138447,-0.1653544,-0.1513818,1.292035,-0.6159987,-0.5170744
0.638576,-0.2616337,-0.138889,1.13535,-0.4511696,-0.6137607
0.649851,-0.2526206,-0.03372021,1.056242,-0.1972311,-0.6056811
0.7000878,-0.2249465,-0.01210594,1.21885,-0.1895693,-0.4910385
0.7271387,-0.1250498,-0.03801612,1.404994,-0.3806303,-0.2956818
0.8057178,0.02461764,-0.04297977,1.257093,-0.6668415,-0.1787211
0.989997,0.06475868,-0.03984754,0.9976292,-0.728594,-0.1790201
1.108132,0.07935852,0.0005708124,0.7308245,-0.5482336,-0.1254682
1.231533,0.1510976,0.0105156,0.4834923,-0.4583125,-0.05939716
1.332287,0.1208323,0.02811023,0.4990825,-0.3808524,0.01327143
1.332916,0.01180757,0.04274755,0.4335729,-0.2762207,0.2406256
1.467198,-0.07132497,0.00736199,0.1491272,-0.1392298,0.4761842
1.655087,-0.3355222,-0.141682,-0.01469668,0.1205434,0.4653654
1.763267,-0.6267471,-0.3111862,-0.06544534,0.3354721,0.1947108
1.656581,-0.6466951,-0.1849007,-0.01467421,0.269221,0.05365486
1.296818,-0.6661102,-0.04364679,0.1948117,0.1926161,0.3554231
1.192885,-0.6877507,-0.1702777,0.4793515,0.5151207,0.6558395
1.242338,-0.5654023,-0.1980148,0.4823729,0.8215678,0.561594
1.15154,-0.4645883,-0.1074712,0.05809283,0.7989429,0.4374232
1.102126,-0.2510074,-0.07624191,-0.3788902,0.6254344,0.498763
0.9398639,-0.04520551,-0.01323849,-0.631895,0.3355682,0.536163
0.7141854,-0.2117004,0.006960445,-0.4690999,0.1345557,0.624067
0.4810372,-0.39813,-0.04816674,-0.06915335,0.05050991,0.692234
0.26991,-0.3572674,-0.0670645,0.05554676,0.08653464,0.5468852
0.324115,-0.3321646,-0.0797805,0.2301278,0.2793149,0.4282462
0.3696786,-0.29051,-0.08769383,0.2609863,0.3347891,0.276526
0.3757503,-0.2323912,-0.0768706,0.002096212,0.248014,0.05266205
0.4702144,-0.2264362,-0.05689712,-0.06674658,0.1166484,0.0134114
0.5116242,-0.1618609,0.02303795,-0.1682857,0.01075894,0.07167409
0.6262404,-0.1218836,0.1024142,-0.2500072,-0.09374613,0.1709741
0.7790074,-0.1707148,0.1168145,-0.3113044,-0.2014515,0.2239534
0.9147003,-0.2236945,0.1481736,-0.3857343,0.04315248,0.1859333
0.9922526,-0.2566511,0.2359627,-0.270496,0.2728341,0.1743354
0.9601247,-0.2439064,0.2849681,-0.3434409,0.07381572,0.1036482
1.040502,-0.2418754,0.2640602,-0.338355,-0.1667986,-0.04406233
1.143918,-0.3498004,0.2255735,-0.1425947,-0.3965629,-0.2117668
1.271231,-0.6518736,0.09197441,0.02178777,-0.5197886,-0.2759369
1.617005,-0.9351198,-0.09543279,0.54991,-0.3348667,-0.2506902
1.731324,-0.7681944,-0.1417713,0.9295307,-0.1274837,-0.2955867
1.280831,-0.504922,-0.1512278,0.6001686,-0.09095078,-0.2921523
0.897992,-0.5904611,-0.2601472,0.198697,-0.2240583,-0.2668671
1.114006,-0.6227881,-0.282361,0.3326213,-0.3602842,-0.2892142
1.315255,-0.5768632,-0.1840296,0.602968,-0.2455394,-0.2894447
1.122331,-0.6270157,-0.1354488,0.7929107,-0.1529333,-0.3826972
0.9753071,-0.533531,-0.1090338,1.244384,-0.3600554,-0.5799964
0.7629732,-0.409436,-0.1248534,1.36446,-0.5105668,-0.707037
0.5679391,-0.2817957,-0.1878343,1.293366,-0.5364402,-0.6316701
0.668082,-0.1354862,-0.1788224,1.505498,-0.6675837,-0.4522013
0.6234492,-0.1787905,-0.1859292,1.358454,-0.7045704,-0.3718408
0.5438425,-0.2245879,-0.1790621,1.229707,-0.5754015,-0.4634194
0.5657128,-0.2271338,-0.109104,1.299717,-0.4858304,-0.6378967
0.4919154,-0.2312711,-0.1059667,1.192437,-0.4839547,-0.6392983
0.5771441,-0.1443596,-0.0874692,1.220485,-0.50086,-0.5101104
0.6524433,-0.07976731,-0.05019801,1.182087,-0.5360187,-0.3794597
0.6924151,0.02959724,-0.05853903,0.9597634,-0.6558652,-0.1676987
0.8735696,0.1281852,-0.04592887,0.7519023,-0.7293163,-0.09696937
1.015404,0.08069534,-0.02055556,0.5900672,-0.5692601,-0.166578
1.255297,0.06179088,0.04796888,0.3981062,-0.3505451,-0.1166319
1.400202,0.07283254,0.1313798,0.1675662,-0.2709143,0.02129982
1.409751,0.009279297,0.1177366,0.1634692,-0.07341342,0.308404
1.620709,-0.1774565,-0.06011448,0.004566155,0.302652,0.536709
1.69257,-0.4815822,-0.2776434,-0.4758497,0.5368396,0.3664152
1.57155,-0.7591566,-0.2430559,-0.696044,0.6062165,0.1869694
1.412801,-0.9249255,-0.1290681,-0.35426,0.5006353,0.3068952
1.184632,-0.9262293,-0.1683965,0.344263,0.3799023,0.4527391
1.220983,-0.7572137,-0.1530118,0.5748495,0.5756539,0.5727887
1.320679,-0.5393041,-0.1178017,0.3617309,0.7526417,0.6591622
1.184844,-0.3379557,-0.1077362,0.1636492,0.6882353,0.6118236
1.103147,-0.2498219,-0.03367073,-0.2735522,0.5922441,0.631161
0.9087606,-0.3346835,-0.0139731,-0.4323264,0.4200686,0.6434028
0.559506,-0.3642719,0.00349527,-0.1043042,0.2219097,0.5590379
0.414452,-0.3079775,0.01506191,0.1680731,0.0824562,0.5362214
0.3544762,-0.2874548,-0.03369068,0.3561688,0.01546381,0.4160599
0.3460582,-0.2015417,-0.0212597,0.345881,0.1220399,0.2557414
0.3834084,-0.1432799,-0.02331095,0.1445952,0.2207716,0.1102988
0.3461485,-0.1399392,-0.006856296,-0.07119466,0.1568718,-0.07716314
0.4002957,-0.08394937,0.07766054,-0.2344049,0.0889502,-0.0846073
0.4798265,-0.09387083,0.09762004,-0.3326601,-0.02049186,-0.04625534
0.5761719,-0.1648106,0.1312581,-0.4483273,-0.1590869,-0.06439677
0.780712,-0.2578939,0.2037943,-0.4190456,-0.02917666,-0.0903036
0.9169392,-0.3169226,0.2707002,-0.3198408,0.1484572,-0.1679114
1.023676,-0.2568897,0.3223581,-0.3464233,0.05044898,-0.1737901
1.137904,-0.2287731,0.3187058,-0.4597145,-0.02066878,-0.2292332
1.233952,-0.2435365,0.3494254,-0.6496156,-0.09543876,-0.3393538
1.300295,-0.279664,0.3334002,-0.6686512,-0.3392378,-0.3250396
1.317791,-0.5223287,0.1129632,-0.4883429,-0.3896109,-0.3044439
1.571739,-0.8647936,-0.09551943,-0.1410861,-0.2362967,-0.316158
1.794397,-0.9116997,-0.06545707,0.5240447,-0.1008749,-0.3093912
1.342858,-0.6295117,-0.04110531,0.844207,-0.03923756,-0.3287226
0.8208476,-0.4413998,-0.1934435,0.535591,-0.2081356,-0.449202
0.9966889,-0.488125,-0.2596839,0.4325425,-0.3836678,-0.5689277
1.2507,-0.5493883,-0.2859202,0.6290535,-0.2581146,-0.5131308
1.189465,-0.5643416,-0.3270781,0.9278711,-0.1217135,-0.4758955
1.113608,-0.5429652,-0.1991728,1.594836,-0.142801,-0.6305635
0.8829393,-0.4769783,-0.1418492,2.143753,-0.1601251,-0.7634915
0.7420957,-0.3919287,-0.187697,2.165953,-0.2946566,-0.7185129
0.798961,-0.2801852,-0.1683905,2.086071,-0.5826989,-0.5690814
0.6411242,-0.136262,-0.1801071,2.000676,-0.7271175,-0.4197573
0.6330233,-0.08077201,-0.1703061,1.852146,-0.655944,-0.4028819
0.7211307,-0.1774112,-0.1540742,1.749588,-0.5768923,-0.5104102
0.6124589,-0.2047887,-0.130703,1.713393,-0.4947627,-0.5576126
0.6615059,-0.1542288,-0.08429108,1.722568,-0.2882116,-0.5388852
0.6802667,-0.1464094,-0.0995479,1.63676,-0.2266168,-0.4665276
0.6606555,-0.05549825,-0.06795573,1.546721,-0.3622036,-0.3112319
0.7997185,0.03336711,-0.03298933,1.414375,-0.3765388,-0.1999281
0.8829216,0.0414497,-0.02273162,1.129452,-0.4519161,-0.139117
0.9689839,0.05840273,0.06734828,1.086751,-0.564542,-0.04492774
1.046068,0.05808568,0.1436972,1.114005,-0.4992229,0.05312567
1.137894,0.06674514,0.173696,0.8735853,-0.4548699,0.0809498
1.295432,0.04503295,0.1939135,0.6798122,-0.3442805,0.0853917
1.341048,-0.07064137,0.1984156,0.633551,-0.2122852,0.2358495
1.387169,-0.2704353,0.1072671,0.6055341,-0.211209,0.382334
1.462906,-0.4918446,-0.08153623,0.3498661,-0.2028747,0.2622876
1.450798,-0.5940459,-0.1548113,0.01823784,-0.2809119,0.1445505
1.412482,-0.6474072,-0.1104541,0.1286499,-0.3344661,0.2674637
1.323856,-0.6438621,-0.1259092,0.3595637,-0.1343379,0.3227073
1.218787,-0.5097954,-0.1714143,0.3426813,0.2006464,0.2223712
1.249983,-0.4147431,-0.1415938,0.1614315,0.4144376,0.1998195
1.320763,-0.2773952,-0.08820696,-0.222779,0.3560495,0.2347761
1.259586,-0.1442593,-0.05945295,-0.4094462,0.2740375,0.341904
1.140014,-0.2754063,-0.02270458,-0.1919134,0.3112055,0.5013425
0.9174873,-0.4285577,-0.01692086,0.02962268,0.3834736,0.5040367
0.6306957,-0.4427714,-0.01825713,0.301102,0.4725816,0.4638164
0.5525226,-0.3949312,-0.008405352,0.5516179,0.3722499,0.4801221
0.5419693,-0.2746373,-0.02476161,0.511213,0.1993272,0.3721368
0.4893345,-0.2072736,-0.01751767,0.4707801,0.2424133,0.1801886
0.4960481,-0.1659822,-0.01328733,0.3970949,0.2962863,0.07876331
0.4797789,-0.1206876,-0.009003757,0.1401526,0.2770034,0.07323581
0.4867611,-0.1649298,0.03662379,0.04365411,0.2424885,0.06902468
0.5082264,-0.1948058,0.07762636,0.06746265,0.1203205,0.02745504
0.5312526,-0.2110085,0.1468053,0.02953075,-0.02768277,0.009235964
0.6474158,-0.2332498,0.2490536,0.06197509,-0.2412263,0.04918535
0.8030744,-0.1876745,0.3096834,0.1086072,-0.3999848,0.09083608
0.9878452,-0.1567569,0.3166757,0.08033669,-0.3187548,0.1077336
1.101004,-0.1697778,0.3634555,0.05964622,-0.305682,0.1332366
1.144759,-0.1945333,0.4465152,0.005226461,-0.3650693,0.1417764
1.27903,-0.2517035,0.3905329,-0.1345329,-0.3361049,0.1070103
1.367414,-0.4173712,0.1986864,-0.1642269,-0.4888852,0.06698748
1.398361,-0.7584624,-0.007080803,0.1436234,-0.6988266,0.01358201
1.487183,-0.9661622,-0.09736985,0.6929273,-0.6711744,-0.08994718
1.522324,-0.7464423,-0.08871177,0.9948415,-0.4799713,-0.2029597
1.425011,-0.5471056,-0.1994287,0.8276198,-0.3197697,-0.2629244
1.126648,-0.6792356,-0.2901333,0.7216393,-0.3558031,-0.3133102
0.8473964,-0.6936393,-0.2866104,0.8803878,-0.3244238,-0.3732057
1.041324,-0.5565929,-0.3207175,0.9921689,-0.05240833,-0.3396013
1.268312,-0.5165134,-0.2324668,1.217088,0.04423018,-0.3125404
0.9537505,-0.4201413,-0.1585607,1.457894,-0.1972249,-0.4512798
0.7290938,-0.3824061,-0.195747,1.485529,-0.5441016,-0.5588773
0.811253,-0.3952195,-0.1831612,1.60794,-0.760041,-0.5061746
0.6986664,-0.2695109,-0.2179566,1.681341,-0.7513107,-0.4487009
0.6560137,-0.2392415,-0.2143533,1.707663,-0.6897408,-0.4516168
0.7090392,-0.2669216,-0.1766411,1.92885,-0.6487902,-0.5053753
0.5970605,-0.2177183,-0.1922941,1.96853,-0.5089761,-0.6028636
0.5998181,-0.1987746,-0.1350224,1.863518,-0.2331202,-0.6785234
0.6077378,-0.177107,-0.1108689,1.79552,0.04395939,-0.6966304
0.5241314,-0.1697179,-0.1253239,1.616864,0.06801322,-0.6423435
0.5842235,-0.1565356,-0.1019454,1.408955,-0.04198247,-0.5141915
0.6815798,-0.06937111,-0.03858644,1.277545,-0.03507475,-0.4196654
0.7969128,0.03315637,0.07520672,1.239318,-0.07973426,-0.3608838
0.9524412,0.05381421,0.08731557,1.106939,-0.1254023,-0.2114365
1.092721,0.005136288,0.07594534,0.9572323,-0.07445753,-0.02225336
1.292542,0.018696,0.1298194,0.9121121,-0.08394498,0.1103372
1.422258,0.0220388,0.1486042,0.7153092,-0.03770898,0.183559
1.436465,-0.011522,0.1719653,0.5145133,7.274744e-05,0.2780199
1.478466,-0.03236126,0.1735369,0.3577818,-0.05278881,0.4228245
1.532442,-0.157069,0.1360264,0.1734912,-0.04192008,0.451456
1.600966,-0.2617368,0.07476141,-0.07075258,-0.02991576,0.3368855
1.623125,-0.3305289,-0.0005146437,-0.4903986,0.01684604,0.2383491
1.517136,-0.5412058,0.008705356,-0.4821284,0.07400396,0.2956704
1.382321,-0.6617534,0.02127674,-0.01321627,0.1049564,0.5038456
1.231198,-0.5616069,-0.05693824,0.197538,0.2075072,0.6254694
1.055834,-0.4907351,-0.1251855,-0.01076487,0.306514,0.485818
0.9953699,-0.4271139,-0.1240789,-0.4994397,0.3516567,0.258704
1.031056,-0.2504613,-0.06863038,-0.8147712,0.1783737,0.2889091
1.058315,-0.211955,-0.01050709,-0.8574048,-0.0306843,0.5281438
1.122378,-0.3204611,-0.001054308,-0.6849998,0.1369994,0.744578
1.006068,-0.3558611,-0.0146619,-0.2577968,0.3160242,0.8464762
0.6434568,-0.4040409,-0.01393507,-0.05123559,0.2559461,0.7015518
0.4595833,-0.3708398,-0.0051053,0.05475339,0.1533423,0.5390674
0.4370374,-0.2508454,-0.001655831,0.1923919,0.02653301,0.4411786
0.4491492,-0.2555617,0.001112165,0.1440818,0.02339332,0.2585253
0.5050964,-0.2196504,0.01390562,0.05512989,0.1108214,0.2630054
0.4758777,-0.1598869,0.05286461,-0.2421142,0.05355648,0.3392546
0.5205965,-0.1989349,0.1179984,-0.5354343,-0.06660611,0.3510774
0.6209684,-0.2310721,0.1675313,-0.5309167,-0.1557832,0.4426755
0.7467487,-0.3211761,0.2054315,-0.3826523,-0.08556263,0.3782782
0.9081356,-0.3851157,0.2627414,-0.1390913,0.1210772,0.1850927
0.873715,-0.3192428,0.3169169,-0.09807904,0.1151511,0.03703963
0.8804388,-0.27044,0.3662311,-0.1642278,-0.07212105,-0.02818752
1.007981,-0.2681832,0.3840506,-0.1918011,-0.414848,-0.02177118
1.097059,-0.358636,0.3041051,-0.388814,-0.8316393,-0.1321806
1.285293,-0.5868335,0.136227,-0.4261805,-0.8104429,-0.2610841
1.557375,-0.746419,-0.0009279903,-0.0706848,-0.5424059,-0.3731229
1.75531,-0.6611972,0.003682288,0.3552896,-0.3844767,-0.4652391
1.479936,-0.4612472,-0.02758982,0.3863654,-0.2692866,-0.3077092
0.9349833,-0.3581802,-0.2106493,0.1294565,-0.3419833,-0.1604123
0.9011826,-0.4104732,-0.2775403,-0.03743643,-0.3878364,-0.1849491
1.178513,-0.5326939,-0.239563,-0.1875031,-0.2079104,-0.1801421
1.305453,-0.5574992,-0.2395842,-0.0001474776,-0.02933241,-0.2191656
1.209641,-0.5333929,-0.1636723,0.5270551,0.06937652,-0.3657721
1.004956,-0.5263616,-0.1219939,0.8423297,-0.06438006,-0.5745746
0.8563785,-0.3656534,-0.1617066,1.016717,-0.2801587,-0.6436731
0.6079766,-0.1445165,-0.146533,0.9861545,-0.2805192,-0.5229974
0.5724602,-0.06483543,-0.1374253,0.8945997,-0.3298752,-0.4551731
0.7277564,-0.09310566,-0.1357676,0.9780514,-0.4248821,-0.3971119
0.5314531,-0.1547947,-0.1214859,0.7422548,-0.324727,-0.4458783
0.478055,-0.1943186,-0.1013844,0.4859985,-0.2076503,-0.606571
0.5954988,-0.1919026,-0.05309883,0.5980094,-0.1611626,-0.547403
0.5585284,-0.1424229,-0.04303233,0.6110189,-0.1312488,-0.4661987
0.6887872,-0.104352,-0.03454509,0.5582521,-0.1963651,-0.401373
0.7256278,-0.07624154,-0.01172732,0.5652012,-0.3368917,-0.1603108
0.7810629,-0.02380626,-0.01634086,0.4744608,-0.3744524,-0.01499552
1.085221,0.01436466,0.01675322,0.3136791,-0.2741482,0.01167299
1.22347,0.08418429,0.05352031,0.1327688,-0.1885035,0.039485
1.278258,0.1198771,0.07064449,-0.1090416,-0.1745883,0.07371833
1.310979,0.1254426,0.1044087,-0.4238811,-0.1925148,0.1590343
1.338562,0.1368169,0.1073831,-0.5506222,-0.1838921,0.2253729
1.460366,-0.04040527,0.06751391,-0.4889331,-0.09556891,0.352072
1.497649,-0.3776945,-0.07264753,-0.5860639,0.1136655,0.4249928
1.500677,-0.6299011,-0.2412137,-0.8460783,0.317715,0.2105856
1.46315,-0.5999956,-0.1917092,-1.034266,0.2752568,0.06448009
1.354095,-0.5176695,-0.09594314,-0.8360492,0.2779356,0.2781011
1.30233,-0.62175,-0.1391225,-0.4145047,0.6000328,0.5048937
1.294653,-0.574266,-0.09844559,-0.3701881,0.859172,0.4630162
1.293637,-0.4049705,-0.03103546,-0.6228012,0.8935133,0.4281174
1.256465,-0.2655682,-0.03021608,-0.9285603,0.7293889,0.5515959
1.135241,-0.1647996,0.00584097,-1.148332,0.4172084,0.6720897
0.8609978,-0.3098234,-0.01384157,-0.8957444,0.3091728,0.8077092
0.5565773,-0.3788279,-0.02840197,-0.482835,0.404959,0.818164
0.4470566,-0.2810578,-0.002500094,-0.3212935,0.4579344,0.6226763
0.4332701,-0.2687368,-0.02045129,-0.2536184,0.4612649,0.394339
0.4237813,-0.1811908,0.008940149,-0.3129259,0.4858186,0.1732906
0.4206229,-0.1238757,0.01726686,-0.3970754,0.5082381,0.1049537
0.4177346,-0.1336073,0.005739351,-0.4458132,0.3797925,0.1239219
0.4730969,-0.1102472,0.05214341,-0.5477874,0.2479125,0.05614329
0.519186,-0.1557718,0.08358494,-0.5411008,0.2891736,0.01326029
0.5458687,-0.1877467,0.1613643,-0.5568066,0.2508045,-0.03303327
0.6826746,-0.2004671,0.2517962,-0.5924689,0.02784082,-0.009187226
0.9330673,-0.2032195,0.2837968,-0.4800688,-0.237671,0.06501166
1.110774,-0.1875001,0.2974872,-0.462712,-0.4481988,-0.03309935
1.138533,-0.2100606,0.2902794,-0.6024801,-0.5080106,-0.1631711
1.206476,-0.2296408,0.2880957,-0.7324704,-0.4973532,-0.2736034
1.305572,-0.3679475,0.2110121,-0.6717527,-0.6241524,-0.3439448
1.380737,-0.672196,0.02217504,-0.4035268,-0.8443949,-0.2798774
1.607273,-0.864741,-0.1344948,-0.08425319,-0.8620381,-0.2541654
1.705053,-0.7289142,-0.189488,0.2356964,-0.2969008,-0.2409465
1.202659,-0.5195616,-0.2116718,0.3077626,0.3568254,-0.2344817
0.6756377,-0.5557737,-0.2230956,0.2292544,-0.04950691,-0.3509044
0.9591173,-0.6713585,-0.1671785,0.4129838,-0.6819001,-0.4248754
1.386728,-0.7661531,-0.1566502,0.7976109,-0.4318538,-0.4289442
1.277073,-0.7647639,-0.1856815,1.42502,-0.1510645,-0.4821861
1.074374,-0.5791261,-0.1585521,2.117636,0.04173236,-0.5973175
0.8280692,-0.4350935,-0.1950719,2.282882,0.1012503,-0.6651869
0.7550667,-0.2895317,-0.2139417,2.044485,-0.2340296,-0.5656768
0.9287692,-0.1693046,-0.1865856,1.902071,-0.3041719,-0.501327
0.8106589,-0.19231,-0.2074896,1.802471,-0.4774506,-0.6031815
0.8172309,-0.1594764,-0.1928361,1.682596,-0.5846124,-0.6728669
0.8586501,-0.1876907,-0.1934582,1.888287,-0.2838388,-0.6513668
0.6235609,-0.2853301,-0.1954842,2.166701,-0.3425851,-0.6385817
0.6471438,-0.2464473,-0.1641374,2.13409,-0.230399,-0.6140606
0.6406458,-0.1462615,-0.1634829,2.130901,0.02237103,-0.5178097
0.6233644,-0.009085793,-0.142208,2.037156,0.04585666,-0.4589182
0.7412072,0.07943006,-0.1226569,1.686711,0.347153,-0.4548843
0.652387,0.07870827,-0.06482564,1.335724,0.4099573,-0.3938266
0.6563744,0.1297964,0.07146219,0.9706282,0.2417417,-0.3295321
0.6809496,0.1985669,0.1712798,0.7535929,0.0815969,-0.2411112
0.74658,0.1909012,0.2133606,0.5197385,-0.1805215,-0.06527937
1.023182,0.1067355,0.2450254,0.2407261,-0.04870584,0.1326467
1.159146,0.005180088,0.3080015,0.3931916,0.1638465,0.3242607
1.248314,-0.02778688,0.3625762,0.4547797,0.1126491,0.464117
1.360668,-0.008790997,0.37294,0.2821213,0.04179156,0.5678862
1.465355,-0.03825265,0.362194,0.3263383,-0.1303603,0.6916557
1.597096,-0.1484034,0.2620582,0.2183361,-0.2890799,0.7698794
1.668816,-0.3333504,0.05385997,-0.05869962,-0.2558919,0.7563231
1.709677,-0.4828436,-0.1176869,-0.59007,-0.2427061,0.6368375
1.52249,-0.4991577,-0.1022126,-1.134485,-0.3371368,0.5242289
1.242633,-0.5280671,-0.06422114,-0.6853127,-0.3122738,0.6439858
1.235117,-0.5393362,-0.1840943,-0.1565609,-0.1278692,0.791527
1.282578,-0.4589732,-0.2329092,-0.5096446,0.1846361,0.6706304
1.202422,-0.410425,-0.1398058,-0.6945914,0.4128174,0.5425331
1.099423,-0.3424474,-0.04535817,-0.6546089,0.2707756,0.5530267
1.02445,-0.3391915,0.006771644,-0.7334851,0.1261315,0.6444921
0.9194727,-0.4430892,-0.02546697,-0.4194732,0.1438496,0.8164016
0.7929601,-0.4575095,-0.04252529,-0.09205886,0.2108398,0.7797918
0.7271382,-0.4347056,-0.02111368,0.05949638,0.3634979,0.6153826
0.6175946,-0.3454235,-0.003490765,0.2837904,0.2651352,0.5409732
0.4609884,-0.219065,0.04760938,0.2530234,0.06078217,0.367524
0.4796494,-0.2304576,0.03422444,0.1511824,0.05822293,0.2265605
0.5591849,-0.1846331,0.00487188,0.0122895,0.004020102,0.1523189
0.4956223,-0.07708202,0.03100523,-0.3069586,0.007644052,0.08976072
0.4990452,-0.09676842,0.02056876,-0.5151333,0.03850822,0.1686525
0.5625657,-0.1483482,0.03922406,-0.7511193,-0.1150256,0.1984904
0.598902,-0.2105928,0.1069807,-0.8644985,-0.1759941,0.2040041
0.785334,-0.2905497,0.1658988,-0.7409306,-0.0648202,0.2001226
0.9386019,-0.3117136,0.2356281,-0.7275388,0.09835745,0.08517511
1.005499,-0.3032807,0.284419,-0.7190819,0.1939952,0.05004671
1.093521,-0.2938972,0.2962913,-0.7621903,0.1606382,-0.03917529
1.105407,-0.2747755,0.3054343,-0.8859412,0.03294133,-0.2044286
1.195948,-0.3290894,0.28691,-0.8474,-0.3014875,-0.2719468
1.318288,-0.6000657,0.1125153,-0.7335512,-0.5071977,-0.3278085
1.531084,-0.9626731,-0.0982224,-0.4252269,-0.2258323,-0.2988458
1.795557,-0.9806734,-0.05161093,0.03508394,0.1080926,-0.2407269
1.348347,-0.6165034,-0.022751,-0.006595356,0.1004706,-0.2706876
0.6862155,-0.3896628,-0.2074496,-0.3763173,-0.1682385,-0.340118
0.8530477,-0.489021,-0.2508395,-0.4919902,-0.3206263,-0.4199867
1.232853,-0.5653794,-0.2276028,-0.507683,-0.009968655,-0.340306
1.313876,-0.5003387,-0.240337,-0.1858746,0.283021,-0.2445817
1.179696,-0.5134559,-0.1375287,0.401491,-0.07854543,-0.4148983
0.7954869,-0.5154606,-0.1150255,0.5225796,-0.4508374,-0.6423314
0.6211035,-0.3486325,-0.1546088,0.5457329,-0.3477669,-0.6856224
0.6125093,-0.1905327,-0.143362,0.7809151,-0.4738134,-0.4679384
0.4933575,-0.1199877,-0.171437,0.7672808,-0.6932626,-0.2385745
0.5402324,-0.1625403,-0.1497546,0.5309341,-0.4853777,-0.3886032
0.5398244,-0.2274627,-0.1151614,0.3791575,-0.2654255,-0.5830993
0.4834778,-0.1682296,-0.1020576,0.4115172,-0.1329622,-0.5727673
0.5393388,-0.169058,-0.05539587,0.4480256,0.01887652,-0.6292427
0.4918004,-0.1465463,-0.03376962,0.431184,-0.0878251,-0.5322317
0.569173,-0.01345255,-0.01073435,0.4304394,-0.2968831,-0.2838233
0.7931425,0.02701925,-0.02013059,0.2456025,-0.2529209,-0.2371927
1.017729,0.0452978,-0.0356028,-0.1131641,-0.1229168,-0.1796625
1.261707,0.02636139,0.01645395,-0.308082,-0.0426697,-0.02613216
1.369612,-0.03973484,0.05407456,-0.2772511,0.02756071,0.09692715
1.490174,-0.06630042,0.09079135,-0.332456,0.04377753,0.2129005
1.603616,-0.09763356,0.1218944,-0.4507245,0.18306,0.3439839
1.605402,-0.128247,0.0822707,-0.4433445,0.3201508,0.5840337
1.70632,-0.2520417,-0.07958454,-0.5936854,0.2861344,0.6730696
1.791706,-0.3904541,-0.2674814,-1.018851,0.3336657,0.3811643
1.649415,-0.4588006,-0.2173518,-1.314564,0.3397001,0.16944
1.361109,-0.5988287,-0.1257143,-0.9776967,0.3578554,0.3435216
1.209741,-0.6546032,-0.1937178,-0.4087141,0.6828123,0.5201831
1.231172,-0.5731454,-0.1586915,-0.5113253,1.032955,0.466469
1.162494,-0.4903418,-0.0891167,-0.8280908,1.052343,0.4600863
1.052419,-0.3383214,-0.067384,-0.9782881,0.7892558,0.5119505
1.013219,-0.2227404,0.01278739,-1.235819,0.575491,0.5462831
0.8993274,-0.2649746,0.004382952,-1.120382,0.487802,0.6718017
0.6423077,-0.3098863,-0.03570463,-0.889339,0.4921167,0.6834097
0.4041663,-0.3130757,-0.04694469,-0.857524,0.5667837,0.5967167
0.3109735,-0.3054888,-0.08908078,-0.6733781,0.5262545,0.5416194
0.3202601,-0.2536572,-0.06210954,-0.6722015,0.5662672,0.3644143
0.3789403,-0.23412,-0.05100641,-0.69411,0.6356347,0.1907682
0.4309999,-0.2046559,-0.03819179,-0.6602654,0.5238024,0.1113131
0.4863993,-0.1309091,0.0407422,-0.8483395,0.4871211,0.08909781
0.5535281,-0.1296953,0.08230512,-0.8847946,0.4369305,0.1542169
0.6204168,-0.125219,0.1534289,-0.9226738,0.3292477,0.1808209
0.7415036,-0.162093,0.2157805,-0.9849171,0.2966721,0.1666351
0.918156,-0.276195,0.2969963,-0.9008101,0.2763426,0.1237399
1.073018,-0.2626977,0.4358994,-0.9103055,0.2225823,0.001915769
1.076215,-0.2311661,0.4038825,-0.9068254,-0.005189749,-0.1225326
1.130663,-0.3038557,0.3074403,-0.9315574,-0.226487,-0.2312662
1.343241,-0.4333993,0.1780012,-0.9060909,-0.3222334,-0.254566
1.375703,-0.6352885,-0.05452387,-0.6255362,-0.3898551,-0.1810391
1.513684,-0.79982,-0.01497854,-0.1665151,-0.2088214,-0.1403082
1.794763,-0.8874718,0.09070724,0.2170178,0.1011904,-0.1264827
1.543067,-0.7530463,-0.08488086,0.02171032,0.1820693,-0.1553964
1.073245,-0.4100388,-0.1577681,-0.3385475,-0.01926115,-0.2044098
0.960819,-0.3921561,-0.1790042,-0.3929523,-0.1846003,-0.1749062
1.099718,-0.5350288,-0.2669398,-0.4667393,-0.01221122,-0.1634254
1.228329,-0.4663039,-0.1982811,-0.1700795,0.0951573,-0.2364883
1.059492,-0.4801626,-0.1626912,0.3689646,-0.1011427,-0.3998788
0.817655,-0.441929,-0.1450216,0.3882006,-0.2456419,-0.6121819
0.7325591,-0.2713214,-0.09059443,0.3683145,-0.2825288,-0.6104407
0.5892453,-0.1693404,-0.1360732,0.5482873,-0.3562609,-0.4183295
0.5335256,-0.0667013,-0.1250736,0.4794863,-0.4280838,-0.326584
0.5569288,-0.0951572,-0.1184254,0.319072,-0.3668699,-0.3580063
0.4742642,-0.155292,-0.1487636,0.1368483,-0.2597333,-0.5040684
0.4659567,-0.1381022,-0.1073729,-0.07784,-0.3080638,-0.6691716
0.5099429,-0.1608689,-0.0946459,-0.08073742,-0.3387122,-0.6406637
0.5531316,-0.1216374,-0.07196338,-0.00820366,-0.3020929,-0.5031018
0.637901,-0.1210415,-0.03501468,0.05353179,-0.3833348,-0.3532113
0.7990084,-0.1019606,-0.01561459,0.1691847,-0.4056772,-0.1537719
1.117375,0.02471202,0.01542587,0.08109637,-0.2881328,0.02147036
1.335862,0.04909433,0.01671669,-0.1525805,-0.1558542,0.1029513
1.363106,0.02906439,0.03020264,-0.2706844,-0.02781123,0.1478485
1.486102,0.01807511,0.05386458,-0.4477909,0.04595742,0.2373672
1.662901,0.009369313,0.07480586,-0.7294698,0.0909565,0.3391661
1.685494,-0.04667808,0.06539637,-0.9122521,0.1271958,0.5276881
1.679222,-0.2476009,-0.0748668,-1.004663,0.2144029,0.7317768
1.732258,-0.4240565,-0.2276662,-1.290516,0.328067,0.5483464
1.590946,-0.5214914,-0.2299818,-1.628311,0.272913,0.3172566
1.307576,-0.6087366,-0.1839293,-1.244214,0.2787605,0.5140396
1.179993,-0.6257251,-0.215466,-0.6692395,0.56197,0.5890595
1.198576,-0.5772603,-0.2263283,-0.856191,0.914677,0.4085391
1.202812,-0.5332141,-0.1698322,-1.052627,1.081131,0.3489885
1.076234,-0.4190505,-0.09542784,-1.142987,0.93946,0.3145035
0.9586207,-0.2483642,0.01207345,-1.467228,0.7904089,0.3881484
0.9363429,-0.2614991,0.02005461,-1.358052,0.7595654,0.5402378
0.800764,-0.3175338,-0.04326371,-1.075779,0.7099476,0.5375713
0.5063934,-0.271443,-0.03419954,-0.9497469,0.7570195,0.5268191
0.2927839,-0.2976148,-0.06613671,-0.7692477,0.7589436,0.4922918
0.3522342,-0.296783,-0.05757031,-0.720635,0.7158475,0.3585902
0.422831,-0.2706675,0.005135858,-0.6110898,0.7623544,0.185508
0.3703156,-0.2772886,-0.0265693,-0.5900185,0.6952993,-0.01075767
0.4492547,-0.2121035,0.00685718,-0.7401921,0.5852758,-0.03959822
0.5621515,-0.1731164,0.08109974,-0.665486,0.4251015,0.08935062
0.6347124,-0.1973692,0.07771758,-0.7619199,0.24119,0.1583199
0.7010935,-0.2392231,0.1112024,-0.929048,0.2672964,0.1557411
0.7205319,-0.2613826,0.1900921,-0.8193616,0.2285838,0.1283745
0.8693381,-0.2426389,0.2631672,-0.8112811,0.1087793,0.1007953
1.021167,-0.2501233,0.2971177,-0.8131585,0.1493471,0.06004446
1.049424,-0.2701239,0.3416732,-0.7822525,0.1503892,-0.02309783
1.158995,-0.3053044,0.4048264,-0.8378928,0.08108444,-0.1535215
1.293638,-0.3855931,0.3206512,-0.8519238,0.04226508,-0.300042
1.418539,-0.5527539,0.1347075,-0.7996242,-0.02479099,-0.3309057
1.577052,-0.7282575,0.02869744,-0.4119276,-0.1255577,-0.2703302
1.61604,-0.6699118,0.04599998,0.1659184,-0.2275449,-0.2793392
1.393319,-0.4941369,0.0470483,0.2367291,-0.3143098,-0.3070631
1.0258,-0.4343879,-0.1088634,-0.1577863,-0.4417499,-0.2889624
0.9539268,-0.4789357,-0.2266088,-0.4037236,-0.5251397,-0.2456215
1.239182,-0.562038,-0.234434,-0.3680386,-0.2769238,-0.1874843
1.380316,-0.5363508,-0.2472998,-0.2496531,0.132598,-0.2330837
1.141557,-0.4439487,-0.1673925,-0.02395704,0.1942824,-0.3763806
0.8177792,-0.3837681,-0.0918605,0.2630142,-0.125713,-0.5208619
0.7118187,-0.2878119,-0.1329286,0.4039961,-0.4141628,-0.6628707
0.6737384,-0.2326864,-0.1487985,0.4295957,-0.3689136,-0.6636706
0.6110281,-0.1909867,-0.1325015,0.5715998,-0.3007746,-0.5180845
0.6274598,-0.1384691,-0.1344247,0.7345037,-0.3552936,-0.4334314
0.5814262,-0.1735232,-0.1366294,0.6755262,-0.1966475,-0.4646455
0.4917641,-0.1851117,-0.1201901,0.5703807,-0.1168425,-0.5410637
0.4655446,-0.1803123,-0.09898678,0.4314597,-0.1686152,-0.5575424
0.509004,-0.189899,-0.07789734,0.2755547,-0.07431257,-0.5279256
0.6493312,-0.1521312,-0.05070501,0.3699795,-0.06665525,-0.4860622
0.7307097,-0.1072554,-0.05477825,0.4139995,-0.01267456,-0.3863089
0.7630968,8.95128e-05,-0.05296496,0.2363125,-0.02188487,-0.2584818
0.8502983,0.07662666,-0.04040552,0.01488103,-0.2235722,-0.09875134
1.018209,0.02829193,-0.02710342,-0.3464076,-0.2101143,0.04469715
1.271912,0.01655872,0.01982916,-0.6284752,-0.1566522,0.1684033
1.334086,0.03686407,0.04691358,-0.63471,-0.09533223,0.3337503
1.331394,0.04382851,0.1108047,-0.6817401,0.01261271,0.4281718
1.509385,0.06872119,0.2006552,-0.8081204,-0.0338307,0.4974544
1.525022,0.002853792,0.1383241,-0.8274512,0.0324666,0.6326064
1.508659,-0.2237597,0.0006610172,-0.9983524,0.1680338,0.6781193
1.670206,-0.451399,-0.092519,-1.293766,0.2949566,0.454045
1.61328,-0.4752865,-0.1649124,-1.180412,0.5113671,0.2038109
1.333428,-0.4040982,-0.1505111,-0.8868387,0.5788703,0.4441166
1.113811,-0.4427196,-0.1192997,-0.7477099,0.5968466,0.7077985
1.118899,-0.4593555,-0.1843192,-0.6385645,0.8994151,0.4359383
1.211529,-0.3810796,-0.1850192,-0.8825171,1.249916,0.2190925
1.102695,-0.3232785,-0.08468763,-1.290888,1.100282,0.2121232
1.088698,-0.2809529,0.009694491,-1.34923,0.7351092,0.2801601
1.127491,-0.3385771,0.05161885,-1.269148,0.6730759,0.5477123
0.9165251,-0.4351905,-0.001869575,-1.116598,0.7246191,0.600215
0.7298886,-0.3897361,-0.02887209,-0.9427021,0.8535618,0.4507251
0.7350604,-0.3179286,-0.1512168,0.1082004,-0.1124211,0.5594341
0.46188,-0.4297327,-0.1220209,0.3576048,0.006111119,0.4150214
0.5095786,-0.3982427,-0.1080664,0.4118594,0.1719013,0.2185352
0.4988637,-0.3537393,-0.1317824,0.4404046,0.3783626,0.1376331
0.3692187,-0.2426476,-0.09751436,0.308543,0.3039447,-0.05187601
0.4403953,-0.1250241,-0.08108706,0.243381,0.2054291,-0.03006021
0.4483991,-0.1013944,-0.05946609,0.08362618,0.09983639,0.05637249
0.4838525,-0.1681925,-0.0009251126,0.04196268,0.1615282,0.04381227
0.5981079,-0.2529957,0.06191892,0.2690088,0.3072098,0.1760636
0.7301599,-0.2786221,0.1407465,0.3320018,0.2059365,0.05799759
0.9381312,-0.2672142,0.1514634,0.3375097,0.2045945,-0.1786686
0.998103,-0.2286848,0.1380006,0.1828072,0.1872938,-0.2416326
1.063028,-0.2166673,0.1461924,-0.00627603,0.002584952,-0.3618166
1.200759,-0.3041663,0.06780034,0.08753117,-0.1349656,-0.3931078
1.263309,-0.5690065,-0.1364407,0.1860705,-0.4048904,-0.2798252
1.509339,-0.9219396,-0.3560078,0.5309895,-0.5693067,-0.2333514
1.730657,-0.9530904,-0.3557818,1.098199,-0.3536651,-0.3811101
1.398691,-0.6659923,-0.2712253,1.231547,-0.207465,-0.537262
0.9090582,-0.4652821,-0.3387419,0.9301517,-0.4067314,-0.3971488
0.8988278,-0.4359989,-0.3691455,0.6700476,-0.6036596,-0.2452418
1.111317,-0.4737414,-0.3596105,0.6645485,-0.5876503,-0.2658811
1.1686,-0.4956355,-0.324795,0.8586017,-0.6167805,-0.280236
0.9991556,-0.492387,-0.1893784,1.266937,-0.7824824,-0.4961101
0.6817291,-0.4193935,-0.1908056,1.576585,-0.9393257,-0.8682479
0.5353781,-0.2248378,-0.2538358,1.540578,-0.9065835,-0.8998813
0.4823983,-0.1106344,-0.2248518,1.359973,-0.7718136,-0.6203361
0.4471766,-0.1368367,-0.2431955,1.11417,-0.7947777,-0.4726052
0.5317907,-0.1692174,-0.2374168,1.003247,-0.7740612,-0.5873428
0.5233738,-0.2163484,-0.215798,0.9828061,-0.6831341,-0.7452853
0.5520324,-0.2276795,-0.2263744,0.9058255,-0.674208,-0.7748032
0.6740531,-0.1861251,-0.2038826,0.9996432,-0.6142671,-0.6906092
0.7110793,-0.1723535,-0.2169707,1.099404,-0.4974775,-0.5161482
0.7970105,-0.1842155,-0.2243071,1.051963,-0.3235242,-0.3675402
0.9149766,-0.2039421,-0.2071688,1.043397,-0.2970575,-0.3596314
1.02565,-0.1895012,-0.1870597,1.057125,-0.3965099,-0.346127
1.113814,-0.1165571,-0.1301605,0.9845281,-0.3650385,-0.2324936
1.172623,-0.01100246,-0.1268851,0.8218347,-0.4439627,-0.08308331
1.306872,0.02676452,-0.1355472,0.694659,-0.4186865,0.08106141
1.430972,-0.1046666,-0.148657,0.6356139,-0.1748789,0.2912412
1.5102,-0.3158272,-0.3065898,0.4243729,0.003244463,0.4292689
1.545924,-0.504035,-0.4796361,-0.08703055,0.2616985,0.1573272
1.492255,-0.6165294,-0.4615977,-0.3929919,0.2507811,-0.1892994
1.28311,-0.6470822,-0.3357462,0.05133112,0.02312895,0.01593095
1.031411,-0.6649805,-0.2972177,0.6378159,0.1739831,0.344557
1.125586,-0.6357672,-0.330813,0.6576548,0.6068705,0.4469464
1.269198,-0.5250156,-0.3335161,0.2816943,1.015376,0.460805
1.133952,-0.3586451,-0.2749873,-0.1714237,0.6855385,0.3619283
1.071135,-0.281389,-0.1555754,-0.3360685,0.03650648,0.4751219
0.9583482,-0.3830841,-0.07301029,-0.07979414,0.2330073,0.6040422
0.7189565,-0.420901,-0.05803949,0.1791077,0.5021631,0.4189547
0.5233816,-0.3789666,-0.05175145,0.2792813,0.4874296,0.3592478
0.2997754,-0.3534671,-0.04724231,0.3053155,0.4574832,0.3344707
0.3683603,-0.2310623,-0.04962881,0.189493,0.1702369,0.2373332
0.547278,-0.1582678,-0.07255988,0.03209577,0.2343259,0.1601736
0.4492152,-0.1781037,-0.07479319,-0.1138576,0.3267646,-0.008075039
0.5282562,-0.1533006,-0.06194511,-0.2442119,0.1370785,0.03360301
0.6265087,-0.1711099,-0.0489204,-0.2953115,0.3203871,0.1277262
0.5429261,-0.2499322,0.0221825,-0.3536684,0.3541014,0.0522302
0.6886886,-0.3218461,0.09964827,-0.2765104,0.2501268,-3.321474e-05
0.8573252,-0.3596951,0.1378442,-0.1526379,0.29819,-0.1552518
0.9424636,-0.3581424,0.1464132,-0.2853803,0.1617031,-0.2609827
1.036764,-0.3498845,0.1678675,-0.3565753,0.06250812,-0.2675059
1.08631,-0.3644027,0.1733988,-0.2803736,-0.2478792,-0.3277348
1.23466,-0.4879583,-0.008740178,-0.1922096,-0.7565812,-0.1928523
1.430139,-0.7756259,-0.2402089,0.1243748,-0.8723518,-0.0665551
1.614428,-0.9735885,-0.2656106,0.6220009,-0.5414257,-0.2896932
1.488982,-0.7837703,-0.2213565,0.9482163,-0.1708086,-0.4827695
0.9684594,-0.5370338,-0.2723969,0.7243733,-0.3492061,-0.391089
0.7692289,-0.5685005,-0.3370567,0.349421,-0.5525696,-0.3437448
1.022022,-0.5746788,-0.350984,0.4821929,-0.4121318,-0.4012336
1.23145,-0.5152443,-0.328138,0.7831286,-0.5080911,-0.3802671
1.098848,-0.5142923,-0.2680545,1.067683,-0.5627471,-0.4965498
0.8544433,-0.4273622,-0.2406376,1.269641,-0.5974992,-0.7688807
0.7699711,-0.3035852,-0.2480303,1.207254,-0.7923114,-0.851394
0.5839591,-0.1816112,-0.2533622,1.215236,-0.8053207,-0.6988802
0.5176637,-0.1392524,-0.2859682,1.050512,-0.8331678,-0.5484718
0.600177,-0.252645,-0.2543719,0.7926466,-0.7087383,-0.604952
0.5201608,-0.3178704,-0.19411,0.9881374,-0.3950323,-0.7591367
0.5454302,-0.3156037,-0.1898609,1.16994,-0.2870397,-0.8679396
0.5277404,-0.2573153,-0.164302,1.2011,-0.2426389,-0.913592
0.4964715,-0.1285234,-0.1533489,1.189947,-0.3002221,-0.7813742
0.6360171,-0.05117652,-0.1609196,1.067672,-0.3873563,-0.5905458
0.7202688,0.03147268,-0.160464,1.0435,-0.3604027,-0.4453282
0.895438,0.07673738,-0.1687055,0.7836239,-0.3953441,-0.3634042
1.059626,0.02450328,-0.1467756,0.4021658,-0.3852081,-0.3863974
1.192145,-0.005057595,-0.1175179,0.4040681,-0.3125401,-0.2657821
1.384533,-0.03964707,-0.08607105,0.449222,-0.2530201,-0.09942521
1.379102,-0.08776713,-0.07414297,0.3821463,-0.22623,-0.03561208
1.3802,-0.1206047,-0.09152639,0.4213934,-0.1371501,0.1505065
1.48076,-0.2282033,-0.1067687,0.536532,0.1721407,0.4078763
1.541879,-0.4049144,-0.2280582,0.4859503,0.287414,0.5469875
1.598823,-0.4895896,-0.4512182,-0.05380009,0.01203985,0.2778947
1.568859,-0.4925493,-0.5381748,-0.5537559,-0.2308004,-0.03656111
1.362705,-0.6116127,-0.3828072,0.05685922,-0.2782541,0.2881045
1.030404,-0.7469242,-0.2523029,0.9338484,-0.1829622,0.5397809
0.9598274,-0.705943,-0.321396,0.7608006,0.1652878,0.3378868
1.160101,-0.5177807,-0.3282471,0.4905396,0.5822221,0.3538183
1.189867,-0.2473931,-0.2295872,0.4555587,0.4495826,0.4653232
1.127826,-0.1377864,-0.1700282,0.1535213,0.1195181,0.5194483
1.009809,-0.2752419,-0.1018407,0.2605963,0.2373694,0.6384221
0.70182,-0.3701999,-0.09781399,0.4756965,0.35678,0.5443551
0.4343456,-0.3822514,-0.09973575,0.4355474,0.4272148,0.3483634
0.3982862,-0.3607472,-0.02714004,0.5507796,0.4200288,0.2410754
0.5037935,-0.243739,-0.06716014,0.5013973,0.1924011,0.05232401
0.5482822,-0.163579,-0.1219199,0.4035361,0.251786,-0.05696605
0.5278694,-0.1649348,-0.08541827,0.3198294,0.2611494,-0.01916721
0.5118989,-0.203304,-0.06886727,0.1114302,0.1497997,-0.06735927
0.4598257,-0.2847877,0.0003716641,0.1391594,0.1942306,-0.1187406
0.4746747,-0.3190037,0.08343248,0.2340004,-0.1225653,-0.1279143
0.6208206,-0.331596,0.1061913,0.3440471,-0.3733225,-0.1492785
0.8205693,-0.3564639,0.1326138,0.4594088,-0.2694046,-0.1724065
0.9883424,-0.3120019,0.1343265,0.411724,-0.2915874,-0.3084737
1.085353,-0.2430079,0.1455523,0.3728193,-0.4372098,-0.4503925
1.162474,-0.217564,0.1720463,0.2344244,-0.6785941,-0.506878
1.233269,-0.228527,0.1544342,0.2053944,-0.8869543,-0.5327796
1.304076,-0.307808,0.06870299,0.4647145,-1.247244,-0.4078654
1.305767,-0.5651209,-0.2030886,0.7826349,-1.62755,-0.2760865
1.268806,-0.8323813,-0.4945416,1.298038,-1.218733,-0.3351274
1.258748,-0.7787207,-0.4585226,1.646178,-0.5780914,-0.4059095
0.9754434,-0.6944195,-0.2973561,1.332817,-0.6186219,-0.4469837
0.6966084,-0.7914,-0.2970699,0.9674437,-0.8437432,-0.6061295
1.009804,-0.7151546,-0.3073674,1.242496,-0.8476021,-0.756447
1.298441,-0.5959687,-0.3024097,1.802837,-0.8346988,-0.7283964
1.043741,-0.585552,-0.3274355,2.157396,-0.7094906,-0.7086326
0.8794068,-0.4786894,-0.306004,2.215957,-0.5926706,-0.7797059
0.9223489,-0.3576556,-0.316986,2.018549,-0.6897692,-0.7807435
0.7699375,-0.2100632,-0.3416247,1.977338,-0.8144967,-0.7656891
0.7142193,-0.1711175,-0.3327532,1.817577,-0.934859,-0.8172338
0.732782,-0.3494588,-0.3201716,1.48516,-0.861298,-0.9541117
0.5475301,-0.3761766,-0.2643107,1.738214,-0.5828538,-1.163948
0.5418569,-0.357997,-0.2425685,2.083241,-0.3843499,-1.225504
0.5719697,-0.3929705,-0.2301062,2.296583,-0.2689833,-1.1509
0.4608388,-0.2700099,-0.21372,2.449422,-0.3537242,-1.107092
0.5448004,-0.1104308,-0.2618805,2.156829,-0.479417,-0.9590559
0.5976706,0.04660882,-0.2480785,1.893611,-0.4908835,-0.8018159
0.6061883,0.1283648,-0.2139013,1.501013,-0.5440985,-0.7572257
0.7020048,0.1340893,-0.1854602,1.009235,-0.5831433,-0.5759381
0.8054555,0.1398637,-0.08311157,0.9264988,-0.6365082,-0.3806528
1.09038,0.05353592,-0.01133425,0.8600289,-0.4566871,-0.3276483
1.252846,0.003938165,0.02837736,0.9296635,-0.1604659,-0.1734932
1.226131,-0.0191451,0.04674871,1.014118,-0.2914317,0.006883753
1.368184,-0.03957595,0.03529302,0.8566726,-0.3542576,0.1500073
1.468307,-0.04553654,0.002321463,0.7685363,-0.1502343,0.4512662
1.511201,-0.2558473,-0.142619,0.4530865,-0.09972926,0.6004898
1.570254,-0.5644706,-0.3165186,-0.1204992,-0.07336481,0.2666072
1.515272,-0.8152545,-0.3660226,-0.3875979,-0.1713597,-0.002135021
1.3817,-0.8849526,-0.336021,0.1438879,-0.3287051,0.2855451
1.140645,-0.707317,-0.3883759,0.7971668,-0.1721674,0.5259252
1.043504,-0.5968682,-0.477388,0.5375507,0.1389019,0.3423955
1.172702,-0.5567622,-0.4221751,0.3072004,0.3835851,0.3168867
1.163475,-0.3770805,-0.325397,0.3547833,0.33782,0.4770159
1.080606,-0.1979214,-0.2371826,0.02343454,0.1064997,0.5795211
1.00703,-0.2235285,-0.1496015,0.1852073,0.1567717,0.723717
0.7861248,-0.3618377,-0.16165,0.5227015,0.4090859,0.5747206
0.4927579,-0.3845869,-0.1146454,0.3903433,0.6574315,0.2862823
0.3459435,-0.2806406,-0.02821736,0.4948563,0.6599353,0.2944678
0.425489,-0.1167323,-0.06950363,0.4309263,0.3974248,0.2357657
0.4845142,-0.0502003,-0.08015679,0.07860418,0.345038,0.1352986
0.487467,-0.09110263,-0.05780982,-0.02860201,0.3514658,0.1951043
0.566626,-0.07078109,-0.0660921,-0.2825632,0.3050248,0.2040049
0.5646302,-0.1444875,-0.006138944,-0.5101968,0.331484,0.2920952
0.6015378,-0.3175764,0.06220199,-0.4249505,0.2568854,0.3887403
0.7995543,-0.4421342,0.1037096,-0.3136169,0.3361923,0.2019387
0.9888346,-0.4950634,0.1599989,-0.1948009,0.4664594,-0.056354
1.128587,-0.4248017,0.2095481,-0.1729229,0.4179574,-0.1363296
1.169753,-0.3905099,0.2462962,-0.26925,0.311182,-0.1333879
1.208653,-0.4196494,0.1994626,-0.3500246,0.009251991,-0.1747165
1.332295,-0.5309633,-0.01556217,-0.3435518,-0.351976,-0.2051815
1.493985,-0.8304133,-0.2587665,-0.03420699,-0.6761961,-0.2023451
1.628763,-0.9438096,-0.28154,0.502343,-0.6566874,-0.2117073
1.465897,-0.6911948,-0.2446307,0.6840053,-0.2591514,-0.2093084
1.132762,-0.4599276,-0.3688771,0.2375016,-0.270225,-0.1912403
0.8846758,-0.4675146,-0.4021135,-0.2270662,-0.5042686,-0.1328187
0.7513701,-0.4955678,-0.3759752,-0.2095115,-0.6344303,-0.05460788
0.9167595,-0.4663215,-0.387316,0.1011644,-0.6540684,-0.0593613
1.014286,-0.5219688,-0.2465023,0.4756585,-0.4841746,-0.2042766
0.7623553,-0.4463883,-0.2023348,0.7454773,-0.5568587,-0.5004158
0.5444904,-0.2238178,-0.2552,0.895917,-0.5318475,-0.7059782
0.4280468,-0.1030123,-0.204918,0.8987642,-0.3734212,-0.5193363
0.4060611,-0.05020732,-0.2461021,0.6018391,-0.4785232,-0.2558183
0.4532919,-0.09238572,-0.2615319,0.2754127,-0.3640238,-0.3218065
0.4633107,-0.1548732,-0.2070372,0.1776414,-0.2055004,-0.504842
0.5104175,-0.1974601,-0.1720701,0.1963972,-0.144343,-0.6519911
0.5092287,-0.2616455,-0.1004371,0.2349337,-0.1743044,-0.6787163
0.5404734,-0.1869862,-0.1316787,0.3082737,-0.4576388,-0.4522262
0.750183,-0.1260412,-0.1754075,0.4272886,-0.5101814,-0.25958
0.9457757,-0.1421167,-0.168053,0.3822271,-0.5288596,-0.1562697
1.093827,-0.07979765,-0.2131803,0.1753107,-0.5407383,-0.07273785
1.321382,-0.04128456,-0.2312242,-0.03594944,-0.2721738,-0.07515241
1.468398,-0.03577252,-0.2373244,-0.3043826,-0.1335176,0.02999586
1.41057,-0.07083412,-0.1996543,-0.35444,-0.03287993,0.1716819
1.439157,-0.1522714,-0.1529171,-0.2034457,0.03246909,0.384693
1.530152,-0.2601201,-0.2512748,-0.2311593,0.1606351,0.7883612
1.496477,-0.4485708,-0.4381264,-0.4055621,0.6320402,0.879013
1.534557,-0.5650169,-0.5725919,-0.8168996,0.8567302,0.3998825
1.423323,-0.5760379,-0.5036541,-1.131967,0.5935241,-0.05714156
1.077833,-0.6228433,-0.3325029,-0.748828,0.1984274,0.1068996
0.9338446,-0.6754272,-0.2731367,-0.1800176,0.1183769,0.4213145
1.020764,-0.615659,-0.2600994,-0.04226236,0.6910108,0.4733472
1.118767,-0.4192049,-0.2524771,-0.201789,1.239899,0.6212793
1.06755,-0.235872,-0.2349679,-0.5049703,0.9257254,0.6457479
0.963388,-0.2042675,-0.1856762,-0.8193357,0.4104719,0.6037738
0.7891676,-0.3101702,-0.1379019,-0.8484037,0.4405738,0.7195683
0.4856853,-0.3814556,-0.07199101,-0.6065097,0.4531068,0.6111577
0.4554574,-0.36835,-0.05898129,-0.4299779,0.5241651,0.5038141
0.5346458,-0.3479476,-0.08726611,-0.3782967,0.7652334,0.3999427
0.4766733,-0.2589686,-0.08989512,-0.4081425,0.5907371,0.1783046
0.5303985,-0.1969055,-0.08808643,-0.5202477,0.5245339,0.1556115
0.5534754,-0.2016923,-0.04864127,-0.615194,0.6198417,0.142243
0.5272845,-0.2047603,-0.003654401,-0.6719107,0.4473088,0.2093768
0.5739056,-0.2817159,0.05905627,-0.5783146,0.2848687,0.3169494
0.6858126,-0.3268749,0.106815,-0.4247777,0.07630409,0.1828108
0.8599179,-0.3117378,0.08032448,-0.4307135,0.03917677,0.04889717
0.9359062,-0.3143342,0.1070849,-0.4033878,0.1625659,-0.09637928
0.9985063,-0.3158717,0.1298631,-0.4371309,0.09928873,-0.1908313
1.059324,-0.3338293,0.107963,-0.6527468,-0.09848485,-0.2173421
1.101443,-0.3819092,0.06174507,-0.7260993,-0.5819955,-0.3031404
1.344083,-0.6174095,-0.1845418,-0.6044717,-0.98792,-0.1630663
1.468741,-0.884386,-0.4375429,-0.2358869,-0.8409474,-0.02393622
1.294292,-0.7879689,-0.3650248,0.2159873,-0.2959548,-0.166539
1.086209,-0.5897323,-0.252545,0.2154544,0.1581258,-0.242947
0.8613451,-0.5777079,-0.351426,-0.0006298674,-0.08451032,-0.1620516
0.8919994,-0.5817836,-0.3496815,0.01027795,-0.4229345,-0.1438723
1.12395,-0.5871727,-0.299444,0.1184148,-0.208501,-0.2230887
1.121617,-0.5808311,-0.3584728,0.4957486,-0.2202524,-0.3026552
1.096589,-0.5137702,-0.2489822,1.159655,-0.4935127,-0.461374
0.9793255,-0.4882357,-0.1660958,1.402883,-0.4927804,-0.6677275
0.7082351,-0.3838756,-0.2380118,1.309643,-0.4937364,-0.6620347
0.6700925,-0.1899612,-0.2387127,1.368411,-0.4920753,-0.4804676
0.6234986,-0.1027451,-0.2695826,1.048174,-0.4443057,-0.4013376
0.5366047,-0.08973132,-0.2807248,0.4514032,-0.3825788,-0.5496871
0.587729,-0.1420472,-0.2271363,0.4239435,-0.1533165,-0.7362133
0.5388158,-0.1938418,-0.1842022,0.5708279,-0.1258968,-0.7398948
0.5012093,-0.180077,-0.1567374,0.4252178,-0.2803636,-0.6628291
0.5462127,-0.1668025,-0.1815472,0.388598,-0.3110026,-0.6127083
0.5941801,-0.1123284,-0.1691497,0.4279833,-0.3252209,-0.4994028
0.7087579,-0.0736363,-0.1731005,0.3253194,-0.3334556,-0.3430505
0.8556502,-0.07230865,-0.1904709,0.1929652,-0.4025896,-0.2145791
1.061571,-0.08513715,-0.1300129,0.09917564,-0.3939722,-0.09861718
1.225062,-0.1273452,-0.08296242,0.1133908,-0.299977,-0.07785
1.242418,-0.1134841,-0.043995,0.109996,-0.2815318,-0.1207844
1.309612,-0.1237135,-0.05245756,0.009550808,-0.1413775,-0.04083319
1.42724,-0.2055324,-0.1035343,0.01355135,-0.0367017,0.188827
1.431041,-0.3267571,-0.1986831,-0.01642513,-0.01206372,0.5515511
1.489946,-0.5178054,-0.4427266,-0.2699535,0.0559681,0.7385833
1.58701,-0.6607253,-0.5901172,-0.4734217,0.02315466,0.3889539
1.348447,-0.7323974,-0.4460726,-0.3271781,0.0432312,0.09777465
1.018191,-0.7708877,-0.3100819,-0.06445759,0.1072876,0.3547602
1.03038,-0.6989997,-0.3919467,-0.04913655,0.2096053,0.4839846
1.185602,-0.527868,-0.4209889,-0.1088956,0.4498998,0.2560418
1.254651,-0.3469166,-0.3222218,-0.2057182,0.4471674,0.2248288
1.205363,-0.288689,-0.275183,-0.3063286,0.1562057,0.4205363
1.041034,-0.4018766,-0.183732,-0.02749123,0.02085409,0.5304716
0.8078185,-0.5223171,-0.1640868,0.3739703,0.2447484,0.4171424
0.629293,-0.5131984,-0.2154698,0.6133499,0.5003297,0.2595982
0.6483234,-0.3920925,-0.138463,0.7843114,0.4051864,0.2830478
0.6617722,-0.2335431,-0.1596075,0.7366857,0.3310376,0.2574686
0.5514224,-0.1575895,-0.1812047,0.568949,0.4141042,0.1466715
0.5309751,-0.1567904,-0.09836027,0.4427976,0.3276104,0.1466089
0.5540208,-0.1217024,-0.116527,0.3441436,0.3566198,0.1329785
0.5507972,-0.1275353,-0.1038282,0.2299993,0.4798011,0.09300879
0.5475633,-0.1778387,-0.07136817,0.05901021,0.4434085,0.04839891
0.5230235,-0.1938523,-0.02299922,0.04543684,0.4332896,0.02648023
0.5948871,-0.225546,0.1110135,0.08266099,0.2650265,0.05939124
0.7398403,-0.2084492,0.1770299,0.002041122,-0.04271002,-0.04448983
0.8732777,-0.1359131,0.1975067,-0.02649741,-0.1697827,-0.1554533
0.9740971,-0.1023026,0.1834491,-0.199716,-0.1797444,-0.1687076
1.024833,-0.1183661,0.1710584,-0.4843979,-0.131953,-0.2481064
1.139996,-0.2060927,0.1762826,-0.5352757,-0.2357378,-0.257437
1.268411,-0.4001486,0.03428677,-0.3912511,-0.7387439,-0.1132394
1.394545,-0.7789338,-0.1841643,-0.04083693,-1.110141,0.004671842
1.522954,-1.01483,-0.3129449,0.3893483,-0.4695752,-0.08698436
1.387005,-0.755487,-0.2983773,0.5138357,0.2737261,-0.2068761
1.104201,-0.5668665,-0.2890513,0.322826,-0.2981965,-0.1174746
1.012531,-0.6959865,-0.3725801,0.1641311,-0.7686966,-0.08662924
1.152782,-0.6614035,-0.4152947,0.2555019,-0.3848441,-0.116529
1.307081,-0.5690416,-0.4716722,0.5711336,-0.5269194,-0.09006331
1.149785,-0.5996265,-0.4047579,0.9694451,-0.7977285,-0.2732172
0.8612692,-0.5617391,-0.2254471,1.058639,-0.7988809,-0.5731027
0.7377954,-0.4890086,-0.2732434,1.007998,-0.8891025,-0.6905159
0.7194244,-0.3871808,-0.3040944,1.273265,-0.759537,-0.5819243
0.7460104,-0.2455995,-0.2480628,1.299911,-0.769109,-0.5041927
0.6547752,-0.200619,-0.3018336,1.078949,-0.7655073,-0.6498624
0.550973,-0.1973823,-0.2620304,1.063506,-0.4516225,-0.7460521
0.5642297,-0.1832502,-0.2113016,0.9364,-0.340074,-0.7356993
0.519041,-0.1764394,-0.2163673,0.8750651,-0.3347172,-0.725356
0.5802029,-0.1189029,-0.1669746,0.9105187,-0.4164174,-0.6101569
0.7094252,-0.06120269,-0.1840964,0.7861603,-0.480613,-0.4549259
0.8082371,-0.03998819,-0.2037295,0.6878608,-0.3577354,-0.3549186
1.060832,-0.03015155,-0.1759599,0.3775601,-0.2548927,-0.3624727
1.255404,-0.04782323,-0.1626526,-0.05592047,-0.02024532,-0.3566144
1.310018,-0.116112,-0.09808478,-0.1741213,0.1401669,-0.199741
1.336703,-0.2471052,-0.021839,-0.04208026,0.1696075,-0.08294478
1.371416,-0.3218443,-0.01961656,0.1996838,0.2361003,0.009867195
1.472557,-0.3211279,-0.165362,0.4481312,0.2293882,0.2027776
1.521011,-0.4034126,-0.4454249,0.5091862,0.4896064,0.4234496
1.517505,-0.4928846,-0.5965346,0.0758136,0.7848032,0.4790332
1.401387,-0.4950316,-0.4896131,-0.3972322,0.6824562,0.230303
1.067587,-0.5719077,-0.3306682,-0.2216369,0.4208537,0.06727455
0.8165724,-0.6813397,-0.2563634,0.1264394,0.1344575,0.2293175
0.9349725,-0.5945718,-0.265179,0.2734965,0.1297447,0.380258
1.169296,-0.4285121,-0.3187426,0.1928109,0.549052,0.3954805
1.165893,-0.3347445,-0.2846722,-0.2918886,0.8558209,0.4357885
1.116794,-0.2023435,-0.2144934,-0.8524194,0.612634,0.5626282
1.090239,-0.09243597,-0.1731334,-1.070928,0.2702987,0.7278898
0.9516446,-0.1794727,-0.09341541,-0.8560238,0.3448856,0.8568049
0.7291403,-0.3822141,-0.08023726,-0.5775788,0.4598015,0.7704699
0.4463437,-0.4409,-0.06699105,-0.4811989,0.4835307,0.6019141
0.4638257,-0.3329083,-0.03232272,-0.402874,0.4888199,0.60149
0.59665,-0.2695528,-0.1085369,-0.5556989,0.3839126,0.5153308
0.4931133,-0.2583876,-0.1180736,-0.8000935,0.4262344,0.3924706
0.5765836,-0.2319866,-0.07251168,-0.8666672,0.4357491,0.4212439
0.6514846,-0.1901275,-0.04605871,-0.9751236,0.3307629,0.4648261
0.5824764,-0.1786437,0.01741883,-0.992421,0.3750446,0.5790709
0.6955734,-0.2522293,0.03090899,-0.9211641,0.3786077,0.6156729
0.8212146,-0.3064122,0.06010974,-0.892062,0.4332347,0.4625663
0.9948087,-0.3161211,0.1078797,-0.9198039,0.5982219,0.2624831
1.136278,-0.3076251,0.1581116,-1.037352,0.6476926,0.03781475
1.104056,-0.305752,0.204456,-0.9910574,0.4786784,-0.06776948
1.120292,-0.4502311,0.05760991,-0.8915483,-0.1641459,-0.07378028
1.220361,-0.753125,-0.2064873,-0.6408352,-0.6895655,-0.08271081
1.486486,-0.9660881,-0.3836255,-0.07234226,-0.1305979,-0.08658495
1.643562,-0.7663515,-0.3917473,0.05496566,0.519471,-0.1648823
1.232598,-0.4751249,-0.3638231,-0.4150883,0.1038794,-0.1972269
0.8317187,-0.5286479,-0.4259601,-0.7286865,-0.1400283,-0.1068029
1.035449,-0.5615589,-0.3839018,-0.5005645,0.1638774,-0.02801679
1.185075,-0.5108773,-0.2957924,-0.09463733,-0.1151701,-0.07769816
0.9229199,-0.5408787,-0.2116494,0.2296449,-0.3753327,-0.3340678
0.7906241,-0.434148,-0.09862181,0.5706427,-0.3073595,-0.610082
0.6706078,-0.2690881,-0.1821759,0.4846546,-0.2964064,-0.6207194
0.4968494,-0.1283569,-0.2565309,0.1419594,-0.1013592,-0.4787789
0.5185114,-0.06891813,-0.2164245,-0.02039019,-0.2302803,-0.4694752
0.4570732,-0.1662315,-0.2550079,-0.3128545,-0.4226699,-0.5158754
0.4971767,-0.2250287,-0.2238962,-0.355658,-0.281302,-0.549574
0.6580269,-0.2582577,-0.1931453,-0.1299798,-0.3106344,-0.6199763
0.6746264,-0.2738991,-0.2253328,-0.02124686,-0.2526824,-0.4949293
0.7898656,-0.2445165,-0.2091896,0.2478293,-0.1919826,-0.2778911
0.8547982,-0.2595452,-0.221777,0.3816195,-0.2439794,-0.2446229
0.9262747,-0.178464,-0.2114012,0.3072398,-0.1879421,-0.2340487
1.136871,-0.04526229,-0.173244,0.2342917,-0.2096464,-0.1738369
1.183326,-0.02092644,-0.1505409,0.00208401,-0.154461,-0.1138036
1.223933,-0.0521626,-0.1052103,-0.1507214,-0.05884333,-0.03614624
1.308007,-0.0821067,-0.07432017,-0.1911986,-0.0008474177,0.1694754
1.358091,-0.1170145,-0.1142214,-0.1722357,0.1034925,0.5795083
1.526738,-0.319864,-0.3801403,-0.2633886,0.2766784,0.803374
1.727353,-0.5537234,-0.6945621,-0.9262733,0.6844176,0.4989678
1.703343,-0.5114306,-0.6273149,-1.531707,0.8484593,0.1276806
1.364566,-0.5200835,-0.3884739,-1.189478,0.432862,0.2216452
1.104876,-0.6987925,-0.3088906,-0.6164939,0.1695661,0.4602123
1.153822,-0.6198087,-0.2803244,-0.7031763,0.6961191,0.5725587
1.209378,-0.4312805,-0.2949831,-0.9168285,1.235577,0.6740803
1.124412,-0.3394142,-0.2978076,-1.149902,0.8854783,0.6774655
1.035727,-0.2023609,-0.1922919,-1.495341,0.5051273,0.7711851
0.9699205,-0.2466371,-0.1485217,-1.256332,0.5213329,0.873019
0.7684989,-0.387421,-0.1468227,-0.9834921,0.5544482,0.7275523
0.5315453,-0.3737572,-0.1222273,-1.008783,0.809616,0.653581
0.4042917,-0.3764991,-0.1178581,-0.8055722,0.8420576,0.5922548
0.3754601,-0.3110476,-0.08483286,-0.7598033,0.6843572,0.4791132
0.42617,-0.2566859,-0.09381093,-0.7816104,0.7223314,0.398299
0.4416877,-0.2898097,-0.1006179,-0.7543841,0.5355316,0.2151826
0.5229347,-0.2181449,-0.06383142,-0.8638469,0.4667795,0.1901857
0.6068167,-0.2333553,-0.05212758,-0.8428903,0.5452128,0.2921345
0.5805074,-0.3016604,0.03019769,-0.7901152,0.4206745,0.3065107
0.7106055,-0.3177852,0.1450569,-0.647536,0.4660402,0.2904079
0.9268291,-0.3209936,0.2062248,-0.4877669,0.5020129,0.1173453
1.068041,-0.1954022,0.2079407,-0.6481622,0.4614156,-0.1302014
1.107807,-0.09706796,0.1836497,-0.9206707,0.4408366,-0.2531309
1.022692,-0.102002,0.1800764,-1.038879,0.07104474,-0.1954455
1.070552,-0.2959314,0.02173718,-0.8611093,-0.4261424,0.03427697
1.429674,-0.7657062,-0.3433415,-0.5542967,-0.4638395,0.213131
1.802284,-1.044539,-0.5915999,-0.3408976,0.09000034,0.08036733
1.625234,-0.8011879,-0.4792201,-0.2544932,0.4966858,-0.1941748
1.067932,-0.4229658,-0.3138422,-0.5156429,0.2048655,-0.1704297
0.8104496,-0.3924316,-0.3565112,-0.8665161,-0.05615954,0.02271621
0.9321163,-0.5059364,-0.3294513,-0.7961534,0.02525801,0.1158508
1.116225,-0.5533747,-0.2564875,-0.4313276,-0.09303722,0.05761799
1.001731,-0.5931292,-0.2306901,0.1279566,-0.2836297,-0.2547928
0.7925085,-0.4307396,-0.1722689,0.6351308,-0.2477708,-0.5670132
0.6902533,-0.2141255,-0.2206425,0.4769414,-0.2757936,-0.6570467
0.4573377,-0.1322302,-0.22767,0.1667312,-0.4048795,-0.4393767
0.4558112,-0.1535966,-0.1898071,0.1023789,-0.428535,-0.166684
0.564156,-0.2417756,-0.2219947,-0.2019084,-0.3250892,-0.3003548
0.4921976,-0.2374213,-0.1719333,-0.1119859,-0.1404471,-0.4285835
0.5576568,-0.259532,-0.1850007,0.2099187,-0.1257412,-0.450175
0.5324482,-0.2373834,-0.2116243,-0.01718656,-0.2157072,-0.5579356
0.5367831,-0.1414957,-0.1739285,0.0404091,-0.2083685,-0.4132215
0.7088122,-0.1784131,-0.2190308,0.1805418,-0.2415476,-0.2233072
0.8189798,-0.1440418,-0.2183483,-0.03689452,-0.2291596,-0.08465739
0.9899321,-0.1212788,-0.1968074,-0.05535275,-0.1979648,0.03880277
1.125062,-0.1495665,-0.1456838,-0.1412756,-0.2086727,0.006766499
1.345772,-0.05203833,-0.03237013,-0.1488175,-0.08775269,0.1155577
1.453729,-0.02638767,-0.03184185,-0.0731457,0.03293894,0.2578297
1.342885,-0.05241843,-0.08232859,-0.3296979,0.06955314,0.4057048
1.53318,-0.07439393,-0.1587078,-0.517012,0.1608352,0.8604053
1.575679,-0.1476454,-0.2813817,-0.8192325,0.347023,1.112003
1.420698,-0.3166494,-0.3976496,-1.42506,0.4843798,0.6505343
1.391364,-0.6256449,-0.5152351,-1.653617,0.4500156,0.157374
1.15797,-0.747723,-0.5082878,-1.154004,0.3572306,0.378624
1.015409,-0.6440021,-0.4181143,-0.5681516,0.3601261,0.5805941
0.9745501,-0.65856,-0.4190826,-0.5105009,0.6572457,0.4078248
0.9863799,-0.6751266,-0.3836697,-0.527325,1.051297,0.4754466
1.204618,-0.4727283,-0.2715924,-0.6502191,1.011663,0.4706003
1.111104,-0.2075567,-0.2046661,-0.9650369,0.7521002,0.5467824
0.9295379,-0.1301674,-0.1469092,-0.878793,0.6972562,0.8741926
0.7515151,-0.2837022,-0.1276078,-0.7816734,0.7280747,0.7701662
0.3407039,-0.4099236,-0.1237262,-0.8056877,0.7380482,0.7003859
0.4351427,-0.3626009,-0.09348364,-0.6020887,0.6956943,0.7835573
0.6468102,-0.3748149,-0.1350354,-0.5292616,0.6358094,0.590982
0.4373983,-0.4182674,-0.1365609,-0.571726,0.6557902,0.4470705
0.5101304,-0.2871101,-0.06126261,-0.6045688,0.5825381,0.2913592
0.5749475,-0.1786029,0.003803805,-0.7169912,0.3581149,0.2794928
0.4640937,-0.2192707,0.05168099,-0.779139,0.1252957,0.4836494
0.6167451,-0.2867035,0.04245656,-0.7251476,-0.003917705,0.495677
0.7545639,-0.3541324,0.07445318,-0.5799441,0.1291407,0.4287452
0.8991319,-0.4060326,0.1027867,-0.5514715,0.3835355,0.2651329
1.024041,-0.3541502,0.1051439,-0.68941,0.5688562,0.000270613
1.028033,-0.2783808,0.2129832,-0.85755,0.6447864,-0.2319442
1.106066,-0.3207363,0.2513027,-0.9792806,0.4880804,-0.4188993
1.1071,-0.4019471,0.1508,-0.8278196,0.233171,-0.3859721
1.25978,-0.6491764,-0.07805851,-0.4063557,0.03050254,-0.3503056
1.532124,-0.9421311,-0.3417829,0.144206,-0.03118286,-0.4136738
1.447328,-0.6839841,-0.2912578,0.3671375,0.0350151,-0.3637506
1.041834,-0.3289176,-0.2059365,-0.2518261,-0.1065266,-0.3107245
0.6335868,-0.4809621,-0.3916646,-0.9177011,-0.2470454,-0.2375052
0.9342749,-0.5574448,-0.4488222,-0.8770241,-0.09033615,-0.1689007
1.39753,-0.4870704,-0.3813416,-0.4798138,0.05249948,-0.2167201
1.078644,-0.5545238,-0.3229749,0.06704975,0.06293867,-0.3704047
0.8717265,-0.4590068,-0.1627237,0.4707506,-0.103758,-0.7005373
0.7788913,-0.2895476,-0.1599394,0.4321024,-0.3131017,-0.8762429
0.5021237,-0.1523637,-0.2388392,0.3344676,-0.2735011,-0.6599291
0.6004465,-0.04111285,-0.2100689,0.3178131,-0.2625495,-0.4658122
0.5610689,-0.1428702,-0.2718475,0.07000309,-0.3214674,-0.468539
0.4774745,-0.1896542,-0.2660328,-0.1445705,-0.1505073,-0.5557935
0.5955007,-0.1828832,-0.1935932,-0.03244324,-0.04006153,-0.6623221
0.4769975,-0.2931324,-0.2144574,0.0471293,-0.2200156,-0.6514232
0.5146848,-0.2638848,-0.1959845,0.07369159,-0.3509017,-0.5917282
0.6148984,-0.2121558,-0.2168609,0.2177265,-0.2556695,-0.5268873
0.6455114,-0.2078706,-0.2495823,0.2396285,-0.1465156,-0.330738
0.864245,-0.1497222,-0.2262642,0.1637853,-0.1011335,-0.2218077
0.9457488,-0.1603877,-0.2005928,0.1510699,-0.04380914,-0.2733354
1.021063,-0.1309852,-0.1069363,0.1314752,-0.05739054,-0.1881861
1.162741,-0.04330374,-0.06504555,0.1336097,-0.1195901,-0.03034605
1.236944,-0.0180329,-0.08410945,0.1372505,-0.1240209,0.09258601
1.376806,0.01213913,-0.07893861,0.009614595,-0.1073787,0.2313392
1.451301,-0.01021386,-0.1193807,-0.1173683,-0.03283106,0.2908676
1.520038,-0.1734173,-0.1716222,-0.1242878,0.03723847,0.2879583
1.550538,-0.3114886,-0.2780002,-0.1827442,-0.02509337,0.2226355
1.479174,-0.28431,-0.3812916,-0.2903167,-0.1831009,0.1966458
0.4641862,-0.2162872,-0.1409005,0.9582038,0.01303193,0.1016716
0.5230209,-0.1758581,-0.1139832,0.745892,0.03972816,0.03659782
0.5983759,-0.1636988,-0.07287192,0.5034276,-0.008328577,0.02146672
0.577165,-0.1985782,0.01193108,0.4873664,0.03505756,0.07340883
0.6923406,-0.2604469,0.1010319,0.5521077,0.0275405,0.05380423
0.8355749,-0.2533299,0.1542957,0.6020853,0.05181414,0.01779138
0.9094757,-0.253904,0.1399378,0.4684654,0.06634102,-0.06863059
0.9975943,-0.3172276,0.1488472,0.1825191,-0.0465003,-0.2813129
1.062757,-0.3555564,0.1552996,0.08288415,-0.1911365,-0.3984748
1.148229,-0.4616279,0.01214881,0.1603214,-0.5388547,-0.3943196
1.297271,-0.6955979,-0.2440253,0.4409665,-0.8540853,-0.3387189
1.526626,-0.8684826,-0.4111807,0.90576,-0.7671551,-0.3555296
1.59394,-0.7580538,-0.3282246,1.166639,-0.3739293,-0.5419744
1.148457,-0.5692918,-0.253867,1.048924,-0.1286116,-0.6650977
0.7463108,-0.600392,-0.3458791,0.9144296,-0.5757951,-0.4912719
0.9845193,-0.6123815,-0.3657867,1.002904,-1.037533,-0.2291569
1.235038,-0.5498104,-0.3842121,1.113005,-0.6840835,-0.2828741
1.089537,-0.5137989,-0.3740379,1.410822,-0.4080439,-0.454405
0.9498,-0.3964318,-0.2508737,1.670472,-0.6436105,-0.6102254
0.7958854,-0.3412865,-0.2615481,1.442275,-0.6385817,-0.9234885
0.6172805,-0.2603191,-0.2687382,1.346732,-0.6443592,-0.9797071
0.552958,-0.0790471,-0.2008885,1.434555,-0.8420281,-0.722291
0.4725855,-0.096712,-0.2401148,1.269699,-0.7513613,-0.5501862
0.5405427,-0.1928449,-0.2453202,1.121425,-0.6831699,-0.5567429
0.6075827,-0.2132144,-0.2335892,1.035478,-0.6516645,-0.7327545
0.5413537,-0.2508637,-0.2499496,0.9527308,-0.4592328,-0.8399163
0.6404008,-0.231483,-0.2041742,0.9586273,-0.3798871,-0.8056344
0.6831926,-0.1618241,-0.163477,1.077814,-0.3633699,-0.6707745
0.7253452,-0.122066,-0.1417836,1.177298,-0.5087167,-0.4091949
0.8865821,-0.09645944,-0.1751624,1.078391,-0.6920973,-0.2632249
1.026382,-0.07586377,-0.2320741,0.9370566,-0.5842777,-0.2518697
1.230445,-0.05877869,-0.2180937,0.7716591,-0.4014553,-0.1942072
1.247397,-0.02931692,-0.2027631,0.5535312,-0.2569509,-0.04536999
1.287321,0.006073604,-0.1866859,0.4780303,-0.2440338,0.06518279
1.425999,-0.03996673,-0.183658,0.5065728,-0.2366747,0.1217202
1.344165,-0.2313292,-0.2695718,0.4767417,0.001596271,0.3712738
1.45211,-0.4323954,-0.4099917,0.3289629,0.2098549,0.5248931
1.577543,-0.5017271,-0.5272785,0.1178096,0.3998772,0.2470506
1.482591,-0.5570802,-0.5332474,0.05133663,0.4649598,0.0239838
1.322551,-0.6746607,-0.4352024,0.3014878,0.137332,0.2283198
0.9962268,-0.660823,-0.3580328,0.6296438,-0.02281423,0.4502359
0.9711339,-0.5628461,-0.3789813,0.6583785,0.295118,0.4148141
1.14365,-0.5450958,-0.3832178,0.4428611,0.5364716,0.4317555
1.079486,-0.4057164,-0.2457174,0.2955764,0.3748882,0.5255443
1.074051,-0.2690219,-0.1259502,0.4046967,0.2049202,0.6166965
0.9753026,-0.3410385,-0.1392877,0.5565252,0.272604,0.7174969
0.6813045,-0.3376089,-0.1518206,0.5469487,0.1921075,0.6474534
0.4356396,-0.3188512,-0.1082741,0.5597847,0.03453095,0.5905178
0.3376563,-0.3563702,-0.08985545,0.6319217,0.05746284,0.5688869
0.4414512,-0.3172111,-0.1086077,0.7026606,0.07914915,0.3563958
0.4717169,-0.3249052,-0.08924492,0.7303182,0.1113491,0.137868
0.4286482,-0.2757862,-0.04641678,0.6643425,0.0277818,0.06235261
0.4988985,-0.1732217,-0.007630434,0.5429075,-0.2034694,0.1341167
0.5334287,-0.1854562,0.03059391,0.3637974,-0.3190218,0.1714191
0.592863,-0.2356231,0.04967753,0.3669558,-0.3002063,0.09439059
0.7323031,-0.3111222,0.106614,0.4916763,-0.1283179,0.01456804
0.8892601,-0.3609497,0.157139,0.4048421,0.004455391,-0.1939951
1.031442,-0.3757645,0.1496557,0.3398299,-0.07894587,-0.3380199
1.102399,-0.4315273,0.1222179,0.3229159,-0.3436747,-0.2859616
1.245916,-0.56432,-0.02487075,0.3943072,-0.7679812,-0.2850688
1.457317,-0.8225747,-0.233482,0.6653825,-0.9231231,-0.3084597
1.561931,-0.9384977,-0.2970585,0.7009313,-0.6734716,-0.442027
1.439111,-0.7132455,-0.3024407,0.6495837,-0.5563927,-0.5987454
1.13447,-0.5378655,-0.4143314,0.7005427,-0.7550311,-0.4117477
1.040154,-0.6467347,-0.5251286,0.6292451,-0.8272493,-0.1581815
1.150122,-0.7278064,-0.5623383,0.6322142,-0.4729182,-0.1869058
1.190719,-0.6953677,-0.5938183,0.7138492,0.007369524,-0.3429721
1.186406,-0.6640786,-0.5026792,0.9031734,0.1606254,-0.5444805
1.012673,-0.4836316,-0.3205169,1.136006,-0.1300672,-0.7456358
0.7777156,-0.2827991,-0.2486747,1.041151,-0.4268699,-0.783392
0.7432648,-0.2380593,-0.2506743,0.9291814,-0.4438321,-0.7171091
0.6989205,-0.1572126,-0.2545512,0.9578247,-0.5007842,-0.634425
0.5609881,-0.1041108,-0.2329938,0.7971209,-0.5951179,-0.5218711
0.5188063,-0.1702727,-0.2274842,0.6237603,-0.5706669,-0.5135635
0.5319817,-0.2176162,-0.240261,0.6204023,-0.479186,-0.6052788
0.5319576,-0.2458639,-0.1965197,0.6283284,-0.2894379,-0.6599844
0.5806537,-0.245302,-0.1786531,0.6118706,-0.2024657,-0.6776389
0.5982262,-0.1996091,-0.1768673,0.6355575,-0.3016101,-0.6261946
0.617612,-0.1671257,-0.1517708,0.7383487,-0.4030559,-0.4831851
0.7659412,-0.1324171,-0.1636412,0.900607,-0.5294221,-0.3271446
0.9307023,-0.09718539,-0.2078273,0.9410684,-0.5942372,-0.234937
1.112469,-0.09079454,-0.2714711,0.7664699,-0.4128365,-0.1857782
1.308568,-0.0888404,-0.2632981,0.5672606,-0.08306541,-0.1375893
1.390029,-0.09111727,-0.1815002,0.4650029,0.1456461,-0.1219555
