accx,accy,accz,gyrox,gyroy,gyroz
0.9599337,-0.2482484,0.02457318,-0.1338541,0.4649852,-0.28402
1.018087,-0.2174361,0.0192668,-0.1518388,-0.01773524,0.1569642
1.114402,-0.1763272,-0.1051835,-0.1441972,0.539113,0.3837289
1.094084,-0.2230012,-0.2061982,-0.2242338,1.154281,0.336717
1.024931,-0.2913198,-0.19725,-0.2796798,1.490473,0.3319948
0.8611935,-0.3173421,-0.095253,-0.2104214,1.687452,0.3549894
0.6817292,-0.3460315,0.01367245,-0.02700649,1.259728,0.2799802
0.5716966,-0.3090675,0.0853038,0.06570375,0.7719397,0.2024898
0.5206667,-0.2482449,0.1072936,0.1279962,0.4048773,0.2089571
0.5752902,-0.1924429,0.09266466,0.1077859,0.157896,0.2325028
0.6370389,-0.1508426,0.08568774,-0.07881285,0.3910664,0.2318308
0.6831192,-0.1818186,0.08730592,-0.1749077,0.4415852,0.2525756
0.7471682,-0.1873355,0.09759653,-0.1826635,0.3128917,0.2671744
0.7652506,-0.2018472,0.1334685,-0.07570394,0.3260092,0.239748
0.84224,-0.2800095,0.1732161,0.1442567,0.2273887,0.1468701
0.9734622,-0.3022879,0.1929553,0.2387867,0.3430915,0.01127399
0.9837038,-0.2768792,0.2014819,0.2985973,0.4793063,-0.0369184
0.9681488,-0.2598299,0.227726,0.4072165,0.2510459,0.007326805
1.046361,-0.2695085,0.2559672,0.539043,0.0781895,0.03520238
1.134847,-0.2905947,0.2352944,0.6065226,0.03331759,0.1129017
1.204846,-0.3093831,0.1950781,0.5354227,-0.2444711,0.3020869
1.245423,-0.3576027,0.1668665,0.5091117,-0.6965046,0.3877448
1.212476,-0.4079008,0.1203422,0.4198104,-0.8392156,0.2853822
1.10515,-0.454526,0.0806962,0.1960005,-0.7168351,0.1819225
0.924674,-0.464444,0.05909384,0.04067315,-0.8085792,0.1573917
0.8060985,-0.4603972,-0.002976691,-0.04093291,-1.135145,0.217659
0.8840649,-0.5414995,-0.09039871,-0.005862044,-1.474695,0.2600204
1.007393,-0.5836232,-0.1457815,0.06914535,-1.514143,0.09405758
1.083496,-0.5489356,-0.1768406,0.07568116,-1.192868,-0.1686733
1.150777,-0.5062289,-0.1924609,0.1352294,-0.8527127,-0.3087358
1.088794,-0.4070686,-0.1701846,0.1981149,-0.6802681,-0.3454015
0.9523348,-0.3547443,-0.118716,0.1988198,-0.820818,-0.3010479
0.9183085,-0.3530933,-0.08760285,0.2154567,-1.081607,-0.1973089
0.9121066,-0.3309169,-0.108224,0.2393649,-1.093609,-0.1695235
0.9251036,-0.3519181,-0.1483103,0.2512614,-1.028659,-0.2221591
0.954404,-0.3347832,-0.1744312,0.264106,-0.8348052,-0.3158636
0.9058205,-0.2808796,-0.1920935,0.2368836,-0.4110637,-0.4302757
0.8508693,-0.247593,-0.1914794,0.1664942,-0.1969838,-0.4352355
0.8089749,-0.2089259,-0.1848007,0.1110276,-0.2931864,-0.3163646
0.7920402,-0.2382573,-0.1915647,0.09310303,-0.3986992,-0.1708366
0.8049697,-0.2635244,-0.1887282,0.1982161,-0.372926,-0.08634895
0.7814618,-0.2282,-0.1839863,0.4188681,-0.26238,-0.08422555
0.7944277,-0.1927415,-0.1737746,0.507123,-0.05561521,-0.05085887
0.8019043,-0.1176958,-0.1462005,0.4141529,0.1024793,-0.005988036
0.7841961,-0.08428036,-0.1375287,0.3209314,-0.03409928,-0.01649663
0.8360361,-0.09681673,-0.1326339,0.268043,-0.1958621,-0.009674139
0.901016,-0.04834822,-0.1154675,0.2310982,-0.2845713,-0.01132828
0.973185,-0.0317406,-0.1231919,0.2121752,-0.3604564,-0.02914496
1.045804,-0.06822698,-0.1498858,0.1511532,-0.2854104,-0.00738791
1.163043,-0.1091629,-0.1673002,0.03955245,-0.307103,0.008578328
1.299913,-0.182304,-0.1738632,-0.00179555,-0.3505724,0.02338802
1.298865,-0.2738051,-0.2064527,0.04254545,-0.2412477,0.03707494
1.34345,-0.4210826,-0.2863536,0.05251469,-0.1401732,0.01033641
1.392856,-0.5448591,-0.3284111,0.004504056,-0.01740762,-0.05948416
1.237726,-0.5240011,-0.2867284,-0.0182403,-0.06353034,-0.1975069
1.141082,-0.5612216,-0.2662175,0.05605557,-0.104648,-0.2793222
1.150161,-0.6463226,-0.2947842,0.2326166,0.3374469,-0.2125527
1.167036,-0.5796756,-0.2936664,0.4545026,1.074652,-0.137322
1.190185,-0.5395085,-0.2575297,0.55976,1.697922,-0.1163292
1.086888,-0.497655,-0.1710698,0.4492931,1.76127,-0.2060877
0.9804043,-0.3417368,-0.03303464,0.2691194,1.195235,-0.332428
0.9831768,-0.2783673,0.04065668,0.0642755,0.4140103,-0.2189101
1.018469,-0.2675005,0.005288483,-0.132479,-0.04851891,-0.003264174
1.099185,-0.2400237,-0.07688151,-0.1353216,0.3427585,0.0881961
1.164581,-0.2413302,-0.1439313,-0.1442203,1.021667,0.1408931
1.100967,-0.2365966,-0.128953,-0.2655652,1.318604,0.1380518
0.935775,-0.2631286,-0.07661857,-0.2030765,1.491595,0.140297
0.8124514,-0.2614336,-0.05786045,-0.1425123,1.336014,0.1787146
0.6987835,-0.2426636,-0.001765102,-0.2166793,1.007121,0.1277708
0.5754185,-0.2615077,0.06847057,-0.1936267,0.8057634,0.1109801
0.5580793,-0.2353019,0.08905812,-0.2219364,0.3803864,0.1616844
0.5590529,-0.212477,0.1003996,-0.3120094,0.1579591,0.1851543
0.5981921,-0.2046896,0.07892662,-0.3123126,0.2281564,0.1948094
0.6864492,-0.2075669,0.06441981,-0.2790929,0.3071477,0.1639181
0.6968511,-0.2473409,0.08593016,-0.1918902,0.524561,0.1054158
0.7076371,-0.2424301,0.09696568,-0.1292696,0.424885,0.001927712
0.7363786,-0.2362159,0.1590322,-0.06601949,0.1734061,-0.08474524
0.8150311,-0.2488839,0.2271634,0.0834685,0.1470904,-0.1061167
0.9735085,-0.2449133,0.2360358,0.1789724,0.181125,-0.1475065
1.094413,-0.2626164,0.2374848,0.2670407,0.3258532,-0.1050103
1.175345,-0.2620134,0.2371265,0.3446506,0.1662184,0.006333319
1.238423,-0.2580845,0.2345984,0.224175,-0.2206412,0.1479224
1.315914,-0.282249,0.2051877,0.06814811,-0.441097,0.4079445
1.388883,-0.3308419,0.1731322,0.1125429,-0.6059412,0.5243207
1.383564,-0.45291,0.1713254,0.1913175,-0.5323599,0.3737386
1.303247,-0.5460425,0.1471433,0.1610137,-0.6027206,0.2067286
1.099452,-0.493418,0.1069009,0.06932421,-0.9499341,0.1412321
0.8605276,-0.4410091,0.05055013,-0.05625725,-1.078134,0.1636816
0.8080398,-0.4998609,-0.03440392,-0.03239535,-1.213673,0.1635419
0.9096305,-0.5363362,-0.1142177,0.05563796,-1.385642,0.02767844
0.9918796,-0.5299347,-0.163221,0.01002224,-1.445304,-0.1521708
1.066484,-0.544837,-0.1932531,0.06800494,-1.336386,-0.2569823
1.112132,-0.4994111,-0.2169337,0.163482,-1.022312,-0.323735
1.025735,-0.4307067,-0.1761308,0.2130772,-0.9128705,-0.3536988
0.9393825,-0.3875828,-0.1058286,0.378576,-1.025992,-0.2939368
0.8966724,-0.3460905,-0.09052426,0.46007,-1.216159,-0.2420673
0.8599917,-0.3516347,-0.1088944,0.4460879,-1.377321,-0.2715822
0.9034114,-0.3463893,-0.1592724,0.4388165,-1.179636,-0.3301082
0.9101816,-0.3111282,-0.2180846,0.3917164,-0.7562487,-0.4049846
0.8516327,-0.2734724,-0.2363649,0.3647263,-0.3560165,-0.4419221
0.7942617,-0.2143019,-0.2086389,0.3027918,-0.1636318,-0.3755553
0.7214559,-0.1749952,-0.1634845,0.248454,-0.2688388,-0.2772116
0.7065314,-0.1436793,-0.1501028,0.2383041,-0.3969789,-0.1821544
0.7170642,-0.1367233,-0.1645517,0.1940134,-0.4827213,-0.09260673
0.7421486,-0.1550141,-0.1950319,0.2055205,-0.4986985,-0.05971009
0.8419957,-0.1437974,-0.2217,0.2334656,-0.2367239,-0.03175711
0.9179748,-0.1394516,-0.2362838,0.2066869,0.1352797,-0.008420972
0.9078237,-0.1268846,-0.2445696,0.1965338,0.260852,-0.04091818
0.902884,-0.1012281,-0.2010962,0.1771238,0.1425542,-0.06393697
0.9851593,-0.08681855,-0.1673393,0.1174468,0.00215632,-0.07305757
1.081022,-0.0707701,-0.2058552,0.06551379,-0.05909543,-0.04889231
1.158834,-0.08898567,-0.2314825,0.06533181,-0.0141492,0.02348659
1.235059,-0.117179,-0.2117536,0.08362563,0.05056083,0.03878344
1.260463,-0.1325648,-0.2012821,0.05973499,-0.06326306,0.01486521
1.297619,-0.1672379,-0.2258603,0.01333662,-0.2156101,0.01108348
1.324451,-0.2356375,-0.2537056,-0.04358275,-0.2152692,0.01057151
1.303555,-0.3294337,-0.2787474,-0.09086107,-0.2987848,-0.01588855
1.268855,-0.4004343,-0.3007691,-0.08578272,-0.4433762,-0.1274655
1.154944,-0.5224679,-0.3065869,-0.05903259,-0.3936746,-0.2619827
1.093654,-0.6777329,-0.3144349,0.08397382,-0.1068417,-0.2872806
1.150261,-0.669296,-0.2983999,0.4055293,0.5027611,-0.2354084
1.165071,-0.6194135,-0.2659716,0.6660468,1.146805,-0.2166012
1.142058,-0.6283274,-0.2244417,0.7255572,1.329185,-0.218681
1.076614,-0.5186136,-0.1474271,0.5697475,1.100162,-0.2052885
0.9983186,-0.3633762,-0.09588772,0.2624546,0.6998141,-0.1888261
1.035408,-0.2676115,-0.09390289,0.02219719,0.3216337,-0.07450019
1.118955,-0.2024597,-0.1325484,-0.1690484,0.3551606,0.1281364
1.124332,-0.2079785,-0.1663671,-0.3001205,0.8483738,0.2310231
1.050608,-0.2428672,-0.1267002,-0.2532065,1.235703,0.2455739
0.9194528,-0.2975392,-0.07290134,-0.1224306,1.321461,0.290985
0.7977342,-0.3517002,-0.03321712,0.1219857,1.304415,0.312166
0.7359624,-0.3205207,0.005782928,0.3465636,1.244057,0.2430338
0.6835893,-0.2651602,0.03553922,0.3357415,1.138715,0.1590958
0.6711041,-0.2143097,0.07683982,0.2896758,0.8319547,0.09255174
0.7013371,-0.1903683,0.1093871,0.2173111,0.4713844,0.02736355
0.7092787,-0.2207579,0.1322548,0.04906189,0.2312792,0.005389382
0.7349222,-0.2165132,0.1378913,-0.03440867,0.06436314,0.0008507333
0.7443629,-0.2166858,0.108238,-0.01802717,0.1457952,-0.01192215
0.7263055,-0.256161,0.09692009,0.09437187,0.2988476,-0.01582548
0.7067887,-0.2536179,0.1151445,0.2746638,0.3513556,-0.03748548
0.6609275,-0.2045206,0.154184,0.3498154,0.211833,-0.1038825
0.7009735,-0.145184,0.2016007,0.3199735,-0.1885835,-0.1931799
0.8215046,-0.1439382,0.2025113,0.2579464,-0.3148034,-0.2114819
0.9272214,-0.1764518,0.1877785,0.1876082,-0.2386756,-0.1496194
1.01896,-0.1680897,0.1954882,0.2443198,-0.3546354,-0.04297521
1.059295,-0.1745253,0.1733191,0.3508487,-0.4751445,0.1253809
1.120819,-0.1937549,0.120135,0.2807756,-0.541357,0.2545153
1.197546,-0.2431774,0.07697528,0.1530875,-0.498939,0.3297293
1.208682,-0.3888848,0.05780849,0.1220922,-0.3857625,0.4246122
1.251141,-0.4903835,0.06829673,0.3543853,-0.2141799,0.4135711
1.250545,-0.4587032,0.07168765,0.7887654,-0.08138242,0.2937841
1.165997,-0.4388627,0.05529284,0.8343284,-0.4539011,0.2484318
1.134053,-0.4720338,0.04891464,0.5643315,-0.8816802,0.2847721
1.066989,-0.4729065,0.02866929,0.4616454,-0.7762987,0.3064243
0.9475656,-0.5329821,0.0005545154,0.4743122,-0.8541513,0.2307389
0.8943294,-0.697288,-0.00109078,0.6222031,-1.378261,0.05211825
0.9035264,-0.7869455,-0.01469961,0.8921735,-1.688825,-0.1756247
0.9349114,-0.7782399,-0.07160848,1.173021,-1.698291,-0.4220922
0.9411287,-0.7244012,-0.1489161,1.461458,-1.491527,-0.5304117
0.941711,-0.6179163,-0.1884482,1.696363,-1.182438,-0.4818008
0.9532619,-0.5074417,-0.1710538,1.862174,-1.087914,-0.440442
0.9733884,-0.366612,-0.1670115,1.861377,-0.9327568,-0.3373133
0.9977475,-0.2135023,-0.1796701,1.762125,-0.6837843,-0.1736725
0.9699762,-0.1492456,-0.164444,1.653782,-0.706304,-0.1000656
0.9436609,-0.1638336,-0.1550785,1.471766,-0.8645728,-0.1115368
0.9047114,-0.2039729,-0.142425,1.447639,-1.109623,-0.2479112
0.7923814,-0.2880571,-0.1237875,1.543183,-1.354897,-0.5726615
0.7274653,-0.3945782,-0.1679297,1.562632,-1.35411,-0.870235
0.738879,-0.3854797,-0.223235,1.626239,-1.281166,-0.9432315
0.752529,-0.2969357,-0.2272837,1.696607,-1.295496,-0.981264
0.7911355,-0.2209565,-0.2540364,1.734482,-1.168222,-0.9450426
0.9026486,-0.1088489,-0.3045633,1.729649,-0.7504794,-0.6448498
1.005178,-0.07240465,-0.3012538,1.613659,-0.268131,-0.4549497
1.005331,-0.132869,-0.2569558,1.410838,-0.05747393,-0.4971615
0.981791,-0.1393626,-0.2052158,1.194563,-0.1876924,-0.5109749
0.9822719,-0.1173377,-0.1631115,1.080139,-0.2244249,-0.5201124
0.9848435,-0.0999007,-0.1624753,0.9835863,-0.03905333,-0.4662434
0.9929413,-0.08831351,-0.1650481,0.8924983,0.008619238,-0.342097
1.005356,-0.09862675,-0.1354991,0.9240641,0.03467247,-0.2397737
1.031029,-0.1043824,-0.1128129,0.9252027,0.05784077,-0.1644369
1.039988,-0.1096089,-0.1100703,0.9049294,0.01050293,-0.1846169
1.041645,-0.1001881,-0.1055168,0.9339108,0.06076207,-0.2169235
1.080056,-0.08856639,-0.0780051,0.8912249,0.02207101,-0.2350083
1.128125,-0.1260642,-0.06030777,0.859334,-0.09088007,-0.2469868
1.190301,-0.2047283,-0.09193267,0.881467,-0.2072719,-0.1551396
1.286419,-0.2693379,-0.1394836,0.8656369,-0.3143504,-0.06809781
1.377339,-0.2686436,-0.178022,0.7866869,-0.2806495,-0.0632583
1.423845,-0.2636418,-0.1954785,0.5960247,-0.4180425,-0.1170128
1.392957,-0.3328552,-0.2007084,0.3798848,-0.6747526,-0.1538001
1.28121,-0.4849509,-0.2507209,0.3267813,-0.622522,-0.09596035
1.188378,-0.6584636,-0.3294155,0.4444302,-0.137333,-0.0649137
1.187689,-0.6566872,-0.3353033,0.5994992,0.73474,-0.1000452
1.187228,-0.571737,-0.2809732,0.6845273,1.397771,-0.1319067
1.116622,-0.5985847,-0.2462228,0.6365567,1.394421,-0.1397565
1.022776,-0.4766104,-0.1681124,0.4581707,0.9684911,-0.1259838
0.9584161,-0.2677481,-0.07230216,0.2291104,0.4319426,-0.09456656
0.9788964,-0.2389184,-0.0870695,0.01667362,0.1841638,-0.0004269164
1.038493,-0.1804147,-0.1362081,-0.1061489,0.3671201,0.1379418
1.021349,-0.120513,-0.1420234,-0.1624749,0.6677632,0.2799908
0.9710386,-0.1626665,-0.1322399,-0.2105445,1.060803,0.38036
0.8931983,-0.2067604,-0.09290107,-0.1742186,1.483701,0.3739372
0.748423,-0.3001152,-0.03132616,-0.09881578,1.536292,0.302946
0.6462902,-0.3245026,0.02408288,-0.02095259,1.307225,0.2214454
0.6037411,-0.2481598,0.05947078,0.06136873,1.052931,0.1834997
0.6119353,-0.210332,0.06189441,0.004989906,0.8395572,0.188472
0.6649618,-0.1768494,0.05396458,-0.1433771,0.8450257,0.1174332
0.6803976,-0.1487782,0.08494419,-0.2724437,0.8781476,0.04497684
0.6917804,-0.1405224,0.1519722,-0.3131043,0.748591,0.1563505
0.7194472,-0.1664641,0.1958467,-0.2591642,0.5841044,0.2967355
0.8072755,-0.2340748,0.1942722,-0.2659603,0.4466698,0.2493577
0.9594422,-0.2627906,0.2210996,-0.2187637,0.4428285,0.1299077
1.029341,-0.2246295,0.308109,-0.1092588,0.4123621,0.01981937
1.037876,-0.1814089,0.3360452,-0.144694,0.2843567,-0.03675125
1.056536,-0.2108884,0.304671,-0.1352035,0.2845445,0.09021308
1.094458,-0.2471364,0.3157552,0.004399705,0.3526366,0.2349085
1.137915,-0.2529394,0.3033922,0.08849853,0.4144606,0.2908867
1.173145,-0.3306877,0.234315,0.02167604,0.2752921,0.4223683
1.272034,-0.4637365,0.1949014,-0.119335,-0.1663565,0.5812429
1.378484,-0.5989378,0.2452562,-0.1111506,-0.483735,0.579618
1.393777,-0.6512225,0.2982933,-0.02515329,-0.5063156,0.3321731
1.268871,-0.5759689,0.1936391,-0.01587388,-0.6089636,0.08243334
1.025551,-0.4725693,0.03266527,-0.1287437,-0.9718162,0.1297404
0.8812367,-0.364297,-0.05275602,-0.3964643,-1.12195,0.2364605
0.8876904,-0.366172,-0.09943183,-0.5593966,-0.999839,0.2043861
0.9287771,-0.506564,-0.1007923,-0.5533686,-1.046793,0.1678562
0.970897,-0.5554505,-0.1132542,-0.484757,-1.026065,0.04884663
1.004266,-0.5298038,-0.133974,-0.3344508,-0.9014333,-0.1415614
1.051365,-0.5137058,-0.1171449,-0.2742392,-0.8328761,-0.1821353
1.049956,-0.4532969,-0.1365852,-0.2870187,-0.7119268,-0.1187886
0.9856446,-0.3555882,-0.1288784,-0.3193174,-0.778818,-0.06642184
0.9553531,-0.2651925,-0.08467837,-0.440564,-0.8870761,-0.01175898
0.9255653,-0.2641033,-0.09553228,-0.510987,-0.8771903,0.008282203
0.8995654,-0.3005117,-0.1083153,-0.5197972,-0.8231394,-0.05911134
0.8916607,-0.3223377,-0.1313614,-0.4825374,-0.5031735,-0.2045454
0.8474683,-0.3709449,-0.1594186,-0.3794055,-0.1609078,-0.3725758
0.7873726,-0.3825906,-0.1520735,-0.2570592,-0.05830551,-0.5263571
0.6857867,-0.3545289,-0.1523714,-0.08239535,-0.2067759,-0.5797773
0.6143863,-0.2593401,-0.1275085,-0.006447421,-0.5085508,-0.4532052
0.6824709,-0.08774474,-0.1048997,-0.1463961,-0.5684721,-0.1688533
0.7861826,0.0214612,-0.1573797,-0.3441274,-0.3500961,0.2292151
0.8771069,0.03189801,-0.2045931,-0.462784,0.0349369,0.4204599
0.9279503,-0.02568955,-0.1830329,-0.5205607,0.3565031,0.2383988
0.9269949,-0.09076182,-0.1525758,-0.6282488,0.3645136,0.08338404
0.9661804,-0.1148064,-0.1493586,-0.707908,0.2731577,0.01817347
0.9962514,-0.09939137,-0.1417172,-0.6797911,0.1784502,-0.04332244
1.033695,-0.05615872,-0.1593375,-0.7133378,0.09635314,0.09286404
1.126157,-0.05532473,-0.1923941,-0.7720313,-0.01918166,0.2184162
1.217293,-0.130813,-0.1947905,-0.737835,-0.1026123,0.1915991
1.389329,-0.287515,-0.2458844,-0.7374941,0.1498482,0.181354
1.512682,-0.4052475,-0.3087537,-0.7520034,0.3232826,0.1555128
1.410134,-0.3944739,-0.2895211,-0.6819319,0.02918471,0.1469658
1.281447,-0.4551225,-0.2776633,-0.5436489,-0.2667302,0.1359745
1.196981,-0.600165,-0.3153502,-0.2946729,-0.1560606,0.06237875
1.158943,-0.6780829,-0.3538295,0.01470644,0.3650813,0.002268309
1.262948,-0.7338028,-0.3909523,0.2730313,1.21662,-0.1434126
1.330941,-0.745693,-0.3949404,0.3990851,2.080417,-0.4017213
1.226253,-0.6173544,-0.2969202,0.3345549,2.305485,-0.6335729
1.020819,-0.3846141,-0.1104434,0.107143,1.779408,-0.6692574
0.7865969,-0.1791732,0.06194401,-0.2947456,0.8893549,-0.3769147
0.7456534,-0.09236417,0.09251005,-0.6098844,0.2346634,0.08240273
0.9429032,-0.09751085,-0.02420929,-0.6321802,0.5241667,0.4232399
1.037267,-0.1433453,-0.1169738,-0.7160797,1.167761,0.4519064
0.9190514,-0.2058452,-0.1023055,-0.8459662,1.406165,0.2843437
0.7518953,-0.2639324,-0.02194459,-0.7884573,1.472638,0.2033801
0.6099222,-0.2938646,0.06028312,-0.6869925,1.212073,0.2055336
0.5461864,-0.2813043,0.06383819,-0.5460091,0.9578196,0.2418139
0.5671927,-0.2504094,0.04712818,-0.4766575,1.098006,0.2803125
0.5920788,-0.227051,0.08147882,-0.5758391,1.012499,0.2511707
0.6025959,-0.2200493,0.1023175,-0.6468621,0.7801489,0.1803574
0.646077,-0.2266932,0.1126136,-0.7203742,0.593694,0.08224135
0.7202271,-0.2447533,0.1580034,-0.7689115,0.4013125,0.05351197
0.7935652,-0.2937694,0.1876652,-0.665945,0.4520377,0.09411133
0.8336655,-0.3304467,0.1833685,-0.5041194,0.4187285,0.06570722
0.8490698,-0.3206284,0.2072213,-0.3023983,0.2381666,0.01044898
0.9273824,-0.3110311,0.2497007,-0.1060063,0.1061369,-0.05117623
1.026376,-0.2678878,0.2590983,-0.002715402,0.01566942,-0.08749064
1.053677,-0.1938773,0.2555143,0.03292304,0.08949594,-0.009290746
1.063217,-0.1883875,0.2729894,0.03204086,0.03737391,0.09488877
1.10397,-0.2143727,0.3018549,0.074491,-0.06452879,0.2012087
1.178072,-0.206412,0.3100229,0.1161761,-0.04037549,0.324787
1.238354,-0.2169651,0.2797332,0.07817715,-0.2265316,0.3857945
1.307456,-0.3039573,0.2317634,0.06709618,-0.4504074,0.429183
1.435291,-0.4684669,0.2029128,0.1111277,-0.5161331,0.4431748
1.449495,-0.5737518,0.1903872,0.2257606,-0.4828236,0.3296769
1.254881,-0.4847758,0.1669833,0.3465275,-0.4871144,0.2191859
1.003654,-0.3592997,0.1236201,0.2436141,-0.7282874,0.2634976
0.8736599,-0.349854,0.04723199,-0.0123748,-0.9681861,0.3614064
0.8707793,-0.4044966,-0.04047073,-0.1850657,-1.050153,0.3851351
0.8516135,-0.5235786,-0.0824646,-0.2000209,-1.150744,0.3006815
0.868398,-0.6172036,-0.08100856,-0.08107146,-1.346643,0.07030764
0.9504283,-0.5972506,-0.08489105,0.08244419,-1.402947,-0.2058734
0.982671,-0.5411971,-0.1255317,0.2716295,-1.166786,-0.3751743
1.032685,-0.4465246,-0.1687423,0.4234603,-0.9413283,-0.424463
1.033039,-0.3722718,-0.1511961,0.4350641,-0.8674639,-0.348094
0.915995,-0.3398886,-0.1024723,0.414952,-0.9863755,-0.2305559
0.8786078,-0.2682809,-0.08787549,0.4181769,-1.185535,-0.1652818
0.9124639,-0.2724251,-0.1118114,0.4276026,-1.139398,-0.1143811
0.9343105,-0.3208138,-0.1507974,0.499021,-0.937084,-0.12674
0.9323042,-0.285189,-0.1703107,0.5564748,-0.5658958,-0.225365
0.8616556,-0.2656132,-0.1738656,0.5435963,-0.1476859,-0.357046
0.7666539,-0.2499686,-0.1576044,0.516688,-0.1067613,-0.4669598
0.6689105,-0.2119851,-0.1058664,0.5162294,-0.3201678,-0.4821733
0.6432795,-0.2256093,-0.09993538,0.5301924,-0.5588492,-0.4694696
0.7139046,-0.2086655,-0.1439042,0.5398486,-0.6271659,-0.4255029
0.7944084,-0.1553918,-0.1824111,0.5729778,-0.4069265,-0.2878646
0.903922,-0.13025,-0.232042,0.5701985,-0.09103679,-0.1960845
0.9694764,-0.09663604,-0.2354214,0.5265423,0.2168346,-0.1848792
0.981252,-0.08953232,-0.1975111,0.450755,0.3331549,-0.1900406
1.01266,-0.09111875,-0.1742718,0.2886715,0.2107998,-0.1907234
1.021078,-0.06270807,-0.1418448,0.1766591,0.1309652,-0.1038998
1.05183,-0.05697738,-0.1368856,0.1515923,0.1404642,0.02367946
1.075094,-0.07146361,-0.142447,0.1782354,0.1168585,0.06737673
1.070868,-0.09614164,-0.115367,0.2621777,0.07778713,0.03864119
1.110375,-0.09982139,-0.09934023,0.2628257,0.0366914,0.03565067
1.130687,-0.1171468,-0.1045678,0.253988,-0.08314832,0.0962904
1.171021,-0.1965841,-0.1338957,0.323514,-0.165932,0.1428861
1.258928,-0.2370078,-0.174895,0.3460982,-0.1057368,0.1551759
1.30649,-0.2485368,-0.1893021,0.3180178,-0.1135975,0.1419893
1.311661,-0.2951495,-0.1631734,0.2712235,-0.2976443,0.111847
1.242714,-0.3935566,-0.1379623,0.2573089,-0.5303947,0.1172751
1.140812,-0.5431196,-0.1644223,0.2799141,-0.5556509,0.1331107
1.121499,-0.614948,-0.1801441,0.3067214,-0.1610339,0.1283909
1.170178,-0.6162016,-0.1513188,0.4304775,0.4560575,0.03146272
1.197861,-0.6661519,-0.1117565,0.6241938,0.9154541,-0.1501601
1.133514,-0.6942387,-0.0702265,0.7610446,1.010719,-0.2310578
1.011922,-0.5855077,-0.07542237,0.7261046,0.723365,-0.2432658
0.9039053,-0.3830162,-0.09097651,0.537452,0.3291216,-0.2620378
0.8619201,-0.2271486,-0.0645269,0.2960896,0.1157692,-0.2042464
0.9045609,-0.1803426,-0.05942196,0.00190782,-0.01074738,-0.08228446
0.947189,-0.2162772,-0.04875909,-0.06514551,-0.04004206,0.07656434
0.9690697,-0.2703532,-0.01735709,0.1141707,0.1620795,0.1871888
0.9539541,-0.3143903,-0.03082118,0.198463,0.4164838,0.1437137
0.8735004,-0.34227,-0.03916861,0.3643068,0.6325157,0.04249623
0.8408227,-0.2889943,-0.0186473,0.5223028,0.7026601,-0.02105765
0.8563908,-0.2013076,-0.01463958,0.455482,0.5831571,-0.02174691
0.8701618,-0.1400568,-0.00522497,0.4048151,0.5870727,0.06777613
0.8974462,-0.108205,0.02127881,0.29558,0.659141,0.1691499
0.8785086,-0.1549869,0.05615441,0.1926112,0.6764421,0.2095941
0.8505733,-0.1904596,0.08517841,0.2112234,0.7011427,0.1894244
0.851691,-0.1806021,0.08710491,0.1425004,0.6158165,0.1430583
0.8399359,-0.2013499,0.09478639,0.08107191,0.5536985,0.1115206
0.832413,-0.2146406,0.1269279,0.06657503,0.5701891,0.0568085
0.820496,-0.2204927,0.151083,0.05031492,0.5262046,0.03568722
0.8171772,-0.2048945,0.170799,0.05243403,0.4223946,0.09087405
0.8227073,-0.1772866,0.2108296,0.01236626,0.2302929,0.1096019
0.8155124,-0.1974102,0.2318315,0.001480697,0.09371132,0.1191578
0.8350402,-0.2141728,0.2142328,0.02628612,0.06614887,0.1214104
0.8593137,-0.2235233,0.2199203,0.1236923,0.01298592,0.03337949
0.8801148,-0.222593,0.2381342,0.2851028,0.02383648,-0.06338754
0.9388145,-0.1861748,0.2429006,0.282822,0.1165707,-0.04673871
1.010654,-0.169783,0.2687887,0.1350024,0.1031134,0.1005323
1.030107,-0.1748483,0.2839984,0.003267044,-0.1072603,0.2866948
1.016896,-0.1812688,0.3023863,-0.0310373,-0.340523,0.4117983
1.093502,-0.1951107,0.3404821,0.01538715,-0.3458985,0.3902921
1.197225,-0.2484,0.3056191,0.07224712,-0.2749298,0.3065209
1.234152,-0.3601229,0.2566327,0.2133971,-0.3172364,0.3076234
1.334227,-0.444401,0.277588,0.3864112,-0.193541,0.2981458
1.457393,-0.4441002,0.2610684,0.4141651,-0.0714068,0.3089676
1.449737,-0.4029181,0.1965573,0.3249847,-0.4151125,0.3999344
1.307473,-0.3904163,0.1594078,0.1850878,-0.7498935,0.4946338
1.069939,-0.4309492,0.1138639,0.02534749,-0.7093328,0.5977721
0.8944738,-0.5098909,0.0490681,-0.016054,-0.8164396,0.5942525
0.8346847,-0.6094961,-0.00221676,0.07614897,-1.240618,0.4731438
0.7883765,-0.6668574,-0.06458268,0.1459815,-1.579033,0.3111594
0.8778271,-0.6653859,-0.1466187,0.2220965,-1.621307,0.1058394
1.062784,-0.6156719,-0.2102916,0.3144676,-1.415374,-0.06453124
1.070244,-0.5071458,-0.2399629,0.327169,-1.095675,-0.1863735
0.9830108,-0.4164472,-0.2125596,0.3811989,-0.9326435,-0.1779013
0.9164898,-0.3692197,-0.1423616,0.4756785,-1.072993,-0.08920471
0.8388232,-0.3308846,-0.1160332,0.4965077,-1.319336,-0.08383967
0.8308755,-0.3143432,-0.1271259,0.5098624,-1.411314,-0.08120612
0.8471522,-0.2958552,-0.1636579,0.4700532,-1.336199,-0.1492312
0.8296985,-0.2713169,-0.2392354,0.3369694,-1.079111,-0.2898884
0.8143803,-0.2487758,-0.2535936,0.2135519,-0.5681332,-0.3518285
0.7565451,-0.221853,-0.2096743,0.157472,-0.1701644,-0.3874455
0.6883702,-0.21508,-0.1804897,0.1671759,-0.1544355,-0.384425
0.6779491,-0.2018637,-0.1542855,0.1925772,-0.3108313,-0.3339281
0.7373954,-0.1727385,-0.1498126,0.226113,-0.4048553,-0.2473003
0.8525712,-0.1651028,-0.1765003,0.2355644,-0.2022503,-0.1264849
0.944928,-0.1557147,-0.223401,0.2370783,0.216274,-0.09092314
0.9694649,-0.1247533,-0.2455599,0.2797621,0.4612474,-0.1340105
0.9669426,-0.09778288,-0.2070484,0.1768091,0.2696549,-0.1911023
1.031573,-0.08522852,-0.1703774,-0.04455254,-0.1858924,-0.2244786
1.161621,-0.06174395,-0.1644935,-0.1381022,-0.3591844,-0.18554
1.23467,-0.02605057,-0.1685807,-0.166063,-0.1323847,-0.1141615
1.260494,-0.0326187,-0.1626242,-0.3022845,0.07019582,-0.07232734
1.313302,-0.1291457,-0.1554173,-0.5076625,-0.08421858,-0.07533481
1.364847,-0.3092252,-0.1985827,-0.4929256,-0.2140318,-0.04156256
1.370933,-0.4645305,-0.2899263,-0.3057242,0.03030721,0.04607213
1.317789,-0.5043117,-0.3468091,-0.2875484,0.1330109,0.04551382
1.218571,-0.5220481,-0.2938874,-0.3865217,0.09179963,-0.1090597
1.117494,-0.6132136,-0.2165579,-0.4583557,0.2298451,-0.3212365
1.090047,-0.6880353,-0.2178139,-0.3179836,0.5064822,-0.3992712
1.121646,-0.6207367,-0.2237706,-0.02536305,1.16166,-0.3288788
1.099131,-0.4797473,-0.194357,0.01369884,1.854328,-0.304188
1.024994,-0.3736974,-0.1239382,-0.1186975,1.93032,-0.3204059
0.9633092,-0.2482274,-0.01365803,-0.3819913,1.338241,-0.2729922
0.9604233,-0.1647811,0.01380336,-0.8423611,0.4357614,-0.1313672
1.01915,-0.1950958,-0.05438506,-1.104347,0.05472631,0.1697708
1.035864,-0.2216704,-0.1325246,-1.055188,0.4875185,0.440834
1.003526,-0.2658284,-0.190428,-0.9762577,1.161481,0.4636166
0.9607409,-0.3307608,-0.1739119,-0.9283677,1.710587,0.4352997
0.8723164,-0.343703,-0.1240439,-0.725462,1.946398,0.4456367
0.7161576,-0.3506739,-0.06528665,-0.4770983,1.812156,0.4092691
0.511503,-0.3400851,0.05284262,-0.3450167,1.535723,0.3587222
0.4668526,-0.3193141,0.08618733,-0.2260728,1.078421,0.2704539
0.5740148,-0.2385978,0.05073605,-0.3120553,0.6079852,0.2121948
0.5838056,-0.1022564,0.1090524,-0.5378816,0.5512626,0.2309153
0.6352196,-0.1147206,0.1112187,-0.6026448,0.5650382,0.2313409
0.741018,-0.1903262,0.08198181,-0.5673356,0.5215683,0.2657492
0.7958385,-0.2293589,0.1572727,-0.3934306,0.5687385,0.3149048
0.9465581,-0.3179016,0.2030149,-0.1663601,0.4500977,0.225451
1.073188,-0.3386956,0.2520523,-0.02060465,0.4287755,0.04900528
1.140194,-0.2933973,0.308625,0.04270969,0.5918618,-0.035724
1.165266,-0.2965777,0.3142372,0.04838884,0.6494257,0.002283388
1.069111,-0.2956419,0.3741504,0.1357695,0.413625,0.02675878
1.062551,-0.2732807,0.3989624,0.08357872,-0.2261394,0.01604701
1.086601,-0.2533919,0.3426788,-0.1562644,-0.8250247,0.1556292
1.121203,-0.2733308,0.2809887,-0.2867829,-1.062666,0.4572741
1.318991,-0.3935649,0.1823286,-0.3343962,-0.7594607,0.5866561
1.382965,-0.5353754,0.04632282,-0.3834052,-0.1938583,0.3214663
1.14149,-0.5385876,-0.08707205,-0.5091746,-0.2092351,0.02517335
0.7963364,-0.4352629,-0.076198,-0.6351801,-0.8102215,0.06925374
0.7155931,-0.4025229,-0.01536538,-0.733118,-1.522285,0.1182186
0.9157882,-0.4573378,-0.128613,-0.7949081,-1.580811,0.0148207
1.048159,-0.5098029,-0.2098833,-0.6329731,-0.956195,-0.002307529
1.124879,-0.5230643,-0.2001906,-0.5198932,-0.5751393,-0.1007498
1.08678,-0.4918664,-0.1953577,-0.440023,-0.392395,-0.2126473
0.9444903,-0.4473152,-0.1008649,-0.2343033,-0.5150611,-0.1784861
0.8894694,-0.3902282,-0.04054774,-0.1964842,-0.8542048,-0.2270088
0.8188656,-0.3353219,-0.05825199,-0.1629926,-0.8508861,-0.2575931
0.8175617,-0.3052157,-0.09070843,-0.135473,-0.9034755,-0.2390451
0.8581692,-0.2502042,-0.1691903,-0.2561583,-0.7519816,-0.2530019
0.8281715,-0.2001145,-0.1946938,-0.3831177,-0.3703243,-0.1795935
0.8625031,-0.1806268,-0.1828317,-0.5511543,-0.2444219,-0.1082559
0.8446421,-0.1709953,-0.163122,-0.6190826,-0.00504152,-0.02920797
0.7804997,-0.2029021,-0.1204438,-0.6010996,0.06438221,0.04061665
0.7646114,-0.233882,-0.1256405,-0.5634872,-0.1207245,0.03113172
0.7408199,-0.2358918,-0.1310111,-0.4460622,-0.2006589,0.0729673
0.7906786,-0.2294341,-0.1440965,-0.3935377,-0.2216877,0.09630825
0.8681618,-0.1970665,-0.1772849,-0.3730132,0.03169047,0.09894788
0.9116406,-0.1593179,-0.1703782,-0.3946003,0.3317428,0.1217855
0.9286717,-0.1427386,-0.1643065,-0.4281566,0.364842,0.05370219
0.931009,-0.1362669,-0.1634016,-0.4025091,0.1874571,0.008723273
1.013614,-0.114162,-0.1593787,-0.4631772,-0.04287987,0.05972056
1.105242,-0.1108363,-0.1793551,-0.5309166,-0.08172994,0.1274011
1.177581,-0.1606298,-0.2036971,-0.5325094,-0.07865393,0.161935
1.260915,-0.2120297,-0.1995122,-0.4753089,-0.09648307,0.1264297
1.331595,-0.2815872,-0.2052775,-0.3594455,-0.06363372,0.07280429
1.462555,-0.3611571,-0.2616943,-0.3323695,0.05099536,0.03836243
1.502582,-0.3519043,-0.2920499,-0.4888477,0.1853931,0.03378783
1.373711,-0.3442435,-0.2671394,-0.7780567,0.03642277,0.04251705
1.222441,-0.4790501,-0.2271785,-0.8821898,-0.1804998,0.006107879
1.064119,-0.6023096,-0.1998212,-0.6517214,-0.1160491,-0.01725922
1.072903,-0.584388,-0.2255489,-0.3628598,0.3462044,0.01772272
1.150356,-0.5799972,-0.2520115,-0.1736531,1.136238,0.03221179
1.04759,-0.5934178,-0.2212311,-0.1097958,1.592115,-0.01356989
1.039969,-0.5299594,-0.1859154,-0.1658881,1.484464,-0.1125715
1.027242,-0.4654788,-0.1440019,-0.2907197,1.140272,-0.2280159
0.8686093,-0.3600974,-0.06080389,-0.4800062,0.6721037,-0.2264567
0.9123129,-0.2416302,-0.03570869,-0.6592499,0.5009538,-0.05673089
1.019687,-0.2330764,-0.0912562,-0.7204704,0.8000393,0.1575765
1.052512,-0.2116197,-0.12013,-0.7204365,1.145353,0.2939494
1.060666,-0.2010675,-0.1335836,-0.7170621,1.545435,0.2935005
0.9278287,-0.2826779,-0.1018635,-0.6212204,1.782859,0.2251016
0.7898493,-0.3231166,-0.01806705,-0.5019185,1.498188,0.153465
0.6694571,-0.343793,-0.0028036,-0.4772023,1.192894,0.05944441
0.5950693,-0.3339064,0.0146642,-0.4642694,0.9648223,0.05216616
0.6415271,-0.2788856,0.06698645,-0.4268221,0.7635257,0.1509318
0.6576261,-0.2838027,0.06653214,-0.4320849,0.8683732,0.2338156
0.6914016,-0.2740685,0.06761927,-0.4913621,0.7940738,0.2698328
0.7077377,-0.265256,0.08017472,-0.5322901,0.5412089,0.2407605
0.6957989,-0.2804916,0.1104124,-0.5339843,0.5498788,0.194838
0.7652575,-0.260123,0.1706558,-0.4811892,0.5184661,0.1513062
0.7831361,-0.2921491,0.1913846,-0.3888722,0.3910723,0.05380711
0.8278423,-0.3173292,0.2177703,-0.3436525,0.2599306,-0.05645327
0.960395,-0.2830454,0.2672495,-0.2518318,0.1520715,-0.1271548
1.059768,-0.2536159,0.2779573,-0.1593924,0.2091489,-0.1140274
1.142635,-0.2234254,0.2894332,-0.1686614,0.2944387,-0.08014015
1.152974,-0.2266748,0.321017,-0.131028,0.3338203,-0.09526418
1.13383,-0.2198067,0.3437468,-0.1710316,0.20209,-0.06515624
1.15417,-0.166244,0.3392175,-0.3639076,-0.1873918,0.002845329
1.164506,-0.1482541,0.2922788,-0.483061,-0.5227878,0.151536
1.237415,-0.2506286,0.2428564,-0.4517636,-0.6313416,0.3953342
1.356657,-0.4774244,0.2085047,-0.2739608,-0.59554,0.4355437
1.380673,-0.6132002,0.133679,-0.1560124,-0.5833951,0.2250031
1.231453,-0.5399415,0.03505833,-0.317204,-0.6583154,0.07388693
0.9838523,-0.4411727,-0.01845158,-0.6033332,-0.8465603,0.1169464
0.8761061,-0.41924,-0.07477162,-0.8022173,-1.193876,0.2009594
0.9556666,-0.4511063,-0.1580713,-0.8397308,-1.303631,0.1844477
1.034613,-0.5312647,-0.1776499,-0.7392868,-1.045628,0.07991645
1.075888,-0.5884467,-0.1638671,-0.5183236,-0.8125378,-0.1180832
1.1054,-0.5881172,-0.1708251,-0.2135849,-0.6353901,-0.2811319
1.009025,-0.5301658,-0.1479061,-0.03495526,-0.5877271,-0.3177087
0.8414217,-0.3860828,-0.1096534,-0.05643105,-0.7916436,-0.3626279
0.757445,-0.2927227,-0.07731028,-0.07671349,-1.002525,-0.3285618
0.7096585,-0.2902181,-0.06778089,-0.06160793,-1.091013,-0.2077276
0.7035372,-0.2634283,-0.1246824,-0.1218653,-1.02123,-0.1596985
0.7470666,-0.254084,-0.2060819,-0.2233442,-0.8065932,-0.1322153
0.7740326,-0.2372996,-0.2538367,-0.3185853,-0.4656152,-0.1790537
0.821367,-0.2114542,-0.2465893,-0.3375745,-0.02290748,-0.2942719
0.843399,-0.2419475,-0.1916563,-0.3069164,0.1382628,-0.3363519
0.8240749,-0.2484605,-0.1419731,-0.325438,-0.02909173,-0.3060398
0.8278857,-0.2225963,-0.144876,-0.2843483,-0.08434837,-0.1888177
0.8257848,-0.191018,-0.1778788,-0.2318506,0.01037352,-0.03873573
0.8473536,-0.1730317,-0.1916572,-0.2492405,0.07480506,0.06222739
0.8965773,-0.1844099,-0.2052055,-0.2648509,0.09611775,0.07501571
0.9312486,-0.1695869,-0.2112476,-0.3437282,0.0737644,0.02477961
0.9853366,-0.1548765,-0.1981251,-0.3717481,-0.02432949,0.03140806
1.058326,-0.1623224,-0.2010273,-0.2432209,-0.09639136,0.04257196
1.124674,-0.1462543,-0.1922521,-0.1528239,-0.02143165,0.05017437
1.178451,-0.07112885,-0.1959599,-0.2420939,0.05424094,0.0985668
0.653997,-0.1616316,0.1015733,-0.2900993,-0.001169226,0.1521856
0.6915905,-0.1654334,0.0947756,-0.2660472,0.1557766,0.1573231
0.7469022,-0.213853,0.08199091,-0.2230411,0.3641163,0.1726824
0.754179,-0.2701875,0.1094322,-0.1396085,0.4668944,0.1377571
0.7932423,-0.3086335,0.157793,-0.01809334,0.2738581,0.07544972
0.8975871,-0.2927845,0.1900831,0.1066383,-0.01300759,0.03033211
1.047656,-0.2646697,0.2252495,0.2300473,0.1941532,-0.01540039
1.178056,-0.330686,0.2563039,0.2667063,0.4016887,0.003845507
1.193876,-0.3793693,0.2758875,0.5131357,0.2445753,0.08181939
1.212072,-0.3587547,0.279761,0.8039401,0.105634,0.166211
1.252592,-0.3627863,0.2101007,0.7025169,-0.3502573,0.2435805
1.317312,-0.3843428,0.1099049,0.565952,-0.826827,0.2977751
1.404764,-0.4585496,0.06213868,0.4547107,-0.5919376,0.3179297
1.229809,-0.5410398,0.03027969,0.2158508,-0.4284451,0.19748
0.8823372,-0.5102206,-0.01203437,0.09321554,-0.7808583,0.05404482
0.7612587,-0.4852381,-0.05330378,0.08899163,-1.183495,0.122248
0.8668131,-0.5633831,-0.1061906,0.1714341,-1.645741,0.1578544
1.043249,-0.6086407,-0.1749278,0.3009204,-1.740347,-0.01038131
1.193868,-0.5852893,-0.24011,0.3816779,-1.246686,-0.1716209
1.206163,-0.5682674,-0.2409023,0.5196477,-0.8798384,-0.2735078
1.056571,-0.5078114,-0.1415355,0.6554897,-0.7903625,-0.3013824
0.9393807,-0.417502,-0.05780905,0.6482064,-1.024346,-0.2468493
0.958589,-0.3805297,-0.08651858,0.5732575,-1.40138,-0.1885707
0.9432161,-0.3225216,-0.1185884,0.4855726,-1.272695,-0.1040644
0.9447743,-0.2391078,-0.1149858,0.3670524,-1.020057,-0.06782242
1.006661,-0.2133677,-0.160297,0.2154443,-0.7934031,-0.1132349
0.9327099,-0.183529,-0.1775977,-0.008505343,-0.4198803,-0.1526445
0.8044762,-0.1636997,-0.1310108,-0.2035909,-0.3734903,-0.2108325
0.7172067,-0.206003,-0.114344,-0.1933202,-0.4244996,-0.2047274
0.641072,-0.2267438,-0.08983872,-0.07975403,-0.4417502,-0.1334273
0.6592016,-0.2491518,-0.06843577,0.1009893,-0.5326875,-0.09282271
0.7159253,-0.2566079,-0.115003,0.3867555,-0.3688938,-0.007129824
0.7478639,-0.175849,-0.1645353,0.4538843,-0.1342233,0.01059872
0.7991338,-0.1063528,-0.1898476,0.2522676,-0.01940608,-0.08151928
0.8437181,-0.0713204,-0.1912191,0.1030639,-0.03861354,-0.1370811
0.89708,-0.06589358,-0.1836534,-0.002176803,-0.09079179,-0.1986411
0.9881776,-0.09197197,-0.192028,-0.1119457,0.002987951,-0.1839118
1.095633,-0.1132051,-0.1823356,-0.1761565,-0.02341054,-0.0596441
1.189141,-0.1860141,-0.1744469,-0.1990367,-0.1790902,0.05135484
1.247463,-0.2693998,-0.1802872,-0.08657321,-0.2888631,0.1410237
1.344901,-0.3444519,-0.219739,0.08549089,-0.2541652,0.1130343
1.494298,-0.4163713,-0.3219389,0.1041465,-0.02419106,0.03618332
1.547179,-0.4120654,-0.3786546,-0.09242673,0.04545643,0.01447957
1.414245,-0.4448854,-0.3477243,-0.2858755,-0.1570052,-0.04700405
1.197889,-0.5717143,-0.3228355,-0.1442988,-0.2909411,-0.06910268
1.05767,-0.6726388,-0.3162179,0.1718965,0.08584634,-0.05717504
1.019243,-0.6842861,-0.2916555,0.444315,0.8747516,-0.069033
1.059481,-0.6222375,-0.2758569,0.6230346,1.408781,-0.1015845
1.094031,-0.5556427,-0.2376133,0.4595837,1.56266,-0.2490647
1.038474,-0.4825659,-0.1346319,0.2262292,1.337183,-0.3563257
0.9941741,-0.3888751,-0.05436976,0.1591033,0.7627806,-0.2593971
0.9916743,-0.3063719,-0.02436732,0.01836682,0.3258518,-0.07118953
1.030468,-0.2531112,-0.05771031,0.003809769,0.3889903,0.07989587
1.092806,-0.2552894,-0.1474877,0.03604729,0.9311172,0.1423134
1.022285,-0.2633267,-0.1453481,-0.04809967,1.351107,0.1490018
0.9007178,-0.2632341,-0.0700426,0.05606474,1.382833,0.1610128
0.8176283,-0.2855245,-0.0001823917,0.1675556,1.308647,0.1806455
0.6885957,-0.2660066,0.05614124,0.1692115,1.15499,0.1236962
0.5812655,-0.2151714,0.05565771,0.1316555,0.9577542,0.0537738
0.5296783,-0.1691579,0.07243059,-0.08676072,0.6095531,0.07408863
0.5266171,-0.1437179,0.09628682,-0.3167575,0.3362014,0.09174702
0.5767667,-0.1858621,0.08982887,-0.4021289,0.3673956,0.1181803
0.6204599,-0.2414777,0.128775,-0.2613806,0.3988034,0.1470115
0.6724357,-0.2958165,0.16651,-0.0005311609,0.4391352,0.09913968
0.7515139,-0.3399444,0.2009299,0.1765634,0.3381467,-0.01215641
0.876122,-0.2992531,0.2439456,0.3960714,0.213369,-0.1643494
1.018241,-0.2480721,0.2483039,0.4651783,0.3457788,-0.2050543
1.081959,-0.2420471,0.2545861,0.3845132,0.3277042,-0.07555857
1.13185,-0.2560713,0.2593809,0.4718378,0.04987663,0.0705328
1.216964,-0.2912841,0.2536863,0.5201309,-0.3134873,0.1725872
1.271372,-0.3259172,0.2382574,0.5356755,-0.4099004,0.2698894
1.312398,-0.4206624,0.1876744,0.6438354,-0.1940559,0.3490711
1.328602,-0.5497594,0.1414125,0.7248129,-0.1943999,0.3030785
1.214211,-0.5425915,0.1371914,0.7259347,-0.4012929,0.1713029
0.9897526,-0.421308,0.1480823,0.4355982,-0.7497386,0.1246127
0.845749,-0.3427284,0.1099534,-0.02800369,-1.214943,0.1680221
0.8688364,-0.4011921,0.01698259,-0.2189763,-1.515296,0.2348404
1.024623,-0.533884,-0.1082729,-0.1333513,-1.563579,0.2390806
1.198767,-0.5908257,-0.2162879,-0.08855179,-1.35828,0.08557836
1.176588,-0.5761673,-0.2099347,-0.1099487,-1.072352,-0.1291287
1.052024,-0.5314686,-0.1427767,0.01641932,-0.8654432,-0.2219551
1.012326,-0.4757603,-0.1005136,0.1261751,-0.9016225,-0.2039096
0.9474642,-0.4323666,-0.08578954,0.1497398,-1.16486,-0.1949568
0.8900801,-0.3614215,-0.1116812,0.2065303,-1.25239,-0.1831057
0.8886246,-0.326339,-0.1313456,0.1704171,-1.179789,-0.1818232
0.8584732,-0.3548677,-0.1455366,0.1753541,-1.01282,-0.276587
0.8505937,-0.3521838,-0.1764051,0.2180139,-0.739685,-0.4146983
0.8438148,-0.3188881,-0.1839993,0.1627211,-0.5660271,-0.5489808
0.8254231,-0.2682865,-0.1966832,0.1226912,-0.3658654,-0.624813
0.8363257,-0.2276492,-0.1981869,0.0002176706,-0.2206915,-0.5544598
0.8225859,-0.2270558,-0.1548701,-0.08803455,-0.30933,-0.3843008
0.7830539,-0.1995657,-0.1194037,0.009253038,-0.3451777,-0.1305481
0.7409913,-0.1540499,-0.1052612,0.1208535,-0.2375778,0.1486897
0.7432829,-0.1649854,-0.1137919,0.1857366,-0.1586491,0.2374891
0.7704913,-0.1674026,-0.1249781,0.1206912,-0.1523969,0.1003098
0.7788208,-0.1121294,-0.1187289,-0.02726602,-0.1405823,-0.04655414
0.8413331,-0.08980358,-0.1317572,-0.1392393,-0.1281139,-0.1013889
0.899902,-0.09814378,-0.1386881,-0.2389725,-0.1156684,-0.1165156
0.9426109,-0.1042423,-0.1357851,-0.2473579,-0.05566174,-0.02812324
1.042554,-0.1346097,-0.1545467,-0.2028999,-0.04245792,0.1487347
1.126866,-0.1864952,-0.1583115,-0.1754289,-0.1362649,0.2259767
1.214222,-0.294587,-0.1594013,-0.02231724,-0.258967,0.1774407
1.294464,-0.3980353,-0.1901133,0.2078848,-0.2490085,0.1242501
1.291751,-0.4215258,-0.2469043,0.2653137,-0.1945572,0.1141855
1.254679,-0.4387695,-0.3122668,0.1471413,-0.2511047,0.08502482
1.19995,-0.4784649,-0.3335179,0.09373463,-0.2146442,-0.03859926
1.165034,-0.5497743,-0.3042172,0.2491146,-0.02111052,-0.2685632
1.163232,-0.64402,-0.2716747,0.5276021,0.3892878,-0.4048291
1.139999,-0.6797875,-0.2708071,0.8024097,1.020022,-0.2612168
1.127308,-0.6284515,-0.2737744,0.9784688,1.50317,-0.1670476
1.098218,-0.5533458,-0.2267856,0.9749128,1.674296,-0.3229416
1.030122,-0.4888596,-0.1370413,0.8581979,1.422148,-0.3870299
1.01279,-0.3774919,-0.05277232,0.636452,0.8531543,-0.2760288
1.043184,-0.2993316,-0.04125363,0.289273,0.4019109,-0.1115554
1.069446,-0.3079691,-0.068973,0.06663225,0.2444557,0.09305801
1.083738,-0.2743932,-0.06730768,0.08183286,0.4851866,0.1921645
1.05311,-0.2712038,-0.08112578,0.1936724,0.8787418,0.14764
0.9810168,-0.3369116,-0.07509532,0.338539,1.123649,0.1248277
0.9217679,-0.3543662,-0.02075181,0.4728817,1.244056,0.1293082
0.8531917,-0.3512306,0.02596703,0.5747709,1.043903,0.08478386
0.7420057,-0.3050511,0.08349881,0.6168333,0.7160802,0.05178678
0.6600817,-0.2243045,0.1149503,0.5255055,0.4611741,0.03081341
0.6483105,-0.187335,0.1061287,0.3529571,0.196709,0.004146827
0.6527915,-0.1729017,0.112056,0.1766672,0.1893187,0.03305534
0.6417872,-0.1859051,0.1099571,0.04794137,0.2278007,0.07953129
0.6225224,-0.200081,0.1141139,0.0739298,0.1414734,0.1413589
0.604672,-0.2121686,0.1416526,0.1844562,0.05537334,0.1677115
0.6110771,-0.2357623,0.1659515,0.2754779,-0.1589508,0.01877528
0.6563617,-0.2218943,0.1829018,0.3623619,-0.2319207,-0.1678909
0.7352969,-0.2163962,0.1934581,0.3562496,-0.2326235,-0.2095688
0.8496479,-0.2278207,0.2164343,0.3516184,-0.4099184,-0.1501957
1.006742,-0.2341576,0.2228076,0.4760368,-0.4794769,-0.03417689
1.202817,-0.2537508,0.1999326,0.6208388,-0.4645987,0.1523176
1.356237,-0.2387697,0.184241,0.7811204,-0.478811,0.3018194
1.391583,-0.2336286,0.1583555,0.8102836,-0.4938088,0.3622024
1.404573,-0.3336754,0.1424376,0.658742,-0.498346,0.4958428
1.440632,-0.5116799,0.1424589,0.6610342,-0.4422189,0.6102656
1.376008,-0.6273831,0.1319964,0.9135834,-0.4437704,0.5799887
1.142606,-0.5916053,0.1355052,1.131206,-0.7212692,0.5739757
0.8242907,-0.5522559,0.1093203,0.9373205,-1.268988,0.5669349
0.6640664,-0.6038412,0.02952833,0.6829268,-1.592953,0.5189073
0.7381983,-0.6983968,-0.03077107,0.856623,-1.581846,0.3877119
0.8463997,-0.834285,-0.04153166,0.9597334,-1.801932,-0.01411479
0.9722617,-0.8534765,-0.07008896,1.05639,-2.083313,-0.4677496
1.073044,-0.7171975,-0.1709591,1.4713,-1.890686,-0.6578438
1.027571,-0.6213461,-0.2325514,1.658741,-1.493812,-0.653608
0.9985834,-0.5256563,-0.1981433,1.683712,-1.174922,-0.5518387
0.934715,-0.3903438,-0.1551137,1.731424,-1.066983,-0.3815237
0.7730883,-0.2633745,-0.1104128,1.554579,-1.43093,-0.2972685
0.7761188,-0.2110055,-0.09869456,1.352236,-1.801891,-0.3481276
0.8352732,-0.2895396,-0.1587239,1.213252,-1.779354,-0.4089499
0.8222778,-0.2771977,-0.2384088,1.112699,-1.586328,-0.5508476
0.8661363,-0.2475694,-0.2945825,1.125877,-1.129527,-0.7815434
0.8549811,-0.3383313,-0.2739761,1.232863,-0.6054351,-0.9124809
0.7788613,-0.3615034,-0.2275355,1.457493,-0.4039487,-0.9485989
0.7471174,-0.4008971,-0.2297978,1.652186,-0.4729706,-0.9465157
0.7146579,-0.3344585,-0.2240375,1.695248,-0.7408563,-0.8837605
0.7117892,-0.1178072,-0.221258,1.580381,-0.9494985,-0.6782433
0.8201213,-0.0547819,-0.2381289,1.298413,-0.763844,-0.3803928
1.009195,-0.04458616,-0.2486823,1.039865,-0.1328995,-0.2867809
1.084526,-0.0632294,-0.2605473,0.9453397,0.5544684,-0.3952761
1.004808,-0.0937176,-0.201989,0.8874237,0.7035026,-0.470865
0.9884702,-0.05753953,-0.09119006,0.6922179,0.2946483,-0.491288
1.014859,-0.08607825,-0.04097519,0.5429793,-0.05252575,-0.4150945
1.026579,-0.08461005,-0.04213498,0.5939661,-0.008462805,-0.2490691
1.125776,-0.0743668,-0.05895637,0.6019667,0.09559398,-0.1841735
1.191993,-0.1146741,-0.06587031,0.6111174,0.1461288,-0.1544979
1.154594,-0.160901,-0.06246837,0.650447,0.129125,-0.02139278
1.138754,-0.2556245,-0.06914255,0.5768058,-0.008677143,0.09174797
1.168524,-0.2609973,-0.08245139,0.4767091,-0.06897017,0.1304662
1.235201,-0.2400453,-0.1202408,0.2573239,-0.1807415,0.07114567
1.308421,-0.2986221,-0.1529756,0.05594628,-0.3307466,-0.03897696
1.289825,-0.3354241,-0.1662804,0.05984388,-0.4902859,-0.01932933
1.212545,-0.4238894,-0.228486,0.008470959,-0.5942018,0.1869662
1.185648,-0.5278778,-0.3438159,-0.04490155,-0.02836932,0.4075396
1.164842,-0.5797509,-0.3945728,0.01651609,0.8272551,0.2172302
1.128955,-0.6556859,-0.2839397,0.08612293,1.040905,-0.2258533
1.091752,-0.6934973,-0.1297674,0.1716598,0.7172744,-0.3747573
1.040977,-0.6400517,-0.08508442,0.2618451,0.456629,-0.3231312
1.079933,-0.5316011,-0.1143171,0.3087668,0.504044,-0.1336247
1.135971,-0.383916,-0.1596999,0.1892742,0.7052364,0.1242696
1.099501,-0.2358703,-0.1838938,-0.06564193,1.043728,0.2337517
1.030603,-0.1455272,-0.1183089,-0.2660074,1.175151,0.3106885
0.8870875,-0.1337286,-0.005720014,-0.4326346,0.8419556,0.3725765
0.7732937,-0.1949846,0.03117371,-0.5140639,0.6429505,0.4105519
0.7753455,-0.2898787,0.01485209,-0.3818786,0.7550267,0.3834847
0.756961,-0.3454943,0.01811544,-0.1721693,0.9709577,0.3182258
0.7324602,-0.3528213,0.008924178,-0.03010698,1.220144,0.2920011
0.7052637,-0.32091,0.005725183,0.02839929,1.28315,0.08989229
0.6506866,-0.2596277,0.04610135,-0.03713985,1.192741,-0.1142524
0.6305009,-0.2207102,0.1023648,-0.1742109,1.026429,-0.1002684
0.6257107,-0.2026246,0.1489361,-0.2945044,0.6842647,0.0401759
0.6343382,-0.2082268,0.1513946,-0.3476882,0.3688764,0.2223016
0.6773903,-0.2581472,0.142797,-0.2777893,0.3825079,0.1788781
0.7504276,-0.3151015,0.1682637,-0.1778573,0.4382681,-0.001808683
0.8639598,-0.3333879,0.2171573,-0.07429498,0.3498067,-0.09744842
0.9699809,-0.3193133,0.283126,0.01093658,0.3607177,-0.1105526
1.019914,-0.3328909,0.2928486,-0.0007248766,0.1970585,0.003976482
1.091928,-0.3435632,0.2580508,0.0943424,-0.09294395,0.08415886
1.217822,-0.3121677,0.2646797,0.2625385,-0.08339588,0.1133981
1.254649,-0.3168431,0.2513955,0.2825324,-0.08292975,0.1872215
1.246107,-0.3872045,0.2192699,0.207456,-0.3145113,0.2694183
1.370946,-0.4928178,0.2001373,0.1370732,-0.5165215,0.3507241
1.45897,-0.5456858,0.118606,0.2367102,-0.4440435,0.2640855
1.270215,-0.5114255,0.03189864,0.3043398,-0.352726,0.09382923
0.9428997,-0.479898,0.01574779,0.028163,-0.6018666,0.04005376
0.771452,-0.4569324,-0.004090089,-0.2825271,-0.9541387,0.04760167
0.8100094,-0.4816524,-0.06736647,-0.3710941,-1.322665,0.1430323
0.954988,-0.562029,-0.1402136,-0.3565912,-1.513793,0.1815391
1.122753,-0.5672016,-0.1886029,-0.3930092,-1.247522,0.01464412
1.145932,-0.5244111,-0.2003628,-0.4134113,-0.9137551,-0.1810873
1.055618,-0.4866322,-0.1806994,-0.2889936,-0.6267107,-0.2223756
1.0057,-0.4409618,-0.1329631,-0.1679412,-0.4940848,-0.1182639
0.9264536,-0.4103275,-0.08953375,-0.1302302,-0.7328792,-0.05606465
0.872131,-0.3517239,-0.09835343,-0.1602121,-0.8838535,-0.04478302
0.8673238,-0.2865412,-0.1252273,-0.225584,-0.8699549,-0.07835329
0.8379985,-0.27726,-0.1195637,-0.2663527,-0.8518938,-0.1839087
0.8634377,-0.2598151,-0.1365918,-0.3324221,-0.5926598,-0.1751528
0.8505202,-0.1926367,-0.1786284,-0.4361285,-0.1611819,-0.141317
0.7998922,-0.167192,-0.1764229,-0.5897655,0.1118023,-0.1438432
0.7890769,-0.1899291,-0.1370203,-0.6652195,0.01024249,-0.0728179
0.6904748,-0.1620967,-0.09239533,-0.613318,-0.1807331,-0.0469862
0.643201,-0.1551749,-0.09266056,-0.5550976,-0.2260747,0.005376144
0.72405,-0.1831775,-0.1193559,-0.3948555,-0.2996203,0.1147263
0.7932945,-0.1609711,-0.1319791,-0.3289704,-0.1625754,0.1300735
0.8682014,-0.1483957,-0.1857726,-0.4718596,0.1385382,0.1147158
0.8929221,-0.1346855,-0.2179445,-0.5127981,0.3088702,0.08994074
0.9021583,-0.1363729,-0.1976665,-0.5029642,0.4238959,0.03399298
0.9693025,-0.1745263,-0.2071525,-0.5454903,0.3466777,0.02565485
1.01173,-0.1640955,-0.2064178,-0.6164409,0.2505202,0.06657479
1.075712,-0.1677125,-0.2011025,-0.681128,0.2454614,0.08059753
1.157392,-0.199018,-0.2124622,-0.6514606,0.1360629,0.07126202
1.216207,-0.2431455,-0.2088293,-0.6407561,0.1625987,0.08730817
1.297997,-0.3368301,-0.2299763,-0.6404228,0.2576175,0.1121348
1.320412,-0.3884918,-0.251444,-0.6005031,0.2808592,0.1135813
1.2677,-0.4191818,-0.2385313,-0.5961533,0.2207378,0.03650629
1.217289,-0.4839666,-0.2362656,-0.5487698,-0.05183446,-0.08406131
1.14755,-0.5115568,-0.2604297,-0.4422463,-0.1642805,-0.1056879
1.079791,-0.5019072,-0.2798597,-0.3535721,0.09500793,-0.03650731
1.064757,-0.5072246,-0.2652531,-0.3165179,0.516157,-0.01356718
1.082138,-0.544078,-0.2474455,-0.3144264,0.9434402,-0.1052831
1.089864,-0.5815541,-0.2421574,-0.3136335,1.21886,-0.2090045
1.065046,-0.5855757,-0.2145122,-0.3038627,1.207691,-0.2160275
1.040616,-0.5274037,-0.1503767,-0.2170232,0.9356983,-0.1902417
1.039478,-0.4260731,-0.08363417,-0.1328152,0.7697849,-0.1487025
1.049842,-0.358998,-0.09151418,-0.2137909,0.7912879,-0.01302773
1.070581,-0.2962527,-0.1228861,-0.3875775,0.8694982,0.154899
1.078007,-0.2207464,-0.08979678,-0.5475477,1.061509,0.223695
1.054377,-0.2235431,-0.0644836,-0.666626,1.170809,0.2045144
0.9950179,-0.2948224,-0.03380006,-0.6638613,1.172285,0.2012193
0.9209056,-0.3492792,0.01191084,-0.4952446,1.161572,0.2349303
0.8756712,-0.3576034,-0.007444202,-0.2614668,1.162105,0.2576611
0.8167674,-0.3219652,0.001355077,-0.131053,1.195856,0.2789795
0.7217984,-0.2483113,0.04095822,-0.1775241,1.103287,0.2714165
0.6592665,-0.1717087,0.04204301,-0.3443803,1.022353,0.2127453
0.6292181,-0.1517549,0.08878166,-0.5653224,0.9699233,0.1975515
0.5996466,-0.1998287,0.1572278,-0.6674999,0.7650268,0.1993213
0.5818827,-0.2518575,0.2129922,-0.5389754,0.5148535,0.1956827
0.5839485,-0.2741801,0.2443788,-0.3928576,0.245171,0.2124809
0.63632,-0.2854532,0.2132697,-0.2714053,0.07885124,0.1273916
0.7694571,-0.2914423,0.2081921,-0.1524567,0.1134446,-0.01118745
0.8963123,-0.3001341,0.2254174,-0.1604583,0.1616481,-0.07996462
0.9320263,-0.2883175,0.2241236,-0.1280445,0.1196952,-0.07597512
1.012286,-0.2711525,0.2375103,-0.06274239,0.04384925,0.01534266
1.151495,-0.2859332,0.2192656,-0.08317526,-0.06109421,0.1060195
1.151688,-0.2804961,0.1970904,-0.03835714,-0.1719235,0.1472967
1.117705,-0.2655293,0.2223297,0.01782194,-0.1725688,0.2328705
1.141128,-0.263281,0.2373485,0.04399353,-0.2938763,0.4132895
1.123207,-0.296401,0.2150856,0.06719129,-0.6521509,0.5242478
1.178468,-0.4691605,0.1632052,0.06358912,-0.9234157,0.3957422
1.281527,-0.6626632,0.1024601,0.09571852,-0.9234082,0.2504516
1.276672,-0.637362,0.06530183,0.05773379,-0.6129123,0.2282783
1.146423,-0.4875416,0.0263453,-0.1239443,-0.4366061,0.1768713
0.9328426,-0.4378688,-0.009136334,-0.3513352,-0.8688856,0.1842616
0.8103946,-0.4603131,0.00243557,-0.4282338,-1.460994,0.248838
0.8098186,-0.5218502,-0.03188369,-0.26208,-1.575768,0.1173044
0.9023259,-0.6333886,-0.1237435,-0.05373213,-1.260692,-0.1527673
1.058094,-0.6669396,-0.136016,0.2382934,-0.9581049,-0.4095567
1.04281,-0.6272795,-0.1157606,0.6141217,-0.8441442,-0.5537975
0.9302259,-0.5495633,-0.106585,0.7852204,-0.9976525,-0.4736127
0.8959881,-0.3951958,-0.08207606,0.7812993,-1.303259,-0.3748348
0.8819825,-0.2578183,-0.1180891,0.660931,-1.333976,-0.3104211
0.9382066,-0.195838,-0.1819433,0.4641669,-1.111455,-0.1964272
0.9848132,-0.1936688,-0.2078275,0.3489924,-0.8103956,-0.2095192
0.9282332,-0.2380931,-0.210053,0.305397,-0.5880545,-0.2702165
0.8502289,-0.2975294,-0.1861934,0.3453548,-0.5860878,-0.3573203
0.7434921,-0.3159691,-0.1590625,0.4522897,-0.5803512,-0.5303982
0.7014536,-0.2900362,-0.150722,0.5903486,-0.5510045,-0.605393
0.7685015,-0.2816602,-0.1671279,0.7217585,-0.4685215,-0.6259796
0.8044872,-0.2484917,-0.1915988,0.7252845,-0.2886024,-0.547523
0.823188,-0.186911,-0.2069226,0.7627904,-0.2596067,-0.3413751
0.8665466,-0.1406506,-0.2237516,0.8211735,-0.2104427,-0.2458704
0.9045454,-0.09596648,-0.2180187,0.6002958,0.07545001,-0.2465621
0.9318443,-0.08750853,-0.1951311,0.3524807,0.3512355,-0.2867531
0.9295849,-0.08593692,-0.1787577,0.3627869,0.3704486,-0.330149
0.9323404,-0.06981376,-0.1486823,0.39096,0.2685521,-0.311164
0.981292,-0.06152255,-0.1256295,0.3189893,0.2253817,-0.2894632
1.045001,-0.05073933,-0.1351236,0.2955448,0.09361642,-0.263048
1.118316,-0.09906672,-0.1491482,0.3663793,0.008821837,-0.2385637
1.172581,-0.1918092,-0.1508308,0.4941671,-0.02096078,-0.1911087
1.158916,-0.2395947,-0.1501136,0.6682752,-0.2807143,-0.08693167
1.183234,-0.2471766,-0.1528335,0.823528,-0.4382236,0.002151468
1.285372,-0.2626851,-0.1668764,0.9093809,-0.3992461,0.09573439
1.320908,-0.3038381,-0.1974359,0.9164165,-0.4115133,0.2016344
1.269383,-0.3306349,-0.2178429,0.8043155,-0.3710942,0.2693776
1.190442,-0.3595581,-0.2121047,0.6098682,-0.3532687,0.2540603
1.102597,-0.4389779,-0.1960662,0.4346539,-0.2876115,0.09324665
1.061022,-0.5254829,-0.175609,0.3864968,0.087466,-0.08739199
1.098373,-0.5704156,-0.165792,0.4366309,0.6390906,-0.09670531
1.140299,-0.5735274,-0.173594,0.4637117,0.9285764,-0.01388725
1.100895,-0.5740915,-0.1742934,0.538492,0.7845068,-0.009251792
1.00293,-0.5546227,-0.1628926,0.593405,0.7047683,-0.04699976
0.8906709,-0.489849,-0.1383127,0.4841299,0.7078628,-0.06240629
0.8638229,-0.4723421,-0.09036294,0.4142949,0.440525,-0.077931
0.9461674,-0.4841635,-0.02411276,0.4708159,0.2303247,-0.05699094
0.9745347,-0.4515043,0.03307946,0.5437272,0.1672331,0.005823749
0.9886507,-0.423542,0.007679991,0.6681871,0.2553191,0.08631375
1.02423,-0.3984521,-0.07052869,0.8303293,0.5662569,0.1222648
0.9898993,-0.3735641,-0.07714594,0.9038861,0.7368546,0.03706518
0.9689672,-0.3732244,-0.06361553,0.8856958,0.7000534,-0.04583972
0.9440389,-0.3568898,-0.06099425,0.8815992,0.5238317,-0.0414197
0.9095403,-0.3014997,-0.0166044,0.8723407,0.3944739,0.03291569
0.9181254,-0.2333586,-0.008198051,0.8206698,0.5584927,0.1350649
0.8848514,-0.2140614,-0.004711382,0.7723083,0.8047555,0.1317575
0.835004,-0.2322064,0.04933567,0.7188954,0.9432176,0.1080899
0.7641171,-0.2064891,0.1040533,0.6411777,0.7692945,0.1500609
0.6712411,-0.1578328,0.1621242,0.5065008,0.3380916,0.1543466
0.6495101,-0.1405593,0.1738139,0.3163208,-0.03277876,0.1599397
0.6637636,-0.1504733,0.1604225,0.1438412,-0.244051,0.1579693
0.6901989,-0.1707309,0.1737869,0.05900918,-0.1279531,0.07905172
0.7217766,-0.1907152,0.1824863,0.08472007,0.01541606,-0.03505621
0.7675478,-0.2027786,0.2281348,0.1455242,-0.02079038,-0.1040466
0.8560289,-0.1872099,0.2683027,0.1973803,0.1140193,-0.0532929
0.9342646,-0.1609068,0.2548815,0.1699697,0.2145977,0.01238147
1.010319,-0.1496,0.2485349,0.01671721,0.1827849,0.07345823
1.098482,-0.1247734,0.2510856,-0.1163411,0.1466592,0.2620335
1.137889,-0.09972767,0.2575148,-0.1783747,0.005605333,0.4066579
1.110703,-0.1088639,0.2729478,-0.2234151,-0.03655104,0.3954704
1.107576,-0.1872904,0.2818604,-0.3084857,-0.1473687,0.3918749
1.191933,-0.4222798,0.2464127,-0.3581095,-0.5914138,0.4292465
1.346956,-0.6906561,0.1692103,-0.1636945,-0.8157952,0.4201529
1.474071,-0.7146472,0.1190121,0.1028532,-0.3261986,0.2390573
1.286564,-0.5959834,0.09232942,0.1341982,0.1398504,0.009179856
0.9124211,-0.538021,0.04115441,-0.09277806,-0.4566206,0.0448147
0.7879643,-0.4670819,-0.04172152,-0.3819361,-1.217674,0.1813413
0.8105252,-0.5039553,-0.108557,-0.4453541,-1.240055,0.1828625
0.8961742,-0.6678611,-0.1354731,-0.311804,-1.351995,0.1590785
1.061509,-0.6646054,-0.16775,-0.1526343,-1.43337,0.02986068
1.101255,-0.5745298,-0.2015045,0.0429555,-1.143575,-0.1936768
1.078925,-0.4927883,-0.2148055,0.2225815,-0.9224671,-0.244517
1.062539,-0.3942693,-0.1997807,0.2531177,-0.6870291,-0.1753836
0.9757338,-0.367057,-0.1496751,0.1607349,-0.6919008,-0.1201257
0.8744145,-0.2873486,-0.1036854,0.08588603,-0.893755,-0.03871606
0.8545024,-0.2488834,-0.1069344,0.007658509,-0.8713652,0.00270955
0.8731189,-0.2896457,-0.1596515,-0.1094237,-0.8445602,-0.08345674
0.8048549,-0.2077433,-0.1903978,-0.2193419,-0.6727061,-0.1981232
0.7827313,-0.2058879,-0.1721104,-0.2834841,-0.4058794,-0.2261746
0.8066498,-0.2569608,-0.1539316,-0.2387013,-0.3217547,-0.2034712
0.724719,-0.2269684,-0.1390925,-0.1764605,-0.2128437,-0.1554612
0.7032778,-0.2654602,-0.1333173,-0.05272238,-0.1125058,-0.1064243
0.7330321,-0.2396661,-0.1409049,0.1957123,-0.0739323,-0.0916122
0.7306146,-0.1485291,-0.1458012,0.2310983,-0.1047369,-0.0808115
0.7826222,-0.1205843,-0.1572714,0.0519038,-0.1469738,-0.1174108
0.8931255,-0.0982102,-0.1838553,-0.06851301,-0.01981868,-0.196898
1.048184,-0.09854751,-0.2249536,-0.159837,0.1560723,-0.2168492
1.097942,-0.09536217,-0.2383414,-0.2266527,0.2818602,-0.1603424
1.087484,-0.1048885,-0.1967561,-0.3063261,0.2307532,-0.05294566
1.183235,-0.1388135,-0.1503129,-0.4253964,0.02820358,0.09066932
1.213955,-0.1591699,-0.1425463,-0.4917485,-0.09344341,0.2201854
1.244474,-0.2469526,-0.1832995,-0.5377247,-0.1381013,0.2753301
1.398065,-0.369003,-0.2431484,-0.5447487,-0.05328172,0.2677012
1.438932,-0.4593355,-0.2688736,-0.5350237,0.009431026,0.166217
1.332095,-0.5104231,-0.2751175,-0.5533774,-0.05189022,0.03277425
1.200483,-0.5257293,-0.3028884,-0.4893951,0.03148263,0.08248615
1.078499,-0.537571,-0.3291669,-0.4251363,0.2975792,0.1863682
1.032572,-0.5117791,-0.336821,-0.4387956,0.7424194,0.1577276
1.070863,-0.5047366,-0.3202193,-0.4647858,1.120112,0.03452783
1.090319,-0.5501297,-0.2511418,-0.5225327,1.212279,-0.2031787
1.02614,-0.5685062,-0.1676013,-0.5551664,1.220396,-0.3110365
0.9355672,-0.5281425,-0.1258201,-0.5296462,0.9724836,-0.1676544
0.8830871,-0.4336978,-0.1167994,-0.4782268,0.596787,-0.02090227
0.9210341,-0.3741162,-0.1141826,-0.4346139,0.6164031,0.1599992
1.011802,-0.3465645,-0.12007,-0.4772305,0.9634744,0.2421398
1.022436,-0.3191493,-0.137325,-0.562724,1.400213,0.1020297
0.9849752,-0.3374252,-0.1030551,-0.5919244,1.588763,0.08633056
0.9218789,-0.3414299,-0.02122089,-0.5279601,1.384281,0.1847878
0.8150968,-0.3378425,0.01775657,-0.4452661,1.202308,0.2682232
0.7557077,-0.3306138,0.01703104,-0.4516961,1.164622,0.3510573
0.713128,-0.280335,0.009744355,-0.4909101,1.148176,0.2972415
0.6732173,-0.2517398,0.02039804,-0.5299691,1.145465,0.2548338
0.6629993,-0.2477874,0.05382354,-0.5801047,0.9807136,0.304334
0.6215294,-0.2465159,0.08197409,-0.5608344,0.6820727,0.3019234
0.6008883,-0.2465796,0.1086324,-0.4827271,0.5010516,0.2885844
0.6723668,-0.2522896,0.1265107,-0.379457,0.412807,0.1653187
0.8104396,-0.2656302,0.1587274,-0.2606468,0.4058116,-0.07287725
0.9214042,-0.248819,0.1888384,-0.2443525,0.5240029,-0.1326845
0.9235198,-0.2414175,0.182869,-0.2653512,0.5878493,-0.02408391
0.9194198,-0.2705029,0.221973,-0.1675778,0.4990188,0.0220176
1.019379,-0.2935215,0.2719813,-0.07355491,0.3519379,0.03398001
1.134271,-0.3045644,0.2555973,-0.05400198,0.2020505,0.1729236
1.185421,-0.3292758,0.2139048,-0.05883702,-0.0457435,0.4194998
1.219092,-0.4136793,0.1534395,-0.08301121,-0.3533257,0.5340677
1.2528,-0.5422356,0.09415634,-0.08947115,-0.4955977,0.3555256
1.255202,-0.5998577,0.07199484,-0.1070867,-0.5517906,0.1415647
1.174191,-0.5183966,0.06651194,-0.1719447,-0.6587263,0.1428879
1.01451,-0.4212429,0.03085931,-0.3259308,-0.6866219,0.2085081
0.8908241,-0.4249713,-0.02941904,-0.5061726,-0.6673347,0.2452904
0.8740974,-0.4810586,-0.04761643,-0.524343,-0.7539271,0.2405758
0.9506518,-0.5524798,-0.05497785,-0.4900602,-0.8631682,0.1212561
1.034346,-0.5592418,-0.1082613,-0.5015574,-0.8651886,-0.04709806
1.049096,-0.4748032,-0.1533712,-0.474721,-0.7112699,-0.1876548
1.025609,-0.4068192,-0.1512893,-0.5022652,-0.4702416,-0.2363087
0.9942628,-0.3530853,-0.1266624,-0.5886769,-0.4737666,-0.2042589
0.9539395,-0.3129516,-0.106843,-0.6740093,-0.7166683,-0.1852026
0.9155419,-0.2935903,-0.1073186,-0.7572039,-0.8278954,-0.1271454
0.9203619,-0.2969391,-0.123115,-0.7311546,-0.7838765,-0.01702605
0.938543,-0.3500422,-0.1370112,-0.6487336,-0.6514967,0.02114264
0.9044744,-0.3628102,-0.1389327,-0.6054083,-0.4802229,-0.07944914
0.8601185,-0.3496668,-0.1217602,-0.5301292,-0.3608625,-0.2263124
0.7884353,-0.3317047,-0.0973704,-0.468938,-0.3458655,-0.3017642
0.6985394,-0.2567881,-0.09308342,-0.4370276,-0.4421914,-0.3153573
0.6741529,-0.2012915,-0.106625,-0.4062818,-0.4667637,-0.249477
0.6732211,-0.1536217,-0.1187906,-0.4576794,-0.4526518,-0.1032962
0.6972603,-0.1200715,-0.1318092,-0.5338184,-0.3936733,0.03308031
0.7892085,-0.1424111,-0.1706135,-0.615419,-0.1021192,0.06638149
0.8917546,-0.1437992,-0.2154628,-0.7111862,0.2111452,-0.03158203
0.9173846,-0.1441941,-0.2067587,-0.7257174,0.2881155,-0.09710063
0.9016186,-0.1591374,-0.1875949,-0.7333431,0.1213512,-0.03894039
0.9638037,-0.1557996,-0.2106495,-0.7423369,-0.002748237,0.06732104
1.052431,-0.162395,-0.2306955,-0.7176506,0.03040251,0.2057015
1.150687,-0.2080627,-0.262801,-0.7055356,-0.002827219,0.286651
1.225508,-0.3105955,-0.29926,-0.5798411,0.008936494,0.2558329
1.187937,-0.4121727,-0.287437,-0.3579365,0.07768701,0.161528
1.249685,-0.4333049,-0.2865415,-0.2713487,0.07616063,-0.01341784
1.393204,-0.3885851,-0.2897885,-0.4098216,0.01425518,-0.1126728
1.417811,-0.3720818,-0.2730219,-0.5940459,-0.110274,0.008094124
1.368077,-0.4418824,-0.304378,-0.6027436,-0.0811569,0.1977816
1.213767,-0.534307,-0.3477009,-0.4876188,0.1423872,0.336113
1.068854,-0.5821731,-0.3525885,-0.3225767,0.4641469,0.3005998
1.019793,-0.5931124,-0.3148036,-0.1838973,0.819231,0.09357914
0.9929935,-0.5943409,-0.2564578,-0.1822875,1.092676,-0.06960948
1.023261,-0.5714792,-0.2376272,-0.2175878,1.339161,-0.203737
1.014095,-0.5067349,-0.2122176,-0.2809732,1.401408,-0.2624376
0.9883528,-0.4357796,-0.1546536,-0.4323245,1.285476,-0.1983692
0.977634,-0.3763856,-0.09982253,-0.5673376,1.150181,-0.1387653
0.9250279,-0.3406541,-0.05146393,-0.6198584,0.8454904,0.02828137
0.965593,-0.3356793,-0.06399863,-0.6039724,0.7531286,0.178301
1.014948,-0.3314475,-0.1066759,-0.5661532,1.096663,0.1554733
0.997688,-0.3463563,-0.1090188,-0.497859,1.394528,0.1459857
0.9886448,-0.3743308,-0.0823225,-0.3783708,1.52318,0.1298524
0.9174187,-0.3549024,-0.02178679,-0.2903911,1.490027,0.1219801
0.8079066,-0.310842,0.01342305,-0.2847144,1.343296,0.1297432
0.7025226,-0.2726076,0.0106517,-0.3423903,1.179711,0.08340194
0.6398286,-0.229993,0.04316752,-0.4436472,0.9312721,0.07738418
0.6486858,-0.1977995,0.07582793,-0.5831145,0.8033227,0.08800861
0.6465232,-0.1778682,0.09140484,-0.7274376,0.7438067,0.1329507
0.628813,-0.1959537,0.10202,-0.7536083,0.5415734,0.2256355
0.6215648,-0.2499141,0.1074768,-0.5791083,0.376227,0.2547824
0.6592145,-0.2765407,0.1419336,-0.3634861,0.2749722,0.1870779
0.769601,-0.292097,0.1717921,-0.2900218,0.2896703,0.02743568
0.8957789,-0.2936896,0.1833831,-0.251068,0.439725,-0.09859047
0.9834562,-0.2697367,0.2159395,-0.1858463,0.5056796,-0.1041009
1.022367,-0.2725513,0.2612203,-0.1799802,0.4521594,-0.03144598
1.076415,-0.2765335,0.2810888,-0.1199298,0.33141,0.05577058
1.143543,-0.2849774,0.2616109,-0.03021852,0.2343397,0.1223007
1.170413,-0.324544,0.244808,-0.09419426,0.07816581,0.2778533
1.225691,-0.3941245,0.2150829,-0.1699755,-0.2272542,0.4923206
1.281976,-0.5020971,0.163273,-0.1584982,-0.37984,0.5490386
1.237032,-0.5203188,0.1608859,-0.1802845,-0.3756077,0.4016993
1.143721,-0.4434749,0.162918,-0.2623412,-0.4905752,0.2583414
1.037113,-0.4222776,0.1045851,-0.4552876,-0.6449663,0.2657814
0.9153085,-0.4271395,0.02672419,-0.6794267,-0.7182034,0.2837024
0.8861466,-0.463023,-0.03883792,-0.7379898,-0.7936141,0.2460057
0.9479764,-0.5596773,-0.06579017,-0.7155069,-0.8323508,0.1577421
0.9751429,-0.6120076,-0.06522397,-0.6640021,-0.8253216,-0.01326056
0.9832813,-0.596576,-0.08657372,-0.5196401,-0.8892698,-0.1378516
0.9758363,-0.542705,-0.1177942,-0.4240235,-0.8328635,-0.1897059
0.9233171,-0.4615459,-0.1377213,-0.399886,-0.6466439,-0.2335017
0.9015443,-0.4046376,-0.1415806,-0.310128,-0.5790557,-0.2396527
0.8940244,-0.3945079,-0.1237645,-0.2357445,-0.6202571,-0.2585726
0.859097,-0.3754665,-0.1189665,-0.273626,-0.7884421,-0.3287148
0.8448392,-0.3455423,-0.12381,-0.3043504,-0.9391812,-0.3635813
0.8842507,-0.3601151,-0.1167261,-0.2883068,-0.9469714,-0.3260658
0.9470557,-0.35028,-0.1255907,-0.3249329,-0.8900572,-0.2633103
0.9513596,-0.3070295,-0.1473606,-0.3598026,-0.6897766,-0.1757137
0.9145133,-0.2874193,-0.1732487,-0.3313903,-0.4326269,-0.1033277
0.8731671,-0.2559956,-0.1786993,-0.2821542,-0.2746887,-0.1181491
0.8146403,-0.2679765,-0.1443069,-0.2006937,-0.269772,-0.1562138
0.7775096,-0.2848627,-0.1187999,-0.1391779,-0.3094904,-0.1607794
0.747374,-0.2295272,-0.1115186,-0.1077279,-0.2828136,-0.1213948
0.7405549,-0.1812599,-0.1318812,-0.08464328,-0.3151267,-0.02260527
0.8153377,-0.1323222,-0.1812373,-0.1930039,-0.2843323,0.04227116
0.9185673,-0.1246426,-0.2194988,-0.3492463,-0.1142402,0.0191076
0.9920325,-0.1648746,-0.2502755,-0.3807404,0.1242247,-0.02472321
1.030081,-0.1565813,-0.2383799,-0.3775356,0.3234669,-0.05018153
1.04066,-0.1439249,-0.2014707,-0.4101083,0.2281928,-0.03203557
1.043348,-0.1372355,-0.1958966,-0.4577788,0.02295987,0.02387816
1.083896,-0.1689134,-0.1779343,-0.4944638,-0.1515057,0.05026604
1.159673,-0.2529108,-0.1832024,-0.43675,-0.2266184,0.02236423
1.216225,-0.3081333,-0.2401774,-0.3544607,0.03456039,-0.006708126
1.27061,-0.3775536,-0.2989247,-0.3958985,0.2312099,0.001730881
1.289145,-0.4463318,-0.3383667,-0.4283526,0.08634438,-0.01119398
1.225517,-0.5016757,-0.3187893,-0.3423579,-0.2032176,-0.05179441
1.156307,-0.5935819,-0.3046111,-0.1777171,-0.4060958,-0.03358576
1.109624,-0.6294081,-0.33103,0.1005605,-0.03263427,0.01843086
1.094432,-0.5962636,-0.318095,0.247331,0.7346154,0.03159825
1.13539,-0.5661837,-0.3070336,0.1360151,1.227854,-0.04999271
1.158163,-0.5235699,-0.2952169,0.02772378,1.534409,-0.1983965
1.102813,-0.4584777,-0.2306009,-0.1551723,1.645133,-0.2375467
1.009841,-0.4051905,-0.1401926,-0.3559848,1.221743,-0.1763904
0.9558226,-0.3814056,-0.05986957,-0.3406719,0.6379015,-0.07591213
0.9706729,-0.3568762,-0.06907315,-0.3326028,0.460913,0.1382963
1.011832,-0.3305306,-0.1186294,-0.3511244,0.6943951,0.2849663
1.028826,-0.315427,-0.1158643,-0.2992847,1.054928,0.23935
0.9955804,-0.3290497,-0.08928412,-0.2793401,1.324314,0.1747816
0.9253072,-0.3860149,-0.03095648,-0.1818104,1.353876,0.1286377
0.8624075,-0.4014692,-0.004574613,-0.01265489,1.15691,0.116762
0.8145226,-0.3307482,-0.02922656,0.07275311,1.089455,0.1614806
0.7621436,-0.2291165,-0.01648447,0.05051242,1.173146,0.1611484
0.7078019,-0.1670314,0.005147413,-0.07257369,1.145427,0.1412223
0.6526665,-0.1571223,0.05404641,-0.2739872,1.096857,0.136083
0.6076288,-0.1400923,0.1193973,-0.4660554,0.933986,0.1334364
0.6021601,-0.1623171,0.1164019,-0.4681139,0.6095705,0.1946583
0.6258894,-0.2336302,0.1341406,-0.3034089,0.3582075,0.2503546
0.681033,-0.2756943,0.1911376,-0.1687453,0.2066049,0.2105311
0.8024369,-0.3043259,0.1793304,-0.1119962,0.1093698,0.1130257
0.9198841,-0.2979567,0.1729039,-0.07509699,0.06550307,0.002864075
0.9564988,-0.2722093,0.2415208,0.0365648,0.1154619,-0.04251342
0.9623528,-0.2730167,0.2850186,0.1107646,0.1037827,-0.01756381
0.9667214,-0.2648374,0.2862865,0.09987571,0.04765313,-0.01995003
0.9990798,-0.2754525,0.2851889,0.2013337,0.1471334,-0.0190895
1.090341,-0.3082266,0.2759679,0.2783247,0.1707067,0.04051598
1.166308,-0.3528512,0.2713504,0.1901884,0.0988616,0.07761895
1.220634,-0.4038454,0.2507275,0.1374233,-0.09148404,0.0915173
1.29446,-0.4159602,0.2227589,0.1963592,-0.35923,0.1052142
1.327928,-0.4712223,0.1918194,0.1876964,-0.3263886,0.03964016
1.256281,-0.5394332,0.1477042,-0.04923733,-0.4785038,-0.02259206
1.098637,-0.469137,0.1234434,-0.3706183,-1.029644,0.04847924
0.9661923,-0.3987853,0.02666313,-0.5751954,-1.243782,0.1865188
0.9406719,-0.4487218,-0.1251715,-0.7090932,-1.10184,0.251383
0.9895574,-0.5145523,-0.1752866,-0.7642359,-0.9186424,0.1404679
1.027497,-0.5996161,-0.1835983,-0.5786603,-0.6755358,-0.07611826
1.022784,-0.6633913,-0.1750486,-0.264251,-0.6038796,-0.2179018
0.992973,-0.6093974,-0.1146069,-0.02519922,-0.8226125,-0.2578624
0.9408556,-0.5438331,-0.0955524,0.2069993,-0.9903146,-0.2671514
0.9382805,-0.4719681,-0.1076718,0.3255273,-1.004229,-0.2550069
0.9759188,-0.3458983,-0.1234484,0.2397138,-0.9281455,-0.2228278
0.9624101,-0.2782697,-0.15897,0.1089792,-0.7249017,-0.191216
0.929032,-0.2423734,-0.1408802,-0.07190257,-0.625299,-0.1603118
0.8662839,-0.2185176,-0.1054194,-0.1983233,-0.723521,-0.1353771
0.8139767,-0.2417545,-0.1198066,-0.205907,-0.7841155,-0.1212652
0.8287974,-0.2372054,-0.1402265,-0.2765825,-0.6505885,-0.09573244
0.8145742,-0.2467695,-0.1686791,-0.3632618,-0.41527,-0.04804828
0.7813963,-0.2763051,-0.1716864,-0.3734838,-0.3054108,-0.02457378
0.7544411,-0.272281,-0.1447653,-0.3171879,-0.3445526,-0.04175964
0.7181889,-0.2880915,-0.1463909,-0.185467,-0.4503389,-0.05152756
0.7234231,-0.2911737,-0.1413411,-0.06568192,-0.5451886,-0.05964526
0.7744952,-0.23958,-0.1632967,-0.04472113,-0.5444141,-0.05470837
0.8842768,-0.1676955,-0.2175544,-0.1043443,-0.3432983,0.017757
0.9865571,-0.1337219,-0.2247513,-0.1603056,-0.004638279,0.08192665
0.9875144,-0.1603188,-0.2246214,-0.1791121,0.1003469,0.03848252
0.9628249,-0.1646579,-0.2136571,-0.2036795,0.04142496,-0.01853673
0.9705006,-0.145868,-0.1881502,-0.2247118,0.01552558,0.007552545
1.003715,-0.1595083,-0.2098162,-0.2268994,-0.09429726,0.03490486
1.075811,-0.201357,-0.2296458,-0.2177605,-0.1168756,0.03580825
1.167955,-0.2851897,-0.2259163,-0.1695297,-0.09208078,0.02776315
1.23634,-0.3646234,-0.2438054,-0.04886771,-0.131075,-0.005694499
1.258708,-0.3813881,-0.2676851,0.1042228,0.009245325,0.01497412
1.240837,-0.3706609,-0.2813209,0.1462092,0.2590967,0.05885444
1.195008,-0.3709192,-0.2931956,0.08033815,0.3704622,0.04138726
1.144448,-0.4015765,-0.2790812,0.03727045,0.2629606,-0.02340525
1.121468,-0.471638,-0.2326672,0.01775096,0.1517956,-0.1466013
1.138109,-0.5609907,-0.2214572,0.08212145,0.2478039,-0.1874733
1.154256,-0.6166085,-0.2628045,0.2601448,0.4106823,-0.09283937
1.139702,-0.6070791,-0.2847083,0.4074256,0.7760327,-0.06681283
1.083049,-0.5558706,-0.2417075,0.4912907,1.335103,-0.1520791
0.7717327,-0.2322407,0.1469182,0.4066905,0.06276626,0.02331503
0.8392558,-0.2450513,0.1864144,0.5103709,0.1367012,-0.04889763
0.9330039,-0.2298422,0.2125075,0.5693311,0.2227252,-0.1192161
0.9965124,-0.2101534,0.2528967,0.4873554,0.3095998,-0.08346432
1.038171,-0.196669,0.2419762,0.4675169,0.2794217,-0.04436555
1.100293,-0.1884625,0.236409,0.4786603,0.1929875,-0.0323255
1.112504,-0.1589004,0.2451707,0.3606435,0.06919782,0.03549238
1.100941,-0.1718492,0.227098,0.2111325,-0.2096097,0.1380134
1.14046,-0.3066834,0.2215067,0.1651744,-0.5155692,0.2678835
1.206549,-0.5241398,0.1926101,0.3702569,-0.7253303,0.3096434
1.237559,-0.648782,0.1293727,0.637318,-0.79341,0.1975081
1.160203,-0.6033967,0.04237393,0.6502663,-0.7356835,0.07773732
1.006895,-0.5464409,-0.04118348,0.5578938,-0.8175438,0.05581125
0.9057983,-0.5110529,-0.07344006,0.5157877,-1.105816,0.1172463
0.9339724,-0.4888676,-0.1182037,0.4844663,-1.298668,0.1378796
1.006082,-0.5264431,-0.1624529,0.4609663,-1.234749,0.03449556
1.04314,-0.5228905,-0.1625567,0.4625187,-1.119556,-0.1104431
1.089238,-0.4935269,-0.1611105,0.4908327,-1.123817,-0.1905609
1.050675,-0.4724524,-0.1444329,0.5451276,-1.056165,-0.1942922
0.943845,-0.4131373,-0.1074289,0.6483604,-1.006692,-0.1769175
0.9306263,-0.3835692,-0.06790114,0.7606141,-1.157756,-0.1688357
0.9229925,-0.3502803,-0.06844311,0.8113802,-1.201944,-0.1903127
0.9056903,-0.2766258,-0.1025642,0.7624048,-1.119316,-0.2284868
0.9098055,-0.2152966,-0.1080017,0.6203268,-0.9598658,-0.2383299
0.8474401,-0.165005,-0.1265566,0.4548084,-0.6649362,-0.2421927
0.7706101,-0.166505,-0.1205447,0.360964,-0.5380094,-0.2478463
0.6921269,-0.2094933,-0.07438783,0.3848156,-0.6036973,-0.2286717
0.6352099,-0.2459875,-0.07454011,0.4677361,-0.7055995,-0.1973401
0.6536432,-0.264362,-0.07692421,0.6066732,-0.8130044,-0.1674283
0.6828994,-0.2290361,-0.1262119,0.7232334,-0.8161831,-0.1072657
0.7579435,-0.1738041,-0.2305105,0.7029615,-0.6345673,-0.003963375
0.8867342,-0.133972,-0.2536643,0.6618279,-0.3069057,0.03395222
0.9799765,-0.1102331,-0.2460163,0.5771399,-0.05301943,-0.03264971
1.031976,-0.11905,-0.2384086,0.4354266,0.007755082,-0.09522881
1.0954,-0.1123841,-0.1945659,0.3448679,-0.1189735,-0.111273
1.186666,-0.06248206,-0.1791385,0.2180156,-0.2384673,-0.07664714
1.23603,-0.02867943,-0.1908464,0.08159517,-0.1300145,-0.01833348
1.221872,-0.06518729,-0.1961919,-0.011207,-0.1208969,0.01495916
1.183379,-0.1649407,-0.2091592,-0.07074988,-0.3766266,0.07539133
1.180277,-0.2825156,-0.2414421,-0.04179614,-0.5385154,0.1715397
1.296838,-0.3800998,-0.2875182,0.02565479,-0.3860829,0.1799602
1.487394,-0.4221166,-0.313032,0.07166223,-0.1651878,0.02240932
1.561322,-0.4750031,-0.3078859,0.03251813,-0.179357,-0.1309847
1.407165,-0.6288119,-0.3022904,0.01944833,-0.1371234,-0.05527915
1.158354,-0.7210497,-0.3010688,0.2781092,0.1294053,0.09393082
0.9805353,-0.6334026,-0.2962137,0.6454723,0.4529955,0.1403579
0.9343739,-0.5451529,-0.2950231,0.7577363,0.7712036,0.1424076
0.9771389,-0.5339769,-0.2780676,0.6302258,0.8885382,-0.04448077
0.9891751,-0.5104774,-0.2343653,0.5171757,1.014119,-0.4018807
1.021651,-0.4425556,-0.171514,0.3784173,1.171735,-0.5842383
1.048292,-0.3568579,-0.1028042,0.2009903,0.9651798,-0.5179223
1.004631,-0.3284986,-0.08995039,0.2079457,0.7979454,-0.3061064
1.020368,-0.3272958,-0.1092636,0.2869113,0.8949062,-0.01676084
0.9907353,-0.2815132,-0.09397796,0.3148593,1.040111,0.1993593
0.8842766,-0.2783659,-0.08973121,0.3223596,1.223178,0.1979704
0.8269036,-0.295127,-0.06798177,0.2848331,1.167865,0.1435687
0.7688114,-0.2671319,0.007121636,0.309962,0.9732092,0.1856994
0.7529236,-0.2626384,0.04878439,0.3175685,0.8640931,0.1288174
0.7203281,-0.2454702,0.05662447,0.2505605,0.7143136,0.06364786
0.6339963,-0.2093302,0.06291485,0.1869352,0.6526794,0.07586056
0.6018805,-0.1832944,0.06916843,0.03608875,0.55924,0.03734365
0.5763267,-0.1565861,0.1097913,-0.07237005,0.3666295,0.09352357
0.5823318,-0.1868664,0.1571146,-0.05714536,0.3716223,0.1753568
0.6151023,-0.232059,0.176022,-0.01501056,0.384717,0.1690826
0.671718,-0.249521,0.2079127,0.1058347,0.2856457,0.04683516
0.8287873,-0.2258115,0.2674906,0.2326996,0.2851611,-0.2024516
0.9639322,-0.152269,0.2807445,0.2359365,0.3180949,-0.2355394
1.028632,-0.1422079,0.2556985,0.1464678,0.3612618,-0.1050246
1.115187,-0.1840314,0.2797878,0.1203295,0.3899564,-0.02108359
1.223761,-0.2283958,0.2943982,0.1888901,0.1549508,0.1689357
1.234205,-0.2938206,0.2553609,0.2224743,-0.2941431,0.3751829
1.210389,-0.412881,0.1632114,0.2614066,-0.5026927,0.451668
1.401772,-0.6902239,0.01955667,0.4485524,-0.347418,0.3330034
1.534547,-0.8680396,-0.008040259,0.6868024,-0.3261801,0.08025507
1.270566,-0.6465032,0.05230802,0.6124517,-0.6859397,-0.03389847
0.9129686,-0.3967147,0.03018319,0.3375218,-1.128964,0.08493404
0.8058947,-0.4081323,0.01067712,0.2441805,-1.395166,0.2665037
0.9158178,-0.4830371,-0.02791837,0.2218229,-1.385783,0.2554354
0.9999397,-0.5578856,-0.1387888,0.2829228,-1.25984,0.07368025
1.014216,-0.5977146,-0.1625671,0.4047671,-1.166775,-0.1556588
1.02329,-0.5298581,-0.1228432,0.4640145,-1.04335,-0.3564956
0.973312,-0.4709884,-0.1265657,0.5639858,-1.036754,-0.3377891
0.9461015,-0.4177304,-0.1227886,0.5336341,-1.1279,-0.2692955
0.9259658,-0.3333936,-0.1078633,0.4634586,-1.157345,-0.2619785
0.8691726,-0.3044846,-0.1166909,0.4659439,-1.224193,-0.1822444
0.8564886,-0.3074619,-0.1429608,0.3943768,-1.218727,-0.2131313
0.8264147,-0.318685,-0.1736114,0.4388564,-1.065225,-0.3097934
0.8144757,-0.329676,-0.1838224,0.468169,-0.8098698,-0.3552898
0.8258647,-0.297937,-0.1843289,0.3868238,-0.4395537,-0.4014304
0.8018056,-0.2469655,-0.1854558,0.3533861,-0.2219038,-0.3135247
0.8223667,-0.2126214,-0.1573374,0.2625821,-0.2115416,-0.1611776
0.8235938,-0.2045297,-0.1278268,0.2288176,-0.1922082,-0.05190294
0.7982875,-0.203911,-0.1316404,0.2842686,-0.1396087,0.002013733
0.7966732,-0.2100099,-0.1382445,0.3635346,-0.08362248,-0.03617677
0.7756873,-0.207636,-0.1509622,0.450651,-0.08578437,-0.0463102
0.8218389,-0.1424597,-0.1746391,0.3323494,-0.1164137,-0.05385207
0.9298092,-0.06739109,-0.179183,0.1364293,-0.1208901,-0.05991691
1.019219,-0.0740741,-0.1843458,0.08476433,-0.1041108,0.004482252
1.079406,-0.1152071,-0.1984886,0.08391711,-0.05189784,0.02341071
1.10702,-0.1197463,-0.1858545,0.06075321,-0.0426725,0.03227764
1.178391,-0.1301872,-0.1540686,0.0141244,-0.05159066,0.04125106
1.276795,-0.170963,-0.1367725,-0.04645366,-0.07400336,0.01773267
1.337045,-0.2471582,-0.1467844,-0.07643582,-0.1470922,0.0595304
1.360623,-0.3780753,-0.190861,0.001920151,-0.1524442,0.1381839
1.303273,-0.4761191,-0.256437,0.08741832,-0.1925472,0.1946555
1.196244,-0.5102679,-0.2882592,0.03273379,-0.3616691,0.07122987
1.103378,-0.5830217,-0.2651848,0.05440921,-0.4590517,-0.2288325
1.051223,-0.7256034,-0.2549936,0.4022937,-0.2441574,-0.3641438
1.070922,-0.809137,-0.280095,0.9206078,0.3705856,-0.3323489
1.112195,-0.7412807,-0.2786846,1.224579,1.036619,-0.3257757
1.13269,-0.6304524,-0.2453898,1.184577,1.427322,-0.3728149
1.096543,-0.5027549,-0.1948096,0.962076,1.518988,-0.4449378
0.9740276,-0.3417612,-0.1130873,0.579019,1.06968,-0.4234996
0.9023473,-0.2221155,-0.04023291,0.1556006,0.2536004,-0.2209546
0.9831366,-0.1584217,-0.04364449,-0.0394515,0.04445004,0.1030143
1.093543,-0.1995171,-0.1204332,-0.1081885,0.6776388,0.240912
1.088854,-0.2431985,-0.1589843,-0.1754717,1.281437,0.1259487
0.9725722,-0.2401267,-0.09803484,-0.1659139,1.363744,0.1089374
0.8301449,-0.348245,-0.01707588,-0.007460609,1.155732,0.122824
0.7557704,-0.4266712,0.02579414,0.3219575,1.02071,0.04088962
0.7694159,-0.4094317,0.0366207,0.5818963,1.020274,0.0430548
0.7494318,-0.3504827,0.03801014,0.6385667,0.9272431,0.03467404
0.6908736,-0.1920661,0.04601188,0.5604728,0.7581798,-0.01038824
0.6746628,-0.1011945,0.07020833,0.3155645,0.5945562,0.02311011
0.6610384,-0.100227,0.09823385,0.04171616,0.4735933,0.06708411
0.6635283,-0.1170118,0.1039638,-0.04092344,0.4782119,0.1381606
0.6583512,-0.2127983,0.1382056,0.09595445,0.444063,0.1908253
0.6318356,-0.2901834,0.1934847,0.2606614,0.2640322,0.1083914
0.6691133,-0.2809961,0.1981329,0.3952249,-0.01104604,-0.006022038
0.7303011,-0.249453,0.2115176,0.588031,-0.2017331,-0.09029057
0.8091266,-0.2474089,0.2542609,0.6333145,-0.1524599,-0.16054
0.9047093,-0.2151828,0.2659415,0.5842495,-0.1450509,-0.1443249
0.9582565,-0.1783752,0.2771109,0.6051812,-0.2892519,-0.03894034
1.024603,-0.2141926,0.2955945,0.5309303,-0.4461892,0.1117762
1.106125,-0.2175066,0.2958535,0.4750668,-0.6503916,0.2571502
1.162898,-0.2508117,0.3052606,0.53671,-0.7705472,0.3305261
1.204526,-0.3262961,0.3171751,0.667415,-0.8249958,0.4197581
1.254728,-0.3646695,0.3102425,0.8654031,-0.9079886,0.5174152
1.355679,-0.4813838,0.2425744,0.9825359,-0.7814594,0.4494629
1.414199,-0.5514539,0.1398846,1.070936,-0.6665478,0.3597886
1.287403,-0.4770068,0.1351253,1.127235,-0.9001119,0.4063947
1.089622,-0.4063523,0.1235758,0.8994939,-1.14219,0.4830939
1.003996,-0.4099547,0.009258485,0.5424634,-1.184845,0.5586855
0.9341775,-0.5126897,-0.04952152,0.4557371,-1.213862,0.4990481
0.8319117,-0.6664326,-0.07177377,0.5908998,-1.430229,0.2097526
0.8368319,-0.7950627,-0.1074123,0.7179124,-1.769753,-0.1418313
0.871865,-0.819692,-0.128058,1.01017,-1.844021,-0.3849695
0.8701459,-0.7621665,-0.1803056,1.478995,-1.662638,-0.409919
0.9177151,-0.6980408,-0.2098189,1.723496,-1.529676,-0.4068432
0.9584464,-0.5877989,-0.2122345,1.816586,-1.476933,-0.4659256
0.9667627,-0.4877974,-0.2207889,1.969067,-1.47358,-0.4256992
0.9697847,-0.4200931,-0.2087236,1.931668,-1.485335,-0.4506604
0.9321829,-0.3300296,-0.2158936,1.802107,-1.509596,-0.4773817
0.8963963,-0.2572169,-0.2171204,1.761066,-1.531322,-0.4118028
0.9008095,-0.2241838,-0.2186405,1.597519,-1.37491,-0.4547985
0.9072923,-0.2376831,-0.2450149,1.458464,-1.047557,-0.4896742
0.8885338,-0.2646706,-0.2315909,1.441628,-0.7473571,-0.5733337
0.8384018,-0.2842638,-0.2049712,1.42416,-0.5506202,-0.7265004
0.7639206,-0.2879942,-0.1782188,1.457546,-0.5483523,-0.7545996
0.7125677,-0.2476061,-0.1619774,1.418718,-0.6820777,-0.7721281
0.72923,-0.2091629,-0.1819727,1.294271,-0.7174747,-0.6714737
0.7810891,-0.1578917,-0.1876681,1.117002,-0.6761079,-0.4154052
0.8515258,-0.09712447,-0.1941569,0.9831844,-0.4782665,-0.241909
0.929546,-0.1169846,-0.1827792,1.070885,-0.01586202,-0.1904034
0.9526178,-0.1448883,-0.1479098,1.070705,0.3603534,-0.2617651
0.9548519,-0.08623405,-0.1485448,0.9201187,0.4477749,-0.3188867
0.9915748,-0.03760078,-0.1182413,0.7681855,0.3807283,-0.3025164
1.026532,-0.04866702,-0.07460266,0.5666965,0.2497463,-0.2954034
1.049819,-0.04472755,-0.0880271,0.5215773,0.115232,-0.2427228
1.085971,-0.03275012,-0.07775358,0.5254183,0.06648266,-0.1888395
1.109353,-0.04375838,-0.04989335,0.4345244,0.04170359,-0.1448225
1.115565,-0.1025112,-0.06510992,0.4509586,-0.1139555,-0.04539164
1.19404,-0.2342472,-0.07970137,0.4994267,-0.1516381,0.04843927
1.297301,-0.320811,-0.1015985,0.4789231,0.01273772,0.07096466
1.318479,-0.2999534,-0.1406955,0.3256325,0.003255147,0.0231164
1.331679,-0.3074389,-0.1339925,0.07296992,-0.2342048,-0.03765023
1.31902,-0.4243646,-0.122139,0.06170836,-0.5487485,-0.04969257
1.25531,-0.5924402,-0.1666924,0.3016897,-0.5800846,0.05744388
1.228442,-0.7240631,-0.2442085,0.510384,-0.1397495,0.1881749
1.186476,-0.7525607,-0.3109547,0.613602,0.3578601,0.1111255
1.120653,-0.7157631,-0.2728017,0.6199138,0.6734594,-0.1083926
1.069548,-0.6886613,-0.1777546,0.553819,0.711321,-0.3232899
1.018863,-0.5959025,-0.1427261,0.4557308,0.5969826,-0.4107152
1.028377,-0.4326314,-0.1080721,0.3510391,0.5901989,-0.2227736
1.05347,-0.3212384,-0.1071978,0.2134164,0.568832,0.02206007
1.034387,-0.2747602,-0.1335324,0.0635715,0.6132833,0.1795842
0.9971471,-0.2778575,-0.07456027,0.05109622,0.7557333,0.2850801
0.8855677,-0.2888971,-0.03169456,0.08466675,0.8121308,0.222728
0.7638475,-0.2899356,-0.02564723,0.0805061,0.8005055,0.1647386
0.7447088,-0.3051083,-0.008857937,0.1790401,0.7882775,0.1788678
0.7543303,-0.2911,-0.009069214,0.2437185,0.9418368,0.1497536
0.7351647,-0.2630386,0.0339796,0.2079815,1.092759,0.16338
0.7108124,-0.2296195,0.09551829,0.1889995,1.007328,0.04114362
0.7069181,-0.2002185,0.1395401,0.09142967,0.8627825,-0.2027278
0.7179773,-0.2041876,0.1562837,-0.1087039,0.6434787,-0.2562979
0.7328879,-0.1938299,0.1409473,-0.2831259,0.3926848,-0.1160925
0.7624329,-0.2063012,0.1438324,-0.3268028,0.3193797,0.1038521
0.7791688,-0.2356576,0.1268222,-0.2931865,0.3697838,0.1831517
0.7965607,-0.2236003,0.156384,-0.2841565,0.4284405,0.04411541
0.8415777,-0.2234541,0.2317339,-0.2626191,0.4870884,-0.1224851
0.8938647,-0.2275071,0.2234593,-0.2582162,0.5789396,-0.1825324
0.9438738,-0.2294226,0.2328791,-0.3162265,0.6281156,-0.1193557
0.9628993,-0.241924,0.2708244,-0.3605469,0.5174576,-0.05357181
0.994329,-0.2317033,0.2826703,-0.318378,0.2805657,0.04857739
1.077292,-0.245781,0.3022195,-0.2616577,0.09474766,0.2133279
1.166664,-0.338128,0.2572465,-0.2864295,0.02883257,0.2637151
1.276744,-0.4461742,0.191157,-0.3117987,-0.0570466,0.2344995
1.30801,-0.4619564,0.1887567,-0.3214731,-0.2737941,0.2199157
1.22157,-0.4644094,0.1889786,-0.3613049,-0.6561847,0.221191
1.200163,-0.5376242,0.158588,-0.4100616,-0.9213992,0.2723492
1.171879,-0.5322336,0.1295235,-0.4777181,-0.7995496,0.3335259
1.042624,-0.5047335,0.07283521,-0.493276,-0.739772,0.3090739
0.9103901,-0.5553609,-0.041339,-0.4478416,-0.9604511,0.2037132
0.8398824,-0.5328334,-0.1026954,-0.4360846,-1.051317,0.04561056
0.9390078,-0.5075685,-0.119885,-0.4397268,-1.006925,-0.1480837
1.032262,-0.530219,-0.1785458,-0.4102904,-0.9656296,-0.2082628
0.9822758,-0.4785486,-0.1771041,-0.3184995,-0.8350154,-0.1662241
0.9867903,-0.4268535,-0.1361526,-0.2072543,-0.6999192,-0.1750553
0.9674329,-0.4000283,-0.1341877,-0.1309787,-0.6674383,-0.1215535
0.9086428,-0.3801802,-0.1058598,-0.05378115,-0.7438603,-0.08478194
0.9027062,-0.3650754,-0.09114487,-0.02426979,-0.851533,-0.1456428
0.8761207,-0.2896519,-0.1153499,-0.08372498,-0.8712212,-0.1666404
0.8801182,-0.2217852,-0.1281966,-0.1856214,-0.7727147,-0.1705611
0.8640902,-0.1987329,-0.1507962,-0.3347152,-0.5584257,-0.1372038
0.8153974,-0.2124116,-0.1613858,-0.4316424,-0.4004527,-0.09173121
0.8020384,-0.2424286,-0.1551396,-0.3710879,-0.397039,-0.129631
0.7626375,-0.2090033,-0.1601963,-0.3300393,-0.3984269,-0.1941965
0.7447181,-0.1542127,-0.1531882,-0.401737,-0.3562492,-0.2583882
0.7434353,-0.06955275,-0.1468043,-0.4522127,-0.2736182,-0.2399616
0.7365226,0.02161873,-0.151986,-0.5294941,-0.2025231,-0.09847005
0.7720218,0.01449307,-0.1781805,-0.6894288,-0.1476114,0.01696999
0.8399022,-0.01890624,-0.2311653,-0.8465652,-0.03699681,0.02116631
0.9931381,-0.09610827,-0.2550648,-0.9415838,0.01592304,-0.01448415
1.176598,-0.2369703,-0.2615085,-0.8661431,0.07689981,0.01000472
1.235203,-0.2848915,-0.2973976,-0.645857,0.3873322,0.02663436
1.167681,-0.2261337,-0.2999745,-0.4539072,0.7261941,0.01096761
1.056209,-0.167853,-0.2081669,-0.44478,0.6176319,0.07529678
0.9754272,-0.1643161,-0.1189059,-0.5859411,0.07615294,0.1681577
1.010375,-0.2054175,-0.1555428,-0.5832985,-0.3514175,0.230479
1.199374,-0.2900403,-0.2604045,-0.445734,-0.2395472,0.2522687
1.403352,-0.3635753,-0.3369192,-0.3146408,0.1008969,0.230218
1.440683,-0.3445093,-0.3713855,-0.2640999,0.1464307,0.22309
1.312908,-0.3556407,-0.3622142,-0.494437,0.04753338,0.1990846
1.167091,-0.4786558,-0.3556921,-0.662228,-0.00487781,0.1716944
1.090731,-0.6360135,-0.3520706,-0.4284499,0.06196126,0.1520543
1.06202,-0.7623306,-0.3174925,-0.08140298,0.504188,0.07410857
1.082631,-0.7635979,-0.2965721,0.1870703,1.066894,-0.02683629
1.078945,-0.6522656,-0.2489854,0.2962667,1.370433,-0.171524
1.006343,-0.4830827,-0.1489973,0.2444207,1.375396,-0.3159373
0.9519131,-0.2795768,-0.08179671,0.08646556,1.18148,-0.3073556
0.9390666,-0.1581291,-0.07066469,-0.2186209,0.9132588,-0.1335134
1.011437,-0.1213118,-0.1083931,-0.5602039,0.7155175,0.1788655
1.08245,-0.1149705,-0.1523781,-0.8033091,0.8952856,0.4620278
1.016921,-0.1842263,-0.1545971,-0.9507517,1.253111,0.4978207
0.9139529,-0.3063651,-0.09790607,-0.9757664,1.487812,0.3941825
0.8185594,-0.3997862,-0.0105968,-0.7500612,1.558179,0.3140075
0.7770417,-0.4115689,-0.001527485,-0.3354248,1.323944,0.212646
0.7882454,-0.3817667,-0.01568494,-0.02890182,1.183357,0.09663314
0.7383156,-0.3640795,0.0197956,0.02918537,1.200865,0.0444433
0.7156667,-0.3145416,0.01639652,-0.05471515,1.165985,0.04254104
0.6929365,-0.2181974,0.03329949,-0.1455341,1.187871,0.1009765
0.6013269,-0.1214247,0.1169319,-0.3000041,0.9050969,0.182635
0.6261297,-0.1220308,0.1559836,-0.5103588,0.4853149,0.1730537
0.7299576,-0.2269882,0.1417791,-0.5722552,0.3582266,0.1517634
0.7907816,-0.2977531,0.1451287,-0.4510497,0.3536738,0.163216
0.8479424,-0.3256699,0.1783337,-0.2715082,0.3490864,0.09017759
0.8510189,-0.3172252,0.2005186,-0.1619419,0.2843739,-0.009470664
0.872542,-0.2641473,0.2195321,-0.1302941,0.2783984,-0.03542272
0.9794216,-0.2368033,0.2526955,-0.1286118,0.2864293,-0.01275638
1.047836,-0.2006336,0.2516074,-0.1442508,0.2322317,0.04281351
1.066059,-0.1879876,0.2366373,-0.09422631,0.1224476,0.1055193
1.005309,-0.2047223,0.2443694,-0.07404178,-0.3168049,0.1473073
0.9455078,-0.2040167,0.2323571,-0.1770234,-0.7108399,0.2569111
1.094791,-0.3458412,0.1856396,-0.2039279,-0.5864771,0.4424804
1.305575,-0.583332,0.1167664,-0.02758952,-0.2568177,0.4366137
1.338434,-0.6604299,0.06983776,0.1425273,-0.187831,0.2017842
1.173309,-0.5199911,0.08165545,-0.05664353,-0.6818615,0.06676471
0.9679728,-0.3405978,0.07050777,-0.46566,-1.235018,0.1248083
0.913685,-0.3199718,-0.009005468,-0.706974,-1.096292,0.1935125
0.9422365,-0.4034084,-0.08647255,-0.7884869,-0.8400412,0.1526234
0.9809946,-0.534129,-0.1223958,-0.6497454,-0.9314283,0.04357533
1.064388,-0.6551186,-0.1269518,-0.4121359,-0.7256124,-0.1355171
1.078707,-0.6500137,-0.1333083,-0.19888,-0.5368532,-0.3318197
0.9909071,-0.5872393,-0.1266585,0.09431803,-0.7227714,-0.3290924
0.9146324,-0.5026338,-0.09469207,0.2078371,-0.767021,-0.2669261
0.8970635,-0.4160067,-0.1070263,0.2028692,-0.920513,-0.2615135
0.9412579,-0.3585867,-0.1397449,0.2613433,-1.021168,-0.190795
0.9953213,-0.3014962,-0.1621824,0.1991939,-0.7977272,-0.198773
1.008174,-0.288932,-0.1893483,0.162374,-0.6921543,-0.2526766
0.9987326,-0.2975753,-0.1759511,0.1648493,-0.5126866,-0.2809997
0.9467438,-0.3026526,-0.1578447,0.1353709,-0.3487859,-0.3604843
0.844576,-0.309491,-0.133268,0.2025777,-0.3638394,-0.3949355
0.7443873,-0.2841266,-0.08513489,0.2493527,-0.3547421,-0.44442
0.6878158,-0.2497996,-0.09082754,0.2849043,-0.4323646,-0.4892167
0.6878276,-0.2025127,-0.1083988,0.3610449,-0.4336253,-0.4076153
0.7011151,-0.1382039,-0.1282541,0.3659774,-0.316087,-0.2995689
0.706081,-0.0829731,-0.1868143,0.2777807,-0.1874723,-0.1702613
0.729417,-0.06557886,-0.2052146,0.1406949,-0.03962857,-0.06118091
0.7946022,-0.08792785,-0.1903006,0.06909855,0.1326048,-0.07272265
0.9076493,-0.1065126,-0.1954305,0.05474589,0.3467144,-0.1080265
0.999472,-0.1406444,-0.1909029,0.03681861,0.3365764,-0.1094242
1.038279,-0.163904,-0.1618879,0.03173023,0.1904596,-0.1047524
1.082701,-0.1284493,-0.1382046,-0.0009031837,0.1097875,-0.08884965
1.144041,-0.08696816,-0.1304462,-0.06704264,0.0765787,-0.06917748
1.186567,-0.06827464,-0.1205902,-0.1418522,0.1032102,-0.02471544
1.179226,-0.1011424,-0.1052359,-0.1356748,-0.06197638,0.08155629
1.167133,-0.2017855,-0.09853411,-0.005388109,-0.2220745,0.2279137
1.207791,-0.3145296,-0.1284854,0.1212511,-0.1863867,0.3438078
1.250012,-0.3807264,-0.178384,0.1554904,-0.1923751,0.3756239
1.263301,-0.3985872,-0.1884923,0.130421,-0.19226,0.3655257
1.240727,-0.4380114,-0.1619041,0.1827035,-0.2684276,0.3442959
1.195023,-0.4777274,-0.1482103,0.2693889,-0.3244718,0.2885249
1.177435,-0.4560848,-0.1800143,0.2199853,-0.1465067,0.2384499
1.125293,-0.4384433,-0.2334897,0.09254048,0.1738846,0.1898986
1.049247,-0.453363,-0.2594963,-0.03629847,0.5387487,0.09183946
1.029921,-0.5318407,-0.2544547,-0.05827628,0.7112112,-0.05098334
1.002587,-0.6748056,-0.2329057,0.07560739,0.714812,-0.2171037
0.9611838,-0.6974971,-0.1848536,0.2322193,0.6658698,-0.3442763
0.9214769,-0.5958643,-0.1025545,0.4025292,0.454773,-0.3699854
0.8923208,-0.5071493,-0.06355401,0.4595922,0.1625198,-0.2652188
0.9461646,-0.4101039,-0.114283,0.3765831,0.02478712,-0.07558708
1.016134,-0.3616502,-0.1639295,0.4076815,0.1664376,0.0711945
1.030573,-0.399792,-0.1777476,0.5009127,0.3615731,0.1178274
1.006865,-0.4364512,-0.1548234,0.6834325,0.5299473,0.06459274
0.9520242,-0.4683951,-0.09040874,1.066307,0.6357627,-0.02752749
0.907048,-0.4576142,-0.05347718,1.401713,0.5566024,-0.08611906
0.8767445,-0.3422141,-0.03737541,1.549639,0.6619079,-0.1168525
0.855666,-0.1451648,-0.0280403,1.496154,0.8433599,-0.06008954
0.8156656,0.02910556,-0.02926813,1.31693,0.7898828,0.07987595
0.7393962,0.02972539,0.03498154,1.096261,0.6993448,0.1889302
0.7305757,-0.04251953,0.1184023,0.7670568,0.4389524,0.2226726
0.7640691,-0.0613817,0.1377038,0.5137296,0.155482,0.2075696
0.7623775,-0.1456937,0.1481492,0.4696282,0.1395639,0.227196
0.7820564,-0.2455831,0.1891674,0.569526,0.1541848,0.2134783
0.8075046,-0.2957499,0.2238854,0.685604,0.1008205,0.116891
0.8131099,-0.3071096,0.2150313,0.5819845,0.02176259,0.07006385
0.8161295,-0.2242748,0.2033879,0.4696988,0.02448098,0.04864626
0.8235833,-0.2010025,0.2274469,0.5061371,0.1137585,0.04398709
0.852872,-0.2270521,0.269376,0.5034809,0.1343554,0.05204481
0.8874378,-0.1912411,0.3342683,0.5502655,0.07768974,0.009547074
0.9397777,-0.1955607,0.3683345,0.5748496,-0.0212071,-0.007662565
0.9994192,-0.1667852,0.3387733,0.5176552,-0.07418072,-0.002369549
1.032587,-0.1173002,0.333745,0.4886362,-0.2046371,0.09361219
1.077926,-0.1247161,0.3447366,0.3433585,-0.4427026,0.342861
1.156205,-0.2009717,0.3129108,0.1732303,-0.5260336,0.5510282
1.251064,-0.4309353,0.2632246,0.1743771,-0.4933707,0.5636347
1.327458,-0.6139963,0.1852713,0.2023453,-0.2249802,0.3933239
1.314123,-0.6297439,0.0866995,0.09365078,0.06172598,0.2407291
1.099116,-0.5999932,0.0274676,-0.03699364,-0.4652657,0.2141338
0.7909291,-0.5927456,0.0180044,-0.01525665,-1.354009,0.2304609
0.7518574,-0.6755125,-0.01682229,0.102845,-1.590184,0.1956888
0.9248806,-0.7400681,-0.1399669,0.2794873,-1.408564,-0.009153161
1.001964,-0.7156083,-0.2287284,0.4692079,-1.154839,-0.283738
1.014222,-0.634394,-0.2169726,0.6128489,-0.8514872,-0.4369066
0.9789892,-0.494373,-0.1863355,0.7179046,-0.8394927,-0.4194589
0.9003858,-0.3757776,-0.1394945,0.6866561,-1.078538,-0.2870038
0.8963419,-0.3030257,-0.1374161,0.6051904,-1.145502,-0.1462334
0.9199542,-0.28646,-0.1680679,0.5188893,-0.998312,-0.04208806
0.9351207,-0.2863183,-0.1491004,0.3349804,-0.7857372,-0.05084616
0.9475714,-0.2578186,-0.1512275,0.1905912,-0.6137534,-0.1090376
0.9253364,-0.264423,-0.151271,0.08110783,-0.5451858,-0.1586609
0.8985859,-0.2733556,-0.1433049,-0.01367399,-0.496517,-0.2632893
0.8603463,-0.2827797,-0.1616634,-0.01949558,-0.3975308,-0.2944724
0.8412033,-0.3102759,-0.1359155,-0.01992518,-0.2930338,-0.2913722
0.8558924,-0.3066527,-0.1025142,0.03080173,-0.236037,-0.3288388
0.8357972,-0.2785928,-0.08661206,0.09384654,-0.2219933,-0.3123295
0.8105607,-0.2220793,-0.09090819,0.01438246,-0.2659829,-0.2690285
0.7982664,-0.1874085,-0.1232013,-0.1129215,-0.4195434,-0.1555323
0.818603,-0.2060295,-0.1358065,-0.193895,-0.5241755,-0.03008016
0.9090867,-0.2273168,-0.1712918,-0.2042805,-0.4021213,-0.01676186
0.9759477,-0.2584232,-0.1986875,-0.1021104,-0.1194399,-0.0369163
0.9710149,-0.2663811,-0.1806429,0.09745863,0.2408842,-0.05937229
0.952482,-0.2189761,-0.1666786,0.2346685,0.4388513,-0.06615924
0.9478635,-0.1564808,-0.1205862,0.07269346,0.3055338,-0.01105557
0.9403461,-0.1080207,-0.0959304,-0.1806698,0.1654209,0.07845879
0.9501587,-0.1048647,-0.1281867,-0.1924215,0.1470939,0.1424806
1.000392,-0.124502,-0.1445327,-0.1711965,0.1095835,0.1897542
1.032301,-0.1285381,-0.1606187,-0.2106873,0.1020335,0.2318729
1.054405,-0.1531076,-0.1582667,-0.1926876,-0.005908019,0.2125561
1.086984,-0.2234664,-0.1484677,-0.2167554,-0.232473,0.2228283
1.127979,-0.3162885,-0.1919,-0.2178056,-0.2922302,0.2636923
1.26149,-0.359591,-0.2233399,-0.2032943,-0.1441975,0.1904441
1.42427,-0.3154962,-0.2101165,-0.3156042,0.06516065,0.05951493
1.504542,-0.2897662,-0.2095436,-0.4490324,0.1047883,-0.02581555
1.538259,-0.3434176,-0.2449696,-0.5406851,0.03453801,0.08147516
1.509668,-0.420176,-0.2912202,-0.5651236,0.1078137,0.3645593
1.344533,-0.542279,-0.3084941,-0.5196229,0.2176592,0.5052255
1.07245,-0.6866612,-0.2901446,-0.4413222,0.3563218,0.419577
0.9084925,-0.7172958,-0.2597339,-0.2811386,0.4722911,0.1999583
0.9437204,-0.6662127,-0.2283466,-0.1068887,0.5507919,-0.1049157
0.9992306,-0.6182819,-0.1795807,0.01312644,0.8776427,-0.368779
1.015781,-0.5031119,-0.130723,0.03663,1.278396,-0.4558209
0.9877085,-0.3322313,-0.1136384,-0.05768656,1.415859,-0.4013562
0.9190014,-0.1951903,-0.1068503,-0.2304627,1.170971,-0.3053835
0.9271757,-0.1166442,-0.09855079,-0.5608724,0.8288717,-0.04612745
0.9376192,-0.1464571,-0.09399164,-0.8784312,0.8882507,0.2881265
0.8740873,-0.2453105,-0.09327217,-0.9173505,1.137687,0.3608917
0.8083417,-0.3313725,-0.07955852,-0.7794755,1.355712,0.2082107
0.7167761,-0.4209345,-0.01759983,-0.5276428,1.500705,0.02383478
0.6463785,-0.4563463,0.05378207,-0.2066748,1.465272,-0.09968815
0.638094,-0.4048234,0.05977958,-0.02146705,1.52192,-0.1238353
0.5963675,-0.30156,0.01357248,-0.01594465,1.501443,-0.08322873
0.5399168,-0.1744411,0.005727107,-0.1182087,1.184472,-0.04598536
0.5736322,-0.129134,0.0789522,-0.3251449,0.8395628,0.01471393
0.6891539,-0.1478217,0.1530257,-0.5839094,0.5461871,0.203591
0.7850014,-0.1846964,0.1570421,-0.7118504,0.463264,0.350875
0.8308077,-0.2849089,0.1544647,-0.6161706,0.5201044,0.3211441
0.8729687,-0.3377798,0.200711,-0.4365032,0.4898523,0.2471768
0.9637402,-0.3185922,0.2651908,-0.2777709,0.4407069,0.1082295
1.060379,-0.3377849,0.3385848,-0.1247483,0.3696839,-0.06006111
1.050426,-0.3421976,0.3530804,-0.04570109,0.3870055,-0.07603776
1.049022,-0.2923734,0.3275258,-0.04140109,0.4660116,0.002863948
1.15964,-0.2435225,0.3826017,-0.05133297,0.4667654,0.0167338
1.215379,-0.2092696,0.3825464,-0.1868417,0.2847379,0.05906166
1.175593,-0.2310553,0.3100612,-0.4122594,-0.2966118,0.2469233
1.172111,-0.3656699,0.2607844,-0.4882102,-0.8179829,0.395047
1.226027,-0.5694991,0.1435397,-0.4052653,-0.7867497,0.3181766
1.230609,-0.6687167,0.08155297,-0.3911363,-0.6805253,0.09098625
1.089171,-0.5540792,0.06016236,-0.5476898,-0.9210416,-0.07691067
0.8744084,-0.4147307,-0.03301688,-0.7510176,-1.218305,-0.06499387
0.8177522,-0.3913128,-0.0547308,-0.8576524,-1.303216,0.04217704
0.9673596,-0.41491,-0.1017531,-0.7590922,-1.191731,0.07636239
1.119695,-0.4918359,-0.1743667,-0.5697756,-0.8584576,0.01387039
1.175729,-0.5357721,-0.1516341,-0.4110115,-0.5045201,-0.0729201
1.115853,-0.485169,-0.1357932,-0.1917392,-0.4095649,-0.1984292
0.9850724,-0.4315362,-0.08704025,-0.1244697,-0.6514786,-0.2626115
0.9160904,-0.3590452,-0.04645807,-0.2161346,-0.9656578,-0.2306997
0.8970421,-0.2966878,-0.07951624,-0.2135622,-0.9244662,-0.2329049
0.9189608,-0.2639857,-0.08981234,-0.2878796,-0.7865161,-0.2082922
0.9563564,-0.2282285,-0.1202694,-0.3804985,-0.6166292,-0.1818306
0.9318346,-0.2220535,-0.1555917,-0.4050763,-0.2077489,-0.218727
0.8827156,-0.2156032,-0.1437679,-0.5101164,-0.05654946,-0.2538937
0.7647026,-0.2175363,-0.1376291,-0.5544901,-0.2449305,-0.2924234
0.634988,-0.2282931,-0.1239544,-0.5599664,-0.4621472,-0.2661719
0.6166641,-0.2169031,-0.08915381,-0.5830591,-0.6434065,-0.1438704
0.6067142,-0.2023693,-0.07702033,-0.5420458,-0.6747094,0.03482856
0.6378631,-0.164212,-0.1134464,-0.508567,-0.5125621,0.210113
0.7758321,-0.1384112,-0.1622014,-0.4681195,-0.1688359,0.2529405
0.8892315,-0.1413268,-0.1902659,-0.467748,0.1732289,0.1813609
0.9165103,-0.1464388,-0.2022647,-0.5160851,0.3004389,0.07267359
0.9310218,-0.16337,-0.1999588,-0.5167547,0.2502648,0.01857927
1.003411,-0.1486307,-0.1870287,-0.564174,0.1269036,0.1143108
1.079537,-0.1304023,-0.1558912,-0.6168023,-0.03700294,0.2341141
1.141935,-0.1505914,-0.1451631,-0.6046882,-0.1077698,0.2556351
1.208864,-0.1804571,-0.1937275,-0.6238405,-0.01220457,0.2727313
1.25608,-0.2486224,-0.2524458,-0.6485961,0.00228899,0.3506995
1.352952,-0.338591,-0.2847276,-0.6563948,0.01879078,0.3961485
1.497441,-0.4098979,-0.2955907,-0.668014,0.1231991,0.3089413
1.599366,-0.4759693,-0.2931126,-0.6935533,0.1147155,0.08852721
1.531487,-0.519619,-0.2863545,-0.7122795,0.1163651,-0.08673228
1.256175,-0.5540396,-0.285467,-0.556909,0.1250641,-0.02496686
1.016145,-0.5976606,-0.2848456,-0.2499854,0.2944033,0.1340887
0.9888457,-0.5877291,-0.2760103,-0.07032562,0.8073952,0.171719
1.062266,-0.5208278,-0.2592302,-0.1066933,1.29898,0.02349239
1.010832,-0.4725023,-0.2154495,-0.3062653,1.498285,-0.2508814
0.9297183,-0.4465866,-0.1767034,-0.5630706,1.276148,-0.3569551
0.9466157,-0.4052261,-0.1422307,-0.6454042,0.9045601,-0.2271772
0.8730506,-0.3464435,-0.05869381,-0.5733621,0.6546718,-0.0611099
0.865103,-0.3221684,-0.02411739,-0.5210572,0.5000742,0.1652401
0.9261381,-0.3379761,-0.07138149,-0.4350392,0.7579417,0.2960849
0.8610121,-0.2959349,-0.08498494,-0.4000248,1.130221,0.1893917
0.873793,-0.2560399,-0.07640679,-0.4842709,1.207378,0.1233285
0.8522511,-0.308533,-0.05638119,-0.4784469,1.267256,0.07544423
0.7781512,-0.3514621,-0.008085527,-0.3811307,1.3005,-0.03304927
0.8086805,-0.3593391,0.003278806,-0.2473212,1.324382,-0.002455505
0.7594992,-0.3211148,0.0259899,-0.1585796,1.263527,0.03865204
0.704552,-0.2473086,0.09662466,-0.2984856,0.9500419,0.02048946
0.7184451,-0.2337141,0.1095085,-0.4785548,0.660995,0.05266132
0.7274576,-0.2130131,0.09362523,-0.5546838,0.5459079,0.0616755
0.7527046,-0.182599,0.1146443,-0.599097,0.6166058,0.1215873
0.7623717,-0.2196193,0.1282668,-0.5336818,0.6393914,0.2004089
0.7727237,-0.262147,0.1571832,-0.4064281,0.4681376,0.123279
0.7995071,-0.2910119,0.2083389,-0.2781127,0.3947456,-0.01345267
0.8767109,-0.2916576,0.239618,-0.1781612,0.3639957,-0.09540001
0.9562353,-0.2648315,0.2598836,-0.219432,0.3286035,-0.07244721
0.9580885,-0.2611672,0.2637379,-0.2532653,0.3046024,0.01487506
0.9878021,-0.2440217,0.2656019,-0.1744229,0.2008555,0.07744335
1.063427,-0.2234857,0.2738819,-0.1692284,0.137316,0.1555749
1.138305,-0.2484149,0.2456341,-0.2564464,-0.03177021,0.2553281
1.225781,-0.3431723,0.1894168,-0.3023443,-0.2962461,0.4313348
1.300077,-0.5277495,0.1315978,-0.2446654,-0.4834982,0.5650963
1.301676,-0.6384467,0.09731435,-0.1616132,-0.6859606,0.3673816
1.225776,-0.5805609,0.09727217,-0.2124702,-0.7559599,0.1428231
1.117016,-0.5137733,0.05276225,-0.3410485,-0.755488,0.2008216
0.961729,-0.4615272,-0.04413951,-0.4732921,-0.8871897,0.2513491
0.8934159,-0.4264867,-0.0909103,-0.5820155,-0.9651664,0.2192717
0.965493,-0.4910693,-0.09599414,-0.5603909,-0.9632976,0.1528422
0.9867053,-0.5358987,-0.1192231,-0.5068325,-0.9505748,-0.02908989
1.004901,-0.5104644,-0.129452,-0.4097695,-0.8733786,-0.1442055
1.018837,-0.4888039,-0.1241279,-0.2376654,-0.7885126,-0.1340457
0.9415789,-0.4235076,-0.1297665,-0.1960916,-0.7519226,-0.1398264
0.9085198,-0.3519399,-0.1207158,-0.1842392,-0.7744146,-0.1381173
0.8944841,-0.335937,-0.1063309,-0.1273262,-0.8187589,-0.140965
0.8604713,-0.3068228,-0.1026247,-0.1266182,-0.8121201,-0.1832799
0.857013,-0.2746691,-0.1004435,-0.1242254,-0.7739211,-0.2283421
0.8477629,-0.2779068,-0.1223491,-0.1452187,-0.6500484,-0.2691821
0.8461175,-0.2626237,-0.1535375,-0.1885125,-0.4237334,-0.3127802
0.8152784,-0.2353963,-0.1576917,-0.2237724,-0.3048539,-0.3455561
0.7652259,-0.2379522,-0.1338116,-0.2627682,-0.3398942,-0.3016062
0.7663176,-0.2327358,-0.1130231,-0.2884319,-0.390459,-0.2004426
0.7813233,-0.2167495,-0.1357433,-0.3164013,-0.3953321,-0.1057159
0.7964938,-0.2014046,-0.1684353,-0.3015078,-0.3186224,-0.02064265
0.8138866,-0.1778307,-0.1808628,-0.294629,-0.1698338,-0.01632796
0.8456438,-0.1911455,-0.1933377,-0.3556711,-0.04619981,-0.04366568
0.8866623,-0.2089348,-0.1980339,-0.3785851,0.01505545,-0.01266978
0.9139808,-0.1939973,-0.2021607,-0.3319061,0.09266429,0.02064757
0.9774468,-0.1937757,-0.2132221,-0.273948,0.1658243,0.08355238
1.063748,-0.1865671,-0.2176925,-0.2815486,0.1736002,0.1290354
1.11244,-0.1619731,-0.2162492,-0.3231258,0.1678387,0.08988714
1.118471,-0.1362843,-0.2036476,-0.3510843,0.149428,0.06603873
1.107253,-0.1252302,-0.1829938,-0.4291335,0.04729841,0.0507201
1.117057,-0.1936526,-0.179366,-0.4700303,-0.1349998,0.05543318
1.178782,-0.3012506,-0.2311222,-0.4273314,-0.1837619,0.1385584
1.303946,-0.3442624,-0.3117093,-0.4112085,0.007957891,0.1610742
1.410428,-0.3378824,-0.3184334,-0.4468304,0.1364528,0.003979241
1.426489,-0.3650118,-0.2519022,-0.5428815,0.01151964,-0.1584802
1.410422,-0.4368959,-0.2182854,-0.5925153,-0.2055017,-0.04289666
1.345851,-0.4974597,-0.2722828,-0.3863044,-0.2567874,0.2504672
1.172905,-0.5278457,-0.3626402,-0.06506597,0.1272112,0.4042199
1.031985,-0.5255086,-0.3868589,0.01213442,0.7896577,0.324509
1.022322,-0.5278052,-0.3239639,-0.05383578,1.105444,0.04690808
1.01696,-0.5547842,-0.2402635,-0.0509541,1.037889,-0.2754004
1.00336,-0.5213051,-0.1870534,-0.1239078,1.049453,-0.4822604
1.030659,-0.4385525,-0.1545744,-0.2024084,1.094995,-0.465994
1.008262,-0.3677579,-0.1270967,-0.2092156,1.08161,-0.2726561
0.9662257,-0.311402,-0.1302171,-0.2729299,1.07123,-0.09068578
0.9596268,-0.2797064,-0.1312133,-0.3084919,1.022342,0.1301434
0.9241561,-0.2554826,-0.09986666,-0.3320645,1.076514,0.2398134
0.8682895,-0.2747558,-0.07298816,-0.3840619,1.147856,0.1491009
0.8076609,-0.3160781,-0.03879016,-0.39721,1.0853,0.1164281
0.7645902,-0.3120093,-0.01902493,-0.4056724,1.008289,0.03484123
0.7615434,-0.3112919,-0.03560113,-0.3782218,0.9519617,0.001534536
0.7392105,-0.2883732,-0.03395602,-0.3587915,1.05256,0.07376884
0.6992549,-0.2464676,-0.01376599,-0.3762016,1.194397,0.01128413
0.6594741,-0.2330947,0.04095863,-0.382884,1.029222,0.02743589
0.6426306,-0.2152821,0.1169859,-0.4634959,0.6770756,0.1039071
0.678736,-0.2214041,0.112583,-0.5852686,0.3554685,0.141263
0.7066109,-0.2389995,0.08335915,-0.6336488,0.2725946,0.1835258
0.7407717,-0.2787662,0.1090778,-0.5923488,0.459058,0.09303633
0.7935917,-0.3543947,0.1219923,-0.4944151,0.5127325,0.03506693
0.7941556,-0.3545567,0.1477566,-0.3624653,0.4478443,0.01128295
0.799269,-0.3130042,0.2035344,-0.2462611,0.4163215,-0.1055248
0.8601637,-0.2878125,0.2119641,-0.2113229,0.2217915,-0.1831687
0.9310695,-0.2357895,0.2160303,-0.1468897,0.01777264,-0.2107087
1.022553,-0.201572,0.2193554,-0.09831323,-0.03493865,-0.1654935
1.108937,-0.1875508,0.1958061,-0.1877232,-0.02969397,-0.06994724
1.119472,-0.1582768,0.2100193,-0.2448368,0.004846923,0.03416172
1.106657,-0.1549294,0.2192636,-0.2726789,-0.03045238,0.1506413
1.11861,-0.171071,0.2116884,-0.3061571,-0.178847,0.1753716
1.137527,-0.191127,0.2281531,-0.3000566,-0.4102087,0.2026934
1.218579,-0.2871527,0.205923,-0.3029885,-0.5436293,0.3454031
1.435033,-0.5388782,0.1278229,-0.1415531,-0.4616258,0.4004278
1.660756,-0.7985666,0.03704473,0.08772688,-0.3208904,0.2107465
1.568463,-0.7139464,0.01275088,0.04642713,-0.1838545,-0.007420166
1.177733,-0.4146836,0.02670296,-0.2135058,-0.3039582,0.01528697
0.7802279,-0.2943148,-0.03425531,-0.5132082,-0.7589636,0.1638656
0.5461728,-0.2857831,-0.06255088,-0.6087103,-1.241443,0.2631835
0.6719213,-0.3988607,-0.03489395,-0.421429,-1.61436,0.2940148
0.8951695,-0.6225978,-0.0889673,-0.1276198,-1.487232,0.1370526
1.014109,-0.7324051,-0.1695402,0.2784122,-0.882234,-0.1975114
1.207652,-0.7618119,-0.2062251,0.6055973,-0.5067773,-0.4589551
1.089918,-0.6393469,-0.1864586,0.6480128,-0.6452148,-0.4673021
0.8564302,-0.4376761,-0.1350482,0.6424474,-1.059753,-0.2977463
0.9225998,-0.3382931,-0.1288451,0.5447273,-1.214522,-0.1632023
0.8847269,-0.2586442,-0.1540642,0.300214,-1.091624,-0.07871465
0.8896282,-0.2869043,-0.1948477,0.2288891,-0.9645344,-0.06654924
0.9375224,-0.3306683,-0.2101798,0.2322623,-0.760694,-0.1802963
0.8509018,-0.3216297,-0.1900501,0.1860213,-0.6673721,-0.2489475
0.8672958,-0.3692955,-0.2122513,0.2211542,-0.5952243,-0.2749086
0.7889909,-0.3526973,-0.2222555,0.2653315,-0.4354943,-0.2870462
0.7468565,-0.3332534,-0.2020736,0.3667296,-0.3426428,-0.2184933
0.8066762,-0.3121848,-0.1946888,0.4882531,-0.2362361,-0.1495887
0.7519087,-0.2637447,-0.1689012,0.4884315,-0.2498661,-0.08689521
0.7825386,-0.2746142,-0.1524056,0.5124491,-0.2690675,-0.08061608
0.7933359,-0.2431215,-0.1564026,0.5552105,-0.1910217,-0.1264182
0.7838586,-0.2170272,-0.1673991,0.5129746,-0.1362056,-0.1575065
0.7765848,-0.2333718,-0.2737153,0.7043245,-0.4321377,-0.04582397
0.8015723,-0.2127999,-0.2823318,0.7334006,-0.1841636,-0.04899635
0.8164868,-0.1729628,-0.2610554,0.6788321,-0.0531679,-0.05763627
0.8664115,-0.1602513,-0.2404178,0.5495995,-0.1351747,-0.08494241
0.895208,-0.1592397,-0.2211344,0.4894015,-0.1929519,-0.1126993
0.9372572,-0.1305798,-0.2327016,0.4449298,-0.2143966,-0.07114586
0.9937951,-0.1338744,-0.241396,0.4477108,-0.2418031,-0.01390376
1.04728,-0.1760151,-0.2449739,0.4231889,-0.209009,0.05642149
1.166119,-0.2602901,-0.2691928,0.4141476,-0.2583175,0.1040586
1.245938,-0.3460565,-0.3029199,0.4571683,-0.2508621,0.09527624
1.315691,-0.4038574,-0.3442935,0.4181667,-0.06988862,0.0728449
1.398445,-0.4507583,-0.3692486,0.3309972,0.02895636,-0.02336544
1.307579,-0.4845813,-0.3606335,0.2405324,-0.07844441,-0.1057748
1.142458,-0.5879082,-0.3551195,0.3351935,-0.2105709,-0.106412
1.068261,-0.7043207,-0.3648795,0.6151056,-0.02642655,-0.1590984
1.077697,-0.6627389,-0.353496,0.7766207,0.5127858,-0.2411562
1.098946,-0.6008411,-0.3236284,0.8072717,1.139471,-0.3438466
1.060187,-0.6110234,-0.2822725,0.6413866,1.37716,-0.537491
1.008097,-0.5322315,-0.197765,0.3819964,1.032128,-0.6669264
0.9582096,-0.4528067,-0.09562782,0.3189553,0.719883,-0.5738893
0.9421035,-0.4274241,-0.04942195,0.3193869,0.5231904,-0.3865233
1.02093,-0.338117,-0.09392206,0.3237659,0.4265378,-0.2114678
1.09219,-0.290114,-0.1574963,0.3271037,0.8687955,-0.06456029
1.074128,-0.295835,-0.1619402,0.2527878,1.19226,-0.03609573
0.9964775,-0.3244647,-0.1173341,0.2289199,1.065285,-0.01594873
0.8872653,-0.3923424,-0.04493187,0.3352657,0.9470789,0.01925375
0.7985266,-0.3730898,-0.02287568,0.4960854,0.8265783,-0.03025448
0.7419386,-0.3035374,-0.02714515,0.5245009,0.8253943,-0.009159119
0.6762505,-0.2174765,0.02313358,0.4434071,0.8190604,0.02855826
0.6324075,-0.1225411,0.02895902,0.3188013,0.6705319,0.03541014
0.6343571,-0.1262164,0.05168434,0.07109774,0.548389,0.09440248
0.6545943,-0.1784452,0.1407967,0.004576196,0.3922441,0.09961239
0.7272084,-0.271569,0.1418551,0.1729238,0.220461,0.1459381
0.8119108,-0.353841,0.127786,0.2367458,0.06272986,0.181404
0.8038094,-0.3208891,0.1416762,0.3303123,0.09358651,0.01377676
0.8165074,-0.3009711,0.1328772,0.5303232,0.1914865,-0.2010666
0.9572463,-0.3095385,0.2049273,0.6285964,0.09082089,-0.3070805
1.079448,-0.2710835,0.2827999,0.6547571,0.04017052,-0.3070302
1.088343,-0.2725946,0.2392904,0.6637709,-0.1611256,-0.2942048
1.082418,-0.3184299,0.175489,0.6122005,-0.6395529,-0.13172
1.167893,-0.3588981,0.1308111,0.5704878,-1.166061,0.2928089
1.288882,-0.4368192,0.05755644,0.5625787,-1.463086,0.5089968
1.28959,-0.5239308,0.003650493,0.4346399,-0.9063076,0.2667118
1.103921,-0.5678438,-0.03499832,0.2496286,-0.3548405,0.04524785
0.868096,-0.5732959,-0.07073226,0.2093021,-0.9034111,0.1328319
0.8249281,-0.5566558,-0.07766424,0.2254957,-1.418944,0.1389325
0.9010325,-0.585146,-0.1469469,0.2359952,-1.384613,-0.0148752
0.9500748,-0.5967643,-0.2255032,0.3047795,-1.43182,-0.07876073
1.074968,-0.5437918,-0.2349724,0.3462354,-1.248482,-0.2192288
1.109976,-0.5182563,-0.2581032,0.361751,-0.9217496,-0.3244667
0.989482,-0.4562034,-0.222289,0.3962695,-0.9741771,-0.2877779
0.9432715,-0.3828688,-0.1697368,0.3412391,-1.122251,-0.2892576
0.9042277,-0.3734368,-0.1905833,0.2916659,-1.237851,-0.1792215
0.888048,-0.3527231,-0.2010822,0.3627645,-1.317329,-0.05946281
0.917252,-0.3387426,-0.240258,0.4084718,-1.09587,-0.07136353
0.8513323,-0.3196158,-0.2546508,0.408489,-0.7497056,-0.1183941
0.7846498,-0.2921072,-0.2041771,0.4117186,-0.590115,-0.1919295
0.7232857,-0.2853045,-0.178432,0.437368,-0.6184468,-0.1759098
0.6754898,-0.2694131,-0.1632161,0.5247173,-0.6559873,-0.1456273
0.7065636,-0.2625262,-0.1895777,0.6134429,-0.5763655,-0.1473245
0.7061063,-0.2263329,-0.212872,0.692127,-0.4167501,-0.08208988
0.710779,-0.1743655,-0.1932618,0.7171494,-0.187475,-0.0162731
0.7323566,-0.1310288,-0.1985046,0.579055,-0.09748803,0.037374
0.742283,-0.07027482,-0.2009426,0.3371285,-0.2326669,-0.02263392
0.82966,-0.09687353,-0.2181931,0.1960251,-0.260296,-0.1395076
0.9534373,-0.1516662,-0.2486622,0.2208266,-0.2233507,-0.1106574
1.077529,-0.1131227,-0.2560142,0.1785131,-0.2003715,-0.02320845
1.196028,-0.1128505,-0.2851033,0.04112083,-0.02275287,0.1046551
1.254637,-0.1923691,-0.3147199,0.01048191,0.05301401,0.1938921
1.267535,-0.2962842,-0.3143108,0.03039872,-0.1284563,0.09763861
1.31771,-0.4357495,-0.3425888,0.1029819,-0.2123122,0.02072259
1.399478,-0.5240916,-0.4284743,0.1995056,0.1034485,0.0479121
1.376203,-0.5399314,-0.47396,0.06561914,0.4152853,0.001838347
1.243046,-0.5831325,-0.4078296,-0.08612075,0.194747,-0.1544133
1.073576,-0.6659054,-0.3021493,0.06873457,0.03324332,-0.3978691
0.9874647,-0.7397448,-0.2463233,0.3529672,0.3746482,-0.5853036
1.051914,-0.7140816,-0.2595654,0.6694938,0.8286309,-0.5246872
1.052018,-0.6127407,-0.2598177,0.8538144,1.354661,-0.4442573
0.992285,-0.5155842,-0.1814996,0.686112,1.550911,-0.4889038
0.9819076,-0.3786019,-0.079511,0.436488,1.003569,-0.4071041
0.949162,-0.2942723,-0.04338083,0.1119955,0.3967043,-0.2676229
1.026089,-0.2829569,-0.1007184,-0.2580102,0.2835501,-0.1670839
1.143952,-0.2449288,-0.1561588,-0.2609623,0.6813882,-0.03544583
1.091049,-0.2793237,-0.1478595,-0.2095721,1.27345,0.01766811
0.9763728,-0.3494009,-0.1234247,-0.253993,1.561394,0.07751985
0.857952,-0.3655509,-0.07997169,-0.100064,1.605886,0.1289671
0.7451921,-0.3745142,-0.01767517,-0.02717035,1.436209,0.05858572
0.6438481,-0.339967,0.02630514,0.002614797,0.9895892,0.01907767
0.5530087,-0.2816396,0.05217785,0.06792333,0.5685578,-0.01963691
0.5903078,-0.2292132,0.06193166,-0.04474525,0.3284375,-0.001739279
0.651696,-0.1872955,0.06416009,-0.09351483,0.3976,0.1106272
0.6372166,-0.1952276,0.06132053,-0.08673267,0.5606632,0.1156987
0.6351008,-0.2080527,0.06701356,-0.09522512,0.5032024,0.1055116
0.6092876,-0.2306727,0.119183,0.04692239,0.4243167,0.08759091
0.6539213,-0.2606414,0.1829015,0.2140491,0.1983034,-0.04739063
0.8190589,-0.227068,0.2037675,0.2872479,-0.07096604,-0.1902685
0.9712978,-0.1880282,0.2015978,0.2181697,-0.06406395,-0.2059639
1.110656,-0.2015458,0.2121086,0.1649684,-0.1404434,-0.06893312
1.168451,-0.2224991,0.2238966,0.2069835,-0.378661,0.03460389
1.177537,-0.2670974,0.215933,0.1406284,-0.6960328,0.1364192
1.265415,-0.4084664,0.1721221,0.1457133,-0.9694967,0.3679331
1.394977,-0.6063571,0.08207295,0.3448168,-0.8228937,0.4678246
1.477406,-0.6852759,0.01790353,0.5198464,-0.4647734,0.250678
1.270585,-0.5588653,0.008545181,0.4811388,-0.3015614,0.02580642
0.9461989,-0.4212837,-0.001903904,0.2040866,-0.6761589,0.1579319
0.9149475,-0.4501734,-0.0459736,-0.08311249,-1.379774,0.298872
0.9481079,-0.5445264,-0.1648713,-0.227331,-1.501046,0.1932239
0.9717115,-0.6458679,-0.2652721,-0.139088,-1.227047,0.1225284
1.095434,-0.7231207,-0.2567086,0.05221507,-1.118844,-0.1008975
1.071781,-0.6945389,-0.2369176,0.2108824,-0.9952826,-0.3658117
0.9918939,-0.6444693,-0.2163774,0.4754988,-1.023223,-0.3690698
0.9846238,-0.5612383,-0.1798256,0.5531545,-1.170785,-0.414502
0.9145105,-0.4239867,-0.1707556,0.4497716,-1.17749,-0.424755
0.8770836,-0.3640716,-0.1737716,0.4866719,-1.205439,-0.3270657
0.8584714,-0.3389517,-0.1858843,0.4477491,-1.183819,-0.3058138
0.7846623,-0.3084407,-0.2043253,0.4123128,-1.100067,-0.2915387
0.7714565,-0.2930452,-0.2221057,0.4311109,-0.9778745,-0.3133022
0.7813253,-0.2634565,-0.2296471,0.3706601,-0.6931794,-0.3083594
0.7655865,-0.242888,-0.2241506,0.3778166,-0.4551341,-0.2464696
0.7309707,-0.1980416,-0.2191429,0.3746054,-0.3239234,-0.1758257
0.6833484,-0.1568937,-0.189334,0.3576456,-0.2851688,-0.04208386
0.6923829,-0.1676798,-0.1714475,0.3460681,-0.3404303,0.04928171
0.7131302,-0.1484593,-0.206114,0.2782899,-0.2489078,0.1120146
0.724282,-0.1134494,-0.2286737,0.2482903,-0.05334464,0.147789
0.7550164,-0.1091867,-0.2179288,0.1788485,0.09456776,0.08138114
0.7990561,-0.1229843,-0.2143732,0.08472365,0.06730876,0.009578059
0.9214918,-0.1488232,-0.2320433,0.06196027,-0.1516462,-0.06582096
1.085051,-0.1535047,-0.2638173,0.08100717,-0.2189482,-0.08138621
1.192382,-0.1567513,-0.2964211,0.1192059,-0.07253237,-0.001999168
1.255742,-0.1941936,-0.2972683,0.1167931,0.06169716,0.02914868
1.305254,-0.2446756,-0.2760849,0.09763395,0.04138527,0.03090949
1.331704,-0.3045442,-0.2969644,0.07473538,-0.01021332,0.04914028
1.322055,-0.4149866,-0.3572952,0.01515015,0.0538939,0.0778981
1.316964,-0.5608488,-0.4123653,-0.1362777,-0.04518989,0.09146401
1.290094,-0.607183,-0.4031052,-0.2857751,-0.2589584,0.0009674616
1.136418,-0.6202442,-0.3411939,-0.04167254,-0.2865927,-0.1643317
0.9683292,-0.7325861,-0.3315713,0.4169882,0.05292875,-0.2546563
0.9940616,-0.7224083,-0.3386482,0.5460158,0.7918974,-0.2193573
1.057462,-0.604045,-0.3071851,0.4733058,1.277202,-0.2248743
0.9972576,-0.5534467,-0.2321665,0.3553655,1.264953,-0.328008
1.004085,-0.4425193,-0.1404385,0.080652,0.9936406,-0.3680242
1.044937,-0.3922146,-0.1694154,-0.178222,0.5310874,-0.2911535
1.041181,-0.3996844,-0.2234632,-0.2446347,0.4561958,-0.1061014
1.097122,-0.3311512,-0.1987616,-0.2049568,0.9294584,0.08231814
1.050142,-0.3806651,-0.2063857,-0.2017463,1.437186,0.1192008
0.9291733,-0.400814,-0.172274,-0.1962229,1.578945,0.0717457
0.889935,-0.3695602,-0.0988521,-0.08011719,1.29679,0.03044969
0.8215719,-0.4271562,-0.06514395,0.07194839,1.021064,-0.007368222
0.790049,-0.3743321,-0.01405216,0.1634218,0.8309961,-0.009481111
0.8042683,-0.3269929,-0.009055568,0.1636831,0.7616739,0.03422865
0.7686817,-0.2803726,-0.03061099,0.08146694,0.9344703,0.07761251
0.7402097,-0.1747859,-0.0006565545,-0.0338858,0.9644133,0.1072803
0.7065624,-0.2098748,0.02472465,-0.1181446,0.8854639,0.1150578
0.6675256,-0.2233738,0.05060135,-0.1054763,0.7769505,0.09005034
0.6342727,-0.2131029,0.07120912,-0.0822998,0.4876657,0.07259921
0.6182234,-0.2762197,0.08545717,-0.04722374,0.2472663,0.02617042
0.6443496,-0.294331,0.1244211,0.1499599,0.0394527,-0.0176401
0.6909858,-0.3150804,0.1343906,0.3978888,-0.1642088,9.196646e-05
0.7695818,-0.3132856,0.1269533,0.5420877,-0.2177775,-0.05580548
0.8208182,-0.2765962,0.1369654,0.6155572,-0.266069,-0.1264295
0.8298897,-0.2571286,0.1440915,0.6772,-0.4677677,-0.06281316
0.8872531,-0.2486006,0.1604416,0.7274585,-0.7716136,0.0922939
0.9962781,-0.2881614,0.1538543,0.7608355,-0.9626691,0.2836146
1.09851,-0.3361441,0.1115063,0.8458983,-1.071003,0.3713188
1.172054,-0.3814352,0.07984975,0.9502411,-1.176211,0.3412736
1.298216,-0.4604393,0.05954489,1.080395,-1.058529,0.3374087
1.454375,-0.5681105,0.03038714,1.303917,-0.827178,0.2889828
1.473405,-0.635355,0.004848895,1.372606,-0.748315,0.1894889
1.306981,-0.5783118,0.05768173,1.197502,-0.8679688,0.2134763
1.067888,-0.5439253,0.1238442,1.101385,-1.102232,0.3222193
0.9372443,-0.6251282,0.05429706,1.176885,-1.142728,0.4073724
0.891038,-0.6764599,-0.04187771,1.292781,-0.9668662,0.4383787
0.8122761,-0.6717332,-0.08605759,1.425942,-0.8776209,0.3785483
0.7997661,-0.6573777,-0.13384,1.527314,-0.9966994,0.3339336
0.8697511,-0.6459193,-0.1510646,1.542134,-1.217314,0.2586853
0.9018856,-0.6564154,-0.1624521,1.547958,-1.351248,-0.05701038
0.8779072,-0.6549292,-0.1585792,1.594666,-1.494489,-0.3998668
0.8276953,-0.6216142,-0.1270838,1.726109,-1.766302,-0.4543307
0.7874517,-0.5558266,-0.1554402,1.934041,-2.09845,-0.3932586
0.7855419,-0.464271,-0.2013518,1.987446,-2.37628,-0.4770905
0.8238692,-0.3956342,-0.2399748,1.882623,-2.357423,-0.5902084
0.8688905,-0.3650691,-0.2900526,1.833593,-2.200852,-0.6923772
0.8921213,-0.346171,-0.3128091,1.818639,-1.992924,-0.8834994
0.9100846,-0.3169594,-0.3426128,1.854287,-1.482198,-1.01095
0.8997214,-0.2890851,-0.3396213,1.943998,-1.058611,-1.050992
0.8486025,-0.2710741,-0.2934166,1.933888,-0.9763282,-1.050965
0.7910915,-0.235817,-0.2806357,1.890719,-1.024045,-0.9820722
0.7720376,-0.201439,-0.2577717,1.882013,-1.12431,-0.9250651
0.8488893,-0.1877507,-0.2579649,1.78767,-1.062732,-0.8068289
0.9321151,-0.179604,-0.2857508,1.629381,-0.7778641,-0.6423974
0.9199716,-0.1711181,-0.2550425,1.526971,-0.3795965,-0.5401126
0.9077755,-0.1517887,-0.2186998,1.506926,-0.1107223,-0.4904945
0.917997,-0.1395405,-0.1798996,1.432521,-0.1288661,-0.5098073
0.9007403,-0.1357417,-0.1572603,1.230517,-0.1316074,-0.5084224
0.9123709,-0.1259398,-0.1816807,1.094128,-0.1562897,-0.5089744
0.9478196,-0.1141558,-0.1802265,1.073838,-0.220862,-0.5350601
0.969675,-0.05866037,-0.2060425,1.020739,-0.09880528,-0.4876973
1.014455,0.01500929,-0.2369955,0.8472686,0.03547586,-0.4001175
1.061896,0.01318273,-0.2111118,0.5707605,0.1605755,-0.2346111
1.07436,-0.06338557,-0.204444,0.3913663,0.2039544,-0.0803965
1.085412,-0.1556239,-0.1802465,0.3709816,0.08532777,-0.05238744
1.14888,-0.2209541,-0.1597865,0.3764621,-0.03791479,-0.02787086
1.292284,-0.2655965,-0.1940157,0.4037042,-0.1679323,0.008462323
1.42131,-0.2982091,-0.2124052,0.4064826,-0.06687279,0.07112017
1.41632,-0.3058146,-0.2164532,0.2343446,0.09807918,0.1590477
1.328536,-0.3469367,-0.182174,-0.1164877,-0.102727,0.1637703
1.258147,-0.4459995,-0.1227338,-0.4345092,-0.3957344,0.08809216
1.231263,-0.5052891,-0.1240246,-0.5130779,-0.5519929,0.02276262
1.217967,-0.5315909,-0.1592543,-0.332197,-0.2973566,0.0402765
1.163784,-0.6130629,-0.1922436,-0.09282254,0.3545205,0.04237224
1.105517,-0.6681425,-0.2024392,-0.04825401,0.7555001,-0.06088074
1.093877,-0.6320669,-0.178797,-0.1124319,0.8853507,-0.1273634
1.089073,-0.5834049,-0.1573983,-0.1498328,0.8891852,-0.05698296
1.080473,-0.5274199,-0.1351282,-0.2061517,0.7535758,0.05454341
1.05045,-0.483899,-0.09911444,-0.172238,0.6760944,0.09732136
