accx,accy,accz,gyrox,gyroy,gyroz
0.8758161,-0.02982483,-0.04842942,0.6287738,-0.9430737,0.1936948
1.021815,-0.05791852,-0.06283715,1.133281,-1.243952,0.3217119
1.136849,-0.1285903,-0.2252234,1.332515,-1.265632,0.2988427
1.226104,-0.1847541,-0.4786335,1.131132,-0.9047642,0.2454766
1.316095,-0.1696751,-0.6353258,0.7677999,-0.4691885,0.1406415
1.381697,-0.1772455,-0.6692141,0.3665335,-0.3128801,-0.03291815
1.240858,-0.1790761,-0.5927427,0.3386139,-0.3428379,-0.002168034
1.004018,-0.1858873,-0.5776905,0.4587182,-0.2474797,0.1586113
0.9581659,-0.2273498,-0.601032,0.3217599,-0.06003213,0.2759683
0.9941268,-0.2953511,-0.5618338,0.3711666,-0.04018244,0.3431751
1.027635,-0.3623737,-0.5628855,0.511818,0.04349326,0.2570864
1.096147,-0.3663184,-0.5441792,0.3477692,0.2656293,0.1185945
1.129743,-0.3287858,-0.5066742,0.2992876,0.3786446,0.07413759
1.105594,-0.2931459,-0.492662,0.4052755,0.5944664,0.05570568
1.03961,-0.2723775,-0.4218424,0.5432797,0.8300809,0.1209451
0.9395514,-0.2385955,-0.349467,0.7932626,0.7751581,0.2235958
0.842857,-0.1881339,-0.3167911,0.8175882,0.5872126,0.2185506
0.7903652,-0.183164,-0.3020975,0.7791944,0.4042321,0.2411322
0.7660917,-0.1837077,-0.2849125,0.7891478,0.3361507,0.2933229
0.7580205,-0.1657857,-0.2632617,0.5603842,0.4476071,0.2546224
0.7665232,-0.168849,-0.2267336,0.3672875,0.5076605,0.1850403
0.7597495,-0.1679914,-0.1481232,0.227218,0.4583374,0.1327521
0.7491487,-0.1715259,-0.08056887,0.1072947,0.4603135,0.1177308
0.7306973,-0.1864631,-0.01282758,0.1750359,0.4250415,0.1094144
0.737915,-0.1946566,0.0123348,0.2049905,0.2707786,0.08723789
0.8636669,-0.1973469,-0.01560733,0.3596088,0.1588882,0.08111055
0.9905096,-0.1892144,-0.009907549,0.6152052,0.1335684,0.06710056
0.9640846,-0.1958625,-0.05475508,0.5352548,0.03549223,0.03933402
0.9456632,-0.2316087,-0.07765119,0.4936589,-0.1657268,-0.01315104
1.051117,-0.2813603,-0.05855407,0.6920581,-0.2175279,-0.05781069
1.07703,-0.3143555,-0.1300971,0.7688814,-0.2463945,-0.05723522
1.005787,-0.3364603,-0.2114784,0.8377373,-0.7311728,-0.0727281
1.013218,-0.4162,-0.3462422,0.9288307,-1.154582,-0.08210548
1.098789,-0.4706063,-0.4774956,0.8935411,-0.6103377,-0.09463211
1.169953,-0.40945,-0.4655222,0.8789283,0.3141773,-0.2018308
1.039414,-0.3721045,-0.3951864,0.8575629,0.4941153,-0.3552618
0.7866831,-0.4034503,-0.2636079,0.7967217,0.04535192,-0.5005165
0.7353609,-0.4148301,-0.201153,0.8419129,-0.4625577,-0.6060851
0.8250979,-0.4219911,-0.2803127,0.9752468,-0.7278802,-0.6601158
0.91822,-0.4231479,-0.3672046,1.126095,-0.5825086,-0.770699
0.9924454,-0.38102,-0.4951779,1.161789,-0.3116788,-0.8824131
1.023967,-0.3297334,-0.5407818,1.101722,0.0636883,-0.8672799
1.049156,-0.275435,-0.4047623,1.181319,0.6090002,-0.8444167
1.008019,-0.1714729,-0.2837387,1.307043,0.7024692,-0.815878
0.9350617,-0.03735982,-0.2535188,1.246686,0.2098684,-0.6669007
0.926873,0.03260745,-0.2632649,0.8449817,-0.3929103,-0.5377807
0.9614531,0.01953159,-0.2874754,0.2466153,-0.6807933,-0.4913465
0.9904939,-0.002298454,-0.3122684,0.01828485,-0.5200241,-0.443258
0.940319,-0.05731281,-0.3068284,-0.03417684,-0.3351297,-0.4123199
0.8840574,-0.1552598,-0.2799314,-0.2749341,-0.2880484,-0.3973051
0.8968333,-0.1731563,-0.2767604,-0.1316338,-0.3477415,-0.4425396
0.8976505,-0.1520698,-0.2627402,0.1653817,-0.4703958,-0.5521359
0.8688719,-0.1755532,-0.2454132,0.06136534,-0.2374725,-0.6000089
0.8188112,-0.1287996,-0.2519884,0.1171442,0.06934818,-0.5307142
0.7918198,-0.007993339,-0.2236397,0.3489423,0.03341842,-0.3856569
0.8570216,0.08982533,-0.1344724,0.3743727,0.03209429,-0.2985866
0.922949,0.1516563,-0.05430848,0.2807626,0.02405418,-0.2386417
0.9004245,0.1489015,-0.07203258,0.04313114,-0.1609789,-0.09101386
0.9146179,0.1492438,-0.09289803,-0.1267739,-0.286548,0.05171188
1.032778,0.1818514,-0.04822282,-0.1661444,-0.3784942,0.1583487
1.122774,0.09090952,-0.07781803,-0.2117041,-0.5862317,0.2301044
1.151864,-0.07712255,-0.1299092,-0.09530641,-0.917145,0.267676
1.190559,-0.1823774,-0.1710819,0.1567948,-1.09439,0.2922065
1.300399,-0.2297853,-0.4094412,0.3809195,-0.8782135,0.2533692
1.465773,-0.2138642,-0.7406258,0.3419538,-0.4220231,0.1730548
1.470953,-0.1907282,-0.7963687,0.2116794,-0.02202319,0.06549428
1.201473,-0.1765942,-0.5892664,0.2915553,-0.08611195,0.04362862
0.9223533,-0.1496036,-0.4979199,0.1808221,-0.3460222,0.1659635
0.9370069,-0.1773629,-0.5714319,0.02299032,-0.1664836,0.2189658
1.071113,-0.2362517,-0.5957198,0.06279213,0.2549052,0.2000798
1.044124,-0.2932748,-0.5936068,-0.005978814,0.6990767,0.2284267
0.9965796,-0.3042409,-0.5280977,0.07634225,0.8159716,0.279802
0.9817097,-0.2460964,-0.4224944,0.2325055,0.5677948,0.3257957
0.9719637,-0.2384884,-0.4457809,0.1532191,0.7683846,0.3839452
0.9993762,-0.2685062,-0.4240047,0.1685703,1.061563,0.4884513
0.8879226,-0.2831602,-0.2748042,0.2940656,1.039197,0.5382472
0.7668214,-0.2899755,-0.228949,0.2991846,0.8476549,0.4510949
0.8033188,-0.255072,-0.293247,0.09609752,0.4081627,0.2350081
0.8024856,-0.2291668,-0.3084846,-0.3182004,0.6297594,-0.01955325
0.7334711,-0.2187207,-0.1901802,-0.6395199,1.244134,-0.08893688
0.6345092,-0.1988275,0.05746833,-0.6595973,1.239346,-0.0007730849
0.5843861,-0.1879784,0.2577379,-0.5300321,0.6568915,0.09438902
0.7043745,-0.1576572,0.2079412,-0.2249732,-0.3259554,0.2006882
0.9280717,-0.1322637,0.007733075,0.1432237,-0.3181694,0.2469044
1.114048,-0.1339028,-0.09173004,-0.0215586,0.4140173,0.2432462
1.127489,-0.1394964,-0.04310048,-0.3656371,0.3700797,0.3188063
1.076971,-0.1397479,0.01219803,-0.242615,0.2340211,0.391513
1.097056,-0.1494896,-0.03780464,-0.1907142,-0.1508378,0.3928638
1.051462,-0.176455,-0.1137518,-0.1905231,-0.774925,0.425398
0.9982191,-0.224561,-0.1871104,0.0118678,-1.253416,0.4492328
1.093458,-0.4279599,-0.3784336,0.06478594,-1.773146,0.4180803
1.192371,-0.6779805,-0.602621,0.3357588,-0.9573637,0.2541571
1.162083,-0.6379871,-0.6661603,0.6353203,0.4806787,-0.1499017
1.038026,-0.489011,-0.5541864,0.3408333,0.6916295,-0.5249316
0.8412863,-0.4176879,-0.3850289,0.0872501,0.2038269,-0.6757031
0.7143795,-0.257566,-0.2588277,0.2342836,-0.4033593,-0.676172
0.7985268,-0.1943091,-0.3183293,0.2533872,-0.5654223,-0.6195458
0.8979608,-0.21801,-0.5595446,0.06611279,-0.2770873,-0.6388825
0.8971693,-0.1440958,-0.6108572,0.03818997,-0.09964478,-0.6440857
0.9118152,-0.2460514,-0.4953843,0.1385646,0.03447231,-0.6098795
0.9155263,-0.3409553,-0.4658014,0.2309652,0.07944248,-0.6374128
0.9372099,-0.2472811,-0.4177652,0.3590969,0.2431274,-0.6802311
0.9835133,-0.2366879,-0.3755517,0.3740806,0.4278645,-0.7478373
0.9277649,-0.1354183,-0.3363109,0.2069731,0.3260233,-0.7332754
0.8493013,0.01304323,-0.3247079,-0.08420978,0.1291503,-0.5974401
0.7913064,0.04044031,-0.343836,-0.2384735,-0.1516123,-0.4525773
0.7369634,0.06368542,-0.2652554,-0.1790339,-0.3098654,-0.2950513
0.759248,-0.0004347922,-0.2548402,-0.1791943,-0.2923782,-0.2524249
0.7920891,-0.05456574,-0.2723161,-0.08972064,-0.2659341,-0.3029183
0.8181365,-0.04899337,-0.2990664,-0.0318955,-0.06178436,-0.2907263
0.8541644,-0.02729326,-0.4097274,-0.1963991,0.2672639,-0.2825362
0.8498363,0.05778946,-0.3935275,-0.3036564,0.4376689,-0.2570809
0.8388886,0.06868998,-0.3162738,-0.3592631,0.3100051,-0.1862552
0.8244501,0.04776451,-0.2202765,-0.3498939,0.07882183,-0.08149417
0.8227041,0.04815515,-0.1305226,-0.3002206,-0.1099709,0.09116904
0.8726495,0.03031564,-0.1501805,-0.2776113,-0.1979456,0.2067795
0.9565088,0.02075098,-0.1361404,-0.2442911,-0.09946939,0.1884807
1.048731,-0.01029112,-0.1208518,-0.2738806,-0.1022679,0.1581896
1.095018,-0.00432403,-0.1440641,-0.2532987,-0.1314236,0.1854172
1.112274,-0.004412551,-0.1566639,-0.2082981,-0.0939123,0.2006132
1.13725,-0.0485078,-0.1717824,-0.1035616,-0.3795228,0.2080441
1.16103,-0.09702404,-0.1703995,0.1484799,-0.6538476,0.2315121
1.237591,-0.1953798,-0.2563919,0.3003967,-0.5382296,0.2230131
1.331957,-0.225765,-0.4860618,0.3608061,-0.3504586,0.214417
1.331001,-0.1835937,-0.6800051,0.3589147,-0.3010025,0.1629854
1.221753,-0.1844249,-0.610228,0.348709,-0.4133414,0.1400378
1.045303,-0.1776589,-0.5161174,0.368765,-0.5182622,0.3731923
0.9537864,-0.1985647,-0.6755981,0.08345485,-0.387625,0.604971
1.063489,-0.2830614,-0.7227348,-0.1752031,-0.2020577,0.5022267
1.163262,-0.3633096,-0.6127336,0.1389829,-0.2155876,0.3575843
1.115556,-0.3860525,-0.6037396,0.4859545,-0.2182429,0.3531148
1.094848,-0.3727387,-0.6075113,0.4375215,-0.00912068,0.2456884
1.068972,-0.3751035,-0.607151,0.4999601,0.3131388,0.1794256
0.9260015,-0.3197316,-0.5119938,0.7802448,0.5692922,0.2521134
0.8228305,-0.2434117,-0.3445194,1.016221,0.525635,0.2098226
0.7956207,-0.2342456,-0.2935898,1.273409,0.4012039,0.1940373
0.7605637,-0.188532,-0.2789856,1.290206,0.3860691,0.2065459
0.7186629,-0.1317005,-0.2860362,1.171262,0.3079653,0.1225748
0.6525116,-0.1302349,-0.2955919,1.196926,0.3704301,0.09165178
0.5933393,-0.1184864,-0.2547837,0.9641913,0.4688827,0.02731355
0.5616947,-0.08165955,-0.20786,0.7455937,0.39542,-0.01079321
0.5589055,-0.05781088,-0.1186096,0.6931513,0.3515028,0.05163912
0.6062026,-0.1139026,-0.04095239,0.4632569,0.1362067,0.05670445
0.6831024,-0.2241126,-0.02024026,0.4543273,-0.248334,0.01163117
0.8116211,-0.3215399,-0.04521211,0.6319455,-0.3631228,-0.09682238
0.9286354,-0.386354,-0.1094672,0.6930756,-0.1559466,-0.2332054
0.9432975,-0.376915,-0.1311621,0.6634991,0.08485302,-0.3838304
0.9278794,-0.3303868,-0.09417534,0.5443752,0.1015069,-0.4711053
0.9147694,-0.2869083,-0.04323353,0.5573635,-0.1587351,-0.3913436
0.9324199,-0.2728671,-0.06079833,0.601759,-0.5757192,-0.3893354
1.084338,-0.2947306,-0.139486,0.587042,-0.7162148,-0.4542516
1.277752,-0.2827296,-0.1904273,0.5436977,-0.3486833,-0.4459065
1.298456,-0.2479663,-0.211376,0.3029202,0.06562753,-0.4195184
1.266568,-0.1490765,-0.1981567,0.05651817,0.1047174,-0.2529796
1.350992,-0.03157172,-0.2123173,-0.03834325,-0.3801095,0.0191113
1.349951,-0.1306181,-0.2649131,0.08308968,-1.043554,0.2228455
1.309144,-0.3094949,-0.3402247,0.2785761,-1.078803,0.3288183
1.359535,-0.3334927,-0.460715,0.2394263,-0.482362,0.3623454
1.212897,-0.3415344,-0.4629956,0.1960713,-0.05554026,0.3277514
0.8464922,-0.4263371,-0.384525,0.1526845,-0.2051069,0.194105
0.5849492,-0.5862382,-0.310652,0.1119919,-0.6327901,-0.07114869
0.6596339,-0.7610867,-0.1919265,0.4789278,-1.069611,-0.5746632
0.8560676,-0.7624844,-0.3036461,0.8589918,-1.315654,-1.112144
0.8612863,-0.6544896,-0.5699503,0.7449015,-0.8103245,-1.364193
0.9046001,-0.5660699,-0.609065,0.6602611,0.08066847,-1.433022
0.8953557,-0.440414,-0.5280894,0.9523713,0.4860601,-1.374727
0.7666186,-0.3209605,-0.4411097,1.096484,0.5861238,-1.298397
0.8383872,-0.25229,-0.3769707,1.029664,0.3699549,-1.25735
0.815628,-0.1740705,-0.3664496,1.096582,-0.1119891,-1.055265
0.7295825,-0.07264126,-0.3278065,1.140325,-0.3076863,-0.8325852
0.7777094,-0.06555333,-0.3507483,1.074927,-0.3208836,-0.7108918
0.7324226,-0.1659958,-0.4268505,0.8841485,-0.172517,-0.7978348
0.762804,-0.1883943,-0.4384583,0.6858584,0.06145177,-1.056731
0.8108586,-0.1498042,-0.4077683,0.7710926,0.09993225,-1.065884
0.8059393,-0.09986813,-0.3558729,0.9181324,0.04204753,-0.9756291
0.8868363,-0.03400122,-0.3630939,0.9454071,-0.0426283,-0.9722057
0.9120828,-0.04873874,-0.4143296,0.946874,0.1373518,-0.9674957
0.948598,-0.05627274,-0.4249682,0.9334236,0.487785,-1.059421
0.9688809,-0.006336045,-0.4163725,0.8949818,0.6719434,-1.068924
0.9347792,0.06399187,-0.373297,0.6869686,0.7701934,-0.9855529
0.9474012,0.1481122,-0.3150219,0.388544,0.6260817,-0.8509152
0.9188597,0.1301288,-0.2312618,0.3340669,0.3694598,-0.5871929
0.9284798,0.06057685,-0.1391457,0.4184977,0.1555369,-0.4199312
1.019451,0.04058177,-0.1227366,0.3665542,0.02008271,-0.3425912
1.094656,0.05230065,-0.1102885,0.2971209,0.08573477,-0.2547942
1.095499,0.0729624,-0.1122063,0.1730509,-0.1266399,-0.1232707
1.101046,0.02504283,-0.1625018,-0.03810935,-0.4631374,0.04430681
1.244175,-0.05610404,-0.1915366,0.001339196,-0.4074947,0.1257666
1.315158,-0.09805498,-0.2113708,0.1282796,-0.3077203,0.1826406
1.270101,-0.1159284,-0.1710843,0.178986,-0.3406499,0.1788688
1.241519,-0.1084968,-0.1302248,0.4563979,-0.4991398,0.195264
1.174276,-0.1331549,-0.2677965,0.8009375,-0.745715,0.3424815
1.174529,-0.223091,-0.5217634,0.9082197,-0.7062732,0.3752992
1.172226,-0.2835636,-0.6803598,0.8170127,-0.2830587,0.261813
1.006968,-0.2082096,-0.6302882,0.7255393,0.0444432,0.1757011
0.8962163,-0.1146601,-0.6056068,0.6456299,-0.121811,0.2803897
1.027443,-0.1939425,-0.7481782,0.3249369,-0.2379533,0.420841
1.221484,-0.269039,-0.7794749,0.006258302,0.1950743,0.3488734
1.197134,-0.2264078,-0.7050994,0.02430733,0.4862115,0.3426397
1.055194,-0.2082916,-0.6182589,0.05325743,0.264627,0.4223768
0.9596947,-0.1693044,-0.4833974,-0.0406194,0.1772789,0.4356398
0.8925828,-0.149683,-0.5004743,0.005669545,0.4136929,0.5257297
0.85761,-0.1911537,-0.509344,0.1215683,0.6054902,0.5899504
0.6863056,-0.1950942,-0.3214768,0.2015143,0.6897868,0.5705948
0.5230678,-0.2279015,-0.248938,0.2990828,0.7485586,0.5322301
0.5842774,-0.2465405,-0.2639467,0.3092428,0.752223,0.4587545
0.5652999,-0.2272173,-0.1898924,0.303851,0.7350317,0.4013764
0.5232728,-0.2441271,-0.1570585,0.2416023,0.7172377,0.2969549
0.6132824,-0.2023886,-0.1870592,0.06624251,0.5673753,0.1523426
0.6655161,-0.1575912,-0.2042323,0.112654,0.3690139,0.1312904
0.7504906,-0.175761,-0.199837,0.121995,0.325469,0.1616662
0.8251452,-0.2010972,-0.20115,-0.06301313,0.2062735,0.1073617
0.8425827,-0.2698157,-0.1946361,-0.02974351,-0.08060703,0.08556261
0.9466177,-0.3451796,-0.1787322,0.1267697,-0.1120508,0.1110923
1.017992,-0.3785527,-0.1861002,0.3240702,0.1175657,0.08163517
0.9967894,-0.3667141,-0.1806834,0.451434,0.2704713,0.06753245
1.003422,-0.3312031,-0.1611799,0.4356081,0.3203218,0.05552664
1.022304,-0.3048757,-0.1132263,0.5331026,0.1320206,0.06320093
1.038336,-0.2633089,-0.04678896,0.5383059,-0.2308066,0.1173911
1.145223,-0.2704153,-0.05980182,0.3772159,-0.3230058,0.1058394
1.336597,-0.2938064,-0.1285297,0.2204082,-0.2298063,0.1675564
1.430083,-0.2428327,-0.2107569,0.04365352,-0.2926698,0.3220549
1.400097,-0.2372089,-0.296235,-0.02541498,-0.6251799,0.3728572
1.359379,-0.3260675,-0.3702503,0.01089593,-0.9003189,0.3620069
1.298105,-0.4766118,-0.4412176,0.1542803,-0.47405,0.2933734
1.230032,-0.5736481,-0.4265283,0.2786954,0.2892046,0.08381602
1.079861,-0.4670816,-0.3564861,0.04149731,0.457121,-0.2218523
0.7747041,-0.3504228,-0.3276128,-0.2715729,-0.02124821,-0.437439
0.612855,-0.3423268,-0.2946868,-0.3071538,-0.6334071,-0.5169947
0.6976002,-0.3016832,-0.3251375,-0.2959353,-0.8261985,-0.6308723
0.7662067,-0.2810526,-0.4174838,-0.3201816,-0.4719474,-0.7382285
0.8073223,-0.2924363,-0.4400259,-0.2770092,0.01483654,-0.7748567
0.8135304,-0.2517876,-0.4465429,-0.2813104,0.3237954,-0.7525674
0.7408319,-0.2021413,-0.4175329,-0.3046274,0.3362848,-0.6258634
0.7484772,-0.1161185,-0.3504959,-0.2792635,0.2267902,-0.5214181
0.7700399,-0.001372382,-0.3672884,-0.384081,0.2790454,-0.5013169
0.7395947,0.06062241,-0.3791411,-0.5504513,0.245004,-0.435601
0.7160996,0.08392925,-0.3646913,-0.6377162,-0.08934852,-0.2248433
0.67269,0.01958342,-0.3772537,-0.6575151,-0.5680068,-0.01638294
0.7936933,-0.1424169,-0.3443581,-0.5277459,-0.8130743,-0.08686668
1.036822,-0.2961808,-0.3259274,-0.369889,-0.3819589,-0.3743093
1.100965,-0.3275346,-0.3828077,-0.3491015,0.2644154,-0.6296821
1.02893,-0.1318614,-0.4322861,-0.378918,0.5739391,-0.5940034
0.9578858,0.09158027,-0.3934488,-0.3586985,0.6328791,-0.278966
0.927599,0.09907093,-0.2714028,-0.3304744,0.1914222,-0.03890026
0.9111073,0.04786514,-0.1315323,-0.3488859,-0.4423666,0.1084835
0.9388068,0.0677476,-0.06996912,-0.3289874,-0.5941864,0.2413918
1.03979,0.08361884,-0.1647458,-0.3107327,-0.5307338,0.3717243
1.084352,0.09097723,-0.2621905,-0.3856473,-0.4851755,0.502834
1.099943,0.09875113,-0.2480549,-0.4799933,-0.4516299,0.4664192
1.117798,0.02424199,-0.2232434,-0.4746833,-0.5854899,0.4200157
1.104233,-0.1312498,-0.221757,-0.2518967,-0.7417238,0.4204941
1.120111,-0.2536201,-0.3698415,-0.01847116,-0.6092758,0.3707495
1.124943,-0.3086146,-0.6360205,-0.02460084,-0.1952052,0.3703162
1.119252,-0.3174863,-0.708919,0.01116369,0.1191669,0.2545496
1.098143,-0.3231303,-0.643536,0.2393964,0.08087971,0.1653028
1.003832,-0.3231964,-0.66123,0.3280646,-0.007617301,0.35801
0.9391445,-0.2775938,-0.6862557,0.1411849,0.1380795,0.576157
1.01411,-0.2579356,-0.6134493,-0.0623955,0.1647959,0.6088877
1.114657,-0.2700317,-0.5297234,-0.01004449,0.02637778,0.4994644
1.063956,-0.2721738,-0.4965492,0.1486406,0.0657868,0.4605191
0.9865078,-0.2875483,-0.446788,0.1820192,0.2002994,0.4763558
0.9352317,-0.277957,-0.3988782,0.2727696,0.472854,0.4434985
0.8149617,-0.243919,-0.371457,0.3484587,0.6450516,0.4456366
0.7599532,-0.2061015,-0.3192704,0.3389504,0.5130747,0.4366175
0.6946918,-0.1727426,-0.2720528,0.512222,0.5395024,0.4416222
0.5844976,-0.1871954,-0.2664344,0.5772782,0.5888673,0.4342939
0.600196,-0.2191513,-0.2701668,0.3262587,0.4842703,0.3610221
0.6223153,-0.2394467,-0.2214215,0.1435807,0.2834297,0.3008862
0.6521707,-0.2314029,-0.1830434,0.2865191,-0.03334333,0.2515528
0.7579956,-0.1981411,-0.2128778,0.4642077,-0.02042312,0.2370827
0.8232232,-0.2123347,-0.203309,0.2843743,0.1305382,0.1504612
0.833686,-0.2714485,-0.1185109,0.2167754,0.02099363,0.02737982
0.8319023,-0.3458338,-0.02302986,0.4422742,-0.1184103,0.04868985
0.8590931,-0.384094,-0.00333162,0.5097355,-0.3312015,0.01459991
0.8961321,-0.3467577,-0.05793809,0.5183781,-0.4016931,-0.1274991
0.9567691,-0.3024842,-0.0758019,0.4949445,-0.07351804,-0.1834383
1.007088,-0.2350297,-0.07663047,0.4284625,0.1294564,-0.1575479
0.9711773,-0.1942607,-0.07882759,0.2734044,0.004212423,-0.1078431
1.017305,-0.2769076,-0.06254945,-0.05253096,-0.1105732,-0.0582826
1.133865,-0.332648,-0.09605723,-0.1664607,-0.1374575,-0.05128481
1.208779,-0.3128468,-0.1618315,-0.1704888,-0.1562782,-0.04949077
1.269948,-0.3131827,-0.2270966,-0.2804811,-0.2348016,0.03474548
1.233506,-0.3561741,-0.322646,-0.3159443,-0.5220453,0.1523445
1.249516,-0.5150314,-0.498758,-0.2866706,-0.9582321,0.252874
1.460643,-0.6675959,-0.679411,-0.1988265,-0.8731864,0.2641243
1.589692,-0.558481,-0.6505239,-0.2060069,0.2062897,0.06393733
1.293437,-0.4047853,-0.5385216,-0.3424865,1.074412,-0.2568273
0.6479327,-0.4799144,-0.4275643,-0.3494288,0.1730173,-0.5322198
0.3256691,-0.5186911,-0.2168166,-0.242655,-1.313354,-0.6456096
0.5832043,-0.4683703,-0.2916107,-0.05456646,-1.577655,-0.7062492
0.8235376,-0.4920648,-0.5898469,0.1978906,-1.404518,-0.8743628
0.7974819,-0.4200676,-0.658651,0.2460532,-0.9170955,-1.001269
0.8089222,-0.3164466,-0.6859738,0.2156103,0.355152,-1.068942
0.8349238,-0.2546947,-0.6215492,0.4089701,0.9502995,-1.084092
0.7530541,-0.1548817,-0.4672343,0.4684446,0.7617489,-1.066772
0.711143,-0.1132212,-0.4572712,0.3145817,0.5658691,-1.13634
0.6649616,-0.01731068,-0.3445774,0.2464163,0.1777473,-1.026417
0.6381559,0.07680376,-0.2825708,0.2148442,-0.06263469,-0.7667889
0.7107811,0.03795817,-0.3506856,0.2462578,-0.2121491,-0.6113525
0.7918412,-0.04250025,-0.3165157,0.1914411,-0.4243958,-0.5076045
0.9857287,-0.2164927,-0.3864895,0.1012998,-0.3838181,-0.6692611
1.079617,-0.2316199,-0.4346257,0.219058,0.09774583,-1.012729
0.9313626,0.01680469,-0.3671994,0.3779243,0.8974423,-1.09654
0.8769019,0.1793778,-0.3632364,0.6044509,1.135331,-0.8237675
0.8623503,0.1905455,-0.3240054,0.585671,0.8280062,-0.4114689
0.8116776,0.1473432,-0.2449181,0.1202281,0.5680635,-0.2757753
0.788231,0.1702375,-0.1193505,-0.1781084,0.0961859,-0.2696012
0.779137,0.1647365,-0.05180917,-0.1223258,-0.2521595,-0.1097919
0.8246778,0.05615214,-0.1259376,-0.02890105,-0.2567535,-0.02293315
0.8496001,0.05980565,-0.1480179,-0.122145,-0.3613121,0.115293
0.9551076,0.06615298,-0.1991445,-0.2176249,-0.2789126,0.2808364
1.118787,0.01636158,-0.3189015,-0.2623157,-0.1034573,0.241649
1.13746,-0.01166193,-0.3496499,-0.3571878,-0.3582946,0.2949673
1.158099,-0.06127514,-0.3384125,-0.196193,-0.5988161,0.4609327
1.280698,-0.06326322,-0.3606686,-0.07103427,-0.5967111,0.5121496
1.428553,-0.1199726,-0.4229016,-0.1815132,-0.5676224,0.4956842
1.495758,-0.2002074,-0.4683506,-0.1667063,-0.4387968,0.4215327
1.488021,-0.2021544,-0.5002891,-0.08307868,-0.3378571,0.3325774
1.47035,-0.2214464,-0.5537427,0.05209187,-0.3391037,0.3815074
1.239328,-0.121046,-0.5671152,0.07672225,-0.5154355,0.5658017
0.9098229,-0.01592537,-0.6096065,-0.01676778,-0.6706341,0.6745563
0.8718894,-0.2059433,-0.6942042,-0.02031031,-0.2647943,0.5974898
0.9736351,-0.4389488,-0.6788926,-0.06942108,0.2441538,0.4081869
0.9508213,-0.4178573,-0.5865844,-0.008839577,0.292497,0.1939046
0.8995309,-0.3165795,-0.4989087,0.03952574,0.2675579,0.08811841
0.8823513,-0.2822573,-0.4639921,-0.01640916,0.3098067,0.1355421
0.8458709,-0.2398071,-0.4813771,0.124472,0.273325,0.1632617
0.8271879,-0.2433729,-0.4590962,0.2639514,0.3933208,0.1255799
0.7767172,-0.2570415,-0.4054093,0.4314154,0.666239,0.1787792
0.6668593,-0.2335279,-0.3585324,0.6060054,0.7438314,0.2290643
0.6105247,-0.2772444,-0.2858479,0.628492,0.6764936,0.173575
0.5496952,-0.282482,-0.209881,0.7738736,0.5495492,0.1510187
0.5007238,-0.2099767,-0.1748254,0.8676516,0.200697,0.1377136
0.5565988,-0.1220912,-0.2214372,0.7599091,-0.2056972,0.1569189
0.6396744,-0.03804097,-0.3293803,0.543483,-0.2007873,0.2505339
0.7530873,-0.05138322,-0.3959766,0.1936896,0.320169,0.2899507
0.8436214,-0.1083493,-0.3811599,0.001557206,0.9002724,0.2803754
0.8531336,-0.2017073,-0.2831219,0.02643393,1.130458,0.2102079
0.8641473,-0.3544124,-0.1099173,0.0905716,0.8598335,0.08456623
0.8599492,-0.4303852,0.05373999,0.1990434,0.3726056,-0.02568719
0.8591121,-0.3971839,0.05828238,0.2378589,0.1241612,-0.08603535
0.8847916,-0.2985655,-0.06318825,0.1089189,0.1158667,-0.04582634
0.8966311,-0.2234944,-0.09091606,-0.04538589,0.2182532,0.01099522
0.940027,-0.2334399,-0.0600914,-0.1306637,0.1061831,0.06525487
1.026554,-0.2772076,-0.06255469,-0.2294797,-0.2383304,0.1158064
1.182771,-0.3013558,-0.07527306,-0.3102181,-0.3944923,0.09168763
1.366219,-0.2805954,-0.1585398,-0.3734019,-0.2314899,0.1351905
1.394311,-0.257078,-0.2394963,-0.5176383,0.1544041,0.3133271
1.295219,-0.2378226,-0.2486111,-0.605701,0.001561931,0.5155394
1.161251,-0.256904,-0.2569991,-0.5125245,-0.919079,0.6131829
1.084831,-0.3822965,-0.352343,-0.3639354,-1.515842,0.5821155
1.292482,-0.4870183,-0.495589,-0.3121886,-0.8340759,0.5459458
1.45297,-0.4687447,-0.5281006,-0.3972048,0.5969091,0.3831329
0.9995728,-0.4626709,-0.5290869,-0.5911677,0.8225125,0.05408504
0.4688565,-0.5476295,-0.4543387,-0.7320318,-0.26094,-0.1862436
0.5478249,-0.5488817,-0.2951639,-0.583523,-1.300966,-0.347692
0.7562435,-0.4558226,-0.4225767,-0.2676345,-1.620762,-0.4619674
0.7761729,-0.4290531,-0.6399288,-0.1094517,-0.8211382,-0.5523891
0.8512808,-0.4154152,-0.6271289,-0.0700811,0.002068174,-0.7637919
0.8126731,-0.384397,-0.5677155,0.01459506,0.3160125,-0.8880387
0.7023424,-0.2842131,-0.461733,0.05344492,0.4257834,-0.8379531
0.7029891,-0.1045887,-0.3769388,-0.07213742,0.08554767,-0.8515547
0.6460333,-0.005410714,-0.3883307,-0.2798362,0.004373269,-0.8729195
0.6362403,0.04857979,-0.3493077,-0.3825472,-0.06093636,-0.8418721
0.6859907,0.06901911,-0.3423973,-0.3696889,-0.3810958,-0.7789156
0.723893,0.0369625,-0.3624018,-0.3532538,-0.514337,-0.6281677
0.8916466,-0.01213253,-0.359463,-0.257329,-0.7202159,-0.5676346
1.004522,-0.1222071,-0.4521157,0.004428494,-0.4376704,-0.6433669
0.9983951,-0.1486017,-0.5767276,0.2175156,0.1746569,-0.6434533
0.983251,-0.03324138,-0.6054258,0.1218045,0.507045,-0.5350912
0.953733,0.06741642,-0.4717839,-0.07761497,0.4690688,-0.3446429
1.042235,0.07657415,-0.3566791,-0.1746947,-0.1018701,-0.08760997
1.134923,0.01823868,-0.4831566,-0.3650105,-0.2964023,0.1472513
1.09096,-0.008266913,-0.5589281,-0.57541,0.02594611,0.2767935
1.044376,-0.01233146,-0.3790134,-0.621649,0.2010462,0.3680722
1.022247,-0.03175524,-0.2281808,-0.3077187,-0.01154601,0.5848782
1.010128,-0.09090899,-0.2607448,0.2598587,-0.4816902,0.7294843
0.956457,-0.2365381,-0.3365925,0.3512115,-0.4530788,0.5853077
0.798193,-0.3130461,-0.410791,0.3151616,-0.2122551,0.499007
0.607311,-0.2324529,-0.5719486,0.5274399,-0.09611453,0.6179539
0.5637265,-0.1900713,-0.6924026,0.2532644,-0.02058011,0.5945043
0.8718532,-0.2981106,-0.6043422,0.02209006,-0.1158822,0.3391257
1.215473,-0.3901752,-0.5015192,0.3319048,0.07147719,0.1227743
1.104875,-0.3505375,-0.57883,0.3905414,0.2052614,0.1832921
0.9760091,-0.28764,-0.7165883,0.03716238,0.1866853,0.3425827
1.126148,-0.248349,-0.8015824,-0.2833226,0.3324237,0.4124929
1.12438,-0.2376864,-0.7505834,-0.2153273,0.3433481,0.5583282
1.134225,-0.2572286,-0.585942,-0.108153,0.4567613,0.585505
1.164574,-0.2714993,-0.5318165,-0.2473875,0.4482902,0.4930998
0.9674479,-0.3103543,-0.4882605,-0.15251,0.3750919,0.5923762
0.9042432,-0.3135365,-0.3833804,0.00593969,0.5633826,0.5834373
0.8414718,-0.2818574,-0.3782669,0.07665795,0.5734959,0.5212925
0.6700983,-0.2994274,-0.3257443,0.2096962,0.609531,0.5561175
0.5975917,-0.2856966,-0.2755978,0.1569731,0.5696678,0.4102719
0.4781086,-0.26372,-0.3100266,0.0888958,0.4350179,0.2905535
0.5027055,-0.2703033,-0.2811747,0.01892336,0.5942212,0.217353
0.5964629,-0.2362176,-0.2820939,-0.1610875,0.6273793,0.144039
0.5979651,-0.2052515,-0.2727249,-0.2280712,0.540693,0.2125111
0.6932218,-0.1869289,-0.2335047,-0.2902146,0.4419943,0.2304779
0.711191,-0.2217932,-0.2479899,-0.303192,0.2784133,0.246981
0.7594863,-0.3564604,-0.2239168,-0.2324825,0.2380128,0.2215758
0.8927798,-0.4853941,-0.2071038,-0.1985521,0.2218644,0.04907121
0.9119026,-0.5282676,-0.2001839,-0.08217844,0.3464352,-0.08091429
0.9417244,-0.4687376,-0.1627993,0.008719228,0.5600928,-0.1713662
0.9615199,-0.3993447,-0.1213742,0.03138146,0.5534667,-0.2156141
1.027751,-0.3625167,-0.08264102,0.02730086,0.3739814,-0.2373909
1.176264,-0.3134081,-0.1239009,-0.08782774,0.1294602,-0.2184229
1.2691,-0.2981416,-0.1960272,-0.2024835,-0.09062509,-0.03271935
1.359507,-0.2587601,-0.2532924,-0.2384737,-0.2172622,0.1941428
1.386009,-0.2425415,-0.325016,-0.2021654,-0.2513085,0.3251862
1.321857,-0.3695273,-0.38864,-0.1644605,-0.3753686,0.3638794
1.262166,-0.5046913,-0.4576889,-0.109706,-0.5206996,0.4013638
1.171862,-0.547235,-0.4592597,-0.05801166,-0.2416172,0.2926085
0.9425122,-0.4822864,-0.4151641,-0.3183569,0.05597253,-0.05681166
0.6887505,-0.4239402,-0.4194232,-0.6570811,-0.2567839,-0.3480027
0.7195094,-0.4543668,-0.4005477,-0.6336801,-0.5973098,-0.6091081
0.8064423,-0.4139651,-0.4177569,-0.5207604,-0.5005551,-0.7698632
0.7487306,-0.349055,-0.5016345,-0.5504451,-0.2928805,-0.7050425
0.8114537,-0.3264307,-0.5310909,-0.5928124,-0.01471515,-0.7264591
0.840796,-0.2682515,-0.5325652,-0.5933363,0.2007015,-0.6805394
0.7921487,-0.2387246,-0.5101835,-0.4821139,0.1749798,-0.5092557
0.8318687,-0.2317478,-0.457053,-0.3100722,0.1204023,-0.4943503
0.7929346,-0.1851756,-0.4316244,-0.329981,-0.02359265,-0.4902004
0.7616826,-0.07963276,-0.4118997,-0.438505,-0.163065,-0.437971
0.7633403,0.04558425,-0.379384,-0.4745793,-0.1613009,-0.3124097
0.6830405,0.05678881,-0.3221257,-0.5758275,-0.2681898,-0.13398
0.6929453,-0.02689524,-0.2895477,-0.6220899,-0.4111415,-0.138812
0.77569,-0.09626308,-0.3129767,-0.5746298,-0.4666086,-0.2766942
0.8840239,-0.1127193,-0.3198492,-0.5430676,-0.3476558,-0.4124612
1.001481,-0.05341723,-0.3492177,-0.4163254,-0.01383627,-0.4452499
1.00637,0.05418688,-0.3746592,-0.3634704,0.2520746,-0.3169135
0.998293,0.1490741,-0.3151312,-0.56325,0.2852923,-0.1346015
1.018146,0.1670714,-0.2471841,-0.8034972,0.1391401,0.08658387
1.023155,0.1254138,-0.1982985,-0.8517501,0.05861803,0.3242877
1.046356,0.08300705,-0.160363,-0.7055272,-0.07365356,0.4378537
1.068127,-0.06401369,-0.1555,-0.4334233,-0.4929066,0.4241408
1.098015,-0.2661539,-0.254864,-0.01757171,-0.7116154,0.4374332
1.133492,-0.2444375,-0.5543483,0.2036506,-0.5093806,0.5315162
1.205932,-0.1196306,-0.8735716,0.04190047,-0.1964842,0.6483215
1.270732,-0.1703691,-0.9084097,-0.1311497,0.06619151,0.6683276
1.19295,-0.3539876,-0.7427732,-0.2622488,0.3518776,0.5054165
1.114583,-0.532037,-0.6886061,-0.2906169,0.6485081,0.3851192
1.122921,-0.4775804,-0.7168039,-0.2186713,0.6652152,0.4529316
1.049206,-0.2789417,-0.6526832,-0.330448,0.5530278,0.5522352
0.9614364,-0.2349691,-0.5666684,-0.32826,0.548987,0.6609771
0.9816268,-0.1892141,-0.5225265,-0.2330124,0.5237814,0.7348427
0.9695264,-0.1893588,-0.4868412,-0.2970533,0.59964,0.6474834
0.8807099,-0.2844618,-0.4330123,-0.1879824,0.7649504,0.5556634
0.771922,-0.2380308,-0.3726619,-0.06303987,0.7807262,0.6113854
0.6212137,-0.2425477,-0.3200153,-0.009669703,0.7244612,0.6703873
0.5031768,-0.2636686,-0.2397515,0.1136761,0.6706607,0.672283
0.4825997,-0.2053825,-0.191646,0.03185373,0.4724255,0.5883835
0.5267917,-0.2149522,-0.2001497,-0.08672218,0.2795108,0.374959
0.5912994,-0.1378659,-0.2226977,-0.1706299,0.3301462,0.2712937
0.6175932,-0.07458835,-0.2623052,-0.3687797,0.4097241,0.2755683
0.6373245,-0.0905557,-0.2396856,-0.4487042,0.4775113,0.2252466
0.7000658,-0.1247492,-0.165566,-0.4432367,0.7309532,0.2434005
0.8074724,-0.2734918,-0.08743452,-0.4149174,0.9006525,0.247634
0.9236365,-0.3460545,-0.002502235,-0.3326813,0.7166172,0.1415173
0.9867636,-0.3402139,-0.01492306,-0.3195943,0.4706007,0.06274043
1.054884,-0.3267211,-0.06955756,-0.309849,0.3129779,0.0742527
1.145146,-0.2703261,-0.08755861,-0.2656818,-0.001706948,0.1430086
1.202735,-0.2808991,-0.1503587,-0.2432439,-0.2672565,0.2001533
1.209896,-0.2796868,-0.2182183,-0.1915126,-0.3317464,0.2762974
1.102889,-0.2922339,-0.2878854,-0.1663026,-0.6860767,0.3411613
1.012595,-0.3987256,-0.3763097,-0.1480748,-1.132195,0.335245
1.101504,-0.5238846,-0.4119436,0.04110022,-1.020368,0.290187
1.175841,-0.5998815,-0.4668994,0.144004,-0.5860079,0.07577715
1.110303,-0.5263065,-0.5682729,-0.1785962,-0.1787097,-0.2906828
1.056889,-0.4339281,-0.6206113,-0.6029994,0.08049503,-0.590315
1.034173,-0.404166,-0.6143636,-0.7206263,0.03529684,-0.7082602
0.9422437,-0.3143544,-0.5527762,-0.634853,-0.00714195,-0.6362562
0.8371224,-0.2429567,-0.4737337,-0.6559742,0.02913904,-0.5793353
0.8137652,-0.2648023,-0.4617109,-0.7397437,-0.06198026,-0.6098766
0.8537522,-0.3003304,-0.4686613,-0.643492,-0.05019886,-0.5836155
0.8615798,-0.2699214,-0.4359093,-0.459145,0.03321291,-0.5598949
0.8174767,-0.2263639,-0.4274897,-0.2845217,0.07048919,-0.5736088
0.7952832,-0.2046055,-0.4143149,-0.197383,0.1022514,-0.56307
0.7617779,-0.1250645,-0.36616,-0.310779,0.008504722,-0.5534937
0.7069875,-0.0336924,-0.3585489,-0.3859915,-0.1120897,-0.4841091
0.6917626,0.03269526,-0.3473333,-0.3930026,-0.2745579,-0.3357264
0.7216719,0.03478672,-0.3333395,-0.4728015,-0.4786679,-0.246016
0.8069557,-0.0330359,-0.3685852,-0.507931,-0.4857013,-0.2589703
0.8703775,-0.03986727,-0.3842661,-0.551245,-0.2714119,-0.3247749
0.8629382,-0.0326947,-0.3878017,-0.5663652,0.1096134,-0.3621396
0.8582383,-0.005850002,-0.3709129,-0.5090087,0.3432236,-0.2755788
0.8785872,0.08241354,-0.3064354,-0.550454,0.2598371,-0.1378986
0.8895647,0.10504,-0.2610003,-0.6213229,0.1410274,-0.07001473
0.8859009,0.06552676,-0.2353118,-0.7155309,0.08260605,-0.0007477763
0.9380498,0.0247545,-0.2322366,-0.8214929,0.1713319,0.1120848
1.028983,0.04338141,-0.2171074,-0.8115507,0.2593782,0.2101132
1.089337,0.05559796,-0.1351587,-0.752944,-0.05575434,0.373481
1.134377,-0.03257362,-0.1097352,-0.5453304,-0.5685078,0.5649644
1.17101,-0.08300106,-0.2651424,-0.2572507,-0.7585231,0.6091993
1.221337,-0.08983156,-0.5526071,-0.213099,-0.5525588,0.6268945
1.252414,-0.1217189,-0.7427222,-0.2352476,-0.4003646,0.6898489
1.229481,-0.1878512,-0.7228899,-0.02845361,-0.450194,0.6254164
1.176702,-0.284182,-0.7112691,0.1607201,-0.2372991,0.477677
1.109333,-0.2930244,-0.7657799,-0.01207914,0.1130717,0.415345
1.102321,-0.224144,-0.7473001,-0.2025618,0.1523172,0.5078717
1.110332,-0.193114,-0.7216085,-0.08993471,0.2040766,0.668178
1.083677,-0.2625406,-0.7063841,-0.08154193,0.4508922,0.6775407
1.091984,-0.3707386,-0.6027814,-0.1493988,0.5497053,0.5500477
1.050345,-0.3871714,-0.4882682,-0.001219107,0.4924407,0.4324753
0.9402604,-0.3348601,-0.4286906,0.1719125,0.5392133,0.3669033
0.8412672,-0.2549445,-0.3734268,0.4370572,0.7222982,0.4115274
0.7619273,-0.1969133,-0.3427897,0.7119551,0.8083017,0.5295773
0.7304724,-0.2066579,-0.3386441,0.6093234,0.6866908,0.6158174
0.6544344,-0.2061535,-0.3059286,0.3755409,0.5223258,0.5610107
0.5548372,-0.1821678,-0.2687499,0.3023447,0.4213001,0.4314357
0.5430787,-0.1444372,-0.2531142,0.2484858,0.3263958,0.45468
0.4889848,-0.06426948,-0.2238731,0.09051841,0.2674043,0.467641
0.4731781,-0.02533464,-0.2138816,-0.1880278,0.3055082,0.3735648
0.5692388,-0.07404678,-0.2266351,-0.3077958,0.3261459,0.354456
0.5749307,-0.1257177,-0.1920899,-0.1798144,0.3401274,0.3419597
0.5956905,-0.2219108,-0.158702,-0.1260361,0.378384,0.2879506
0.7178593,-0.3965781,-0.1047853,-0.007176411,0.4213359,0.1147551
0.8161953,-0.4678103,-0.01868092,0.1479352,0.6338882,-0.1287213
0.8675433,-0.3831479,-0.04143027,-0.03921887,0.7597814,-0.1897501
0.8832982,-0.2641583,-0.060339,-0.2223333,0.4280985,-0.1732928
0.9808867,-0.2014798,-0.01383616,-0.1822401,-0.1354734,-0.1658157
1.136097,-0.2366771,-0.0601533,-0.1576048,-0.4870736,-0.1038179
1.240389,-0.3072464,-0.1489878,-0.08951353,-0.4086392,-0.01324832
1.309325,-0.3504552,-0.2258336,0.01984133,-0.3282697,0.0614321
1.300198,-0.3667124,-0.2441015,0.1015073,-0.5948961,0.07743807
1.287884,-0.3579457,-0.2119092,0.231566,-0.957733,0.1417667
1.292668,-0.3605051,-0.3087357,0.3921042,-1.2084,0.2159683
1.285103,-0.4019151,-0.4539177,0.4193029,-0.982214,0.1858967
1.285081,-0.4360044,-0.5146236,0.2696429,-0.4608964,0.1027367
1.092482,-0.4242838,-0.4826833,0.05586221,-0.347373,-0.106767
0.7123959,-0.3835893,-0.2928821,-0.1023478,-0.5075527,-0.374294
0.4818119,-0.3576483,-0.1371781,0.05025234,-0.9815611,-0.4935389
0.5850322,-0.3929842,-0.2490274,0.3307971,-1.597163,-0.5919236
0.7878099,-0.4235773,-0.4926727,0.3228793,-1.371085,-0.7991159
0.9011838,-0.3602647,-0.6754264,0.2984111,-0.5775017,-0.8926549
1.028507,-0.275377,-0.7521788,0.37141,0.2082219,-0.8394444
0.9997504,-0.2488119,-0.6677523,0.4420179,0.7890678,-0.8659321
0.8817158,-0.2595348,-0.4949944,0.6828523,0.5841286,-0.9074319
0.8811103,-0.2606236,-0.4267638,0.8469173,0.1584964,-0.9078663
0.8447647,-0.2285236,-0.4384185,0.7794334,-0.02848854,-0.9384867
0.9182684,-0.1672261,-0.4831814,0.7605507,-0.229354,-0.9203091
1.005648,-0.09887374,-0.5264895,0.7984436,-0.02795444,-0.8459768
0.9354736,-0.08696857,-0.5133256,0.773183,0.1361421,-0.7752766
0.93963,-0.1440368,-0.5235798,0.7542783,0.06144223,-0.7712072
0.9026752,-0.188549,-0.4971913,0.8035507,0.3104745,-0.8613203
0.8278011,-0.1817948,-0.4299965,0.8889822,0.3475485,-0.9427815
0.8149169,-0.1373366,-0.3881538,1.046036,0.2015879,-0.9561327
0.7858533,-0.08181435,-0.3552803,1.212552,0.212945,-0.9370245
0.8153777,-0.05897567,-0.4141316,1.271453,0.1829653,-0.9389664
0.8288559,-0.05439689,-0.4597929,1.270099,0.3130219,-0.9582779
0.8198454,-0.02763147,-0.4249405,1.221051,0.4143134,-0.956728
0.8192486,-4.034939e-05,-0.3864401,1.204849,0.3808385,-0.9415295
0.7720502,0.007388562,-0.3276186,1.262843,0.3129013,-0.8977257
0.7469237,0.0132765,-0.3223994,1.315847,0.1465509,-0.8320386
0.7147744,0.019771,-0.3288268,1.383968,0.04233921,-0.767879
0.7087221,0.01147584,-0.2983115,1.44903,-0.1567333,-0.6696108
0.7655645,0.007889547,-0.3132609,1.538386,-0.290608,-0.5830589
0.8077439,0.04077827,-0.325264,1.553484,-0.07326571,-0.5828873
0.8278885,0.1039533,-0.2983538,1.372581,0.07827402,-0.5965652
0.8180112,0.170452,-0.2470056,1.260493,-0.0504648,-0.5376012
0.8652872,0.1977146,-0.2159562,1.323211,-0.2257749,-0.3846553
1.01402,0.1589921,-0.3019871,1.357069,-0.2216001,-0.1687659
1.113418,0.1127,-0.3980327,1.275496,-0.01297128,-0.06447962
1.076673,0.1275826,-0.3226269,1.216223,0.1647503,-0.05118584
1.049673,0.1883651,-0.2457686,1.251028,-0.1223442,0.1543435
1.172024,0.2325374,-0.3170208,1.195796,-0.6209344,0.4159072
1.250834,0.1909615,-0.4055675,1.030154,-0.6275809,0.4962136
1.1915,0.07247628,-0.5370944,0.8276354,-0.4847633,0.5679771
1.172977,-0.07327793,-0.6061938,0.5561579,-0.4779966,0.6147058
1.190554,-0.1954686,-0.4537647,0.3728552,-0.4229339,0.4752531
1.160746,-0.1595995,-0.3661225,0.5710285,-0.5191458,0.3453638
1.080837,-0.0953526,-0.4377413,0.9171875,-0.6941744,0.4959983
1.018197,-0.2288689,-0.4948873,0.8850174,-0.781606,0.702175
1.031103,-0.3652891,-0.5157211,0.8787626,-0.5416071,0.6286044
1.015976,-0.4326514,-0.4304105,1.092651,-0.1060543,0.4754277
1.014296,-0.2978125,-0.1101884,0.7139054,0.2010011,-0.1282546
1.117079,-0.2845145,-0.1240274,0.6788067,0.328556,-0.1147083
1.177758,-0.2613255,-0.1044327,0.6766107,0.1891695,-0.04016153
1.265908,-0.2660534,-0.06470091,0.7043388,-0.139689,0.01136378
1.293827,-0.241737,-0.1280252,0.6634597,-0.1278396,0.1041654
1.242023,-0.2100818,-0.2006929,0.5919703,-0.1952595,0.1293236
1.135452,-0.3018644,-0.2973956,0.5190111,-0.8831458,0.09185074
0.9903368,-0.504135,-0.5136091,0.5042112,-1.409658,0.09599963
1.11522,-0.6326542,-0.6589975,0.6100178,-0.9011972,-0.1256475
1.2687,-0.5677741,-0.6410646,0.5938386,0.1266911,-0.5256932
1.020922,-0.4718962,-0.5382083,0.4037282,0.3744089,-0.7624083
0.7631411,-0.4575945,-0.3885634,0.373576,-0.008090233,-0.9060982
0.7119998,-0.3721865,-0.3210122,0.4079014,-0.3446241,-0.9523738
0.7379817,-0.3058457,-0.4040407,0.4011061,-0.7061246,-0.896614
0.8249451,-0.3383466,-0.4747255,0.4835779,-0.7406243,-0.9411372
0.8510377,-0.2961299,-0.4848859,0.5611224,-0.4255026,-1.003125
0.8370622,-0.2495752,-0.4748125,0.6228826,-0.1744089,-0.987581
0.8167186,-0.1957537,-0.4128052,0.569928,-0.2114656,-0.9578682
0.7678995,-0.06109865,-0.3899164,0.4553528,-0.4172505,-0.8858444
0.7433237,0.01504896,-0.4043474,0.4550951,-0.3880592,-0.7579691
0.7021392,0.03132561,-0.3803374,0.3593698,-0.3963639,-0.5931329
0.7067049,-0.01765495,-0.3676547,0.2802719,-0.4436546,-0.4896058
0.7941988,-0.127169,-0.3615239,0.3159913,-0.3695222,-0.571541
0.8583393,-0.1805269,-0.3607678,0.3033898,-0.2680269,-0.6895944
0.85064,-0.1306589,-0.3551023,0.3732281,0.1386152,-0.7046422
0.8166828,0.01005737,-0.3254172,0.4764215,0.388671,-0.6846678
0.8500984,0.09187622,-0.3016586,0.4709935,0.2622478,-0.5883027
0.8714215,0.1009944,-0.2445333,0.291907,0.09817359,-0.4291482
0.8733736,0.1395691,-0.1574061,0.03456929,-0.2272831,-0.2910652
0.9199602,0.1396738,-0.1144364,0.006998067,-0.4501545,-0.1262572
0.9683447,0.1137566,-0.140489,0.05844254,-0.470541,0.04946123
1.139646,0.08346986,-0.1834393,0.01262597,-0.5191996,0.1449199
1.302332,-0.03128444,-0.2045142,0.06916941,-0.581364,0.1409241
1.274353,-0.2037438,-0.2362412,0.2586406,-0.5940043,0.1652429
1.272311,-0.2783698,-0.3759573,0.4052578,-0.5287359,0.2617571
1.311559,-0.2492669,-0.7040313,0.2856214,-0.4734148,0.2783311
1.295727,-0.2812632,-0.8953491,0.07845399,-0.3056,0.1604872
1.252059,-0.3139107,-0.7208467,0.1202982,-0.04109209,0.03230498
1.135232,-0.2733667,-0.6169272,0.1438822,0.1160037,0.1188008
1.003102,-0.2406819,-0.6925632,0.02222203,0.164735,0.2925916
1.010559,-0.1915071,-0.6592271,-0.0666606,0.2009165,0.2945215
1.065913,-0.1698399,-0.6045806,-0.1700856,0.3550495,0.3123471
1.009852,-0.2130143,-0.5668227,-0.1378397,0.3678199,0.3468507
0.9697725,-0.2255035,-0.4763893,-0.02652119,0.3314837,0.320726
0.9186103,-0.2261623,-0.4551932,-0.01780938,0.5638241,0.3289971
0.7898388,-0.2359252,-0.4633167,0.0882553,0.7139729,0.2983612
0.7362584,-0.2239884,-0.4039012,0.2310408,0.8416553,0.3200897
0.6529062,-0.2282905,-0.3385061,0.395921,0.9751707,0.3493192
0.5400155,-0.229653,-0.2651917,0.5517903,0.8487968,0.2869319
0.5000189,-0.2129976,-0.2184503,0.4545728,0.6379586,0.247634
0.4538945,-0.2073322,-0.2213366,0.3656594,0.3773605,0.1529588
0.4854753,-0.1848585,-0.1864189,0.3513016,0.2952215,0.1156549
0.5433098,-0.157291,-0.1534596,0.2808749,0.4405445,0.1578792
0.5583787,-0.154885,-0.1332931,0.3118811,0.391121,0.1011563
0.6410844,-0.1776381,-0.1041993,0.2994654,0.1833247,0.08675535
0.7992666,-0.2175507,-0.1196586,0.2281329,0.0505248,0.05419743
1.03352,-0.2532756,-0.1142847,0.2416519,0.2395438,-0.02822113
1.187157,-0.2828828,-0.09777329,0.2815702,0.4482033,0.0009204601
1.221687,-0.2902116,-0.1198192,0.3761462,0.07666309,0.03765542
1.344492,-0.2789854,-0.1292694,0.4370813,-0.3352287,0.09502475
1.444987,-0.2571522,-0.1714171,0.429319,-0.3078552,0.2067688
1.415715,-0.2137327,-0.2457038,0.4452197,-0.3150264,0.2845474
1.343587,-0.2275971,-0.3355511,0.4293473,-0.5250105,0.3676661
1.23696,-0.3833693,-0.4642799,0.4259637,-0.6654475,0.3821187
1.163993,-0.5750796,-0.520987,0.4790066,-0.5122334,0.1997574
1.052324,-0.5808679,-0.4719584,0.4907136,-0.1212856,-0.1257944
0.8121337,-0.446328,-0.4029907,0.3854953,0.08844163,-0.4633455
0.704591,-0.3467179,-0.3704166,0.2598301,-0.2029275,-0.7127697
0.7579377,-0.2421988,-0.4199984,0.2640232,-0.6736031,-0.8292583
0.7529171,-0.2001852,-0.5094318,0.1882372,-0.6889259,-0.816032
0.7714606,-0.2468234,-0.5312595,0.01061196,-0.3162638,-0.7865677
0.8054419,-0.2339273,-0.4767822,0.07913296,0.01997226,-0.8326502
0.7791819,-0.2408581,-0.4274584,0.2208595,0.133704,-0.8520975
0.803362,-0.257131,-0.4057462,0.3023321,-0.1055461,-0.8263589
0.8228796,-0.1869573,-0.4001574,0.4963392,-0.2628352,-0.8344808
0.7980779,-0.1130895,-0.4246299,0.5180742,-0.1045033,-0.8279908
0.7845126,-0.02390844,-0.4589903,0.3189318,-0.07137443,-0.7835398
0.7600922,0.04196454,-0.4704146,0.1422523,-0.1127326,-0.6681646
0.7700264,0.004737609,-0.4412021,-0.02682233,-0.1589877,-0.504855
0.8239672,-0.08530673,-0.3931339,-0.02979221,-0.2960733,-0.4778004
0.8784807,-0.1524616,-0.3690506,0.07874359,-0.2863707,-0.5751925
0.8924309,-0.109227,-0.3747875,0.1200319,0.01121255,-0.660462
0.8558451,-0.03405112,-0.3799816,0.2264545,0.4563131,-0.6805842
0.8437942,-0.02363274,-0.3517534,0.2841134,0.5638243,-0.5681582
0.8305668,0.02054632,-0.2940577,0.2427534,0.2260556,-0.387531
0.7978708,0.08210829,-0.2095552,0.2273394,-0.05161446,-0.282353
0.816175,0.06577261,-0.1647955,0.2002575,-0.07405176,-0.2027931
0.861286,0.05440899,-0.1953522,0.2082088,-0.01161091,-0.05604193
0.8997363,0.1068452,-0.184672,0.2205251,-0.04667554,0.1112359
0.9251857,0.1225499,-0.1676462,0.2008801,-0.2155658,0.2357474
0.9786902,0.06647935,-0.2033442,0.1827132,-0.4258365,0.2617314
1.127131,-0.008892138,-0.2285613,0.09073435,-0.5525585,0.1980445
1.265547,-0.07749843,-0.2924118,0.02404022,-0.6148545,0.1349528
1.304146,-0.1252662,-0.3359127,0.1392782,-0.7398566,0.09927501
1.343285,-0.1412497,-0.3274392,0.2535166,-0.733795,0.1781138
1.386458,-0.09684006,-0.4614523,0.06464284,-0.6441358,0.3904347
1.339448,-0.05543423,-0.6922016,-0.3433077,-0.743441,0.5204818
1.258386,-0.1191998,-0.7660848,-0.5825256,-0.7570779,0.4720852
1.187342,-0.2501399,-0.6669456,-0.3915024,-0.5774744,0.3249314
1.054347,-0.376784,-0.6233591,0.04171294,-0.2214624,0.2149146
0.909612,-0.4114885,-0.6845386,0.2694269,0.2816186,0.2275964
0.8579793,-0.3674899,-0.6848884,0.3005461,0.4107449,0.2240123
0.8678791,-0.3695499,-0.641242,0.3216101,0.3369036,0.1168726
0.8988314,-0.3659707,-0.5970548,0.4004765,0.4448042,-0.004609674
0.9578722,-0.3451966,-0.5482492,0.5990939,0.4621942,-0.122619
1.004835,-0.3617404,-0.551516,0.7885562,0.6596617,-0.1869395
0.9708896,-0.3256021,-0.5182945,1.096974,1.002906,-0.1007486
0.8753413,-0.253653,-0.4070139,1.433999,0.900077,0.01113441
0.7812633,-0.2088148,-0.3127364,1.479675,0.6198054,0.01201432
0.6854534,-0.191914,-0.2675265,1.477551,0.4087455,-0.04567951
0.6377802,-0.1689526,-0.2792875,1.40495,0.2693502,-0.1115281
0.6504629,-0.08143334,-0.2935258,1.196816,0.4181959,-0.1218942
0.6255907,-0.035568,-0.2876433,0.9536301,0.5109545,-0.08547454
0.5853223,-0.04599051,-0.2984769,0.6003703,0.3608569,-0.08425901
0.5512866,-0.06850141,-0.2499188,0.4832728,0.3012503,-0.09092278
0.5021763,-0.1855746,-0.118043,0.580673,0.2053662,-0.1306059
0.5023863,-0.2834694,0.01712176,0.6183829,-0.03876854,-0.2026476
0.5682161,-0.3022126,0.08031248,0.7384945,-0.172149,-0.2421676
0.6790042,-0.2772119,0.01113539,0.7208598,-0.1200144,-0.2975809
0.7879484,-0.1786629,-0.09176564,0.4328097,-0.03991972,-0.3330893
0.8462538,-0.1119797,-0.1082808,0.1442632,-0.09374609,-0.2830009
0.9459694,-0.09230595,-0.06982805,0.04831118,-0.2782599,-0.1978928
1.150789,-0.1154407,-0.04208039,0.1401524,-0.4696536,-0.1145084
1.32727,-0.16453,-0.107099,0.1439798,-0.4556323,-0.03927274
1.372418,-0.1435673,-0.1896054,0.09489793,-0.4132904,0.08989051
1.387829,-0.1529194,-0.1782271,0.182234,-0.695994,0.2814107
1.435422,-0.1882681,-0.2109379,0.2307497,-0.9260408,0.424222
1.407395,-0.2378947,-0.3029231,0.2409358,-1.037063,0.49595
1.286769,-0.4192397,-0.3534103,0.2598188,-1.171956,0.4737387
1.126464,-0.5590686,-0.3880483,0.2294938,-0.823966,0.3488626
0.9238919,-0.5260689,-0.3934813,0.2349664,-0.4094149,0.1711841
0.7513493,-0.503836,-0.3860406,0.235929,-0.6139591,-0.07103008
0.66094,-0.5928026,-0.3920991,0.2929957,-0.9145405,-0.2804371
0.7460313,-0.6342835,-0.4438045,0.5069651,-0.9208796,-0.5734089
0.9533339,-0.5446796,-0.570369,0.6677353,-0.6170929,-0.9801592
0.9103104,-0.4329121,-0.6246043,0.6663201,0.04278715,-0.9872638
0.8005141,-0.3469757,-0.5402562,0.7147535,0.3778638,-0.8522111
0.867838,-0.320988,-0.435446,0.9237387,0.02571216,-0.9871283
0.8351338,-0.320574,-0.4189619,0.9891416,-0.2071359,-0.9805436
0.8438921,-0.2691941,-0.480383,0.9079327,-0.1594225,-0.9741218
0.860074,-0.201063,-0.5057642,0.9899297,-0.2103309,-1.014063
0.7399837,-0.1542881,-0.4794268,1.038974,-0.2080302,-0.8477895
0.7449622,-0.1773485,-0.4533918,0.9401046,-0.2412131,-0.8189875
0.7442624,-0.2000569,-0.4559628,0.7939447,-0.3091898,-0.9542303
0.7279144,-0.1630082,-0.4535658,0.6647063,-0.1847845,-1.114369
0.7571084,-0.1397681,-0.4235306,0.7779266,-0.05576372,-1.174678
0.7356382,-0.08784777,-0.4318858,0.9027511,-0.03557744,-1.077576
0.7954829,-0.04937919,-0.4491753,0.7741539,0.01360836,-1.102418
0.83423,-0.06473602,-0.4567626,0.7231049,0.1200509,-1.116007
0.872923,-0.0472107,-0.4658496,0.8276688,0.2463464,-1.102497
0.9617044,-0.02886853,-0.4444571,0.8612971,0.5087071,-1.170503
0.9594258,0.01148211,-0.4201062,0.8149217,0.8399732,-1.130927
0.9222735,0.06721419,-0.3494752,0.6881314,0.8997057,-1.058682
0.828883,0.06393282,-0.2274501,0.5114729,0.6166199,-0.8514738
0.8015723,0.06201241,-0.1303167,0.4710233,0.162804,-0.509412
0.8930567,0.06490788,-0.09528252,0.5106726,-0.1250471,-0.3313966
0.9351825,0.05654695,-0.1180721,0.4293258,-0.1681434,-0.2372156
0.9788339,0.04388195,-0.1245321,0.3362163,-0.3680759,-0.1188427
1.039785,0.007677022,-0.1639481,0.3595083,-0.5807308,0.01897585
1.142047,-0.01178789,-0.2292728,0.4185751,-0.490906,0.1460004
1.286918,-0.06540679,-0.2249618,0.4573652,-0.4619577,0.1852769
1.403768,-0.1584569,-0.247784,0.4413184,-0.5385188,0.1533705
1.427017,-0.1676376,-0.2883805,0.3613473,-0.4931835,0.1126984
1.343564,-0.1597622,-0.3609785,0.3022286,-0.5046661,0.1039093
1.351844,-0.2050216,-0.4918332,0.3293116,-0.5321113,0.118092
1.287151,-0.1941171,-0.510945,0.431964,-0.5797412,0.2300088
0.9857815,-0.1466829,-0.6302735,0.4921539,-0.8313703,0.4148684
0.8087807,-0.1725708,-0.8812889,0.4079145,-0.8793688,0.4655358
0.9380274,-0.2877571,-0.8189511,0.3069008,-0.3753002,0.3109283
1.134377,-0.3970963,-0.703078,0.2871291,0.1293207,0.1040592
1.038551,-0.2995815,-0.7518257,0.2639363,0.0340596,0.07708057
0.9318869,-0.1414584,-0.6312731,0.2727444,0.02214482,0.1549372
1.002085,-0.195731,-0.5748719,0.3410689,0.583809,0.2406441
0.8360002,-0.217146,-0.5601398,0.3821535,0.7834919,0.412852
0.7323612,-0.1659222,-0.3514295,0.4686407,0.6352387,0.458131
0.7654033,-0.2265915,-0.3499865,0.5575761,0.5333326,0.3196024
0.6738329,-0.2308152,-0.3681109,0.5611147,0.2614457,0.2028405
0.6973772,-0.2062017,-0.2413656,0.6517996,0.3512808,0.09934247
0.7010039,-0.203916,-0.308681,0.7064237,0.5493031,0.00690815
0.6616066,-0.1472298,-0.3091317,0.5444674,0.5008715,-0.03369372
0.6531058,-0.1277402,-0.2574585,0.3646423,0.7679736,-0.01890911
0.594478,-0.1044504,-0.2645787,0.2903581,0.8734496,0.08362701
0.6050644,-0.04853361,-0.1119082,0.2973316,0.4322505,0.2363287
0.6166345,-0.03253322,-0.06092254,0.216122,-0.2094535,0.3252974
0.7002633,-0.1195164,-0.1522603,0.07583002,-0.5421881,0.3070501
0.8784728,-0.3063242,-0.2121596,0.1662763,-0.05636932,0.2497601
1.029685,-0.4108786,-0.268241,0.3027443,0.5033546,0.1503952
1.123481,-0.4063151,-0.2571568,0.2775271,0.5252615,0.06858856
1.066629,-0.3710117,-0.2316151,0.2294589,0.4310111,0.188577
1.067317,-0.3394072,-0.1820618,0.1370874,0.1722179,0.3308622
1.171589,-0.3633008,-0.1359185,0.005721641,-0.2325797,0.2784146
1.244194,-0.3661009,-0.2072173,-0.1266493,-0.3129741,0.2651292
1.30529,-0.3339188,-0.3039918,-0.2890848,-0.2414566,0.3162972
1.196516,-0.3472461,-0.388638,-0.376207,-0.5336199,0.2766117
1.003268,-0.4485286,-0.4377279,-0.3365634,-0.8904349,0.2500224
0.9099609,-0.5638662,-0.4660229,-0.1825131,-0.758901,0.1362944
0.8968069,-0.5247926,-0.5773066,-0.06702743,-0.2465878,-0.1633318
0.9265676,-0.4506267,-0.6557867,-0.2083787,0.3088849,-0.4280279
0.8608556,-0.4094383,-0.5455335,-0.353517,0.4323695,-0.574219
0.748662,-0.2488854,-0.3912161,-0.2784678,0.01695884,-0.6251986
0.7202035,-0.1740318,-0.3804528,-0.2440147,-0.279019,-0.6046834
0.7826498,-0.2493823,-0.4152777,-0.2784622,-0.2778873,-0.6153643
0.918851,-0.2449322,-0.4423966,-0.2249331,-0.2131846,-0.6811067
0.9966394,-0.2398016,-0.5042728,-0.1928691,-0.03243623,-0.6945674
0.9953328,-0.1853395,-0.5146379,-0.157428,0.1967085,-0.5545725
0.920538,-0.02876,-0.4883757,-0.1110758,0.3366578,-0.3655289
0.7839327,-0.007770165,-0.4565127,-0.3000804,0.1637328,-0.2719926
0.7409506,-0.02412817,-0.3790203,-0.5602926,-0.2393786,-0.2279513
0.7289759,0.002626267,-0.3135268,-0.6164113,-0.3794179,-0.1934907
0.7266947,-0.06406889,-0.3262589,-0.5912136,-0.2716211,-0.2133246
0.796286,-0.1200141,-0.3527253,-0.4856577,-0.07530109,-0.2567282
0.7980232,-0.1115862,-0.3255451,-0.2983701,0.2049709,-0.252766
0.7820198,-0.05759909,-0.3266811,-0.262669,0.426855,-0.2011209
0.8009725,0.04221054,-0.312717,-0.362115,0.4520129,-0.08189929
0.7870311,0.1158636,-0.2109142,-0.4157039,0.226448,0.07576311
0.8041528,0.1506091,-0.1464723,-0.5102649,-0.03523312,0.1920179
0.841184,0.1234129,-0.1462417,-0.6219727,-0.2336058,0.3107339
0.9239579,0.06918206,-0.1941865,-0.5513862,-0.3424318,0.4269812
1.099204,0.02584503,-0.2704235,-0.4669374,-0.327827,0.4568677
1.247082,-0.0929844,-0.3118142,-0.4819939,-0.4297949,0.3713398
1.278556,-0.2425042,-0.339823,-0.4612845,-0.5465412,0.2969283
1.23243,-0.2953552,-0.4144537,-0.501858,-0.525542,0.4025959
1.224901,-0.2248013,-0.6107655,-0.6219698,-0.3908038,0.5535178
1.226795,-0.131502,-0.7653727,-0.6232069,-0.2351303,0.6385985
1.125907,-0.1562387,-0.7079205,-0.4763449,-0.3629396,0.6917079
0.9919231,-0.275949,-0.6845664,-0.2925379,-0.4559872,0.6360025
0.9392782,-0.3896869,-0.7775352,-0.1857683,-0.1454105,0.5524244
0.9838906,-0.4032872,-0.7970724,-0.235817,0.3496585,0.5009655
0.9953117,-0.3439869,-0.767358,-0.3202606,0.79102,0.3830901
0.9212638,-0.3380788,-0.6965229,-0.293239,0.8215018,0.261881
0.8770589,-0.313939,-0.5373888,-0.1904002,0.5366867,0.2028106
0.8620982,-0.3009183,-0.4768279,-0.01769735,0.4479369,0.1857092
0.8641194,-0.3437034,-0.5508258,0.09257238,0.5778642,0.2032533
0.8541981,-0.2651263,-0.5547926,0.1215189,0.7437115,0.2319845
0.7992091,-0.194219,-0.4939615,0.2831844,0.7875562,0.2802232
0.7936607,-0.2281483,-0.4296272,0.4126341,0.6302596,0.3135524
0.8032824,-0.2309916,-0.3822954,0.4786343,0.451431,0.2952026
0.7889146,-0.2459309,-0.402116,0.5668912,0.421487,0.2823458
0.8006965,-0.2407204,-0.4117003,0.4795726,0.5317039,0.260505
0.8206534,-0.1947585,-0.3900461,0.3838973,0.6941804,0.2277624
0.8444392,-0.1707583,-0.3903275,0.2793351,0.8006941,0.2608019
0.8211516,-0.1785063,-0.337431,-0.04797362,0.7163634,0.2945319
0.7461439,-0.2367985,-0.2010381,-0.3533156,0.5875587,0.2792055
0.685932,-0.2683232,-0.08328112,-0.3987676,0.5988367,0.3015124
0.6158232,-0.2715591,0.01855201,-0.09420153,0.3602275,0.328691
0.5493592,-0.2860954,0.144314,0.2508144,-0.08031,0.2632888
0.5526941,-0.2791802,0.1287906,0.2236795,-0.1536168,0.1495258
0.616727,-0.2690233,-0.01440524,0.05901417,-0.130581,0.07590604
0.7210207,-0.2557662,-0.05722838,0.01990057,-0.2396837,0.02987968
0.8825813,-0.2597455,-0.06418987,0.1141918,-0.1246477,-0.06781099
1.031446,-0.2515967,-0.1110551,0.2043206,0.1159278,-0.1678525
1.139757,-0.1825891,-0.213152,0.0933366,0.1891821,-0.1375221
1.195548,-0.1404667,-0.3683875,0.01285576,-0.002440585,-0.05041837
1.107636,-0.2383802,-0.336692,0.2021577,-0.4775917,0.07289595
1.042955,-0.4669927,-0.2785051,0.5049291,-1.253782,0.2853858
1.041326,-0.5973613,-0.3988822,0.665121,-2.068355,0.312806
1.066405,-0.5214753,-0.4742213,0.4064847,-1.831433,0.1564507
1.178203,-0.4235077,-0.563866,-0.1632485,-0.2990478,-0.005462813
1.012786,-0.3892244,-0.564347,-0.4891453,0.7170412,-0.3476899
0.7659511,-0.3921569,-0.4017128,-0.3713539,0.01795689,-0.5506616
0.7517698,-0.4129393,-0.3045011,-0.1134443,-1.208484,-0.4412748
0.6120044,-0.4069471,-0.1557824,-0.01613693,-1.610861,-0.5321936
0.6648919,-0.3871359,-0.2636262,-0.09913752,-1.434567,-0.6836215
0.9363896,-0.3776549,-0.6662472,-0.1748231,-0.5117144,-0.6935548
0.9457038,-0.3568117,-0.708248,-0.1184456,1.126729,-0.8207584
0.9396179,-0.3464751,-0.5706748,0.03521889,1.492971,-0.98214
0.862628,-0.3318362,-0.437067,0.1767594,0.6614727,-1.098634
0.6381845,-0.2586728,-0.2600442,0.2032049,0.1674473,-1.137878
0.6091501,-0.1454801,-0.2980376,0.07234718,-0.2040205,-1.005045
0.6860719,-0.01176664,-0.3582861,-0.01025067,-0.2390675,-0.783878
0.7326152,0.04662728,-0.3859669,0.105646,-0.1059676,-0.5680584
0.7961875,-0.02670857,-0.4619784,0.1630379,-0.2680494,-0.525561
0.8992805,-0.1328635,-0.4654845,0.1055612,-0.07850942,-0.7058631
0.9757456,-0.2078751,-0.4766472,0.1574198,0.4234477,-0.8949468
0.9231002,-0.1134149,-0.4530342,0.4374405,1.064509,-0.9401788
0.8425623,0.11811,-0.3844042,0.7220146,1.406932,-0.7801111
0.745484,0.2140308,-0.2962189,0.5520216,0.9203202,-0.5244802
0.6387804,0.1858687,-0.1980772,0.165626,0.3740921,-0.3373589
0.6926503,0.1058845,-0.1894338,0.03625074,0.02755589,-0.1540888
0.8497348,0.02068369,-0.1744829,0.03639508,-0.1234564,-0.02346645
1.000413,0.07153936,-0.2021911,-0.09237239,0.2021824,-0.05821147
1.049497,0.1108567,-0.2723207,-0.4621216,0.3256706,-0.07921965
0.9899588,0.02027566,-0.232389,-0.638954,0.1409896,-0.03634006
1.025768,-0.04028962,-0.1878033,-0.2904015,-0.05708711,-0.02141355
1.097024,-0.04625243,-0.1280516,0.1221338,-0.5827188,0.05289871
1.188052,-0.05368681,-0.0875829,0.3890958,-1.086628,0.1500062
1.353127,-0.06625853,-0.2266512,0.5003628,-1.193053,0.165693
1.371761,-0.08240566,-0.4128169,0.4968067,-1.024407,0.1477179
1.345085,-0.1146681,-0.5171374,0.5458156,-0.8187414,0.1206593
1.370664,-0.186794,-0.581743,0.3415153,-0.7780785,0.09923867
1.297647,-0.190286,-0.6145071,0.1167213,-0.6378909,0.1312924
1.158904,-0.06591199,-0.5802904,0.3458932,-0.5625734,0.2549631
0.957151,-0.006459899,-0.5708785,0.4936024,-0.6602224,0.4178267
0.8625584,-0.1678824,-0.6929972,0.3380884,-0.4348078,0.4575188
0.9684121,-0.3791836,-0.7748374,0.2852302,-0.06881318,0.3731156
0.9964109,-0.3695386,-0.6527349,0.3357083,0.1160128,0.2553966
0.9494129,-0.2634963,-0.5102503,0.2993595,0.07763326,0.1374754
0.9437005,-0.2593231,-0.5281742,0.2420329,0.02967393,0.1818051
0.9181353,-0.2513477,-0.5340907,0.2973491,0.3776465,0.2982803
0.8838069,-0.2274977,-0.4211196,0.455219,0.6989249,0.2372604
0.849571,-0.2150802,-0.3287388,0.641513,0.6662985,0.2030561
0.7689186,-0.2209321,-0.2622891,0.6590024,0.5324065,0.1951483
0.6665593,-0.2727644,-0.2312751,0.6146398,0.3339568,0.05329548
0.6151212,-0.2507065,-0.2451692,0.7968921,0.1967134,0.02810765
0.5814623,-0.1824143,-0.2368966,0.9980023,0.1757759,0.06003184
0.5636133,-0.1188997,-0.2650493,1.065184,0.2534203,0.04143431
0.6125972,-0.04068098,-0.3103125,0.9053318,0.3651152,0.1284781
0.6573275,-0.0355326,-0.329231,0.5346698,0.3627251,0.2294496
0.6857041,-0.08173365,-0.3080193,0.3357098,0.3668994,0.2946762
0.7421324,-0.2145653,-0.2158906,0.24015,0.3874289,0.2978478
0.8302184,-0.3902275,-0.1384129,0.214771,0.4108992,0.1693452
0.943688,-0.4461998,-0.06632425,0.3595591,0.4341785,-0.109105
0.9962369,-0.4567127,-0.01489017,0.356082,0.4327039,-0.3807558
0.9501361,-0.3834691,-0.05943739,0.201484,0.5889459,-0.2727746
0.9005911,-0.2211236,-0.08559607,0.01122352,0.7296309,-0.06311925
0.9289866,-0.1742742,-0.02512696,-0.1090399,0.5597861,-0.04985175
1.006911,-0.1998236,0.01065386,-0.08598229,0.07813059,0.08075594
1.102492,-0.2085337,-0.09882337,-0.1288659,-0.3707801,0.1922989
1.238866,-0.2404823,-0.2575032,-0.09335299,-0.2675983,0.259509
1.395897,-0.2787107,-0.3050144,0.06696181,0.06705519,0.4062302
1.464776,-0.346484,-0.2941419,0.214594,0.05902435,0.3548473
1.292659,-0.4617882,-0.3051931,0.3307755,-0.2186392,0.3012876
1.061955,-0.5321111,-0.3204889,0.2502822,-0.6913266,0.2945411
1.041067,-0.5378542,-0.3187211,0.2107908,-1.112467,0.1355078
1.010826,-0.539261,-0.3787873,0.2761205,-1.16687,-0.018844
0.8882076,-0.5530235,-0.4963235,0.2504264,-0.9530785,-0.2858772
0.8248295,-0.5670435,-0.5248743,0.3371999,-0.5699772,-0.5241134
0.8063716,-0.5532684,-0.4801358,0.4407598,-0.3408253,-0.5951699
0.8606956,-0.5125215,-0.4495128,0.4503345,-0.3808274,-0.7853945
0.9118138,-0.4036373,-0.4593329,0.3822032,-0.324102,-0.8656443
0.9191464,-0.238644,-0.4915394,0.1533222,-0.2069744,-0.7542654
0.9123591,-0.1495629,-0.5001867,-0.02274928,-0.03260951,-0.6946795
0.8201582,-0.07284297,-0.4713267,-0.07711728,0.09669127,-0.6486521
0.7415858,0.02108604,-0.40291,-0.1812518,-0.06667862,-0.6499177
0.6874033,-0.01920053,-0.3431611,-0.4350043,-0.2672291,-0.7153035
0.5960481,-0.08887471,-0.2708274,-0.6714621,-0.4142659,-0.7643121
0.5678936,-0.07364013,-0.1941432,-0.6074146,-0.4686832,-0.6908318
0.6260449,-0.07811978,-0.2172064,-0.2921772,-0.5659335,-0.4858685
0.7644197,-0.08697714,-0.2927151,0.02204728,-0.7894075,-0.3749078
0.9381442,-0.07560587,-0.4214229,-0.03333915,-0.4351537,-0.5003722
1.037946,-0.04362758,-0.5322618,-0.313126,0.4197466,-0.6756395
1.017036,0.128874,-0.4544945,-0.4443106,0.9649643,-0.604677
0.9619213,0.2999394,-0.3456211,-0.7422698,0.9279605,-0.3412576
0.9662666,0.2352314,-0.2771534,-1.088876,0.3745869,0.01922957
0.9942614,0.1384626,-0.2096866,-1.114966,-0.2234325,0.4400365
1.073966,0.1220146,-0.314535,-1.056307,-0.4752906,0.6738801
1.160472,-0.03215937,-0.4388269,-0.9984619,-0.4109698,0.7424124
1.176526,-0.2141279,-0.3728302,-0.8138719,-0.330907,0.7121644
1.173196,-0.2617075,-0.3354864,-0.4256635,-0.4261683,0.624689
1.100749,-0.2806372,-0.3918773,-0.124751,-0.393123,0.6070468
1.011518,-0.1966576,-0.5306052,-0.1868431,-0.3392764,0.5401107
1.004467,-0.0997729,-0.8032693,-0.3955829,-0.3458323,0.5421501
1.037942,-0.1861543,-0.8910001,-0.6043675,-0.1329875,0.5897672
1.054335,-0.2697258,-0.7643107,-0.5874866,0.08922656,0.5098387
0.9851888,-0.3153613,-0.7623449,-0.4259689,0.3386009,0.5222901
0.9231517,-0.3783557,-0.7781807,-0.4382011,0.4915442,0.5156708
0.9492308,-0.3632134,-0.7385812,-0.418732,0.3803151,0.4477158
1.005821,-0.3083468,-0.7251695,-0.3889026,0.4910036,0.4592046
1.080529,-0.2532885,-0.6442147,-0.3481718,0.7189268,0.4543564
1.08597,-0.2409363,-0.5826569,-0.1713093,0.9222956,0.4976797
0.9345139,-0.2677166,-0.5195347,-0.09812787,1.187649,0.5035541
0.7586897,-0.2591649,-0.3712242,-0.004837236,1.174355,0.502802
0.734171,-0.249711,-0.3363902,0.121742,0.9896364,0.5773558
0.6806838,-0.2127395,-0.3140244,0.03057907,0.7811671,0.5265232
0.4854395,-0.1053811,-0.1639017,-0.04529573,0.4698174,0.5077788
0.4634084,-0.03069261,-0.1502134,-0.02354455,0.2827153,0.6024819
0.5413562,-0.03374045,-0.2394379,-0.1841479,0.3300295,0.690547
0.4972755,-0.02405629,-0.2295053,-0.4953011,0.3838316,0.7729917
0.5210205,-0.01810997,-0.2186682,-0.5987263,0.3055774,0.7547629
0.6090248,-0.1235624,-0.1844709,-0.4357018,0.3429731,0.6855218
0.7354513,-0.3008521,-0.1137755,-0.2599399,0.475439,0.5270922
0.9522716,-0.462311,-0.1318889,-0.1454772,0.5356643,0.235618
1.066996,-0.5084433,-0.139718,-0.111224,0.6754932,0.1043959
1.100233,-0.3956623,-0.09526651,-0.1170354,0.6361916,0.152318
1.164735,-0.3132439,-0.09403844,-0.05156955,0.1537891,0.195164
1.206006,-0.3220097,-0.1471928,-0.005051538,-0.36374,0.3553327
1.235685,-0.2837648,-0.2190883,-0.02210788,-0.3931165,0.680282
1.224598,-0.2328384,-0.23847,-0.021436,-0.2897389,0.8659194
1.167758,-0.2720618,-0.314133,-0.05053311,-0.7357557,0.7778348
1.095808,-0.4256003,-0.4974217,-0.1997041,-0.9878589,0.5889638
1.02343,-0.5843952,-0.5442561,-0.4031374,-0.4635382,0.2768242
1.00821,-0.5518616,-0.4667529,-0.5078026,0.01902156,-0.133411
0.9870166,-0.4167464,-0.4330823,-0.5449153,0.04827503,-0.3874733
0.9420712,-0.3457875,-0.3855437,-0.5803578,-0.08622302,-0.5497876
0.9035044,-0.2569777,-0.3549173,-0.560115,-0.07891391,-0.6664715
0.839151,-0.2275968,-0.4057438,-0.5981753,-0.1468017,-0.6120844
0.831736,-0.2861913,-0.4359063,-0.7124199,-0.3435684,-0.6169901
0.8602365,-0.2487232,-0.4401456,-0.7030797,-0.2605681,-0.6841348
0.8454702,-0.1979225,-0.4660857,-0.5651278,-0.1047522,-0.601312
0.8389516,-0.1548275,-0.467378,-0.4323561,0.03237576,-0.5111426
0.8109178,-0.09085714,-0.4438185,-0.4814281,0.0866508,-0.427349
0.7365248,-0.07060521,-0.4107247,-0.6767532,-0.07972412,-0.3761406
0.6689782,-0.003412772,-0.3779079,-0.8253209,-0.09254332,-0.3858601
0.6208696,0.0002026503,-0.3659413,-0.9331266,-0.07474207,-0.2849693
0.5962224,-0.0631021,-0.3419002,-0.8885984,-0.1609531,-0.2022098
0.6201569,-0.07284877,-0.3310163,-0.6602311,-0.2462379,-0.1982673
0.7034138,-0.1338956,-0.388845,-0.4266321,-0.2782489,-0.2569186
0.8107397,-0.1444735,-0.4617906,-0.3093787,0.1674712,-0.4559334
0.8972088,-0.1119998,-0.4877944,-0.3474606,0.8971082,-0.5859762
0.917133,-0.1070637,-0.4408392,-0.3326225,1.112504,-0.5664135
0.9150115,0.02089907,-0.2933351,-0.3433137,0.5726191,-0.4627363
1.007635,0.1699133,-0.1323307,-0.487935,0.02718795,-0.2814106
1.11739,0.1903727,-0.1076863,-0.4947036,-0.01337573,-0.003831905
1.170404,0.1371704,-0.1260152,-0.4268074,-0.3619535,0.4035056
1.292985,0.1001229,-0.0786234,-0.3091747,-1.081575,0.690105
1.440768,0.04536472,-0.1874098,-0.1884025,-1.260683,0.7500704
1.441209,-0.02086262,-0.4857883,-0.2636875,-0.9284285,0.7795262
1.351282,-0.01264705,-0.7262022,-0.3686077,-0.6038252,0.8863644
1.282934,-0.06707459,-0.8132048,-0.4646722,-0.5641978,1.00441
1.214727,-0.1502532,-0.7584846,-0.5234769,-0.5591617,0.8902624
1.137612,-0.2289687,-0.7587077,-0.5379494,-0.1918146,0.6587709
1.060906,-0.3960785,-0.8407136,-0.6392901,0.4219158,0.5616169
1.027365,-0.3648982,-0.7753678,-0.6703495,0.9498417,0.5009526
0.9968528,-0.212488,-0.6399645,-0.6462247,0.949591,0.5052416
0.8620648,-0.1982359,-0.5056041,-0.6082454,0.5389153,0.6035581
0.8298235,-0.1714698,-0.4606145,-0.4653642,0.3676818,0.7012643
0.9036497,-0.2211107,-0.5270445,-0.3735277,0.6082866,0.7645882
0.8432099,-0.2985473,-0.4546661,-0.3405907,1.021583,0.7569705
0.8090256,-0.2430047,-0.3969928,-0.1645287,1.102172,0.7564856
0.7366867,-0.2172801,-0.3577111,0.1295771,0.8003722,0.7495277
0.56356,-0.1571293,-0.189024,0.1611386,0.6867454,0.6756196
0.5735443,-0.06974031,-0.1966993,-0.2179413,0.9849097,0.6113412
0.5878707,-0.0759263,-0.2542997,-0.6538165,1.359778,0.5438742
0.4980594,-0.04219053,-0.1824223,-0.8101178,1.171187,0.496656
0.5087296,-0.02118908,-0.1473178,-0.5703795,0.4867562,0.4836901
0.5654499,-0.07876448,-0.07942177,-0.2857058,0.1082814,0.4309547
0.6675107,-0.1498487,-0.05426907,-0.2671119,0.5838702,0.3221934
0.8407065,-0.2597974,-0.09650564,-0.3155137,1.197943,0.2104356
0.9209253,-0.2969291,-0.05515403,-0.3718054,0.6153494,0.2369127
0.9080672,-0.2645641,-0.03337013,-0.3723995,-0.1536295,0.2824738
1.048516,-0.3538051,-0.05059473,-0.3286046,-0.0992618,0.2396923
1.332504,-0.4346932,-0.07382659,-0.3724137,-0.1135285,0.3258967
1.442021,-0.3578467,-0.1642773,-0.364247,-0.1109367,0.4373663
1.334804,-0.2996004,-0.2654495,-0.4006295,-0.4012895,0.4507672
1.225093,-0.3471363,-0.3476297,-0.4349435,-1.061112,0.4589211
1.188627,-0.4340256,-0.4269109,-0.2392826,-0.9444945,0.3519902
1.185468,-0.5111823,-0.5233251,-0.1790874,-0.2121067,0.07933627
1.158824,-0.4949065,-0.6183741,-0.5992008,0.5262993,-0.3567895
1.040829,-0.4165781,-0.5768498,-1.040722,0.4838472,-0.7648505
0.8943895,-0.3541978,-0.4660381,-0.867026,-0.1279453,-0.8145759
0.8304309,-0.2617636,-0.4438114,-0.6304682,-0.2116109,-0.6855157
0.8221303,-0.2237948,-0.4491685,-0.740726,-0.2522382,-0.6385717
0.8665178,-0.2807396,-0.4540644,-0.4509752,-0.1391754,-0.6513693
0.9010417,-0.2747183,-0.4367704,-0.02045747,0.1233544,-0.6624582
0.8369301,-0.2421954,-0.3793547,0.08697361,-0.07665981,-0.5965317
0.7605132,-0.1838354,-0.3506753,0.133403,-0.08177057,-0.5370905
0.6813233,-0.03594766,-0.3282792,-0.03933754,-0.08267733,-0.5262534
0.5744444,0.03813662,-0.319604,-0.2585034,-0.2579699,-0.509063
0.5076219,0.02923265,-0.2909715,-0.3200714,-0.366962,-0.49754
0.5353254,0.004164293,-0.2158669,-0.3108615,-0.8206991,-0.4449159
0.642411,-0.05482879,-0.2323924,-0.2330659,-1.058383,-0.4226065
0.758128,-0.06564118,-0.3093262,-0.251758,-0.7198847,-0.4603535
0.899917,-0.005513178,-0.403525,-0.1795249,-0.1909989,-0.453612
1.006303,0.1034707,-0.4846356,-0.1140634,0.3132906,-0.4074214
1.009626,0.2012908,-0.3652753,-0.2978055,0.3727975,-0.2703745
1.058485,0.2234806,-0.1341423,-0.3886487,-0.08329804,0.006232985
1.152185,0.2361426,-0.04378965,-0.3806054,-0.596276,0.3616263
1.15741,0.2174759,-0.1718113,-0.4583106,-0.7457875,0.6103758
1.159821,0.1104802,-0.3415354,-0.561332,-0.7012123,0.6176534
1.248876,-0.003910316,-0.3202127,-0.4339215,-0.7225394,0.5782108
1.270694,-0.09357961,-0.3216033,-0.2099212,-0.5803396,0.597667
1.183554,-0.1395782,-0.527321,-0.3279496,-0.363068,0.6035919
1.148953,-0.1140499,-0.7373764,-0.4530661,-0.3191148,0.6278137
1.183396,-0.1276729,-0.838245,-0.4721006,-0.1641786,0.6529218
1.197614,-0.1867002,-0.8036343,-0.5340329,0.3287917,0.6341125
1.09223,-0.2120673,-0.7702163,-0.4782556,0.6959782,0.58939
0.9517984,-0.2524712,-0.7924407,-0.5324669,0.7006368,0.5531844
0.9467168,-0.2549095,-0.7072622,-0.573004,0.709075,0.5384024
0.9651323,-0.1887433,-0.6270174,-0.5063674,0.6800801,0.5535391
0.9579808,-0.1487758,-0.5977368,-0.5644746,0.590035,0.6174686
0.9726061,-0.1398708,-0.5561711,-0.4939979,0.737949,0.6850113
0.9203123,-0.1755161,-0.5300136,-0.3255704,1.081944,0.748942
0.7795083,-0.2317856,-0.4167367,-0.1723002,1.282608,0.8297863
0.6170683,-0.2495172,-0.2758466,0.03983797,0.9803877,0.8304718
0.5392598,-0.2430981,-0.1964062,0.1823675,0.4791212,0.7378159
0.5538054,-0.2055554,-0.1934064,0.2298814,0.3529189,0.6659934
0.5741971,-0.1734962,-0.2931956,0.03441115,0.3791032,0.5790836
0.604493,-0.182824,-0.3265851,-0.3238298,0.4580249,0.4218332
0.6280931,-0.2052363,-0.2100285,-0.4706946,0.7632701,0.2884779
0.6162773,-0.2206515,-0.03388102,-0.4538943,0.8894868,0.2120857
0.61936,-0.2001807,0.05655053,-0.4058764,0.6787881,0.1570933
0.6673697,-0.1635627,0.02866653,-0.2406195,0.2735914,0.1138785
0.7806601,-0.1555335,-0.02128758,-0.02761966,-0.1332303,0.1029678
0.9405776,-0.1926663,-0.09207401,-0.0498875,-0.1036496,0.1096978
1.026659,-0.2374808,-0.08942873,-0.07062998,-0.1215299,0.09252992
1.073807,-0.2273612,-0.0861737,0.2414626,-0.6794246,0.143262
1.193274,-0.2240849,-0.2244804,0.4123966,-0.9856811,0.2264141
1.251796,-0.2647915,-0.3302342,0.3610218,-0.896007,0.207619
1.230019,-0.3183948,-0.4134098,0.4514163,-1.028917,0.1793398
1.225509,-0.4182263,-0.5042587,0.5342162,-1.197396,0.1564763
1.168766,-0.4783285,-0.5336452,0.4774935,-0.9697912,0.08295933
1.114345,-0.4201877,-0.5451975,0.2862245,-0.5083978,-0.02413264
1.012749,-0.3694641,-0.4676684,0.07989446,-0.2894177,-0.2222313
0.7575042,-0.378444,-0.3629256,0.04415493,-0.530122,-0.4346396
0.6589427,-0.3988645,-0.3229887,0.1397255,-0.9883084,-0.5537231
0.8021205,-0.4168203,-0.3489189,0.2782979,-1.200084,-0.6786693
0.9101716,-0.3928387,-0.4828348,0.4021519,-1.05832,-0.7884921
0.9758403,-0.3566782,-0.5966901,0.5028135,-0.7176543,-0.8032354
1.020081,-0.3712866,-0.6261184,0.5913366,-0.1340388,-0.8553166
0.9592644,-0.3674025,-0.5671693,0.7447743,0.3122451,-0.9579288
0.8802731,-0.2935276,-0.4719056,0.8416073,0.2231443,-1.01521
0.8518254,-0.1688964,-0.4671926,0.7285693,0.02205245,-1.029501
0.817088,-0.04400412,-0.449954,0.6776641,-0.07491948,-0.9568477
0.7962493,-0.03035166,-0.4358711,0.6068725,-0.246328,-0.8822571
0.807241,-0.1002576,-0.4572459,0.4587703,-0.3340924,-0.9176621
0.8098051,-0.1603428,-0.4466033,0.5615173,-0.244444,-0.9843954
0.8173158,-0.2219514,-0.4964937,0.7599426,-0.08776317,-1.103487
0.817897,-0.2289029,-0.5328849,1.009631,0.1080595,-1.270071
0.8123124,-0.1667254,-0.5165505,1.39425,0.1868572,-1.3274
0.8246078,-0.1285235,-0.5292737,1.71131,0.1565968,-1.29615
0.8257599,-0.1170835,-0.5398078,1.843726,0.2855187,-1.329771
0.8175518,-0.07646067,-0.539389,1.767486,0.4701865,-1.415182
1.012918,-0.2860411,-0.0174057,0.3405048,0.3740017,-0.1753439
1.334807,-0.3188604,-0.03714139,0.4740503,0.7704502,-0.2455612
1.536469,-0.2991416,-0.04859413,0.4593364,0.4152899,-0.2235421
1.57532,-0.2497697,-0.04504289,0.4611395,-0.233487,0.00527513
1.573569,-0.186707,-0.04579357,0.5065597,-0.571075,0.3135842
1.706207,-0.1409003,-0.05732259,0.6100382,-0.9112709,0.635624
1.733338,-0.1589181,-0.1197832,0.8127427,-1.278371,0.8084542
1.515463,-0.2793061,-0.2847111,0.9684523,-1.54986,0.72647
1.379549,-0.5378847,-0.5396059,1.008683,-1.58906,0.4316479
1.339039,-0.736059,-0.6417273,0.9706791,-0.8842213,-0.1692683
1.148092,-0.6927837,-0.5593038,0.6492486,0.1377946,-0.87817
0.8112489,-0.5514321,-0.5292736,0.2318155,0.4667325,-1.335194
0.568134,-0.3955863,-0.5015308,0.05866766,0.1510965,-1.399321
0.5541552,-0.2239645,-0.4426752,0.02786463,-0.02776067,-1.177989
0.6113882,-0.1457446,-0.4544328,0.04258729,-0.1457749,-1.000227
0.6661775,-0.1378412,-0.4516247,-0.01086935,-0.2914788,-0.9091134
0.6765026,-0.1340618,-0.394585,-0.07314456,0.1561271,-0.8851878
0.6700891,-0.1345385,-0.3189175,0.08808029,0.4390858,-0.8860459
0.7030564,-0.1001448,-0.2717355,0.3776346,-0.1227027,-0.6423085
0.6478244,-0.07077635,-0.3532592,0.5451339,-0.6444675,-0.452979
0.6267639,-0.05333843,-0.4323503,0.423987,-0.6768508,-0.5675839
0.6549511,-0.03999445,-0.387294,0.2766875,-0.4655527,-0.6141011
0.6469545,-0.05846169,-0.361998,0.3428134,-0.452215,-0.5495454
0.7226874,-0.02886473,-0.366125,0.3043949,-0.5953111,-0.5416392
0.7701928,0.003779316,-0.3691002,0.220114,-0.6120496,-0.5565147
0.8003714,0.006167315,-0.4262776,0.2298047,-0.4988062,-0.5322001
0.865078,0.04310483,-0.4617349,0.1334405,-0.04420944,-0.5012229
0.888229,0.04594333,-0.4402785,0.1254603,0.4386163,-0.461893
0.9237845,0.07827676,-0.3966665,0.1283707,0.5005038,-0.3272569
0.9351057,0.1770916,-0.2927031,-0.1119165,0.1605599,-0.1574951
0.9798008,0.2039459,-0.1464017,-0.2703841,-0.1778925,0.01800874
1.071585,0.1673547,-0.08729275,-0.2157524,-0.1104556,0.2027747
1.092361,0.1306259,-0.1463101,-0.1453693,-0.2030939,0.3591878
1.074069,0.09736708,-0.1772182,-0.08640168,-0.5730223,0.4383161
1.05671,-0.008836152,-0.1572036,0.181851,-0.729852,0.388591
1.083025,-0.191528,-0.230783,0.6030123,-0.7281992,0.3803467
1.129064,-0.256834,-0.4953102,0.6276244,-0.6052519,0.3845278
1.214541,-0.1750203,-0.9102745,0.1865,-0.4760796,0.2899828
1.344026,-0.1466471,-1.125073,-0.2243803,-0.1413256,0.2524386
1.320347,-0.2582527,-0.9812396,-0.2883703,0.4588661,0.2092708
1.194645,-0.3675437,-0.8655277,-0.2118146,0.8114378,0.1683416
1.098877,-0.3589507,-0.7795265,-0.1761969,0.8566354,0.2515503
1.01721,-0.2782753,-0.5675984,0.01872323,0.5271136,0.3715771
1.011517,-0.1749578,-0.541197,0.1102962,0.1419967,0.524748
1.007326,-0.1321946,-0.6150189,0.06453443,0.2601518,0.6433797
0.9527549,-0.1975391,-0.5726089,0.1715565,0.6504192,0.5974169
0.8924491,-0.2430613,-0.5162981,0.22261,1.091688,0.5359648
0.7421388,-0.2054851,-0.3740858,0.4358709,1.215952,0.5824513
0.5709404,-0.1820351,-0.2381195,0.6445795,0.9683706,0.5574758
0.457148,-0.1731746,-0.1944236,0.4703062,0.8163433,0.4332939
0.3570035,-0.1202812,-0.1365307,0.404353,0.5772603,0.3360658
0.3469213,-0.1018628,-0.131726,0.2176117,0.3316122,0.2208269
0.3755647,-0.1225966,-0.1251337,-0.1780231,0.2524785,0.1692715
0.3868758,-0.1129194,-0.07514425,-0.1411518,0.0819994,0.2115432
0.4550119,-0.125952,-0.0469303,0.06750046,0.05066781,0.2191889
0.5451694,-0.1715053,-0.03168992,0.1105785,0.1495567,0.1889403
0.7151217,-0.2276272,-0.04466881,0.1123567,0.2059258,0.07239594
0.9692669,-0.2687942,-0.03620889,0.1458889,0.3936646,-0.08993932
1.137885,-0.2355485,-0.0437957,0.2088255,0.4569675,-0.1297068
1.237373,-0.2077042,-0.08604341,0.1943851,0.09965321,0.01160566
1.392279,-0.2367777,-0.1117048,0.1775225,-0.4401648,0.2325384
1.575085,-0.2505142,-0.2113154,0.2226644,-0.6403284,0.3818546
1.617149,-0.2787348,-0.3259972,0.2416376,-0.5406236,0.4249197
1.525397,-0.3897793,-0.3851819,0.3800244,-0.7474229,0.3738488
1.459394,-0.549205,-0.4374303,0.7070052,-0.9193834,0.2998364
1.335816,-0.6124711,-0.441655,0.8474964,-0.4641258,0.114164
1.036806,-0.5223095,-0.431836,0.5968452,0.03790274,-0.290877
0.719991,-0.4508087,-0.4359043,0.2297778,-0.001942233,-0.6996873
0.6027151,-0.4205459,-0.4211073,-0.0006899076,-0.3052255,-0.9732655
0.6407321,-0.3221593,-0.4465408,-0.02973979,-0.4620896,-0.9903966
0.6845783,-0.2680865,-0.5131991,0.02239396,-0.3987138,-0.8588438
0.7281591,-0.2833891,-0.5391288,-0.008025733,-0.07018091,-0.889716
0.7127931,-0.2714968,-0.5159957,0.000455644,0.3564304,-0.8829487
0.6704354,-0.2581948,-0.4765407,0.1950281,0.3325419,-0.7683379
0.7248011,-0.224037,-0.4411667,0.4705697,-0.2924189,-0.715632
0.7859391,-0.1621207,-0.4414563,0.593455,-0.8228197,-0.7075747
0.8114372,-0.1183445,-0.473082,0.4511543,-0.6147369,-0.7835093
0.7839473,-0.09388625,-0.4886034,0.3438432,-0.2760281,-0.80043
0.7200074,-0.09294508,-0.4634226,0.4359323,-0.3131976,-0.7285111
0.7791873,-0.09058674,-0.413756,0.4844412,-0.2453004,-0.7240776
0.870291,-0.07097337,-0.3591416,0.5166286,-0.2797611,-0.7861396
0.9068852,-0.04570369,-0.3247619,0.5196692,-0.4114435,-0.8800166
0.9388286,-0.00930294,-0.3482459,0.4383014,-0.1496035,-0.8373652
0.91787,0.07068698,-0.3720984,0.4748442,0.06913578,-0.732146
0.9304164,0.174926,-0.3236126,0.4639889,0.1115131,-0.658768
0.9675883,0.1763807,-0.2359368,0.3259504,0.03905454,-0.4537006
0.9605401,0.1207328,-0.1568262,0.2742213,-0.2954525,-0.2675268
0.9942158,0.1242609,-0.1658556,0.3218049,-0.5721152,-0.09735448
1.03119,0.0905774,-0.2484806,0.4827176,-0.6928137,0.08295637
1.100867,-0.01308489,-0.2758421,0.6714779,-0.7517665,0.04443672
1.219478,-0.1337588,-0.2996043,0.8242698,-0.8540272,-0.08007343
1.249029,-0.1967075,-0.4413566,0.8517637,-0.7493194,-0.1396772
1.196604,-0.1354905,-0.7039232,0.655578,-0.3429481,-0.03794599
1.149161,-0.1213943,-0.892212,0.4479337,-0.2679672,0.1869439
1.17618,-0.2439167,-0.8089366,0.3213207,-0.2348601,0.2005325
1.19115,-0.3852866,-0.6862205,0.4252022,0.01173667,0.04965867
1.101515,-0.492882,-0.6712931,0.6648545,0.1560859,-0.06442956
1.034836,-0.5071357,-0.6209632,0.6536876,0.4550083,-0.1105622
1.014854,-0.4279546,-0.5801613,0.6808318,0.6498672,-0.1241833
0.9893889,-0.3133461,-0.5133893,0.7819705,0.619709,-0.1624505
0.9385281,-0.2092921,-0.4352695,0.7545444,0.554478,-0.08248806
0.8927412,-0.1913563,-0.44574,0.8425258,0.3195199,0.01895215
0.918127,-0.215024,-0.4200113,0.951038,0.3081727,0.003437232
0.8829263,-0.224811,-0.3920494,1.101903,0.6060512,0.06513612
0.7379896,-0.2541548,-0.3602607,1.395862,0.801859,0.1015541
0.5949035,-0.2661376,-0.2564437,1.534931,0.6715553,-0.02434723
0.5135091,-0.1886049,-0.2274664,1.453591,0.4047154,-0.1217829
0.5022166,-0.06112041,-0.2504467,1.348906,0.4042669,-0.05872773
0.4819028,-0.02465386,-0.248535,1.216478,0.3876718,0.01718242
0.514337,-0.07409996,-0.2304106,0.8606654,0.2697383,-0.0431145
0.5870502,-0.1100197,-0.1921641,0.6384476,0.290215,-0.05629462
0.5558367,-0.1804738,-0.1508709,0.7829467,0.2740817,-0.03371321
0.562323,-0.2831682,-0.09693601,0.7675846,0.2776197,-0.1070552
0.6293571,-0.2977368,-0.07749085,0.6628927,0.2753597,-0.2070972
0.648279,-0.2398211,-0.05427286,0.6793658,0.1831165,-0.3664011
0.6782571,-0.2015607,-0.007651169,0.5740567,0.05307183,-0.4138732
0.7503345,-0.1626893,-0.01841656,0.3597423,-0.1043316,-0.3727639
0.9566113,-0.129478,-0.01141856,0.07093045,-0.08494116,-0.4841897
1.200237,-0.1313113,0.01478162,-0.08565909,-0.1364405,-0.4670509
1.25569,-0.07694272,-0.003416129,-0.009946771,-0.454926,-0.1867717
1.310391,0.01560209,-0.04661333,-0.03815911,-0.6465952,0.2114243
1.481921,0.024525,-0.1256573,-0.175545,-0.6479459,0.4962664
1.542844,-0.05365316,-0.1922575,-0.221391,-0.7713604,0.4703956
1.440002,-0.2097592,-0.2445059,-0.07239615,-1.428706,0.5456865
1.352017,-0.3714564,-0.3434836,0.1850171,-2.035088,0.7144857
1.375144,-0.3789514,-0.4264413,0.1970663,-1.408871,0.5920151
1.267968,-0.3458156,-0.4414079,0.0114688,-0.6447021,0.4628061
0.8365063,-0.4941675,-0.3688213,-0.0221125,-1.054478,0.3263188
0.5308246,-0.6969882,-0.1897647,0.2700872,-1.408432,0.06372779
0.7342424,-0.78363,-0.1309193,0.8739786,-1.420075,-0.2340621
0.9654595,-0.7507698,-0.3909962,1.211238,-1.566665,-0.7741141
0.8692798,-0.6560273,-0.6968649,0.9282545,-0.8591384,-1.15477
0.8292323,-0.5743147,-0.7224587,0.7121982,0.1278394,-1.065847
0.8676847,-0.4266323,-0.5776266,0.8161656,0.2246444,-1.027474
0.8014543,-0.2723841,-0.5371482,0.7340192,-0.07597139,-1.030256
0.844332,-0.2324036,-0.5807039,0.5567503,-0.2752741,-0.9426922
0.8542908,-0.2101488,-0.5610794,0.5105625,-0.09890593,-0.9264079
0.7542862,-0.2211142,-0.472844,0.4771272,-0.01286283,-0.8595155
0.7324697,-0.2514319,-0.369486,0.4762079,-0.279379,-0.8189969
0.6964493,-0.2697596,-0.3678683,0.3695816,-0.2886518,-0.8906575
0.7007531,-0.2767062,-0.4248222,0.2373644,-0.1675367,-0.9924613
0.7003664,-0.1935266,-0.4246493,0.3283352,0.0182647,-1.149041
0.673999,-0.1133137,-0.4480458,0.352723,0.1286859,-1.195748
0.7384876,-0.07112018,-0.460383,0.303837,0.0904727,-1.095641
0.7467745,-0.06549306,-0.4435886,0.3825315,0.3050729,-1.017373
0.7969359,-0.1038947,-0.468422,0.5408265,0.4300164,-0.9546698
0.8893044,-0.09223496,-0.4842525,0.7743674,0.4482712,-0.9455682
0.8982902,-0.08329016,-0.5307348,0.7883934,0.6171456,-1.025907
0.9043013,-0.03681401,-0.5577541,0.5252319,0.8185314,-1.063357
0.8203196,0.06213098,-0.4287298,0.3314542,0.9481434,-0.9566045
0.7547893,0.08486401,-0.2769539,0.2713868,0.6898771,-0.7308707
0.7841432,0.04986622,-0.2436853,0.2707836,0.2566942,-0.4994306
0.8170479,-0.01207282,-0.2499642,0.2981589,0.03680491,-0.3644313
0.8907389,-0.02361706,-0.2281555,0.3628563,0.04894419,-0.300579
0.9257672,0.02662642,-0.217357,0.3718097,0.1175696,-0.1800336
0.980181,0.05116361,-0.2111494,0.3311103,-0.02183634,0.03710348
1.095937,0.03379519,-0.2305468,0.3434962,-0.08974212,0.1943186
1.15823,-0.03136111,-0.2697612,0.2545113,-0.01330157,0.1820329
1.18063,-0.06490374,-0.1929069,0.1865728,-0.07680282,0.1551515
1.178584,-0.05996278,-0.1126088,0.3098089,-0.3469984,0.2196284
1.20896,-0.08719625,-0.169828,0.384697,-0.8222928,0.2624272
1.304545,-0.1689892,-0.2763055,0.2942667,-0.9350852,0.2401636
1.433396,-0.2824115,-0.4865842,0.09501571,-0.4050217,0.1449859
1.484884,-0.2767839,-0.6728467,-0.04008065,-0.0956422,0.07846347
1.302501,-0.1499663,-0.6035865,-0.009170693,-0.5613779,0.3009759
1.018569,-0.08393408,-0.5904537,0.01792381,-1.001971,0.5589825
0.901878,-0.2167267,-0.8380965,-0.01760341,-0.6811375,0.4575979
1.030533,-0.4299216,-0.9731246,-0.007660427,-0.1781754,0.2986789
1.154739,-0.4357864,-0.8226631,0.03615509,0.1656755,0.2230555
1.078839,-0.3360244,-0.6376777,0.05358294,0.3544632,0.1028059
0.990436,-0.2814521,-0.5901722,0.1415158,0.183121,0.2084008
0.8856182,-0.2156819,-0.5797337,0.2844573,0.2331987,0.3972304
0.7476165,-0.2174301,-0.5137914,0.3995785,0.4036925,0.3683957
0.7433131,-0.2356626,-0.4576332,0.4950579,0.3420868,0.33466
0.7083302,-0.2228429,-0.3768886,0.4746246,0.6159043,0.2876064
0.5958814,-0.243065,-0.28089,0.4636136,0.7543291,0.2160899
0.5458457,-0.2339204,-0.2561259,0.5873461,0.5194004,0.2016317
0.5077523,-0.204513,-0.2291039,0.7089915,0.4617323,0.1705241
0.4961274,-0.1568159,-0.2114447,0.7348101,0.4258588,0.2119422
0.508291,-0.0901868,-0.2320225,0.5275268,0.3789248,0.2398063
0.5557665,-0.08115586,-0.2478764,0.1907914,0.2861317,0.2723401
0.6739609,-0.08686457,-0.2593767,-0.05549076,0.2273118,0.380311
0.7559712,-0.1238662,-0.2527503,-0.1776857,0.2946194,0.3323855
0.8224983,-0.2647796,-0.248706,-0.1105366,0.2404247,0.2369931
0.9325865,-0.4117105,-0.2309555,0.03120286,0.253757,0.1390607
1.008243,-0.458741,-0.2269771,0.1511847,0.3381683,0.005880115
1.003741,-0.4253548,-0.2440688,0.2642921,0.428226,0.005319733
0.9624375,-0.3711034,-0.2066838,0.2985592,0.5058363,0.01037818
0.9568224,-0.3169662,-0.1580683,0.3233836,0.3663523,0.03180211
1.016908,-0.2837862,-0.1122601,0.2861717,0.2608804,0.1188858
1.133127,-0.2805534,-0.1127365,0.1309163,0.1609837,0.1741698
1.221996,-0.2709768,-0.1639667,0.04500104,-0.1276422,0.2525107
1.236326,-0.2809901,-0.2040926,0.002113519,-0.3685452,0.3143387
1.227756,-0.3428064,-0.3116636,-0.0275108,-0.568748,0.4395821
1.219387,-0.4732979,-0.3892267,0.08488105,-0.9725939,0.5869664
1.238469,-0.6675977,-0.4213094,0.3136632,-1.249954,0.4839211
1.232529,-0.7361165,-0.5522917,0.4233153,-0.7215713,0.2128737
1.105031,-0.6334018,-0.6102612,0.111343,0.1150767,-0.1663792
0.875638,-0.5402488,-0.5291488,-0.3519729,0.3379607,-0.5385756
0.6729029,-0.4286409,-0.4680077,-0.4904922,0.02704322,-0.6208997
0.655592,-0.2839331,-0.4720661,-0.5166229,-0.2832353,-0.6139144
0.7562699,-0.2148556,-0.4897267,-0.5899439,-0.1817062,-0.6342633
0.826231,-0.2029052,-0.4731967,-0.5838152,-0.03485029,-0.5573587
0.8649562,-0.246065,-0.4712115,-0.5776663,-0.01036415,-0.5464105
0.8668571,-0.3177993,-0.4590465,-0.5267888,0.1679439,-0.5795507
0.8488968,-0.3202903,-0.4266107,-0.4145445,0.05438647,-0.5746418
0.8228053,-0.2662529,-0.4469271,-0.3696633,-0.09793708,-0.5614063
0.7875124,-0.1936086,-0.4497953,-0.3486482,0.01156763,-0.4792239
0.7435886,-0.1157064,-0.4208119,-0.3251203,-0.1700937,-0.4234557
0.6793102,-0.08288164,-0.404194,-0.33001,-0.3682594,-0.4021674
0.687966,-0.1216588,-0.3838299,-0.3154292,-0.3262901,-0.4033118
0.7596173,-0.1844928,-0.3663653,-0.1723267,-0.1791074,-0.4836705
0.8067147,-0.1990023,-0.3367689,0.04688137,0.09998812,-0.5603249
0.8487847,-0.1395385,-0.3229705,0.07758465,0.3133242,-0.6179364
0.8603553,0.04299705,-0.3192934,-0.06616282,0.4587027,-0.5494212
0.8713814,0.2545017,-0.2630367,-0.2556252,0.4940707,-0.35299
0.9318241,0.228804,-0.1735036,-0.4655457,0.3262141,-0.16135
0.9816291,0.123524,-0.1198983,-0.4932597,0.09474945,0.06437397
1.012317,0.1284413,-0.1769846,-0.4106676,-0.1506887,0.2524062
1.078442,-0.03260547,-0.2528697,-0.3652285,-0.4310171,0.4261155
1.174775,-0.2440731,-0.2422151,-0.07733987,-0.74302,0.5214494
1.22712,-0.287399,-0.2887532,0.2885768,-0.8648742,0.370961
1.270919,-0.3283622,-0.4726324,0.287948,-0.7223336,0.2813059
1.312297,-0.2422917,-0.7381255,0.1090094,-0.5242248,0.3507915
1.25163,-0.1180881,-0.9426094,-0.01730236,-0.3524095,0.3451541
1.190376,-0.2699943,-0.9046261,-0.1117407,-0.2282831,0.28314
1.150418,-0.4234726,-0.7545846,-0.1262448,0.1115641,0.2112951
1.048804,-0.3995512,-0.6406424,-0.05696323,0.6510282,0.1732972
0.960011,-0.3600773,-0.5342998,0.06573078,0.7339702,0.2345344
0.8868477,-0.3003175,-0.4994917,0.1348452,0.4453773,0.3440689
0.877296,-0.2334031,-0.4782641,0.08502859,0.3434297,0.419462
0.9356639,-0.2299963,-0.4464596,0.02504984,0.3416063,0.4351513
0.9445886,-0.2568329,-0.4662819,-0.02144581,0.4726414,0.3830234
0.9416531,-0.2639564,-0.4349,-0.03881256,0.802512,0.3038311
0.9032013,-0.2586014,-0.3870456,0.03646399,0.9923946,0.3034049
0.7489385,-0.2289397,-0.3071246,0.15716,1.027664,0.3570336
0.5474053,-0.1611278,-0.1548619,0.2340518,0.8587742,0.3969801
0.4935468,-0.1180048,-0.1524346,0.1611316,0.4773562,0.4322526
0.5831976,-0.1139253,-0.2330776,-0.1156217,0.3043896,0.4919011
0.5751192,-0.09824353,-0.2236057,-0.4737482,0.3373725,0.5545873
0.5720211,-0.09614781,-0.2153601,-0.6394727,0.4264134,0.4870044
0.6011658,-0.1426134,-0.1892028,-0.5495738,0.4999602,0.3833762
0.5036798,-0.1843197,-0.1361373,-0.5275449,0.3318938,0.3806223
0.4896634,-0.2054288,-0.1318309,-0.546342,0.06289098,0.3283766
0.6268681,-0.2648587,-0.1338862,-0.3481949,-0.01514103,0.2126735
0.8352182,-0.3501143,-0.119636,-0.1854,0.1652988,0.06170474
0.9845004,-0.3738538,-0.1204064,-0.1589171,0.3192922,-0.08459055
0.9573008,-0.3369822,-0.1145312,-0.1207367,0.1441683,-0.07034125
1.055524,-0.3333938,-0.07377515,-0.07331069,-0.1310329,-0.02244088
1.255275,-0.3034294,-0.05480486,0.007095804,-0.3306437,0.01763486
1.341029,-0.1703826,-0.1336337,-0.0555868,-0.4314213,0.2041926
1.440202,-0.09052388,-0.2481572,-0.2223809,-0.3571556,0.3918126
1.41951,-0.1498917,-0.2941645,-0.2534431,-0.4297381,0.4440616
1.231435,-0.2849473,-0.3153669,-0.2198214,-0.853802,0.412026
1.071561,-0.4779558,-0.3583246,-0.08844898,-1.200952,0.3534509
1.006401,-0.6526115,-0.3990252,0.03349878,-1.021485,0.2186836
1.107271,-0.6467095,-0.5027775,-0.03632286,-0.5000237,-0.08645703
1.160902,-0.5059676,-0.6406196,-0.08818976,-0.1028702,-0.3418878
0.9708877,-0.4335109,-0.6286427,-0.04556883,0.03466107,-0.4409633
0.7703833,-0.4238046,-0.4783145,-0.02382928,-0.2674768,-0.591062
0.7069277,-0.4296094,-0.3628816,0.02314633,-0.8400462,-0.6866147
0.7580626,-0.4275892,-0.379348,0.1688989,-0.9781136,-0.6770765
0.8269569,-0.395019,-0.4909154,0.3295447,-0.5186257,-0.7674652
0.8654992,-0.4097934,-0.566621,0.4565833,0.1259795,-0.8919532
0.9128485,-0.385896,-0.5621155,0.5362626,0.2850625,-0.9655745
0.8622579,-0.2844421,-0.5224196,0.5035813,0.07423643,-0.9929181
0.7885769,-0.1569658,-0.4757172,0.5134164,0.08610434,-0.9094919
0.7626461,0.01121986,-0.4396945,0.6309354,-0.140326,-0.7908887
0.6661522,0.04869508,-0.425162,0.6855579,-0.523629,-0.6802907
0.6476738,-0.06246435,-0.4409322,0.6088922,-0.5736084,-0.5971556
0.7649303,-0.1535756,-0.4526888,0.4962491,-0.5158386,-0.7074429
0.8694732,-0.1638115,-0.4592236,0.5015836,-0.3247723,-0.8781997
0.885985,-0.09558807,-0.4965028,0.4934592,-0.04838438,-0.9017794
0.83734,-0.04099781,-0.5176377,0.4303482,0.3667078,-0.908432
0.8008754,-0.0006811745,-0.4981169,0.4643463,0.7317265,-0.8402652
0.7033769,0.0334123,-0.4451454,0.4464705,0.7034922,-0.6406597
0.6346403,0.02196922,-0.3668261,0.4068007,0.755998,-0.5543049
0.6573867,0.03407152,-0.2565806,0.4202792,0.8266797,-0.5250221
0.6215739,0.09734003,-0.08514076,0.408552,0.6181052,-0.3399347
0.7209237,0.1638434,-0.01292518,0.3978712,0.2632903,-0.06047994
1.005416,0.1396277,-0.1383673,0.1784486,-0.06614097,0.1089256
1.186171,0.04065905,-0.2061525,-0.1046131,0.004405369,0.1077072
1.197958,-0.00170921,-0.1027482,-0.06206523,0.02979409,0.1808906
1.25573,0.03262996,-0.0447084,0.01502079,-0.4895577,0.37933
1.463549,0.05430798,-0.1160609,-0.03739166,-1.072694,0.4897709
1.512193,-0.09295369,-0.2451865,-0.003190804,-1.244178,0.481483
1.465726,-0.3235713,-0.4310684,0.02490353,-0.8942934,0.3653491
1.534534,-0.3782233,-0.5511349,0.0149281,-0.5173846,0.1327967
1.415056,-0.2951088,-0.5076266,0.1120352,-0.5546163,-0.05398476
1.124268,-0.1899785,-0.4931428,0.2584769,-0.9224449,0.1682515
0.8396658,-0.1336798,-0.5808919,0.3948415,-1.261117,0.5368717
0.7864438,-0.2424562,-0.7194512,0.3809632,-0.8048023,0.3885392
1.022061,-0.375731,-0.853348,0.1350316,0.08024426,0.1468775
1.034509,-0.3163752,-0.738618,-0.02289707,0.3484143,0.07841446
0.9639525,-0.2423165,-0.5408956,-0.09349042,0.3089408,-0.08203824
0.9845716,-0.27519,-0.5730211,-0.1705788,0.4273008,-0.01652031
0.8594324,-0.2446178,-0.5313786,0.03498437,0.6757522,0.08736941
0.8313388,-0.2327746,-0.3947326,0.3232591,0.7991242,0.1090837
0.8047331,-0.2704375,-0.3804175,0.3466803,0.6034015,0.194041
0.6983754,-0.2674003,-0.3236139,0.3920754,0.4857552,0.08352331
0.6658248,-0.3129852,-0.2838073,0.6615771,0.3735919,0.05039472
0.6082673,-0.289348,-0.2912716,0.8428733,0.2426153,0.04212967
0.6144566,-0.1726426,-0.2776233,0.8397367,0.3709488,-0.06570389
0.6010635,-0.07426303,-0.3347521,0.7161707,0.4017905,0.04794123
0.5820645,-0.000268113,-0.3403879,0.4178309,0.4317227,0.1535626
0.662409,-0.0582524,-0.2996928,0.1761132,0.6611866,0.2282496
0.6811257,-0.1393792,-0.2635962,-0.06193989,0.8631787,0.2317157
0.7122158,-0.2049247,-0.1623178,-0.3883199,0.8260733,0.08241237
0.7769121,-0.3315995,-0.1057832,-0.3602343,0.241381,-0.002716135
0.8847111,-0.3820099,-0.1000189,0.1615145,-0.2676165,-0.206558
0.9810761,-0.4233282,-0.1578624,0.7639451,0.09039659,-0.4035174
0.9041523,-0.4047658,-0.2581054,0.8370163,0.7566771,-0.5328952
0.8490541,-0.2204222,-0.226093,0.5712726,1.158926,-0.701897
0.8528379,-0.06601159,-0.09972504,0.3364947,1.306485,-0.6052426
0.8768087,0.022726,0.02496486,-0.200732,0.9417609,-0.4239084
1.056742,0.03503581,0.0444624,-0.3965233,0.2667883,-0.1858777
1.306193,-0.02198614,-0.05535526,-0.1003752,-0.09153264,0.2156585
1.440772,-0.0737788,-0.1141243,-0.2515103,-0.2544055,0.4212259
1.426932,-0.1649394,-0.1667199,-0.4235434,-0.3404662,0.541676
1.476206,-0.2925926,-0.2804905,-0.4532082,-0.6084389,0.6981171
1.610628,-0.4809722,-0.3960693,-0.5204847,-1.123388,0.8019975
1.618362,-0.5684726,-0.4210239,-0.1884128,-0.9402233,0.8261894
1.486494,-0.4947466,-0.3548303,-0.006125096,-0.4210564,0.5753519
1.185878,-0.5453896,-0.348063,-0.1950763,-0.3196745,0.2273299
0.8843241,-0.5609898,-0.3353734,-0.2815197,-0.3966306,0.05517937
0.8444963,-0.4360462,-0.324074,-0.2842858,-0.8006021,0.04691342
0.8160818,-0.3757919,-0.4581624,-0.2885496,-0.9830776,0.02019258
0.7534649,-0.314256,-0.5407911,-0.3545619,-0.5724499,-0.1957464
0.8998743,-0.3105943,-0.5389177,-0.2908982,-0.08259587,-0.3366895
0.9574744,-0.3048378,-0.5694572,-0.2124263,0.3461727,-0.3481787
0.8381794,-0.2058962,-0.5558654,-0.2909041,0.3421349,-0.4042728
0.8031175,-0.2086523,-0.4943459,-0.2409175,0.04394869,-0.4190257
0.747767,-0.1840647,-0.411351,-0.2244793,-0.1546236,-0.4247503
0.7112179,-0.105592,-0.384413,-0.2430088,-0.2897565,-0.4324003
0.7205155,-0.1073512,-0.4026007,-0.2216491,-0.1951267,-0.4750461
0.6843396,-0.07634728,-0.3936316,-0.2755501,-0.1577367,-0.5322796
0.7077749,-0.05161722,-0.4033827,-0.189246,-0.1916129,-0.4349074
0.7114794,-0.04052318,-0.3768582,-0.001155832,-0.07381556,-0.3387313
0.7317143,-0.03438337,-0.3458574,0.2059707,0.02002094,-0.3515251
0.8112212,-0.08890079,-0.3746484,0.269206,0.2988119,-0.3602616
0.8573057,-0.0807469,-0.3808212,0.07757197,0.5233888,-0.3367435
0.9367941,0.03002854,-0.3450758,-0.1157572,0.382441,-0.2554937
0.9583806,0.1480982,-0.280327,-0.3505883,0.2273646,-0.1105824
0.9650584,0.1406332,-0.2270539,-0.4779233,0.06180545,0.05909561
1.040646,0.09063582,-0.2125538,-0.4418307,-0.1134715,0.230713
1.086742,0.1392744,-0.2202151,-0.5009914,-0.2163233,0.4497645
1.15292,0.08961187,-0.2351548,-0.366475,-0.4690166,0.602175
1.20163,-0.05182178,-0.2450842,-0.01700198,-0.7970378,0.5350531
1.219593,-0.1630419,-0.2870649,0.1311811,-0.8612099,0.4288131
1.231117,-0.222408,-0.4075747,-0.06167933,-0.5800618,0.3995648
1.191533,-0.1365318,-0.6464286,-0.3259045,-0.2969994,0.4311581
1.16019,-0.1254418,-0.8518062,-0.2731068,-0.288988,0.5007301
1.140546,-0.2697904,-0.8441656,-0.2395668,-0.1908918,0.4581346
1.133459,-0.3684419,-0.8025022,-0.4433412,0.3164176,0.3585279
1.101876,-0.3915002,-0.7823782,-0.5550404,0.8502136,0.2942269
1.006754,-0.3240846,-0.6374622,-0.6365279,0.9467801,0.2685255
0.9461977,-0.2640284,-0.5103067,-0.6354548,0.728509,0.42547
0.9216261,-0.2021619,-0.4984319,-0.5744363,0.6399338,0.6450641
0.8896723,-0.1334783,-0.4860951,-0.6228007,0.7091315,0.7202497
0.8624057,-0.2049641,-0.4678734,-0.5920098,0.8472322,0.7332717
0.816475,-0.2555499,-0.436194,-0.5482889,1.046268,0.7586065
0.7025074,-0.2650867,-0.3275685,-0.4214198,0.9567995,0.7970318
0.5766712,-0.2888866,-0.2158022,-0.1614318,0.7007017,0.7730472
0.5205226,-0.2233954,-0.1882466,-0.1358545,0.5343116,0.6810784
0.4736455,-0.1614768,-0.2080353,-0.2643939,0.2787831,0.6118408
0.4665542,-0.0941365,-0.2291836,-0.4096167,0.2595762,0.5722366
0.5204275,-0.05761275,-0.2348702,-0.6219244,0.3908568,0.5664392
0.5532838,-0.1072904,-0.2112787,-0.7784911,0.292479,0.5089458
0.5856297,-0.1370776,-0.1657064,-0.8229687,0.3314545,0.4438767
0.634166,-0.2380353,-0.1056131,-0.7636604,0.3968399,0.4673465
0.7915473,-0.3766356,-0.0224347,-0.6110819,0.3420885,0.3879141
1.025959,-0.4066904,0.02511752,-0.3507494,0.3630914,0.2313651
1.13011,-0.3760864,-0.03995001,-0.1690896,0.2552133,0.1734706
1.223578,-0.334851,-0.1142628,-0.2132679,0.09755309,0.1938111
1.373836,-0.3029937,-0.1372355,-0.1662033,-0.05896431,0.2884536
1.385381,-0.268371,-0.2082115,-0.0282033,-0.1928305,0.4458368
1.308746,-0.2811276,-0.275859,-0.06805657,-0.2867538,0.5920788
1.288653,-0.4023239,-0.3396215,-0.07237119,-0.9259402,0.6513125
1.31596,-0.563234,-0.4808187,0.0556835,-1.495088,0.6262327
1.308542,-0.6250469,-0.5716865,0.05930255,-0.6954577,0.424002
1.140186,-0.5024915,-0.563427,-0.1873462,0.4834981,-0.002682156
0.8527485,-0.3814669,-0.490612,-0.5345812,0.5144499,-0.3135586
0.6864914,-0.3672348,-0.3932502,-0.6373496,-0.07508787,-0.4060697
0.6970963,-0.3289633,-0.4187667,-0.570581,-0.3791781,-0.4936463
0.7384736,-0.3095968,-0.4663697,-0.5207005,-0.3463105,-0.5566596
0.7541058,-0.3248374,-0.4405845,-0.3611065,-0.2170939,-0.5996757
0.7526543,-0.3102539,-0.4696261,-0.3423764,-0.2279152,-0.6788342
0.7419969,-0.2819615,-0.454267,-0.3422737,-0.1841386,-0.6975099
0.7470637,-0.2277662,-0.39899,-0.1337583,-0.1711184,-0.6292731
0.7575712,-0.1522002,-0.4307997,-0.2586086,-0.3059056,-0.5727843
0.7596531,-0.01798538,-0.4368023,-0.5143253,-0.1607927,-0.5298756
0.7418088,0.109828,-0.4283888,-0.5703835,-0.08923549,-0.4052699
0.7003365,0.06780105,-0.4136301,-0.6704519,-0.2107938,-0.2482548
0.6992346,-0.0370407,-0.3503242,-0.6444231,-0.1687589,-0.200044
0.7696645,-0.09815213,-0.3490406,-0.597693,-0.1475086,-0.2512811
0.8724879,-0.1330269,-0.3581204,-0.5622762,0.08501268,-0.3075059
0.9483727,-0.04466188,-0.3280772,-0.4171364,0.4540429,-0.3359163
0.9619668,0.1059085,-0.2986522,-0.4537432,0.5013224,-0.2763172
0.9780133,0.1746387,-0.2320222,-0.5714107,0.1783068,-0.128354
1.024794,0.1768087,-0.1985873,-0.6691709,-0.2837329,-0.02055046
1.101271,0.1250093,-0.243211,-0.7045733,-0.3978783,0.1231422
1.223703,0.0953314,-0.2758283,-0.6062666,-0.4228779,0.3869705
1.26554,0.1054058,-0.2593108,-0.6074612,-0.739083,0.5803116
1.240851,0.03391269,-0.2526797,-0.570827,-0.9115718,0.6161858
1.280895,-0.09685517,-0.2886509,-0.4383074,-0.638247,0.6024603
1.233811,-0.1626368,-0.3812188,-0.3734485,-0.3063178,0.6959416
1.07785,-0.1041949,-0.6091932,-0.345305,-0.3703952,0.8540322
1.03868,-0.07961272,-0.8428498,-0.4251048,-0.3811608,0.8259038
1.125459,-0.2241385,-0.8669756,-0.5769134,0.01712675,0.6572727
1.192228,-0.3612368,-0.81065,-0.7412757,0.5910064,0.5451484
1.124043,-0.371114,-0.802433,-0.7772599,1.095645,0.5436284
0.989401,-0.2964803,-0.7267124,-0.6863885,1.03676,0.6220163
0.9065641,-0.2245697,-0.5766165,-0.6987404,0.6331022,0.6884783
0.8502108,-0.2183855,-0.4959422,-0.5919759,0.4213335,0.7524519
0.8641445,-0.2464447,-0.5020735,-0.4132304,0.4400818,0.7378075
0.8704092,-0.2983691,-0.499862,-0.3885678,0.8017579,0.6188398
0.771904,-0.3145009,-0.4535328,-0.3304016,1.07082,0.5839808
0.6750221,-0.2767147,-0.3614869,-0.2303547,0.9177231,0.5743835
0.564432,-0.2391064,-0.2607761,0.003117244,0.6893599,0.5528374
0.497521,-0.1899643,-0.2139584,0.3238692,0.5329991,0.5604505
0.4958961,-0.1650317,-0.2261898,0.3838676,0.5513771,0.5230213
0.4624815,-0.15229,-0.2625458,0.1411474,0.592828,0.5139763
0.5166603,-0.1218147,-0.2720163,-0.2341387,0.4952927,0.4799871
0.6103323,-0.1267687,-0.2520027,-0.43613,0.4574687,0.4009086
0.6361188,-0.1757264,-0.2374494,-0.3954252,0.4013091,0.3639695
0.6810368,-0.2560408,-0.2370383,-0.375743,0.3231114,0.2606321
0.7915288,-0.3458056,-0.2323277,-0.4221876,0.4950732,0.1006953
0.9636175,-0.4087239,-0.1997633,-0.4151713,0.8755321,-0.01365407
1.059574,-0.3668256,-0.1525514,-0.3812215,0.9820987,0.03540692
1.074003,-0.2115546,-0.06448592,-0.3380606,0.3855376,0.2043326
1.114018,-0.1166376,0.001421182,-0.1889909,-0.3671224,0.3160026
1.148489,-0.1688932,-0.09968618,-0.1135328,-0.3926999,0.4025107
1.212101,-0.25702,-0.2175341,-0.2156326,-0.2450352,0.402126
1.206225,-0.2815286,-0.2127371,-0.2444787,-0.7199605,0.4046517
1.098318,-0.334505,-0.2286925,-0.1656331,-1.170898,0.4854652
1.054098,-0.4687642,-0.3052245,-0.06867905,-1.101678,0.3750778
1.02497,-0.5263935,-0.4051845,-0.0549228,-0.7403552,0.1160651
1.007412,-0.4951865,-0.4971084,-0.1908167,-0.3513019,-0.2173009
0.9934175,-0.4594029,-0.4965837,-0.316257,-0.3205439,-0.5003569
0.949194,-0.3774219,-0.4811375,-0.3236301,-0.4046804,-0.5182111
0.9676651,-0.2492594,-0.539412,-0.3345301,-0.1909011,-0.4882723
0.950737,-0.2039918,-0.5606909,-0.4108494,0.05599911,-0.4690632
0.9073193,-0.2696175,-0.5112299,-0.3823386,0.1106032,-0.4385105
0.9017252,-0.2742386,-0.4640906,-0.3359733,-0.02048609,-0.4441815
0.8778383,-0.2400357,-0.4465118,-0.3732712,-0.1941791,-0.4005764
0.9079845,-0.2400987,-0.4607656,-0.3154899,-0.2638845,-0.4385006
0.9039499,-0.1900268,-0.4616976,-0.2801733,-0.2406179,-0.4843636
0.8231666,-0.1398057,-0.450948,-0.2930286,-0.1676293,-0.4335208
0.7497155,-0.08483218,-0.4397062,-0.2988348,-0.1568589,-0.4063158
0.6927773,-0.03063627,-0.3912928,-0.3947293,-0.2287525,-0.3591157
0.7176174,-0.03633644,-0.3640405,-0.420857,-0.278677,-0.3698034
0.719562,-0.02509244,-0.3665288,-0.4160884,-0.1770349,-0.422454
0.6971927,-0.03733391,-0.3389671,-0.4296959,0.06533173,-0.4019267
0.7429264,-0.05748519,-0.3103054,-0.3153269,0.2410842,-0.3727178
0.7616006,0.009935529,-0.300492,-0.235006,0.3257472,-0.2846832
0.8156518,0.09173877,-0.2797077,-0.2871435,0.3438377,-0.1793064
0.8980638,0.1205788,-0.227723,-0.3695325,0.2233336,-0.1090566
0.9646923,0.08691426,-0.1936476,-0.389045,-0.00381802,0.04791221
1.103968,0.05747668,-0.2188322,-0.3360132,-0.216843,0.2614244
1.229884,0.05082895,-0.271037,-0.303489,-0.259477,0.421218
1.285038,-0.01186731,-0.3224707,-0.2684903,-0.276752,0.5139419
1.312093,-0.1082627,-0.34509,-0.1378417,-0.4938173,0.5731508
1.330851,-0.2041869,-0.4054135,0.004404838,-0.6644472,0.5861202
1.328395,-0.2366181,-0.5598823,-0.1543744,-0.5854038,0.5614641
1.276765,-0.188064,-0.6456998,-0.524934,-0.5141003,0.5379624
1.191472,-0.1921625,-0.6169799,-0.6011036,-0.5925159,0.4956404
1.033102,-0.2248472,-0.6341756,-0.345846,-0.507747,0.4833498
0.8943072,-0.2162364,-0.7204778,-0.1649459,-0.06998183,0.511053
0.9125788,-0.2048812,-0.7782077,-0.4087544,0.4215576,0.5358228
0.9727332,-0.1871975,-0.7227546,-0.6829555,0.5445702,0.5695688
0.9837092,-0.2269204,-0.6305938,-0.5276321,0.4748722,0.5510942
0.9482327,-0.3031785,-0.6160029,-0.4901218,0.7027263,0.4736992
0.8894566,-0.307608,-0.5489536,-0.5946787,0.8480019,0.3708054
0.8650114,-0.2987503,-0.4719487,-0.4616059,0.7596625,0.2936394
0.821923,-0.2829396,-0.5082334,-0.350224,0.9359148,0.322999
0.731648,-0.2450172,-0.4724485,-0.1511145,1.097061,0.3518586
0.6892556,-0.2493821,-0.408384,0.1022425,1.093095,0.3409357
0.6650158,-0.2536952,-0.375845,0.2328828,1.006926,0.335632
0.594486,-0.2284889,-0.2713984,0.4355286,0.807639,0.2961968
0.5926218,-0.208176,-0.2790575,0.4247559,0.8117451,0.2906235
0.6195713,-0.1838441,-0.3292403,0.1844824,0.7832739,0.3093718
0.5680974,-0.1325054,-0.2625055,0.02324079,0.6682424,0.3117957
0.5852153,-0.09509327,-0.2530442,-0.1483292,0.7669228,0.3404828
0.6453377,-0.1333857,-0.2149807,-0.2699035,0.8075123,0.3338599
0.6478169,-0.1849691,-0.09047014,-0.3769167,0.6475094,0.3296772
0.6593301,-0.1943028,-0.05909014,-0.441084,0.1419911,0.3902255
0.6659291,-0.1972498,-0.1070077,-0.3087371,-0.3497551,0.4200021
0.7796421,-0.2212357,-0.1945434,-0.2459906,0.05757221,0.3427641
1.02437,-0.3033288,-0.260184,-0.2699458,0.767999,0.1244802
1.125578,-0.3716972,-0.2023049,-0.2464669,0.7695419,-0.0781436
1.026425,-0.34203,-0.1067982,-0.1999933,0.4697754,-0.04724315
0.9798293,-0.3238839,-0.03624095,-0.05081664,0.2035321,0.01044283
1.159606,-0.34203,0.05181457,0.04210686,-0.05676835,-0.1063264
1.342958,-0.3195655,0.03659783,0.01581186,-0.09490178,-0.1335387
1.32916,-0.3051125,-0.05890972,0.06491025,-0.3488329,0.02298631
1.266601,-0.3104622,-0.0190231,0.2603039,-1.007548,0.1776475
1.234123,-0.3301796,-0.02876297,0.5765554,-1.708472,0.2482106
1.262548,-0.4403323,-0.2014683,0.8285111,-2.103295,0.1757588
1.377538,-0.5857309,-0.374562,0.8226837,-1.403961,0.02649494
1.419469,-0.6109897,-0.5072324,0.5793416,-0.1928804,-0.1830171
1.147987,-0.5013502,-0.4165025,0.3318597,0.09222258,-0.4504158
0.6966955,-0.3699148,-0.2589622,0.2321095,-0.3288018,-0.5878725
0.567847,-0.2914952,-0.2757383,0.2268915,-0.8079256,-0.6382555
0.6662925,-0.2642465,-0.3020013,0.2634481,-1.01401,-0.6417331
0.6885964,-0.2629376,-0.4486173,0.2408695,-0.6992449,-0.6503381
0.8157999,-0.2554803,-0.6131043,0.1685001,-0.1491331,-0.7706706
0.9372933,-0.2348914,-0.5991245,0.1484488,0.2456611,-0.78085
0.9160916,-0.2010693,-0.5569334,0.3042371,0.3441992,-0.7438183
0.914394,-0.1808799,-0.459867,0.6060305,0.218749,-0.7901249
0.8999009,-0.2032237,-0.4083337,0.7305098,-0.0100745,-0.8150202
0.8856081,-0.2017867,-0.4209427,0.7636212,-0.2745609,-0.8994206
0.8984343,-0.1694653,-0.4117397,0.8326511,-0.4415552,-0.9344185
0.5251034,-0.2836606,-0.272708,0.36598,1.511125,0.1894181
0.4622087,-0.2496302,-0.188025,0.5733256,0.9477586,0.0622886
0.4895714,-0.1866693,-0.2151038,0.5024723,0.1584447,-0.04841647
0.5329611,-0.1204914,-0.2696779,0.2018509,0.06085791,-0.1078828
0.6593502,-0.1488626,-0.2809409,-0.1544085,0.3304067,-0.09334799
0.8269058,-0.249361,-0.2105454,0.03081816,0.6370659,-0.1049808
0.9270529,-0.3159177,-0.1205232,0.2617672,0.6844949,-0.1572732
1.022329,-0.3015926,-0.09508464,0.1324481,0.7090748,-0.110728
1.210819,-0.222311,-0.0577682,0.1647875,0.8350747,-0.01625113
1.312117,-0.1640268,0.04472666,0.2455612,0.4387964,0.1388899
1.330472,-0.1898203,0.08520281,0.2453613,-0.09062694,0.2947733
1.479365,-0.2437704,0.04234971,0.4520377,-0.2951081,0.3881594
1.530209,-0.3004081,0.02238103,0.6852904,-0.4339871,0.5404946
1.399541,-0.3578566,-0.04678371,0.7720222,-0.67019,0.5828865
1.258245,-0.3844246,-0.1473855,0.8486677,-1.131749,0.4423554
1.067496,-0.4709678,-0.2360224,0.99506,-1.494184,0.2733726
0.9538572,-0.5683397,-0.3920706,1.182103,-1.230132,-0.00998258
0.8747122,-0.5076518,-0.4678737,1.186595,-0.6125217,-0.409341
0.7424603,-0.4288204,-0.4318397,0.9040226,-0.3387317,-0.7400964
0.7922579,-0.4045536,-0.4321787,0.5801337,-0.3228592,-0.9608547
0.8223242,-0.3183186,-0.4512025,0.5444463,-0.3141226,-1.09101
0.7361243,-0.2537843,-0.4621162,0.6312179,-0.2783265,-1.043359
0.764911,-0.2271803,-0.4520046,0.5499434,0.008194795,-0.9098053
0.720348,-0.1896569,-0.4230356,0.5701116,0.09355122,-0.8570926
0.6575586,-0.191108,-0.3959658,0.4907851,-0.2324961,-0.8014004
0.7093121,-0.1788796,-0.3999588,0.2800256,-0.5181279,-0.6793448
0.7305683,-0.1568907,-0.4348637,0.4782209,-0.5971716,-0.4988124
0.7739509,-0.1344135,-0.4365628,0.6357656,-0.4748886,-0.4363724
0.76945,-0.1029244,-0.4375413,0.5380169,-0.4184914,-0.54859
0.7256532,-0.1333106,-0.4403554,0.4732497,-0.2606241,-0.5658519
0.7561256,-0.1454924,-0.4146438,0.3552559,0.06804175,-0.6106127
0.7922077,-0.1258243,-0.3586583,0.3968163,0.2207251,-0.6745651
0.8671456,-0.07370568,-0.2319669,0.4834012,0.2945531,-0.5670455
0.9108367,0.07489212,-0.12725,0.426146,0.0511149,-0.4842976
0.9500201,0.1739918,-0.0855761,0.3660782,-0.3598437,-0.3101219
1.105123,0.2241509,-0.06391136,0.1542395,-0.466078,-0.0930735
1.202976,0.2582614,-0.1095382,-0.09900345,-0.501634,-0.01696271
1.242977,0.1913473,-0.170807,-0.1676422,-0.5417335,0.1230544
1.29436,0.1224407,-0.1904528,-0.1185671,-0.638039,0.1749256
1.249775,0.03591077,-0.1753799,0.08401009,-0.8023483,0.1346029
1.152869,-0.1398591,-0.1946811,0.4337052,-0.8814832,0.1781352
1.061977,-0.3032038,-0.4196611,0.5935754,-0.7657461,0.1613973
1.014612,-0.3607841,-0.7521864,0.4470918,-0.2939738,0.1406611
1.129889,-0.3203677,-0.8542473,0.3713769,0.1491258,0.1455938
1.236866,-0.3225314,-0.7667935,0.3586237,0.1820362,0.1511058
1.068135,-0.3919697,-0.8155431,0.1557728,0.2588905,0.2052065
0.9171751,-0.415758,-0.8811086,-0.1256526,0.8532584,0.2145236
1.027508,-0.3707748,-0.6992997,-0.3154189,1.400274,0.1585129
1.065799,-0.2373656,-0.4687553,-0.1959224,1.193394,0.1437245
0.9630771,-0.06650934,-0.3506177,0.1352381,0.7136242,0.3458226
0.8985594,-0.03035677,-0.3121546,0.3031868,0.4753819,0.6182277
0.8065949,-0.1930679,-0.3310913,0.285704,0.4969356,0.5880285
0.7093613,-0.3504087,-0.2776732,0.2994992,0.7572826,0.3992481
0.649043,-0.30111,-0.1728596,0.5698865,0.8354041,0.2346192
0.5898428,-0.1965491,-0.1511735,0.713679,0.6078414,-0.005699979
0.5658288,-0.1522957,-0.1856471,0.3799966,0.4228441,-0.2089479
0.5154932,-0.1190047,-0.1820589,0.1772687,0.4187609,-0.2955835
0.4542623,-0.1670387,-0.08007887,0.3195067,0.4825933,-0.2931523
0.4908341,-0.2192787,0.06616362,0.5144653,0.3698547,-0.1865074
0.586361,-0.2087838,0.1165535,0.736205,0.1287126,-0.08404137
0.7594284,-0.2334465,0.009597562,0.8399541,0.01262269,-0.04830983
1.002522,-0.2331925,-0.106394,0.6338614,0.2754543,-0.0874341
1.195664,-0.1908938,-0.09686509,0.2743081,0.7116545,-0.1482878
1.329166,-0.1622462,-0.03913068,0.1386869,0.5192125,-0.07965122
1.40013,-0.1647559,-0.00372094,0.1992792,-0.2157669,0.1450163
1.447906,-0.2206724,-0.04971426,0.3445138,-0.8056792,0.4907319
1.523809,-0.268778,-0.1675617,0.5802912,-0.9417447,0.7141849
1.51625,-0.3377938,-0.260974,0.6630348,-0.8853924,0.6857728
1.398417,-0.4930897,-0.3732293,0.6840936,-1.178995,0.6372955
1.251384,-0.6585592,-0.4871218,0.8269038,-1.073187,0.3911532
1.123868,-0.6885549,-0.500425,0.9204177,-0.3783285,-0.1394045
1.040519,-0.5982526,-0.4504791,0.7709706,-0.05270443,-0.5848899
0.8834075,-0.5501191,-0.3770231,0.5647844,0.02168199,-0.9053236
0.6701017,-0.4455145,-0.2976482,0.6548431,-0.2033007,-1.102524
0.6701115,-0.3013023,-0.3149662,0.7283448,-0.3682958,-1.079576
0.7793122,-0.2252323,-0.4080577,0.6073956,-0.1439978,-0.9538508
0.7673468,-0.07950414,-0.4562412,0.3940948,-0.1809215,-0.8739642
0.8116079,-0.05420186,-0.5212593,-0.02473305,-0.06687805,-0.8372843
0.8580044,-0.1501243,-0.5450531,-0.1281791,0.08150202,-0.6856941
0.7741062,-0.1399166,-0.4515065,0.137843,-0.03765903,-0.4252306
0.7624044,-0.1741251,-0.4131488,0.1600084,-0.09049208,-0.3254614
0.764221,-0.1892456,-0.3867609,0.1190866,-0.4401958,-0.4227723
0.7432142,-0.1759172,-0.3578146,0.1688679,-0.713579,-0.4424514
0.7888583,-0.2205888,-0.3998663,0.2605818,-0.7140782,-0.439198
0.8174276,-0.2166061,-0.3939571,0.4597987,-0.645365,-0.5846608
0.9194594,-0.226273,-0.3730552,0.5572887,-0.266739,-0.7376166
1.026254,-0.1366381,-0.3344468,0.634927,0.1531924,-0.8305561
0.9968804,0.09139266,-0.2640938,0.7006076,0.401682,-0.7433044
0.9573728,0.2369208,-0.2057532,0.4183136,0.2833725,-0.505665
0.9214307,0.283045,-0.07671479,0.02773571,-0.05590447,-0.3222128
0.9199151,0.2718953,0.01527507,-0.05839806,-0.3242902,-0.1030108
0.9919483,0.2330275,-0.008256455,-0.02088055,-0.5482756,0.05996174
1.04876,0.1322096,-0.0804732,-0.05720892,-0.6248609,0.1495696
1.052295,-0.01221123,-0.174989,0.1719333,-0.9811938,0.2387144
1.07304,-0.1626067,-0.2570868,0.7415988,-1.260088,0.1689076
1.174956,-0.3184374,-0.4581365,0.9979807,-0.9036479,0.1304404
1.254155,-0.2612708,-0.7526335,0.6644784,-0.5073066,0.1385324
1.273754,-0.1274791,-0.8299017,0.2840495,-0.1593819,0.0850674
1.187022,-0.1819997,-0.6988275,0.2017231,-0.2095432,0.1676346
1.000457,-0.2606018,-0.6399623,0.1473818,-0.4536896,0.240544
0.9668941,-0.3828133,-0.685587,0.09034129,0.08429024,0.2045047
0.9529405,-0.4767525,-0.6736478,0.2383799,0.6277672,0.1818531
0.8352859,-0.4035913,-0.5844732,0.3839254,0.6830981,0.1253953
0.8508232,-0.3830855,-0.4911114,0.4046924,0.5486454,0.01513752
0.9090917,-0.365976,-0.4444224,0.4382654,0.3115313,-0.1326855
0.948471,-0.3106946,-0.451331,0.6132149,0.5239418,-0.2583608
0.973544,-0.3237048,-0.4173373,0.9837181,0.8827903,-0.260869
0.8748002,-0.28528,-0.3463605,1.329196,1.109129,-0.1187709
0.8026142,-0.2753009,-0.3112481,1.575165,1.196093,0.006325071
0.7692615,-0.2790757,-0.2339808,1.827987,0.6172852,-0.01695454
0.7050748,-0.1495129,-0.1631413,1.856703,0.01798199,-0.04676806
0.7210872,-0.0413452,-0.2500727,1.434447,-0.008270787,-0.06747154
0.7755927,-0.02393743,-0.355258,0.8519126,0.2689621,-0.1689682
0.772618,-0.06149691,-0.3056078,0.4571668,0.5467869,-0.2496589
0.6792278,-0.1128245,-0.1933383,0.244522,0.4644984,-0.2377342
0.5562473,-0.1721542,-0.06776802,0.2554099,0.321235,-0.132317
0.5514914,-0.2902949,0.08283963,0.3807955,0.04811264,-0.05409447
0.6621701,-0.3279036,0.1131257,0.4102191,-0.3403486,-0.2043485
0.7516982,-0.2351011,0.04556305,0.4704468,-0.1012923,-0.3925639
0.7893325,-0.1307525,0.02767506,0.5161793,0.1323175,-0.3457949
0.8991419,-0.09580512,0.02514737,0.4795581,-0.1941483,-0.2799556
1.131967,-0.1159402,0.02701127,0.4163795,-0.3212216,-0.3071205
1.341895,-0.08140654,0.0104831,0.2389605,-0.2402039,-0.252215
1.416978,-0.05793541,-0.03172505,0.1189583,-0.4356692,-0.08818201
1.488419,-0.1216069,-0.05976016,0.09758942,-0.6931299,0.1912525
1.593607,-0.245726,-0.1273621,0.01695771,-0.7361098,0.3798304
1.555246,-0.443947,-0.1815343,0.05114689,-0.7954368,0.3199214
1.403669,-0.6254669,-0.2113964,0.2170039,-1.007401,0.2858421
1.290127,-0.6997024,-0.2805603,0.3229389,-1.083394,0.2905452
1.279574,-0.6358287,-0.335217,0.2914639,-0.9138651,0.2533061
1.245632,-0.5179744,-0.4039417,0.2210275,-0.699437,0.2085545
1.013052,-0.5077083,-0.4642251,0.306726,-0.4283169,-0.09357712
0.7898045,-0.5932073,-0.4241505,0.4565456,-0.196561,-0.6134386
0.7186937,-0.6582589,-0.3751026,0.5909813,-0.3282624,-0.9714212
0.6774261,-0.526118,-0.3759382,0.6617697,-0.5650468,-1.020918
0.6769336,-0.2658454,-0.4127104,0.5938575,-0.5553122,-0.9296827
0.7370724,-0.1551674,-0.5027067,0.6567659,-0.3470899,-0.9281632
0.8320941,-0.1357025,-0.5254502,0.8325587,0.001478714,-0.9485949
0.8443408,-0.1197538,-0.4646671,0.9757813,0.154841,-0.9460578
0.71756,-0.1071729,-0.4325366,1.1196,0.04198129,-0.9749588
0.5826901,-0.06951593,-0.3638482,1.110883,-0.02017539,-0.9398276
0.5150805,-0.09573031,-0.3137726,1.100482,-0.1991197,-0.9000655
0.5823157,-0.1316679,-0.3441221,1.147319,-0.382658,-0.925804
0.6997104,-0.1506019,-0.3469541,1.214712,-0.2565625,-0.9483412
0.7851248,-0.1755448,-0.3781495,1.442285,-0.1394881,-0.9666549
0.9030184,-0.1143446,-0.4656835,1.499373,-0.05433714,-0.9849039
0.9457973,-0.06725774,-0.5339316,1.375662,0.1708504,-1.028994
0.965413,-0.06089823,-0.5438335,1.27851,0.408737,-1.114439
1.007169,-0.006122892,-0.4874039,1.011209,0.6970523,-1.141995
0.9417987,0.03245535,-0.4116009,0.7760906,0.8310719,-1.042707
0.8881379,0.03014311,-0.2962139,0.8129568,0.5337827,-0.867711
0.8596101,0.0149988,-0.186115,0.8800641,0.1309944,-0.6857582
0.8456364,0.01418165,-0.1750512,0.788177,0.01075803,-0.5605344
0.9337604,0.02529185,-0.14789,0.6647014,0.06925558,-0.4793968
0.9804904,0.1033688,-0.01227353,0.5605184,-0.1175046,-0.2886751
0.9768699,0.2574495,0.07657689,0.4809915,-0.6908932,0.03598809
1.069974,0.2655522,-0.01718641,0.398162,-1.002393,0.2216152
1.264628,0.1188339,-0.1938068,0.01080388,-0.4795214,0.1274387
1.380181,-0.005777565,-0.3007966,-0.2334426,-0.02070132,0.07495628
1.330797,-0.167745,-0.3000152,0.1435605,-0.5152889,0.1363752
1.360187,-0.441322,-0.3413153,0.4593986,-0.8523386,0.04882839
1.416159,-0.542963,-0.4776885,0.5001187,-0.3777927,0.03295921
1.292955,-0.2379798,-0.4588765,0.6523104,-0.3106135,0.2039119
1.119058,-0.008658815,-0.4407861,0.7539963,-1.006558,0.3830958
0.9462148,-0.1571469,-0.7084553,0.4340966,-1.428518,0.5682083
0.9211523,-0.293742,-0.9114022,-0.06156954,-0.8492005,0.5517386
1.08266,-0.3719381,-0.8681952,-0.1967146,-0.06845045,0.380535
1.110841,-0.4292059,-0.7988497,-0.1536445,-0.07063872,0.2775797
1.054309,-0.3296097,-0.7439205,-0.05420139,0.104992,0.2430094
0.9794358,-0.2744924,-0.6217504,0.2961419,0.6284009,0.4609843
0.7871087,-0.296231,-0.4768252,0.6245811,0.6200412,0.7055335
0.6446397,-0.2703996,-0.4033954,0.7595677,0.6412796,0.6433161
0.5402824,-0.2759885,-0.2928366,0.8690231,0.5001659,0.4869931
0.4740808,-0.2678398,-0.2105168,1.047535,-0.04398315,0.3786814
0.5026463,-0.207703,-0.2440372,1.088154,-0.2076374,0.3579859
0.5228628,-0.1502933,-0.2446826,0.8509152,-0.1050646,0.2993621
0.638165,-0.09323675,-0.2886308,0.5953407,0.2573951,0.1083556
0.7201395,-0.08447233,-0.262588,0.4805431,0.574878,0.07042587
0.6837077,-0.1175133,-0.1091942,0.4956663,0.1887727,0.1564735
0.7906714,-0.1779866,-0.06321777,0.5398779,-0.3690786,0.1373174
0.9419529,-0.3252302,-0.06549762,0.5460227,-0.4586528,0.06819872
1.067434,-0.4603851,-0.153221,0.5466357,0.0476553,-0.09065408
1.140228,-0.4393782,-0.2339758,0.4477159,0.6164753,-0.2543831
1.078796,-0.3447728,-0.1373138,0.3134004,0.5259677,-0.1216437
1.097764,-0.3286334,-0.103116,0.2297552,-0.09903024,0.1223955
1.147997,-0.3778065,-0.1803412,0.1847675,-0.6523739,0.2038555
1.141826,-0.4180302,-0.254327,0.1929121,-0.6623638,0.227525
1.154549,-0.412913,-0.2967561,0.1341909,-0.4603162,0.1574223
1.065312,-0.412867,-0.3488272,0.06373826,-0.6127146,0.01514206
0.8753778,-0.52065,-0.4060913,0.05664712,-1.010426,-0.091658
0.7345919,-0.6597242,-0.4156209,0.1030854,-1.198059,-0.3041923
0.8274209,-0.7000724,-0.5114415,0.1527007,-0.5096338,-0.6043802
0.9633488,-0.5774106,-0.6200278,-0.1477488,0.6145956,-0.7901117
0.8194022,-0.3700697,-0.653476,-0.5898801,0.7013264,-0.7636934
0.7384473,-0.274353,-0.6499274,-0.6490416,0.2858662,-0.6740512
0.8107491,-0.2092233,-0.570011,-0.6030453,0.415304,-0.6702247
0.8099959,-0.164262,-0.5652639,-0.6709348,0.3987528,-0.6203211
0.868728,-0.2277871,-0.5538578,-0.6818134,0.2299409,-0.5376479
0.8850513,-0.2041223,-0.485102,-0.6859591,0.05616405,-0.3787533
0.8481803,-0.1007538,-0.5169982,-0.7024836,-0.38545,-0.09874219
0.8623365,-0.0365849,-0.5222171,-0.7483436,-0.5615915,-0.0322326
0.8044226,-0.05158588,-0.5346849,-0.9686185,-0.5326394,-0.1354543
0.8007093,-0.1619958,-0.5118839,-1.169054,-0.3576617,-0.255101
0.8408569,-0.2140005,-0.3689287,-0.9866603,0.08387203,-0.5104824
0.8114288,-0.2248322,-0.263552,-0.5606043,0.3905753,-0.6330029
0.789665,-0.1991425,-0.1544867,-0.2321467,0.6823854,-0.4357751
0.7151962,-0.03395326,-0.1401963,-0.1321291,0.7632794,-0.1848362
0.6673825,0.1890452,-0.184075,-0.322258,0.3750708,0.01528156
0.7248485,0.31608,-0.1213876,-0.5620553,0.02822933,0.2229043
0.7973802,0.1850035,-0.165854,-0.5972524,-0.01771154,0.3001876
0.9201529,-0.007015916,-0.2441462,-0.5098988,0.02386439,0.2515172
1.060269,-0.08153981,-0.2402988,-0.2522327,-0.2253317,0.2712531
1.179635,-0.1923737,-0.2567594,0.1268284,-0.6294502,0.2943656
1.287027,-0.2535004,-0.3247862,0.3841362,-0.7778378,0.3141928
1.311487,-0.2883949,-0.6493894,0.396032,-0.7219188,0.3913586
1.311798,-0.3145865,-1.024452,0.1510124,-0.5389522,0.4023029
1.328108,-0.2705368,-0.9751448,-0.007008641,-0.3536377,0.3423913
1.230041,-0.3359524,-0.7759176,0.1144844,-0.2903734,0.2630021
1.050533,-0.3702175,-0.7661638,0.2011527,-0.1343242,0.2339541
0.9705935,-0.3386894,-0.7556642,0.1240281,0.1643791,0.2858479
0.9788714,-0.3779964,-0.7457107,0.0491204,0.3491511,0.3109557
0.9732581,-0.3664431,-0.7682288,0.02667979,0.575575,0.3016472
0.9524641,-0.3715264,-0.6377708,0.009253596,0.8471819,0.2538029
0.9197759,-0.3682866,-0.4764411,0.09657604,0.6151089,0.1360011
0.8744088,-0.3041735,-0.3981119,0.2880835,0.3482883,0.08071237
0.7719759,-0.2803047,-0.3588412,0.5507468,0.5235642,0.2409476
0.5967188,-0.2557131,-0.3471922,0.8444636,0.4358249,0.4466793
0.5087959,-0.2278013,-0.2838795,0.8754031,0.07192912,0.4120356
0.5369659,-0.1676057,-0.2831268,0.7045392,-0.1303093,0.2715325
0.5775995,-0.1244158,-0.3671344,0.4110833,0.06175115,0.1607271
0.6235726,-0.1346022,-0.3921842,-0.08782006,0.7162665,0.01736142
0.5982228,-0.109686,-0.3209409,-0.3485263,1.190257,-0.02242028
0.5345403,-0.1454656,-0.09500987,-0.22562,1.255714,0.01420647
0.558887,-0.2022304,0.1366587,0.003891556,1.158935,-0.008534934
0.6174145,-0.1908462,0.2082475,0.1757361,0.9323296,-0.004096285
0.7306626,-0.1537426,0.1532306,-0.01978723,0.6125086,0.07990025
0.9106794,-0.09840634,0.06033591,-0.3959665,0.3104877,0.2114311
1.077805,-0.144535,-0.00759256,-0.4867688,0.3637463,0.2749571
1.23498,-0.2666781,-0.08603,-0.5272983,0.3309818,0.2727189
1.315148,-0.3485974,-0.1236886,-0.5512127,-0.19061,0.3661498
1.338789,-0.375851,-0.2012366,-0.4076242,-0.4604707,0.5012222
1.348314,-0.3530825,-0.315252,-0.4141098,-0.5320707,0.5617997
1.218236,-0.4188542,-0.3103773,-0.3758904,-0.851175,0.5105615
1.072875,-0.5234803,-0.3764639,-0.1830784,-1.224941,0.3646842
1.068628,-0.5757005,-0.4638859,-0.1135807,-1.311084,0.1780077
0.9952682,-0.6633086,-0.4747123,-0.008859161,-0.734891,-0.1209613
0.804297,-0.6384212,-0.5026671,-0.03230806,-0.07893254,-0.5125643
0.6824164,-0.5246647,-0.4102058,-0.1101355,-0.1705542,-0.8411688
0.6138772,-0.5075291,-0.3702333,0.1067039,-0.7758936,-0.945369
0.6643517,-0.4318257,-0.4694185,0.2220678,-1.194534,-0.8068809
0.8247986,-0.3269724,-0.5358351,0.1222965,-0.957171,-0.728633
0.8477392,-0.3185896,-0.672351,0.04140381,-0.3719127,-0.7705396
0.8947846,-0.2789725,-0.7834355,0.05713943,0.2106739,-0.7783397
0.9477198,-0.2802576,-0.6809529,0.2544328,0.6216548,-0.8636623
0.8125937,-0.3428274,-0.4549419,0.4754491,0.3505764,-0.9868416
0.7580472,-0.2919104,-0.3298493,0.5130452,-0.2091051,-1.026006
0.6732449,-0.1825676,-0.3272587,0.3839466,-0.5238512,-0.9682391
0.56524,-0.04453385,-0.3482592,0.2428953,-0.7917308,-0.7931798
0.6487217,0.07397755,-0.4558629,0.1046918,-0.7129574,-0.6296564
0.6660276,0.02869552,-0.5281046,0.09195937,-0.5579025,-0.5802672
0.7576469,-0.07387123,-0.5644386,0.2774874,-0.4847865,-0.725107
0.9338088,-0.2012667,-0.6470117,0.3313542,0.2180942,-1.051752
0.9486227,-0.2985616,-0.6336762,0.3319309,0.9087267,-1.27833
0.9431489,-0.160369,-0.5972787,0.3399908,1.142222,-1.221776
0.843522,0.05121742,-0.5286677,0.1574197,1.204839,-0.9252042
0.6959483,0.1783605,-0.4123042,-0.1034167,0.8303084,-0.5361492
0.6597688,0.2183817,-0.3186486,-0.35653,0.4395554,-0.1770941
0.6899991,0.1543877,-0.1941497,-0.3647037,0.3034877,0.04779496
0.7712268,0.1451348,-0.1497061,-0.3086197,0.1774713,0.1525081
0.8292118,0.119204,-0.1353987,-0.4321042,-0.1168763,0.2763614
0.9053186,0.03123788,-0.09717678,-0.3391096,-0.5576332,0.3547997
1.011756,0.06401344,-0.1539086,-0.2216305,-0.6069821,0.4671947
1.192549,0.08564918,-0.2287879,-0.1867997,-0.4671477,0.6269207
1.396962,0.04834263,-0.2792846,-0.1063755,-0.4971359,0.635716
1.357771,-0.007540881,-0.3232486,-0.09103794,-0.6176265,0.6580801
1.355876,-0.173365,-0.4245216,0.1368257,-0.7294589,0.5587976
1.561005,-0.2675538,-0.542161,0.2617849,-0.3927822,0.2099775
1.587486,-0.185926,-0.4889213,0.1753374,-0.1414213,0.1509656
1.32388,-0.04642077,-0.4494124,0.2852783,-0.6840745,0.5899508
