accx,accy,accz,gyrox,gyroy,gyroz
0.9845548,-0.05007508,-0.01188041,0.3336749,0.162606,-0.1066989
0.9937586,-0.1012275,-0.006125317,0.2733382,0.1499591,-0.1646092
1.093154,-0.09241766,-0.003016565,0.3295697,0.1795428,-0.1648228
1.268983,-0.1086091,-0.01353203,0.3339261,0.1993487,-0.1914933
1.419539,-0.1824409,-0.01646828,0.3158979,0.2156117,-0.1934045
1.534759,-0.3149874,-0.003484906,0.3952026,0.119728,-0.04864706
1.620857,-0.4044947,0.006744456,0.4543959,-0.1229161,0.187307
1.651345,-0.3612954,-0.008963575,0.382079,-0.3278933,0.3389645
1.613019,-0.4097313,-0.03267225,0.2568249,-0.2652409,0.3258042
1.490554,-0.5490574,-0.02779775,0.1686693,-0.06015306,0.2262586
1.213377,-0.5752497,0.005053357,0.2078296,0.0646717,0.1192069
1.005006,-0.5262283,0.06183263,0.3786689,0.2130316,0.114746
1.039962,-0.4727156,0.1038414,0.5067558,0.3224341,0.1866849
1.083324,-0.404031,0.09741559,0.4117555,0.3738593,0.2195852
1.073691,-0.3066998,0.1102634,0.2561366,0.3847242,0.3122697
1.059725,-0.2401096,0.1500513,0.2726186,0.2159063,0.4246872
0.977601,-0.2515569,0.1436969,0.29168,0.128901,0.4830973
0.8279246,-0.2831796,0.09615433,0.2764916,0.1263969,0.5506143
0.6349915,-0.3165287,0.05671031,0.3726814,0.0817369,0.5369604
0.495843,-0.325531,0.07404778,0.5082631,0.1178825,0.5142608
0.4955599,-0.2768687,0.1114807,0.6348281,0.003125975,0.5552339
0.5625481,-0.2218994,0.09454153,0.627003,-0.1588095,0.5426142
0.5973294,-0.1771623,0.06984684,0.4455842,-0.2454371,0.5166573
0.5758146,-0.1347242,0.05230388,0.2794453,-0.3794165,0.4610434
0.5368179,-0.1010327,0.03646952,0.1389067,-0.3728093,0.3586232
0.5260848,-0.09855899,0.05990727,0.01645357,-0.2810756,0.2625702
0.588061,-0.169009,0.09916747,-0.03824943,-0.1019352,0.1371366
0.7376274,-0.2720536,0.1840353,0.02668778,0.09092756,0.03523634
0.8930691,-0.3410173,0.2624284,0.2091605,0.1205712,-0.05767383
1.015935,-0.3640055,0.2457808,0.3661418,0.145303,-0.158678
1.184025,-0.380418,0.2468967,0.5045025,0.005466549,-0.1576725
1.406454,-0.4168269,0.2485879,0.6075884,-0.2350213,-0.1236344
1.616579,-0.4596924,0.1693498,0.6552741,-0.3067156,-0.100418
1.704356,-0.5660714,0.1035781,0.7092489,-0.345098,0.01875543
1.565763,-0.6660399,0.0698932,0.6869409,-0.3862002,0.1670149
1.280932,-0.6227714,0.008482296,0.6500539,-0.4378954,0.1837789
0.9898133,-0.592957,-0.05254438,0.5868576,-0.4726268,0.08924595
0.8646393,-0.6561473,-0.04963822,0.4744511,-0.4949864,-0.01782757
0.9621616,-0.6628387,-0.05303388,0.522322,-0.5364369,-0.1538124
1.014416,-0.6124985,-0.09274593,0.6528976,-0.518914,-0.2467859
1.025086,-0.54205,-0.08158219,0.8030707,-0.4949258,-0.2153595
1.090638,-0.4340573,-0.07851511,0.9688039,-0.4163847,-0.2114125
1.018709,-0.3202236,-0.07100719,0.9626288,-0.3381649,-0.2606351
0.9174136,-0.2107428,-0.01598175,0.8812191,-0.374707,-0.3202757
0.8268968,-0.141716,-0.005995959,0.836361,-0.3783365,-0.432442
0.6843193,-0.1397312,-0.01295887,0.7784482,-0.3339,-0.463861
0.6563278,-0.1391307,-0.01652791,0.7577448,-0.3125097,-0.4095586
0.5960561,-0.1333008,-0.01705056,0.7634125,-0.3322253,-0.3731647
0.4624482,-0.1397597,-0.006132553,0.7645088,-0.3581139,-0.2790061
0.4410264,-0.1339933,-0.02643336,0.7559232,-0.343158,-0.1522145
0.4916209,-0.1343397,-0.04041921,0.7033824,-0.2847287,-0.06663377
0.586087,-0.1394425,-0.05436687,0.6069027,-0.1205663,-0.03573552
0.7153496,-0.1398961,-0.05688483,0.5221639,0.06036387,-0.09432272
0.8934691,-0.1412063,-0.03829876,0.5208893,0.1295421,-0.1528981
1.042059,-0.1096567,-0.05388049,0.4612777,0.1646303,-0.1461253
1.092165,-0.05178842,-0.04399506,0.2071281,0.2151121,-0.1903015
1.151121,-0.03113905,-0.01351416,-0.04796243,0.1810003,-0.2773836
1.228312,-0.08002293,-0.0009720805,-0.212416,0.1025229,-0.2821354
1.382947,-0.1701207,-0.0005065052,-0.3214989,0.1327064,-0.2302212
1.574965,-0.2660168,-0.02810432,-0.3303959,0.1191319,-0.1058469
1.655956,-0.369975,-0.02712721,-0.351113,-0.001571228,0.08147841
1.642468,-0.4841664,-0.01951229,-0.4038392,-0.1007367,0.103501
1.487128,-0.5697539,-0.03142559,-0.3198607,-0.1721779,-0.007295654
1.254653,-0.5856699,-0.03263999,-0.1228014,0.02660523,-0.0303895
1.118968,-0.5557671,-0.04614362,0.07380136,0.4224879,-0.02630034
1.11195,-0.5175452,-0.02289439,0.2157519,0.6160207,-0.04023198
1.152619,-0.476311,0.02311533,0.2221881,0.7508384,-0.03006789
1.128457,-0.4019692,0.03665906,0.09254045,0.7923794,-0.01738745
1.059792,-0.2612593,0.05984969,-0.09685846,0.5635572,0.04236952
0.9796623,-0.1602038,0.07906151,-0.2990846,0.364346,0.1314787
0.9408374,-0.1824642,0.07182805,-0.4287711,0.3105535,0.2200241
0.9102658,-0.2361504,0.04817754,-0.4504561,0.3827986,0.334636
0.7557296,-0.2850276,0.03256814,-0.4047383,0.4614983,0.3886821
0.6370143,-0.3125713,0.05856713,-0.3122559,0.329571,0.3876915
0.6149301,-0.268128,0.08177881,-0.2867705,0.1884326,0.4196891
0.5695459,-0.2235985,0.06653434,-0.4099487,0.1033777,0.4358641
0.5411419,-0.2330473,0.05526102,-0.5382972,0.01126151,0.4258132
0.515331,-0.2540469,0.06951069,-0.517736,0.02476637,0.4154886
0.5203441,-0.2784072,0.08338156,-0.4394718,0.03163252,0.3396825
0.5822039,-0.2970493,0.1003198,-0.4069258,0.06034362,0.2209148
0.6415152,-0.2939093,0.117876,-0.3203917,0.1696911,0.1874194
0.7138943,-0.2873649,0.1210201,-0.2325685,0.2025743,0.1947425
0.7987217,-0.2828232,0.1498468,-0.21874,0.1749798,0.1029494
0.919399,-0.3025804,0.1822453,-0.1460902,0.1420848,-0.03235939
1.060255,-0.352203,0.1916954,0.009474299,0.08082608,-0.09784228
1.240411,-0.3790842,0.2221068,0.2179698,-0.09394503,-0.09639204
1.453966,-0.3884423,0.2171211,0.3848786,-0.2954778,-0.0651322
1.52084,-0.4460949,0.1269874,0.4018864,-0.3182272,-0.006607571
1.612756,-0.5693995,0.05128082,0.4149795,-0.3158003,0.1241867
1.737385,-0.635526,0.07633941,0.5865088,-0.3781111,0.2459921
1.467265,-0.5358683,0.1041812,0.7276946,-0.3701241,0.1944733
1.055414,-0.4512161,0.0454447,0.4783492,-0.355699,0.0719786
0.873009,-0.5328694,0.01908649,0.1801492,-0.3929234,-0.04967258
0.8251889,-0.6002661,0.03575832,0.3355336,-0.4389587,-0.2779249
0.918936,-0.5735658,0.003958617,0.5091438,-0.5445626,-0.4446248
1.01741,-0.5542393,-0.0333006,0.5730708,-0.6654558,-0.4756081
1.007886,-0.5030566,-0.06422599,0.7845441,-0.6414331,-0.5154645
0.9750304,-0.4224696,-0.07412754,0.8187363,-0.5407141,-0.5046732
0.9036037,-0.368877,-0.05559671,0.7620885,-0.4427921,-0.5150243
0.8359587,-0.2908679,-0.05012365,0.8199353,-0.3514983,-0.5978351
0.7488032,-0.2244228,-0.03147644,0.8149486,-0.3887289,-0.5993011
0.6380455,-0.2009385,-0.03006247,0.8794129,-0.4265325,-0.5594086
0.5967378,-0.1712391,-0.04679435,0.9379825,-0.3731266,-0.5104027
0.5558193,-0.1555491,-0.03515861,0.8621155,-0.3612509,-0.4445404
0.5292636,-0.1478022,-0.04218882,0.7589613,-0.2965792,-0.3626707
0.5775922,-0.1326124,-0.04940171,0.6210872,-0.2031053,-0.2512778
0.6755357,-0.1297137,-0.0412177,0.6389489,-0.1103124,-0.1967441
0.8136377,-0.1187972,-0.04719349,0.7140871,0.07174535,-0.09960615
0.8868192,-0.08599789,-0.03934238,0.6351345,0.1006582,0.0291855
0.9307238,-0.05865451,-0.03203733,0.5731941,0.01179424,0.03472807
1.024648,-0.06103411,-0.03303189,0.4007905,0.04581565,0.05890015
1.029121,-0.09770163,-0.01511611,0.1718359,0.0245056,0.05593121
1.027227,-0.1615119,0.02522879,0.1844069,-0.03488372,-0.04978307
1.122963,-0.1850094,0.06298378,0.2913857,-0.02023801,-0.1030197
1.192122,-0.1394987,0.04795087,0.3430601,-0.02441471,-0.1509115
1.307128,-0.1203426,0.02581889,0.2600982,0.03111181,-0.1724323
1.473569,-0.1835009,0.04283055,0.1196197,0.0852147,-0.1556703
1.556348,-0.3182973,0.03546197,0.135411,0.02672067,-0.1593393
1.569323,-0.4420607,0.0193454,0.1474632,-0.07327899,-0.02467173
1.518052,-0.4621953,0.01824973,0.07884394,-0.2066124,0.1746102
1.401708,-0.4931904,-0.01768586,0.02875774,-0.2035312,0.2470198
1.211212,-0.5833962,-0.04419201,-0.02323284,0.03442648,0.2011927
1.089624,-0.5597857,-0.011874,0.008855707,0.2898777,0.1199671
1.157538,-0.4554636,0.05768022,0.07502771,0.4300482,0.1228741
1.155998,-0.3779487,0.1297796,0.06905437,0.4860753,0.1702419
1.063033,-0.2722248,0.1357606,0.02634694,0.5024015,0.2154261
1.03095,-0.1785628,0.1053499,-0.07903038,0.45173,0.2175691
0.9819811,-0.1468419,0.1101244,-0.1637978,0.3985869,0.1802471
0.9112122,-0.1870106,0.09059724,-0.1737884,0.4031074,0.246132
0.7612384,-0.2678364,0.06741218,-0.1563383,0.380341,0.301972
0.5975617,-0.2891954,0.1060086,-0.01880292,0.3325453,0.3217395
0.5899191,-0.3026938,0.1297528,0.2204071,0.2265283,0.3720497
0.6101843,-0.303525,0.1232319,0.3750389,0.09148029,0.3634531
0.6206411,-0.2614991,0.1190366,0.3718391,-0.02419497,0.3987131
0.6697717,-0.2401346,0.09785909,0.2987254,-0.2057058,0.4460143
0.692443,-0.2032952,0.08505722,0.2074921,-0.3459771,0.442638
0.6903361,-0.2148152,0.08982804,0.08584796,-0.4022531,0.4252885
0.6882348,-0.2597046,0.09411251,0.008481378,-0.3943053,0.3272198
0.712901,-0.2648072,0.1026562,0.02520088,-0.2860179,0.2570687
0.734714,-0.3215692,0.1368384,0.1547662,-0.2249161,0.1988691
0.7572475,-0.3616524,0.1796913,0.3496382,-0.2335037,0.07511548
0.7976958,-0.3382332,0.168568,0.4257452,-0.2239001,-0.02105637
0.7919237,-0.3009311,0.1524466,0.4030925,-0.1953026,-0.06669588
0.8156984,-0.2615121,0.1714544,0.4391535,-0.2537414,-0.007881013
0.8964759,-0.26305,0.1660103,0.4801696,-0.4058003,0.08401591
1.022702,-0.2685366,0.1643699,0.4763925,-0.4608048,0.1391049
1.251303,-0.2924172,0.1734642,0.481867,-0.5119967,0.2148592
1.447746,-0.3695033,0.150947,0.4391104,-0.6099196,0.2412124
1.569047,-0.5003355,0.1231294,0.4346293,-0.6372642,0.2701121
1.638958,-0.6671357,0.104065,0.6821564,-0.6669145,0.3493921
1.550486,-0.705077,0.09746277,0.9079637,-0.6521095,0.3461675
1.306285,-0.6161945,0.07013284,0.7683223,-0.5964451,0.2274176
0.9599099,-0.5759528,0.0187149,0.6169967,-0.5778762,0.01195599
0.7602115,-0.613797,0.03546125,0.7533438,-0.5780942,-0.2561396
0.8531159,-0.6916738,0.06270635,0.9176243,-0.635193,-0.4707599
0.901444,-0.7567012,0.03400621,1.171972,-0.7157523,-0.5570852
0.8826022,-0.7369684,0.02352809,1.567785,-0.7421841,-0.5241793
0.9582323,-0.63209,-0.03068179,1.719377,-0.5811566,-0.4736224
0.9676363,-0.5348515,-0.1075267,1.7895,-0.3226184,-0.4704264
0.9542963,-0.4748406,-0.05926092,1.92513,-0.3195748,-0.49501
0.9524835,-0.4008205,-0.0136035,1.907819,-0.5013335,-0.5196884
0.8820998,-0.2911117,-0.06635854,1.866692,-0.6339098,-0.5010984
0.8269741,-0.1799885,-0.08013474,1.765911,-0.660814,-0.4753531
0.7586278,-0.1871414,-0.05946673,1.584254,-0.5206775,-0.548187
0.6623791,-0.2436929,-0.0661408,1.471124,-0.302146,-0.6873212
0.5933258,-0.2212969,-0.04706816,1.47616,-0.1142374,-0.7928357
0.5871273,-0.2403541,-0.00471533,1.700756,-0.02338891,-0.7757138
0.6762276,-0.213515,0.01314247,1.925961,-0.01500096,-0.6089213
0.7994535,-0.06644476,-0.002855118,1.962137,0.05848602,-0.3830446
0.9001667,0.01907114,-0.01841152,1.832892,0.09820407,-0.177349
0.9178235,0.09713429,0.01700103,1.564488,0.01643637,-0.1138383
0.9356983,0.1374894,0.07167354,1.294252,-0.02847763,-0.1552159
1.003747,0.08149573,0.1046803,1.02621,-0.02029297,-0.1581832
0.9801707,0.09333708,0.11902,0.8448914,-0.03702526,-0.2209645
0.968493,0.08500654,0.1229171,0.7517687,-0.0688151,-0.2700925
1.018548,0.006961636,0.1508836,0.657399,-0.02200321,-0.2297869
1.032826,-0.03710155,0.1685894,0.6404271,0.06698914,-0.2388344
1.114731,-0.1013785,0.165084,0.6156164,0.07561632,-0.1883904
1.330045,-0.2291928,0.204495,0.6612777,0.05653656,0.04394789
1.546213,-0.3495382,0.2242305,0.7344054,-0.04440992,0.4102051
1.617283,-0.3180748,0.1757712,0.5179381,-0.2631336,0.6048121
1.685009,-0.2933046,0.1381618,0.1246584,-0.3889605,0.4065303
1.716883,-0.4438479,0.1468825,-0.1865986,-0.3344919,0.2627105
1.463181,-0.5544905,0.142873,-0.2845628,-0.1544982,0.3077452
1.201754,-0.6140331,0.07258352,-0.2031575,0.1042164,0.2308826
1.108958,-0.6146928,0.01819352,-0.0005268211,0.3191598,0.2359092
1.076715,-0.5038811,0.05929444,0.235523,0.3911378,0.3342829
1.112995,-0.4146451,0.1004439,0.1568348,0.4361578,0.2689637
1.04761,-0.2886586,0.0789185,-0.05069111,0.4016833,0.2419922
0.9413489,-0.1933003,0.08441091,-0.02343155,0.2024314,0.2960463
0.9085261,-0.1985997,0.1133146,-0.0235693,0.1654013,0.3551218
0.8268184,-0.2228331,0.08648125,-0.01563245,0.1811992,0.4922268
0.7124947,-0.2927896,0.07382048,0.1469808,-0.0214944,0.4966202
0.5789863,-0.2798146,0.09858938,0.2736773,-0.1585224,0.4335202
0.5378265,-0.2269117,0.1016188,0.3290735,-0.1883809,0.4999086
0.5556325,-0.2139285,0.107176,0.2469462,-0.257054,0.5200532
0.5214858,-0.1393302,0.1056838,0.1268132,-0.3406198,0.5528845
0.5691658,-0.1216771,0.09711163,0.005552836,-0.3551579,0.5995277
0.593994,-0.1354222,0.1009254,-0.2618876,-0.3198526,0.5516656
0.6052027,-0.1496852,0.1093484,-0.3895905,-0.3155904,0.559993
0.7018806,-0.2567776,0.1490745,-0.3777472,-0.1770907,0.5557033
0.7759108,-0.3471994,0.1940895,-0.3752382,-0.02432821,0.4778683
0.9017979,-0.3856156,0.2130174,-0.3042397,-0.01724484,0.3629523
1.033888,-0.3875608,0.2125786,-0.3228193,0.004615332,0.1581122
1.085685,-0.4191873,0.2058841,-0.2438841,0.02362615,0.01240559
1.123479,-0.5199383,0.2167626,0.05232287,0.09700416,-0.03809214
1.221375,-0.5656834,0.2161523,0.2333325,0.1848533,-0.1133032
1.433801,-0.5723296,0.1919957,0.2627179,0.1426594,-0.1740651
1.579169,-0.5500867,0.1461688,0.311346,-0.03320738,-0.1069384
1.544805,-0.4814086,0.07597141,0.3447048,-0.2977729,0.07382629
1.312662,-0.458813,0.01350683,0.09899074,-0.3613659,0.1234164
0.940834,-0.537719,-0.03375706,-0.2295122,-0.2939648,-0.00371833
0.8053642,-0.6800362,-0.02562901,-0.2335161,-0.3943323,-0.1674959
0.9265919,-0.7139722,0.004472086,-0.08674469,-0.5057947,-0.3638781
1.010467,-0.6433146,-0.03027392,0.1305522,-0.4923777,-0.4867252
1.082363,-0.5923425,-0.04524819,0.4358517,-0.3746237,-0.47944
1.121427,-0.5049192,-0.02865415,0.5743984,-0.2315257,-0.4360925
1.026357,-0.3916157,-0.03678102,0.4838098,-0.1995807,-0.4158239
0.8984941,-0.2500972,-0.01534029,0.3590174,-0.3007738,-0.424215
0.7483145,-0.1353081,-0.0004372421,0.2804202,-0.4717882,-0.3828648
0.6176728,-0.1842588,-0.00693966,0.1670779,-0.6171987,-0.3016298
0.6336977,-0.2245497,0.003238441,0.1442261,-0.586228,-0.2575595
0.6444965,-0.2003639,-0.009812911,0.2475784,-0.3214215,-0.2527815
0.6115256,-0.226594,-0.02525764,0.3508832,-0.1041093,-0.2236914
0.6130514,-0.1781262,-0.0282288,0.4373542,-0.1371118,-0.1304971
0.5877599,-0.1047038,-0.05421392,0.3726777,-0.1820675,-0.05781988
0.63534,-0.1308695,-0.09234895,0.2681104,-0.09368793,-0.003972191
0.7423989,-0.147851,-0.09864805,0.2269594,0.01671643,0.06469405
0.8303604,-0.1455367,-0.05029059,0.1310752,0.1741625,0.08032121
0.9252703,-0.1369039,0.01372514,0.1105012,0.3302901,0.02852715
0.9691137,-0.09349781,0.07274674,0.04988561,0.2758159,-0.06846542
1.027766,-0.08363937,0.09607207,-0.1710969,0.1357015,-0.1653001
1.137091,-0.1252625,0.05874315,-0.3472623,0.08657913,-0.2730449
1.336901,-0.2082654,0.03116574,-0.410278,0.1682868,-0.3344444
1.647703,-0.3222449,0.02283755,-0.392712,0.3442413,-0.1736356
1.791212,-0.4306636,0.001720569,-0.4572343,0.3098131,0.07941448
1.719815,-0.5432826,-0.004470652,-0.5599826,0.1437496,0.1754122
1.564854,-0.6364881,-0.003991482,-0.4978473,0.04715777,0.1266019
1.308541,-0.6499491,-0.02951343,-0.4122477,0.006570248,0.05799575
1.128855,-0.5896127,-0.07254673,-0.3580345,0.2711564,0.05245616
1.14074,-0.5080054,-0.09039492,-0.279822,0.6474511,0.1104029
1.156499,-0.4402955,-0.05150817,-0.2573927,0.8147554,0.176787
1.104984,-0.371954,0.02039669,-0.341959,0.8476531,0.146839
1.032242,-0.2583606,0.07226003,-0.5516655,0.7071527,0.06712332
0.9341122,-0.1608163,0.08171378,-0.7652613,0.5488273,0.08368092
0.8845914,-0.1887932,0.05486259,-0.873027,0.4964092,0.1465613
0.8597908,-0.2376948,0.02083555,-0.8944517,0.4647845,0.2499207
0.7706496,-0.2375864,0.02022728,-0.8165965,0.4669223,0.3510819
0.6630921,-0.2876665,0.04589843,-0.6921421,0.4440809,0.3537526
0.537557,-0.3257166,0.06791703,-0.5884135,0.3804907,0.3600481
0.5269518,-0.307501,0.06508791,-0.5663454,0.330572,0.3589864
0.62598,-0.2985436,0.05505387,-0.6462601,0.2962939,0.3472065
0.5896641,-0.2859586,0.0681436,-0.6819892,0.2308476,0.3546018
0.5971252,-0.2760654,0.06905984,-0.6674182,0.1732237,0.3003637
0.6567432,-0.2773807,0.06343649,-0.6888914,0.1804441,0.2513294
0.6324558,-0.287426,0.07861284,-0.6870807,0.178438,0.2026525
0.739746,-0.3120606,0.1036933,-0.6075439,0.2118285,0.1196208
0.8436465,-0.3401951,0.1475863,-0.4447941,0.2453243,0.04380403
0.8696274,-0.3450161,0.1662724,-0.2957171,0.1710655,-0.04142415
0.9165958,-0.3015364,0.1607491,-0.2289087,0.09780202,-0.09177652
0.9566285,-0.279203,0.1829942,-0.185666,0.08326991,-0.1201337
1.129638,-0.3045604,0.1816861,-0.1774635,0.09295182,-0.1180384
1.27947,-0.3496988,0.1380219,-0.2258736,0.06114184,-0.08509398
1.378237,-0.4621681,0.09809022,-0.2468439,-0.04363279,-0.07148294
1.591802,-0.613452,0.09480399,-0.09033285,-0.2040692,0.01745056
1.646037,-0.6686462,0.1308729,0.2106885,-0.4265693,0.113211
1.473972,-0.5828101,0.1382904,0.2976688,-0.5502305,0.09411081
1.223598,-0.5168542,0.07729997,-0.05341404,-0.4149599,0.0217147
0.9568001,-0.5438793,-0.0007224904,-0.4907737,-0.2595111,-0.1008434
0.7983883,-0.5598056,-0.01881912,-0.5290289,-0.4136049,-0.2486456
0.8363317,-0.5757641,0.009494761,-0.3048011,-0.6665978,-0.3365371
0.9469795,-0.5825457,0.003242032,-0.0743819,-0.7738805,-0.3543918
0.9240856,-0.5657351,-0.01589737,0.2815179,-0.8111318,-0.3784837
0.9144031,-0.5685774,-0.02569468,0.5932891,-0.6556914,-0.4891911
0.922095,-0.5175412,-0.04403487,0.7197044,-0.4374653,-0.6623893
0.8215443,-0.4063345,-0.03633186,0.8752539,-0.3423411,-0.7438146
0.7647566,-0.2811655,-0.03100529,0.9579872,-0.247092,-0.6663731
0.6731962,-0.1514427,-0.04317412,0.8700686,-0.2345226,-0.5887985
0.6122159,-0.08907157,-0.03468069,0.7756926,-0.1708789,-0.5477249
0.6427987,-0.0988617,-0.02737463,0.6589469,-0.01244654,-0.5167839
0.5929986,-0.1099818,-0.0234387,0.5089271,0.03686451,-0.5243562
0.6523492,-0.1086319,-0.02265136,0.4774159,0.1315098,-0.4732632
0.7903361,-0.1339702,-0.03216987,0.5562976,0.2249611,-0.4185703
0.848932,-0.1682968,-0.03407891,0.5791101,0.1861137,-0.3748386
0.916962,-0.1605694,-0.0331465,0.5621509,0.1495005,-0.2685431
0.9737992,-0.1184061,-0.01847221,0.5582563,0.1717384,-0.2273308
1.024144,-0.046915,-0.003126986,0.4894522,0.1664059,-0.1955004
1.026281,0.002120821,-0.01020651,0.3547355,0.06427817,-0.1572915
1.013015,-0.01604356,-0.01014629,0.1840326,0.01509498,-0.2076748
1.034284,-0.06449064,0.002968733,0.1056574,0.08917317,-0.2360734
1.011298,-0.1386884,0.02551479,0.2355636,0.1792012,-0.2767393
1.02426,-0.1984741,0.06140997,0.4537652,0.1846433,-0.2974125
1.082077,-0.2198773,0.0878667,0.6851465,0.12616,-0.1615403
1.240843,-0.2276584,0.09036583,0.823818,0.1432813,0.05121919
1.534963,-0.2120578,0.09045588,0.7228494,0.184956,0.2344234
1.650912,-0.2088988,0.1039791,0.4169612,0.1803859,0.2713189
1.530188,-0.1930244,0.09599969,-0.06573007,0.01035939,0.2985692
1.41172,-0.187021,0.05397493,-0.4849512,-0.273456,0.4812392
1.324167,-0.3376317,0.01834018,-0.5325714,-0.2354039,0.543243
1.20071,-0.5368049,0.02314092,-0.4416832,0.06968945,0.4138247
1.129481,-0.5774843,0.06581933,-0.3919306,0.3380689,0.277839
1.124684,-0.5326772,0.1103797,-0.2583007,0.4087936,0.1829389
1.056498,-0.5295778,0.1345895,-0.1833755,0.177623,0.161536
1.002001,-0.4848373,0.1226288,-0.220388,0.0372452,0.1416306
1.013092,-0.3573547,0.1036495,-0.2229359,0.1344781,0.08896405
1.009243,-0.3011099,0.1104536,-0.1972402,0.1381954,0.1073108
0.9878147,-0.3460194,0.07908097,-0.1176898,0.06133586,0.2634615
0.8848912,-0.3830112,0.04213751,0.04745466,0.02196987,0.4593259
0.7042446,-0.369458,0.06505961,0.2802787,0.01050714,0.4729052
0.5966969,-0.3459196,0.0708838,0.6327713,-0.001108962,0.3863661
0.6427999,-0.3093237,0.05280245,0.9244936,-0.03776803,0.3714237
0.6897338,-0.1866963,0.04616858,0.8455245,-0.06398081,0.3423891
0.6488394,-0.07804358,0.04101648,0.5851891,-0.1138382,0.3466167
0.6805068,-0.07207117,0.05976985,0.3025413,-0.2473453,0.4433194
0.7093039,-0.09540746,0.08808622,-0.06659493,-0.3995143,0.5258635
0.6814019,-0.1799995,0.1163877,-0.1180702,-0.4653362,0.5546918
0.7200699,-0.3205334,0.1714895,0.09087675,-0.4546031,0.4994344
0.72981,-0.3656969,0.2049401,0.1831288,-0.426151,0.3880447
0.7398937,-0.3091983,0.1818326,0.3598485,-0.3718706,0.2601257
0.8122112,-0.2925156,0.1753554,0.4326995,-0.3009485,0.08244243
0.8480232,-0.2819882,0.1906628,0.3324111,-0.2658171,-0.04558254
0.8704483,-0.2343849,0.1883544,0.3248116,-0.2950735,-0.0495391
0.934296,-0.2343605,0.2033704,0.2081067,-0.3240014,0.001588101
1.023548,-0.2410458,0.2057887,0.1317942,-0.2778353,0.05458582
1.084544,-0.2842092,0.1933747,0.1992988,-0.2000008,0.08697923
1.226601,-0.3777121,0.2119014,0.1693597,-0.1390341,0.09059892
1.467284,-0.4651722,0.2135573,0.1915254,-0.1220111,0.1012212
1.588314,-0.6466055,0.199155,0.3674499,-0.1118609,0.2253394
1.664285,-0.7602192,0.1681726,0.7006635,-0.04427939,0.3409427
1.656084,-0.6051229,0.1081669,0.9167131,-0.05689996,0.2197082
1.332104,-0.4411929,0.07141064,0.612621,-0.1993366,0.02649662
0.91797,-0.4706311,0.03343479,0.3044163,-0.3384751,-0.07369831
0.7788905,-0.53617,0.002022725,0.4389381,-0.494011,-0.1576702
0.9004258,-0.5707237,-0.00141164,0.527895,-0.5923889,-0.2510964
0.9429738,-0.6289144,-0.0314374,0.5463953,-0.5047066,-0.3395531
0.9105785,-0.5972766,-0.04756952,0.7949827,-0.4216651,-0.4172733
0.9576971,-0.5254549,-0.03945101,0.936095,-0.4202637,-0.5259687
0.9112175,-0.4879631,-0.0486083,0.9634879,-0.3333795,-0.6538845
0.8910238,-0.3528886,-0.04462086,1.049158,-0.2670833,-0.6831491
0.894395,-0.2132576,-0.05044897,0.9395597,-0.310388,-0.6321771
0.7652003,-0.1308643,-0.07018929,0.7677409,-0.306053,-0.5833241
0.7180401,-0.07694479,-0.07127873,0.6339046,-0.2982001,-0.4853874
0.677298,-0.09430435,-0.07316758,0.4772745,-0.340364,-0.3507009
0.6155502,-0.09589341,-0.06532531,0.4400054,-0.3718886,-0.257718
0.6477139,-0.119227,-0.04609705,0.4019435,-0.4412487,-0.1401307
0.6570237,-0.1712375,-0.0299376,0.4008834,-0.4729114,0.01526047
0.7170114,-0.1525223,-0.02669398,0.4810232,-0.3524614,0.1112667
0.8257551,-0.1564798,-0.0373459,0.4597646,-0.1553955,0.1748208
0.8915615,-0.1850779,-0.03353739,0.4202012,-0.01128631,0.2084789
0.904486,-0.1679758,-0.02932607,0.3182419,0.03469922,0.09534798
0.9241176,-0.1533074,0.004403361,0.1506339,0.0566543,-0.08882517
1.072947,-0.1400687,0.07028747,0.1165291,0.08602672,-0.1500058
1.235846,-0.09968337,0.07095985,0.1160775,0.1112845,-0.1489578
1.450994,-0.08721631,0.04582285,-0.02635699,0.2210953,-0.1990863
1.687762,-0.1801094,0.04218867,-0.3368954,0.3995667,-0.2061378
1.660562,-0.3517963,0.01624613,-0.6751261,0.4271569,-0.1070919
1.536817,-0.4941535,0.004984722,-0.8232678,0.2755871,-0.01863174
1.409036,-0.5619096,0.01590659,-0.7059573,0.2226938,-0.03232515
1.21095,-0.6046056,0.007225657,-0.4440354,0.4124518,-0.02057156
1.123146,-0.6093723,-0.01714551,-0.2366002,0.6740796,0.0537837
1.116813,-0.5320168,-0.0395592,-0.1408763,0.7807693,0.01380885
1.117169,-0.434859,-0.02841456,-0.1993896,0.7588595,-0.0426061
1.100078,-0.3406544,0.01810072,-0.4327704,0.7375579,0.002166812
1.051081,-0.2636275,0.05702559,-0.7441653,0.6520099,0.001696707
1.036346,-0.2045525,0.08246404,-0.9819524,0.5520065,0.01133101
0.9911564,-0.1209167,0.1132209,-1.021008,0.5576479,0.07225747
0.9545407,-0.1548356,0.1168168,-1.027448,0.5531777,0.1069097
0.9032638,-0.2762982,0.07087222,-1.01923,0.526136,0.186369
0.7156013,-0.2766342,0.04512643,-0.8640772,0.5215199,0.2707026
0.584488,-0.2647415,0.07318207,-0.7269049,0.4385978,0.3382344
0.5594116,-0.2692977,0.09032684,-0.6788767,0.3406419,0.434311
0.5230985,-0.2166956,0.07987941,-0.7868035,0.3284221,0.4922852
0.5069963,-0.2116986,0.08031642,-0.959622,0.2964865,0.5493882
0.4914232,-0.2263521,0.09347561,-0.996924,0.2189577,0.5965861
0.5220929,-0.2438955,0.09855929,-1.023412,0.1530779,0.5507515
0.6375741,-0.3049557,0.09606432,-1.047125,0.09233553,0.4495542
0.7728295,-0.3611832,0.1098383,-1.060691,0.093105,0.2832309
0.9114011,-0.4154574,0.1550337,-0.9516731,0.1187932,0.08945637
0.9951251,-0.4338129,0.2019427,-0.6435407,0.1242711,-0.01182379
1.029175,-0.4094543,0.201227,-0.4351441,0.2053156,-0.07024733
1.093544,-0.390789,0.1939269,-0.3279589,0.2790721,-0.1324879
1.187978,-0.372615,0.2243516,-0.2872197,0.2612466,-0.1462592
1.315665,-0.3675868,0.219104,-0.2878601,0.1534959,-0.1250316
1.493788,-0.3898295,0.1701758,-0.2123384,-0.04836732,0.03468694
1.672548,-0.4550077,0.1413955,-0.1570927,-0.194092,0.3044165
1.664504,-0.51797,0.1299478,-0.1046254,-0.2676326,0.3171879
1.370075,-0.5374895,0.0832723,-0.2847219,-0.2093159,0.1207219
0.9874004,-0.5652633,0.007184045,-0.5914547,-0.007208864,-0.04382832
0.7742884,-0.5862448,0.02649605,-0.4924607,-0.03794418,-0.263612
0.8138508,-0.5811863,0.08605965,-0.3217143,-0.2602914,-0.3948218
0.9182237,-0.5481104,0.05964633,-0.2228573,-0.4927606,-0.371559
0.9479666,-0.4622995,0.03536822,0.02270543,-0.7088992,-0.3770201
0.9461851,-0.3671632,-0.02409,0.1097165,-0.6244038,-0.3620635
0.8924856,-0.2961627,-0.0891645,0.09605377,-0.4163523,-0.3985122
0.8335619,-0.2379441,-0.01438408,0.09811585,-0.2670203,-0.5113625
0.7428179,-0.1861818,0.0334989,0.02476653,-0.1386066,-0.5261128
0.6265926,-0.155077,-0.002005807,0.03989515,-0.221426,-0.4444557
0.616918,-0.1524563,-0.00470683,0.03953581,-0.2229963,-0.3215092
0.6049737,-0.1478632,-0.01350099,-0.03167489,-0.1259536,-0.274121
0.6186943,-0.1385591,-0.0311675,-0.0528972,-0.1637745,-0.2415961
0.7213286,-0.1384833,-0.03765181,-0.1659805,-0.05287835,-0.1000762
0.7906625,-0.1420086,-0.03893875,-0.2843856,0.09309817,-0.03467748
0.8419834,-0.1524722,-0.03726009,-0.2465216,0.1927959,-0.01766161
0.8553069,-0.1609299,-0.04757415,-0.2313674,0.3211686,0.05275416
0.8979438,-0.1693259,-0.06551909,-0.3283977,0.3536354,0.06353078
0.9736307,-0.1858579,-0.081377,-0.3962632,0.4484996,-0.008588321
0.9921637,-0.1704741,-0.05406277,-0.3911553,0.4724874,-0.11493
1.126147,-0.1101509,0.0347451,-0.4007307,0.3508558,-0.1494834
1.290612,-0.06223366,0.1019812,-0.4864983,0.3229953,-0.1358916
1.377182,-0.1042543,0.03610776,-0.7314314,0.2831168,-0.1489913
1.612024,-0.2556356,-0.06573597,-1.002922,0.2513462,-0.08182429
1.805282,-0.3998364,-0.03425472,-1.018529,0.2209527,0.03909077
1.692499,-0.4675591,0.007618573,-0.8721444,0.1249826,0.07701432
1.56824,-0.5552206,0.001144287,-0.7359816,0.1645224,0.0356898
1.446819,-0.6127633,0.02668728,-0.6185085,0.3116563,0.002211872
1.146992,-0.5240451,0.01675892,-0.5678543,0.4930985,-0.003212735
1.05658,-0.4463288,0.01542525,-0.5466146,0.6719684,-0.005327312
1.171084,-0.4144577,0.04130967,-0.5778434,0.7616007,0.01193524
1.136748,-0.3037245,0.03596394,-0.7625669,0.7797287,0.01341794
1.080363,-0.2129072,0.06844705,-0.973619,0.6501067,0.01087501
1.012403,-0.1598806,0.09135473,-1.13776,0.5104503,0.06673429
0.9339156,-0.1544503,0.07258287,-1.298899,0.523981,0.1734714
0.8676001,-0.2543303,0.05297213,-1.326399,0.5124207,0.3035016
0.6772206,-0.3314461,0.02447231,-1.13908,0.4346857,0.369464
0.5454941,-0.3763251,0.05165855,-0.8469148,0.3554369,0.3748459
0.5625098,-0.3820952,0.09199897,-0.6941113,0.3262459,0.3804795
0.5747045,-0.3344698,0.08094463,-0.7353661,0.3209592,0.3431678
0.5493462,-0.3017551,0.08004069,-0.7527827,0.2338649,0.3194478
0.5299216,-0.2394502,0.08576378,-0.7813778,0.1846043,0.3480811
0.5580463,-0.2195851,0.08587808,-0.8448822,0.1817145,0.3677244
0.614748,-0.2379277,0.09123345,-0.8438878,0.1490926,0.3635369
0.7105906,-0.2177901,0.1008664,-0.8516891,0.1811523,0.2821594
0.8088109,-0.2290942,0.1409128,-0.8416894,0.2418952,0.09669577
0.8787046,-0.2425588,0.2005225,-0.7887851,0.2941226,-0.1240259
0.9794289,-0.2744105,0.2289042,-0.645695,0.3181045,-0.2772361
1.110167,-0.309899,0.2265511,-0.3945786,0.2778586,-0.3234203
1.314483,-0.2981857,0.2166369,-0.2986666,0.2319728,-0.3139563
1.547721,-0.3562692,0.1717341,-0.3905382,0.1495024,-0.2381116
1.702127,-0.5029656,0.1151386,-0.38995,0.05680373,-0.03943037
1.729589,-0.6152171,0.08066022,-0.2147149,-0.07809099,0.2118336
1.453694,-0.5840127,0.02304818,-0.1225834,-0.2625611,0.2660765
1.024505,-0.5353295,-0.02038759,-0.3405502,-0.1763185,0.07160809
0.8842805,-0.5884388,-0.01458983,-0.6045258,-0.03096307,-0.1265273
0.9579601,-0.5727842,-0.01978934,-0.5760536,-0.1733709,-0.2775914
0.9851089,-0.5273743,-0.02290946,-0.447926,-0.2337352,-0.3451581
1.013066,-0.5213401,-0.02170329,-0.3781662,-0.2587796,-0.2748975
1.01889,-0.4607667,-0.04179297,-0.1822322,-0.3925673,-0.2674678
0.9699003,-0.4245419,-0.04244469,-0.02002602,-0.2661057,-0.3339984
0.9291825,-0.3661442,-0.02924566,-0.01885528,-0.07930938,-0.4084715
0.823049,-0.2511457,-0.01345964,0.06016546,-0.07713475,-0.5432014
0.7236669,-0.2117437,-0.0004771539,0.1429932,-0.05973109,-0.6028207
0.6796476,-0.1787448,-0.01313022,0.112396,-0.06853436,-0.5271626
0.5403735,-0.1060066,-0.01834459,0.05253081,-0.1238431,-0.4299563
0.4793624,-0.08993948,-0.02966673,-0.02749433,-0.1665729,-0.3317566
0.5439649,-0.1208809,-0.04753117,-0.09653404,-0.2015774,-0.2016977
0.555305,-0.1189714,-0.03558842,-0.1039237,-0.1381674,-0.08476269
0.6770738,-0.1271341,-0.03523452,-0.05078535,0.0190621,0.009110542
0.8233412,-0.1679165,-0.0378491,0.02968447,0.1742942,0.1106797
0.8288882,-0.1477812,-0.02073851,0.124396,0.2553316,0.1187169
0.9235754,-0.1322396,-0.01341655,0.09101749,0.2745849,0.0534087
1.028229,-0.1305238,-0.01964216,-0.1174029,0.2882926,-0.001453977
1.030543,-0.08424245,-0.01399895,-0.2332719,0.2583674,-0.1055746
1.131438,-0.0741738,0.05361971,-0.20664,0.2100013,-0.162243
1.245092,-0.05240452,0.1137291,-0.2259607,0.1759699,-0.1551291
1.305709,-0.03623846,0.05029202,-0.4471518,0.1359927,-0.1678986
1.480783,-0.1014176,-0.01940895,-0.7070628,0.0965629,-0.05803719
1.649772,-0.210275,0.01407494,-0.6988041,0.01401136,0.1407978
1.662059,-0.4038289,0.02598116,-0.6440543,-0.05120828,0.1837071
1.584588,-0.556406,0.002401718,-0.676864,-0.1120164,0.04693861
1.400673,-0.5351298,0.01919317,-0.6158761,-0.13542,-0.0458047
1.161933,-0.5130242,-0.01168272,-0.4980814,0.1923857,0.01692078
1.086978,-0.5405679,-0.05300412,-0.3198869,0.6595688,0.05760167
1.156127,-0.4943579,-0.006928917,-0.1672963,0.8484773,0.02821393
1.146467,-0.388217,0.04166339,-0.2662082,0.8662016,0.03912013
1.091759,-0.2599484,0.07257857,-0.5187955,0.7593698,0.05175848
1.058498,-0.1344945,0.09324892,-0.7362593,0.5603462,0.08361444
0.968498,-0.1113098,0.08029123,-0.9168607,0.5011502,0.1736779
0.9028305,-0.1635089,0.06761033,-0.9485402,0.558759,0.2258443
0.781658,-0.212571,0.05465943,-0.8613339,0.5402746,0.2660008
0.5766688,-0.2705235,0.05616767,-0.7833312,0.4695531,0.3561341
0.560777,-0.275084,0.07274895,-0.5471163,0.3959657,0.4321881
0.5768567,-0.2267695,0.07005956,-0.4140414,0.2916464,0.4844258
0.4910099,-0.2005213,0.06188764,-0.5501959,0.2403029,0.5100629
0.503817,-0.1852293,0.05441094,-0.5989258,0.2088656,0.4917261
0.5518027,-0.1991541,0.06289688,-0.7219606,0.1546053,0.470076
0.6322851,-0.2448233,0.08902348,-0.8581522,0.1356264,0.4372245
0.7619578,-0.2915297,0.1090757,-0.7521214,0.0748311,0.3673432
0.8383373,-0.3282813,0.1403101,-0.6411692,0.01613858,0.2312233
0.915379,-0.3264836,0.1709242,-0.4295094,0.05965479,-0.009144354
0.9608354,-0.3183012,0.1949158,-0.09803169,0.1508672,-0.2510711
0.9699651,-0.2949586,0.2245843,0.1103705,0.2218249,-0.3227271
1.067107,-0.1652004,0.2067284,0.1615831,0.1972246,-0.2315826
1.22888,-0.02544955,0.159047,-0.06626221,0.1136173,-0.1390477
1.376188,-0.1118394,0.1519719,-0.4277901,0.04051536,-0.05441163
1.601238,-0.4442977,0.16084,-0.4961762,-0.1338176,0.159539
1.901743,-0.7322378,0.1711705,-0.2145576,-0.4369771,0.4283955
1.859942,-0.7220527,0.1760283,0.03672113,-0.5899223,0.5009524
1.464476,-0.6140236,0.1363224,-0.02751382,-0.4267874,0.337689
1.151628,-0.6537945,0.0971163,-0.1314374,-0.2371731,0.1461854
0.94248,-0.6267545,0.1075639,-0.08477922,-0.2323691,-0.02922047
0.8930432,-0.5139239,0.1061161,-0.05971786,-0.3020425,-0.2781285
0.8867461,-0.4965846,0.05784741,0.01908273,-0.4710191,-0.4569921
0.7932156,-0.4509837,0.02686037,0.140124,-0.672317,-0.4730937
0.9186292,-0.4257773,0.001334393,0.2134774,-0.6435977,-0.4356155
0.9716032,-0.4059461,-0.07569428,0.3184581,-0.4266863,-0.4303088
0.9242714,-0.3271566,-0.1160272,0.3306881,-0.200072,-0.501268
1.019444,-0.3460905,-0.06996783,0.3615197,-0.1097374,-0.5624137
0.9097493,-0.2939895,-0.03523299,0.5018796,-0.1655027,-0.5513212
0.8379968,-0.2213889,-0.03812354,0.4903922,-0.1309226,-0.5242052
0.8410794,-0.246173,-0.04217246,0.4461682,-0.05899837,-0.5050609
0.7245269,-0.1857187,-0.05206796,0.4048947,-0.0740258,-0.4894823
0.7515739,-0.1911228,-0.05115202,0.2656866,-0.02270562,-0.4122151
0.6837493,-0.1173859,-0.03053338,0.6241065,-0.2958518,0.1514249
0.7473063,-0.1335212,-0.02091046,0.4661305,-0.1398202,0.08589192
0.8203624,-0.1310042,-0.01413175,0.3304121,0.00129202,0.008983198
0.8263067,-0.1198942,-0.01387401,0.3080617,0.02740547,-0.03638361
0.8966341,-0.1321218,0.01571466,0.2946965,-0.0340631,-0.09588099
1.1272,-0.1228171,0.0737334,0.2750697,-0.07931392,-0.1487782
1.327126,-0.1332595,0.09192645,0.2732439,-0.09786463,-0.09735144
1.473092,-0.2157382,0.02831562,0.2094288,-0.08248045,0.07395874
1.72719,-0.3706445,-0.07216561,0.02923349,-0.01415377,0.194302
1.815292,-0.5036184,-0.1050461,-0.2133058,0.03022477,0.143515
1.592083,-0.5058053,-0.03568319,-0.3117432,0.03402442,0.03367284
1.446517,-0.5340487,0.02877871,-0.1955329,0.1616788,0.005325172
1.310502,-0.5942922,0.01514826,-0.008752751,0.4048658,0.03447657
1.111337,-0.543393,0.01547105,0.2325597,0.5606839,0.06277081
1.135676,-0.5262165,0.0418705,0.4115493,0.6258642,0.06905324
1.150097,-0.4763373,0.03749839,0.2927552,0.5953619,0.06928608
1.055059,-0.2948523,0.06546387,0.08897014,0.4237501,0.1360814
1.036176,-0.1996406,0.08456427,0.0009487522,0.291074,0.2437161
0.9839339,-0.2001093,0.05524789,-0.09299123,0.2825374,0.348681
0.8502053,-0.2437427,0.04882896,-0.09619284,0.307223,0.4121641
0.6421999,-0.3109095,0.02810011,0.01186482,0.2895438,0.4101726
0.5369284,-0.3065354,0.02634501,0.1493325,0.2143151,0.4523864
0.5889149,-0.2815952,0.06654211,0.2366874,0.1315356,0.4810449
0.5419447,-0.2579792,0.06741843,0.0366209,-0.001744455,0.4400735
0.5210107,-0.2431831,0.06748483,-0.2245415,-0.135157,0.4233817
0.5760676,-0.2611597,0.07093503,-0.256789,-0.1684023,0.3846817
0.5646318,-0.2698732,0.08068766,-0.1713411,-0.17062,0.3420065
0.6312029,-0.3010747,0.1282776,-0.002385093,-0.09461533,0.3116455
0.7626433,-0.319969,0.1590128,0.1183489,0.08170353,0.2455532
0.8706921,-0.2850369,0.177054,0.1094343,0.2311682,0.1620052
0.9601077,-0.2686633,0.1912654,0.07195136,0.2898181,0.01182184
1.024822,-0.2898241,0.2233698,0.06938915,0.2514712,-0.1445883
1.190719,-0.3141586,0.2855227,0.1215918,0.1497263,-0.1773342
1.402121,-0.3262374,0.2769951,0.1459768,-0.03103525,-0.106108
1.466434,-0.4083555,0.1704828,0.1584914,-0.2424616,0.03544684
1.446123,-0.62237,0.06308595,0.2026247,-0.3580457,0.1691263
1.403929,-0.7788894,0.05170665,0.3109839,-0.3699531,0.1075948
1.234409,-0.6727405,0.03911387,0.3867489,-0.3351674,-0.0960651
0.9592917,-0.530286,-0.07127268,0.1344207,-0.3271836,-0.2771733
0.8545018,-0.5867017,-0.1174724,-0.1327803,-0.3474147,-0.4977071
0.9582179,-0.5915389,-0.06745502,0.07262288,-0.4298627,-0.5328114
0.9836343,-0.5189897,-0.02142878,0.4466775,-0.5815384,-0.3454154
0.9839477,-0.518327,-0.00961885,0.6688827,-0.5776199,-0.365472
1.017524,-0.4423029,-0.0233217,0.7858958,-0.4538303,-0.4651984
0.9155255,-0.3591558,0.009085497,0.8067605,-0.4258388,-0.5372113
0.7974725,-0.2974895,0.02406524,0.8683353,-0.4430497,-0.6178679
0.6942454,-0.1910494,-0.01140624,0.9138994,-0.454328,-0.5481387
0.5844308,-0.1595793,-0.02976622,0.7569726,-0.4179207,-0.5419525
0.5641337,-0.1265935,-0.05131563,0.6251291,-0.3724178,-0.50612
0.5351159,-0.1091842,-0.04573194,0.5353715,-0.4139563,-0.350633
0.543089,-0.1565122,-0.03799681,0.466052,-0.4056269,-0.2990526
0.6226555,-0.1714304,-0.04252728,0.5253524,-0.2815931,-0.1811438
0.6964749,-0.2142566,-0.02265697,0.5082269,-0.1115246,-0.05867496
0.8197722,-0.2245262,-0.02231649,0.5373118,0.0569703,-0.04419323
0.9606295,-0.1532836,-0.01018955,0.6089817,0.2015221,-0.06575779
1.088572,-0.08282273,0.005279379,0.4716216,0.2870324,-0.1473809
1.132517,-0.03276703,0.005529884,0.2727325,0.1949683,-0.1711799
1.151988,-0.03625302,0.01853751,0.03275435,0.1165586,-0.1816286
1.28725,-0.06557982,0.009911744,-0.1430493,0.2227113,-0.1763869
1.367535,-0.146452,0.006204151,-0.1726308,0.2525054,-0.09401742
1.473608,-0.2892287,0.01144411,-0.2429292,0.1833951,-0.05380751
1.640938,-0.4107108,0.02545832,-0.2658267,0.08925499,-0.05070098
1.606913,-0.4930923,0.06974663,-0.1748601,-0.07969174,-0.05274912
1.487249,-0.5160614,0.06895812,-0.03010585,-0.1293433,0.03383626
1.310231,-0.5196579,-0.002372553,0.1022115,0.07431792,0.1304903
1.096017,-0.4965406,-0.06102266,0.1386331,0.3879491,0.06861517
1.080344,-0.4118147,-0.01531432,0.1380155,0.5984509,0.0294932
1.115721,-0.3332678,0.07631622,0.05326682,0.6696878,0.0338869
1.081163,-0.2275534,0.1158657,-0.1886465,0.6780678,-0.01556724
1.048248,-0.1288168,0.1487039,-0.4247266,0.5929077,-0.01996066
0.9956873,-0.1297758,0.1467012,-0.5613119,0.4414285,0.0577388
0.9592444,-0.1813659,0.09750256,-0.6009341,0.3044881,0.1865347
0.9165083,-0.2393613,0.08374628,-0.472055,0.2217673,0.2996927
0.7985941,-0.2902554,0.08640221,-0.260897,0.1950917,0.3397625
0.6625351,-0.3381947,0.0940483,-0.07049016,0.157277,0.3455917
0.6222055,-0.3126803,0.09401851,0.04623602,0.08778216,0.3962625
0.6075038,-0.2185602,0.07597243,-0.01206868,-0.007333478,0.4545128
0.5246334,-0.2104603,0.07821458,-0.08812438,-0.09379721,0.4676908
0.5319411,-0.2182919,0.08613877,-0.1386903,-0.1123563,0.4935275
0.5947099,-0.2039977,0.1065005,-0.2580081,-0.09913374,0.4875604
0.6054071,-0.24328,0.117354,-0.3048736,-0.08453511,0.4290493
0.704167,-0.2531913,0.1173662,-0.3124077,-0.02120855,0.3614068
0.8590163,-0.2806663,0.1742176,-0.2713661,0.1121132,0.219148
0.9861565,-0.3360873,0.2311646,-0.08086288,0.2069791,0.003495817
1.055303,-0.3250718,0.2381793,0.0913124,0.18657,-0.1830882
1.105171,-0.3250216,0.2297707,0.1413988,0.1513846,-0.2311326
1.27292,-0.3427139,0.2324323,0.1387206,0.04814222,-0.2000441
1.357193,-0.3722387,0.232704,0.2135339,-0.2573599,-0.1911359
1.365951,-0.4774829,0.1912945,0.3880974,-0.5163807,-0.03927363
1.568818,-0.586421,0.1615234,0.6551237,-0.5345108,0.198457
1.632295,-0.5812502,0.1463398,0.8546126,-0.5793999,0.215303
1.323434,-0.5090168,0.04588685,0.5391581,-0.660396,0.07617614
0.9645984,-0.5158627,-0.07514056,0.1190244,-0.5444334,-0.09326088
0.83128,-0.5494052,-0.05232812,0.2209323,-0.465186,-0.3360936
0.9152936,-0.5525103,0.01455685,0.3791099,-0.5289445,-0.4699575
0.9867801,-0.5549174,-0.0221653,0.4889544,-0.5070945,-0.394869
1.007002,-0.4991945,-0.0255701,0.7655526,-0.4523022,-0.3425461
1.006797,-0.4377551,-0.0102533,0.8899694,-0.3955604,-0.3408918
0.9212529,-0.3738273,-0.0356775,0.9238601,-0.3456985,-0.326651
0.8711316,-0.2924147,-0.0008086693,0.9620224,-0.4151467,-0.3588873
0.8205229,-0.2521276,-0.00113367,0.9284074,-0.4695959,-0.3361227
0.734818,-0.1816893,-0.00858596,0.9283127,-0.4403154,-0.3035081
0.7498128,-0.1400241,0.01915919,0.8182293,-0.4155399,-0.3499656
0.7220645,-0.1379062,-0.01988587,0.6346625,-0.4002105,-0.3490762
0.6344282,-0.09642128,-0.03124314,0.5330509,-0.4174899,-0.325679
0.638865,-0.1201908,-0.03301815,0.4149127,-0.4317843,-0.2765633
0.6824499,-0.1635112,-0.05082628,0.3853429,-0.3613443,-0.163914
0.7537362,-0.1665404,-0.03986187,0.4803839,-0.2502018,-0.08233253
0.8418136,-0.1691619,-0.06061434,0.5411903,-0.1801719,-0.0243812
0.9219572,-0.1272394,-0.06153403,0.5404569,-0.09246189,0.01961702
1.005728,-0.07017418,-0.05132769,0.5106823,0.07960864,0.009319716
1.02988,-0.02285346,-0.02968083,0.4044235,0.1841171,-0.08165771
0.9992851,0.002218185,0.03809958,0.1843426,0.1087839,-0.2032532
0.9945225,-0.01119743,0.04966415,0.04911358,0.04058454,-0.2557073
1.04782,-0.02633319,0.03037333,-0.000795662,0.07391318,-0.2809896
1.144528,-0.08645603,0.02855629,-0.09176526,0.04632929,-0.3074078
1.307791,-0.1954452,0.01435997,-0.05203906,0.01380298,-0.260988
1.532318,-0.3002494,0.003256725,0.05837632,0.08847902,-0.1162782
1.661726,-0.387554,-0.0003045407,0.1146849,0.1212439,0.08599927
1.623134,-0.4285747,-0.005224942,0.07625047,0.07573408,0.2691171
1.51508,-0.4567511,-0.02578034,-0.1515759,0.01147243,0.2983995
1.37553,-0.4927394,-0.03782344,-0.3571642,0.0005820049,0.1749621
1.2082,-0.508687,-0.01948532,-0.3988952,0.1864059,0.1139938
1.100242,-0.518789,0.03645408,-0.2552697,0.4390589,0.1261122
1.093268,-0.4782554,0.1164124,-0.03008623,0.4802732,0.158115
1.085574,-0.3595662,0.1283626,-0.0266126,0.3773612,0.2112665
1.018953,-0.2541294,0.1080737,-0.157954,0.3439416,0.1452704
0.9873974,-0.2358645,0.1255898,-0.2965303,0.2804432,0.09277134
0.9658636,-0.2631955,0.09466746,-0.3757331,0.1338742,0.1967903
0.8705492,-0.2743773,0.04251207,-0.2971662,0.09252327,0.3237769
0.8143608,-0.3058234,0.05218605,-0.1772346,0.08013994,0.4440797
0.734866,-0.3625018,0.07535653,0.08278025,-0.02266682,0.518434
0.5851159,-0.3960891,0.09456115,0.4149215,-0.09992117,0.5299321
0.6194201,-0.3851292,0.1032304,0.5966378,-0.120049,0.5214616
0.6936128,-0.3043173,0.07475782,0.6797529,-0.1906691,0.4839804
0.630848,-0.2062682,0.05105168,0.5397597,-0.3374055,0.4502037
0.6467989,-0.1513935,0.05292227,0.2891498,-0.4325487,0.4200836
0.6565592,-0.1572653,0.05886915,0.2012138,-0.4373069,0.375487
0.6177485,-0.2183248,0.07213696,0.1832676,-0.3631277,0.316522
0.6974757,-0.276183,0.09661804,0.2662797,-0.2012783,0.2466331
0.7777182,-0.3453968,0.1148987,0.4318333,-0.09703027,0.1479762
0.8115049,-0.380997,0.1286772,0.5231559,-0.1380029,0.007252225
0.8644478,-0.3353158,0.1493149,0.6455216,-0.188411,-0.06813724
0.9546194,-0.3050478,0.1303408,0.7748474,-0.1309454,-0.03364227
1.114147,-0.2886561,0.0912065,0.7785082,-0.06623201,0.01792639
1.268449,-0.2977682,0.1130849,0.7808433,-0.07851439,0.05455878
1.42278,-0.3339346,0.1516065,0.8213843,-0.2437388,0.1360138
1.51975,-0.3513934,0.1640448,0.8250105,-0.579534,0.279512
1.466501,-0.4457319,0.141935,0.8351134,-0.7304319,0.3819576
1.426297,-0.5595664,0.08427588,0.8251984,-0.7050126,0.3650548
1.28377,-0.5989465,0.07809456,0.7318502,-0.727365,0.2581623
0.9279554,-0.6753761,0.1016613,0.6795793,-0.6474964,0.05565532
0.7467205,-0.7611386,0.1046839,0.8558213,-0.6373772,-0.2543293
0.8152367,-0.755313,0.1200141,1.212414,-0.7765081,-0.4571409
0.8814408,-0.7031297,0.07026476,1.517164,-0.8737693,-0.4361017
0.9245298,-0.6094393,-0.04828059,1.693575,-0.8883041,-0.3957624
0.9559157,-0.495769,-0.1233747,1.781191,-0.7192916,-0.3526233
0.9798479,-0.4595219,-0.1258039,1.769875,-0.5781013,-0.2924603
1.012314,-0.4092497,-0.07702938,1.697768,-0.6056143,-0.303783
0.9742615,-0.2931991,-0.03579338,1.633093,-0.6150949,-0.2909352
0.9106878,-0.2494253,-0.02714395,1.618968,-0.6010302,-0.2855245
0.9017803,-0.2585725,-0.04299177,1.63259,-0.5286487,-0.3671931
0.8457296,-0.258997,-0.06741623,1.617741,-0.35817,-0.5116764
0.7498295,-0.259483,-0.0568344,1.638272,-0.1759447,-0.6865873
0.6961721,-0.2477638,-0.03329669,1.717011,-0.1577271,-0.7413187
0.6682147,-0.2159711,-0.0091423,1.794871,-0.2439482,-0.6665812
0.6855875,-0.1324988,0.005098794,1.847665,-0.2039621,-0.5377519
0.7217595,-0.04512441,-0.0204501,1.786788,-0.1573469,-0.3235804
0.7833034,-0.008993825,-0.02848717,1.611169,-0.05415641,-0.1347705
0.8761917,0.01474325,-0.01301203,1.414447,0.09654871,-0.0383796
0.9132716,0.03659596,0.001573572,1.196705,0.02785415,0.02660687
0.9801279,0.04883764,0.04649069,0.9222319,-0.0192926,-0.0477299
1.073408,0.03451862,0.0974111,0.6452974,0.04359399,-0.2401976
1.081751,-0.008479873,0.1248622,0.5158128,0.01787132,-0.3421931
1.136711,-0.05593654,0.145187,0.4943327,0.01570239,-0.3631719
1.280283,-0.1159315,0.1704116,0.5213007,0.0307094,-0.2804413
1.485803,-0.2237328,0.1930105,0.6024349,-0.01057,-0.04090414
1.694061,-0.362729,0.2002467,0.4944863,-0.05114939,0.2228935
1.6265,-0.4205678,0.1671524,0.1593705,-0.1376254,0.3683646
1.414021,-0.4773828,0.1128314,-0.1859912,-0.2744402,0.2944417
1.337645,-0.6401088,0.09226305,-0.2598104,-0.2683631,0.1612647
1.230784,-0.6623474,0.04972756,0.03429798,0.00606506,0.0809892
1.140362,-0.5627572,0.005949724,0.2429981,0.3000936,0.01799345
1.135942,-0.5400761,0.06173252,0.3500672,0.3383817,0.1296291
1.096647,-0.4203253,0.09922371,0.4715036,0.330598,0.2150386
1.084975,-0.2746769,0.0446136,0.2583265,0.4240144,0.1360158
1.012458,-0.258921,0.01527425,-0.05294112,0.3801155,0.1564034
0.9028669,-0.2215677,0.04192033,-0.190971,0.2615573,0.2569392
0.8051176,-0.2033713,0.06766726,-0.2121805,0.148118,0.4543633
0.6540109,-0.2786781,0.08020889,-0.07208858,-0.03198072,0.661463
0.6210882,-0.3553011,0.09349138,0.1648923,-0.04748157,0.6545814
0.5796065,-0.3216095,0.09732963,0.4721148,-0.05410794,0.624949
0.520851,-0.2233842,0.09878699,0.5955683,-0.2082886,0.6194179
0.5921282,-0.2045671,0.09927944,0.4388975,-0.1888968,0.5273459
0.6042607,-0.1549697,0.08764321,0.2391339,-0.2032763,0.4981674
0.6627797,-0.09048401,0.08517985,-0.1099833,-0.3563921,0.5319048
0.7261095,-0.1281015,0.08620294,-0.4208957,-0.3550662,0.491195
0.7196244,-0.1787111,0.08992736,-0.4183202,-0.2660935,0.4413942
0.8463524,-0.2747431,0.1150861,-0.3633896,-0.1255256,0.4115044
0.9177244,-0.3821422,0.174609,-0.2093632,-0.003281943,0.2807283
0.9390614,-0.4002041,0.2526547,0.1055216,0.1150285,0.06393364
1.042912,-0.3633024,0.2651737,0.1659549,0.3466463,-0.09512353
1.084582,-0.3247891,0.2283823,0.0340645,0.4483771,-0.1232116
1.143148,-0.3320096,0.2243374,-0.01809237,0.4162172,-0.1055039
1.313936,-0.3420393,0.2144891,-0.1774271,0.2856583,-0.08657769
1.489884,-0.4120253,0.1596494,-0.2831556,-0.06823482,0.03625606
1.564442,-0.6183564,0.1104856,-0.03979754,-0.307192,0.2303234
1.557574,-0.7576895,0.127979,0.3293507,-0.2370138,0.2866677
1.361003,-0.6441425,0.1369468,0.4871136,-0.1791255,0.07676465
0.9263485,-0.4662911,0.03905742,0.1296389,-0.2639691,-0.2559668
0.7001726,-0.4622467,-0.03885589,-0.3712232,-0.273498,-0.5038145
0.7885491,-0.4711563,-0.0102348,-0.3393149,-0.2684268,-0.5679029
0.8993995,-0.4249668,0.00153683,-0.1822908,-0.3982057,-0.4606885
1.003045,-0.4339186,-0.03373191,-0.1299097,-0.438784,-0.361581
0.9961444,-0.4296312,-0.03701209,0.1345847,-0.3614927,-0.3136076
0.8924656,-0.4330304,-0.02028685,0.240738,-0.2289657,-0.3877278
0.8113348,-0.3850196,-0.006880147,0.2492763,-0.08418301,-0.5923547
0.6599743,-0.2509774,0.01612717,0.4449001,-0.1225366,-0.5986031
0.5783428,-0.1620221,-0.01076657,0.4144314,-0.2116955,-0.5196222
0.6260976,-0.08375821,-0.06777516,0.175464,-0.2119594,-0.507387
0.6256411,-0.05781345,-0.06352073,-0.07622915,-0.1317905,-0.3789306
0.6612958,-0.09493114,-0.04041322,-0.2550069,0.02987443,-0.2692527
0.7360149,-0.1216572,-0.02192604,-0.1718294,0.1306104,-0.1892456
0.7656744,-0.1765792,-0.00652953,-0.06111239,0.1910658,-0.09228688
0.8284757,-0.1897496,-0.01839531,0.002300314,0.2252556,-0.04515037
0.9210586,-0.1357661,-0.01561222,0.05866435,0.2060842,0.02385418
1.019508,-0.06881269,-0.007352091,-0.002233008,0.2619217,0.01107256
1.056915,-0.01249305,-0.003347109,-0.1074978,0.298588,-0.06893239
1.024596,-0.005228614,0.01823563,-0.3991924,0.2296198,-0.1247302
1.040676,-0.02949199,0.02262046,-0.7002923,0.1616344,-0.1779426
1.079065,-0.0786504,0.0132097,-0.7032874,0.09712239,-0.1408944
1.196409,-0.1607889,0.01275064,-0.6440804,0.08979537,-0.08110204
1.443002,-0.279984,0.02421543,-0.5266416,0.1609977,-0.04012726
1.610291,-0.3705458,0.04956755,-0.3659522,0.1805267,0.01060778
1.62045,-0.3556558,0.0677002,-0.3170064,0.1197045,0.08134083
1.593457,-0.3481079,0.0588768,-0.3794194,0.00289403,0.2505386
1.54417,-0.4052065,0.01442927,-0.6140896,-0.04439941,0.2883533
1.354223,-0.4447101,-0.03347771,-0.8611116,0.120429,0.1398
1.12325,-0.4536544,-0.02886729,-0.9445668,0.2931256,0.09443948
1.066431,-0.447828,0.02238389,-0.7920942,0.3280909,0.1169205
1.065806,-0.4449007,0.07399889,-0.5558589,0.4977846,0.1056645
1.038988,-0.4331661,0.1030868,-0.5245634,0.7461443,0.05346024
1.054911,-0.3711222,0.1093356,-0.5344814,0.6363862,0.0124124
1.030842,-0.3104147,0.1098281,-0.5160562,0.4066392,0.07180515
0.973545,-0.3050969,0.1097701,-0.5054635,0.3850946,0.1483639
0.9096695,-0.2989388,0.08833476,-0.4405125,0.3423975,0.2560537
0.8160918,-0.2892286,0.07011425,-0.3808929,0.389277,0.4011958
0.7407754,-0.3249731,0.08209886,-0.2045169,0.4764847,0.469616
0.6229896,-0.3401987,0.09811218,0.00746892,0.3444641,0.5085846
0.534665,-0.2922351,0.1074498,0.05023068,0.2515579,0.5532308
0.5514407,-0.22665,0.1038776,-0.08365208,0.1845708,0.5625888
0.5189055,-0.1613082,0.09038078,-0.346636,0.0777768,0.5302751
0.5201794,-0.1297602,0.08742248,-0.5549013,0.02690882,0.4633866
0.5677196,-0.1381929,0.09721833,-0.6834049,-0.05199685,0.364598
0.5818776,-0.1659116,0.1176003,-0.7418507,-0.03480219,0.2508969
0.7063945,-0.2484406,0.1360871,-0.7326913,0.00616015,0.1741943
0.8328986,-0.371798,0.1724585,-0.651216,0.001272342,0.1101429
0.9030449,-0.4441876,0.246978,-0.3255465,0.07394296,0.01068696
0.9961199,-0.4096757,0.285645,0.02309318,0.06423234,-0.09891983
1.069828,-0.3304644,0.2501587,0.1038917,0.03830794,-0.1525161
1.194026,-0.2716187,0.20601,0.04392382,0.0993081,-0.1402504
1.3167,-0.2284821,0.1839691,-0.01262459,0.09937464,-0.1437702
1.426045,-0.2526097,0.185734,-0.1253961,0.04287319,-0.07697674
1.539326,-0.3908867,0.2024167,-0.2561391,-0.09938838,0.1617382
1.536329,-0.6082157,0.1758502,-0.09582125,-0.306395,0.3741873
1.436871,-0.7250305,0.1257756,0.103094,-0.3739826,0.3779605
1.178334,-0.6571783,0.09845649,-0.002464971,-0.32487,0.2055094
0.8834279,-0.6480868,0.06732833,-0.005246149,-0.3530067,-0.02727071
0.8246105,-0.6748273,0.06048559,0.1218727,-0.4556339,-0.238614
0.8972175,-0.5801657,0.06068472,0.1988015,-0.6430934,-0.3979028
0.953721,-0.5194419,0.009484254,0.3824699,-0.894807,-0.437506
0.9663106,-0.4696599,-0.03634698,0.5509863,-0.9340397,-0.3574211
0.9711082,-0.3978425,-0.05590287,0.6444568,-0.7563552,-0.314108
0.9555873,-0.3815613,-0.06000042,0.7003978,-0.5385215,-0.4203434
0.8936324,-0.3353526,-0.03616268,0.7137944,-0.3187579,-0.5617133
0.8368308,-0.2779757,-0.01713479,0.8458289,-0.2243887,-0.5874607
0.7267811,-0.2228587,-0.01095856,0.9563739,-0.2096351,-0.5403861
0.6461514,-0.1711814,-0.03091472,0.8785804,-0.1506314,-0.5234405
0.6583954,-0.1778224,-0.0616268,0.7937683,-0.05078362,-0.5736116
0.6604234,-0.1661166,-0.045024,0.7559606,0.1146591,-0.6052312
0.6776531,-0.1580884,-0.02836238,0.7968109,0.1689373,-0.5192961
0.6941114,-0.1692763,-0.03417883,0.9195841,0.0313275,-0.3938121
0.7409004,-0.1236408,-0.03071116,0.9335322,-0.03583328,-0.2902799
0.8463312,-0.07126953,-0.04640738,0.8503989,0.002257903,-0.1668076
0.9149932,-0.0350945,-0.05639241,0.7446336,-0.01142779,-0.03118951
0.9627117,-0.01619836,-0.03578421,0.5990542,-0.03339705,0.04457754
1.012316,-0.0199843,-0.01667749,0.4765701,-0.01033245,0.03869222
1.046117,-0.02333933,0.0003930508,0.3158738,-0.01300375,0.02626995
1.061953,-0.05205251,0.01614581,0.1292538,-0.05199314,0.01559197
1.102821,-0.09333884,0.03297377,0.1164805,-0.071287,-0.01810642
1.216515,-0.1531169,0.06596097,0.2842403,-0.08014936,-0.03517043
1.368448,-0.2445273,0.1029182,0.5205559,-0.1141741,-0.01155692
1.48639,-0.3033035,0.1005457,0.6734181,-0.1456755,0.05316896
1.49902,-0.3147224,0.08146192,0.5647901,-0.1291905,0.122275
1.455517,-0.3093911,0.09461212,0.1321188,-0.08778336,0.2294821
1.38137,-0.3560929,0.07461208,-0.3713534,-0.07165947,0.4439197
1.247573,-0.4968452,0.04029544,-0.4130404,-0.02941222,0.5935362
1.126317,-0.5868901,0.0630056,-0.2215806,0.1466947,0.4996449
1.056202,-0.4963538,0.0779287,-0.3666429,0.3421124,0.3064925
1.036959,-0.3902437,0.09321425,-0.4986072,0.2635571,0.1852239
0.9966425,-0.4248769,0.1301364,-0.492939,0.005621871,0.1633171
0.9700735,-0.4376529,0.137558,-0.4431448,-0.0810485,0.1876621
1.052145,-0.4000794,0.1142392,-0.1861313,0.009411962,0.1418436
1.089373,-0.4241783,0.07007389,-0.1378918,0.1266571,0.1520958
1.04374,-0.4169587,0.0574302,-0.1093712,0.1387582,0.2776481
0.9492121,-0.4270565,0.07809009,0.2731672,0.0822418,0.3143529
0.7865371,-0.4859679,0.07611353,0.5890795,0.05143547,0.3352891
0.6723787,-0.4665177,0.07276642,0.9529514,-0.07686977,0.3385454
0.643263,-0.4072412,0.06273901,1.230681,-0.1274412,0.2958923
0.6535379,-0.2875874,0.04017225,1.07774,-0.1042821,0.356775
0.643933,-0.1304617,0.02288413,0.8316498,-0.2735767,0.3940128
0.6331516,-0.06279297,0.009934119,0.458295,-0.3915052,0.4222004
0.6667502,-0.05361076,0.03091488,0.02458956,-0.396896,0.4646967
0.6885949,-0.09990046,0.06754148,-0.1119558,-0.3571211,0.4284663
0.7338627,-0.1925576,0.09058633,-0.1042936,-0.2798527,0.3999557
0.7730562,-0.267671,0.1241702,-0.08659023,-0.2724705,0.2344052
0.7646063,-0.2933749,0.1625587,-0.004997366,-0.1542146,-0.04719673
0.8036809,-0.270034,0.2017072,0.02592879,-0.005008247,-0.2114434
0.8715762,-0.2782292,0.2446617,0.03115305,0.03506929,-0.2374998
0.9507994,-0.3185081,0.2502717,0.1482516,0.04607649,-0.1189071
1.098018,-0.3597034,0.2225546,0.2025148,0.01198896,0.01552508
1.31765,-0.4045288,0.2133806,0.167079,0.01179644,0.05713096
1.516844,-0.4143636,0.2089774,0.1843329,-0.05503506,0.06164892
1.556944,-0.4747334,0.1745963,0.185637,-0.1859991,0.1351213
1.480677,-0.6252237,0.1085884,0.258751,-0.2406125,0.2884483
1.418891,-0.6903897,0.05653135,0.5210693,-0.3070824,0.3155096
1.311107,-0.5870983,0.06681677,0.7483519,-0.3867611,0.2256218
1.058615,-0.4628707,0.05351196,0.5761813,-0.4653382,0.09491455
0.8448388,-0.4506269,-0.01730466,0.2271187,-0.4801316,-0.1553026
0.8678218,-0.473542,-0.04538292,0.1324845,-0.5308596,-0.3583785
0.9721757,-0.4721261,-0.06475652,0.08497946,-0.6452398,-0.4061388
1.020163,-0.4860255,-0.08980875,0.1287451,-0.485112,-0.4293693
1.04182,-0.4840314,-0.04732365,0.3675982,-0.3112512,-0.4364563
0.9838654,-0.466565,-0.01419065,0.5186046,-0.3766083,-0.4494306
0.8899076,-0.4413099,-0.02379549,0.644615,-0.3622118,-0.535868
0.8539445,-0.3661717,-0.0246221,0.7085947,-0.3024337,-0.5938146
0.800942,-0.2613896,-0.04532353,0.687155,-0.2653334,-0.5799299
0.7251883,-0.1861895,-0.069253,0.6532247,-0.185036,-0.5438059
0.6854496,-0.1692101,-0.06941616,0.4933364,-0.1607648,-0.4596532
0.6518786,-0.1547512,-0.06807407,0.3952541,-0.1705603,-0.3647791
0.6397982,-0.1296886,-0.06125684,0.3427219,-0.1597711,-0.2776545
0.6599371,-0.1452293,-0.03529268,0.2843443,-0.1549563,-0.1806399
0.6752019,-0.1565392,0.0001369121,0.3625472,-0.1273614,-0.1302971
0.722625,-0.1580297,-0.003165575,0.3733139,-0.03804587,-0.1086043
0.8212297,-0.16845,-0.04246607,0.3202766,0.06837797,-0.06176793
0.9068238,-0.1500896,-0.05824078,0.2566,0.1554976,-0.03805754
0.9827011,-0.1261613,-0.02520692,0.1379901,0.2164086,-0.1412292
1.092446,-0.08544425,0.03122251,0.09037161,0.1986397,-0.2803005
1.228099,-0.03280414,0.04284007,-0.005976658,0.1777755,-0.2693676
1.415277,-0.04418201,0.0227326,-0.2310486,0.2943688,-0.2219312
1.619187,-0.1254128,0.0232199,-0.4877912,0.4260069,-0.1910851
1.699351,-0.2638517,0.02484614,-0.7188987,0.4139066,-0.06037433
1.636951,-0.392049,0.0346355,-0.8846672,0.3230362,0.0263662
1.494812,-0.4625177,0.03938497,-0.955435,0.1615192,0.004707076
1.269171,-0.5395387,-0.00628995,-0.8633781,0.03716104,0.02256031
1.059766,-0.5784179,-0.06070498,-0.7279555,0.2373688,0.04610208
1.021643,-0.5543349,-0.04828037,-0.6181328,0.5436798,-0.002706813
1.056754,-0.5354234,0.0233914,-0.4696108,0.6003606,-0.06114449
1.038007,-0.4747759,0.07434079,-0.4460176,0.6140388,-0.06432427
1.009202,-0.3311176,0.08207336,-0.5612508,0.6322743,-0.02706058
0.9745434,-0.1559615,0.085449,-0.6757226,0.4868828,0.0257391
0.946535,-0.1099376,0.07186181,-0.7931432,0.394019,0.1376721
0.886496,-0.2362623,0.01815939,-0.8493753,0.4405594,0.3182495
0.7281488,-0.3017256,-0.004402946,-0.8005367,0.4489122,0.4620157
0.616257,-0.3090066,0.04499509,-0.6191925,0.3936967,0.4925578
0.6256113,-0.3465673,0.08662499,-0.3482684,0.3524021,0.4646888
0.6406848,-0.3031297,0.09652714,-0.2831187,0.3729205,0.4484802
0.6256556,-0.2520439,0.09396407,-0.3553859,0.3700378,0.4331911
0.6198995,-0.2250328,0.08601672,-0.3504012,0.3094559,0.4043614
0.6225011,-0.1755625,0.09317644,-0.5298522,0.2226604,0.3792538
0.6143582,-0.154778,0.08778228,-0.8125256,0.1207255,0.3711865
0.6238475,-0.156366,0.08722845,-0.9121324,0.1042527,0.3683507
0.6693243,-0.2260459,0.1123765,-0.921443,0.1100088,0.3079044
0.7318074,-0.297144,0.1370564,-0.8272017,0.1180876,0.1448418
0.8020764,-0.2974316,0.1827475,-0.671408,0.2319897,-0.08284948
0.8836087,-0.3089946,0.2353788,-0.5713444,0.2686911,-0.2385161
0.9725453,-0.3037173,0.2567836,-0.5404325,0.1443929,-0.1774195
1.08618,-0.2993306,0.2354338,-0.5437931,0.05179212,0.03317426
1.325288,-0.329169,0.1985551,-0.4687232,0.08172806,0.270994
1.602059,-0.4036206,0.160858,-0.4307678,0.1022385,0.4478162
1.704811,-0.5470103,0.09773914,-0.3956753,-0.03591095,0.3992918
1.701459,-0.6110494,0.07509883,-0.3231098,-0.2760261,0.2521181
1.541571,-0.5458368,0.06626338,-0.5116701,-0.4499147,0.1695929
1.150857,-0.4905414,0.000166811,-0.7153998,-0.3322695,0.04884652
0.8708014,-0.5041917,-0.02591957,-0.6339952,-0.06835388,-0.06978121
0.832885,-0.5427137,-0.01170178,-0.4908571,-0.05752371,-0.2570733
0.8831033,-0.5562809,-0.001431349,-0.3209812,-0.184195,-0.4624401
0.9439862,-0.4930279,0.004556806,-0.1306036,-0.309493,-0.4317185
0.9529731,-0.3787605,-0.02750564,-0.06318548,-0.3448862,-0.4042131
0.958133,-0.3401703,-0.05035501,-0.09154427,-0.1423334,-0.4706523
0.9533335,-0.2984197,-0.04792614,-0.1457008,-0.004145143,-0.4767422
0.8956074,-0.2039376,-0.03201579,-0.2025395,-0.04347665,-0.4878696
0.8236467,-0.1900591,-0.01537687,-0.197951,-0.1396871,-0.4402533
0.7369238,-0.1840964,-0.03640246,-0.2025657,-0.2124676,-0.3814391
0.7015848,-0.1700513,-0.0456088,-0.3100135,-0.1111476,-0.3895143
0.6817069,-0.192644,-0.03811117,-0.3541294,-0.03685487,-0.3846069
0.6241891,-0.1859593,-0.03998815,-0.2971956,-0.0918873,-0.3559204
0.6220343,-0.1952784,-0.03914329,-0.2203828,-0.09856291,-0.2674078
0.6462505,-0.1949798,-0.0491857,-0.1040522,-0.01245266,-0.1550097
0.6942578,-0.1638969,-0.05568051,-0.07234889,0.1525488,-0.06863933
0.7737552,-0.1465936,-0.05503326,-0.1292905,0.3266067,-0.02823799
0.8228777,-0.1074231,-0.04880237,-0.1541249,0.4485769,-0.06505168
0.9093795,-0.09070574,-0.04030569,-0.2119748,0.4764717,-0.1314404
1.067048,-0.08906723,-0.02425773,-0.2904624,0.4945592,-0.2510087
1.207425,-0.06269043,0.02105473,-0.3254336,0.5467855,-0.3790387
1.302505,-0.03503662,0.03991235,-0.4461552,0.5002928,-0.392011
1.440188,0.000395571,0.008591973,-0.7357239,0.4127891,-0.2929636
1.606497,-0.07817239,-0.0276507,-1.007176,0.3472285,-0.08925936
1.704632,-0.305545,-0.03484148,-1.024038,0.2677435,0.06673815
1.6995,-0.4928809,-0.0003920417,-0.8805312,0.1690248,-0.02257178
1.523044,-0.5453742,0.02164099,-0.7910104,0.06444581,-0.1164393
1.262395,-0.5174303,-0.01010013,-0.6680664,0.08955973,-0.0133188
1.088021,-0.5108436,-0.04718514,-0.5335465,0.3498828,0.01694966
1.054328,-0.4911132,-0.04158802,-0.5008596,0.7339898,-0.02988292
1.128403,-0.3830672,-0.02341541,-0.5111477,0.9411262,0.0368422
1.137586,-0.2414242,0.004455575,-0.7248967,0.8988919,0.1173359
1.072813,-0.1150325,0.05339564,-1.085056,0.7824769,0.2192817
1.015803,-0.1058672,0.04897808,-1.355459,0.6172497,0.3130991
0.9346865,-0.1758367,0.02004109,-1.504682,0.5524927,0.3366108
0.8246356,-0.2104398,0.008547769,-1.422037,0.6141006,0.4079593
0.6368261,-0.3178876,-0.02469885,-1.226779,0.5482494,0.4453081
0.5062315,-0.3918289,0.01653081,-0.9242962,0.4830794,0.4361036
0.5316107,-0.3520848,0.09599567,-0.5774154,0.5223107,0.4621189
0.5264303,-0.3482432,0.07817912,-0.5096482,0.4990622,0.4545484
0.5044289,-0.2717435,0.07154461,-0.4996563,0.452272,0.4545059
0.5287767,-0.1579006,0.09294128,-0.5402096,0.3688154,0.4585523
0.5800396,-0.1551596,0.07292263,-0.7238895,0.1771343,0.4396966
0.7010946,-0.1954131,0.08092086,-0.8391311,0.02952502,0.4199279
0.8383127,-0.2843585,0.1126753,-0.9365562,0.0584574,0.3601861
0.9592822,-0.3676084,0.1734415,-0.862944,0.1265328,0.3071578
1.058393,-0.3841623,0.2481444,-0.6460277,0.1080372,0.2250142
1.103396,-0.3685776,0.2390502,-0.4627911,0.1324676,0.02500523
1.155705,-0.3438952,0.2405083,-0.3085272,0.212434,-0.1762347
1.257518,-0.3505937,0.309406,-0.2857424,0.2481314,-0.2333202
1.359084,-0.3420468,0.2959974,-0.1708057,0.1500078,-0.1791367
1.41295,-0.3690866,0.1328074,-0.07862505,-0.1276994,-0.06855295
1.436643,-0.4773209,-0.03714842,-0.1609476,-0.2794966,0.1565049
1.416743,-0.5265707,-0.003038131,-0.01977133,-0.2171408,0.3029095
1.224864,-0.5100548,0.06060926,0.04080117,-0.2539675,0.1545932
0.9427998,-0.4992009,-0.04275653,-0.2934652,-0.3521644,-0.08710952
0.8757269,-0.5179093,-0.05371088,-0.5899949,-0.3295981,-0.3354505
0.9397963,-0.5395718,-0.009368306,-0.5544362,-0.3107989,-0.4933534
0.9181143,-0.5298462,-0.05505452,-0.3539779,-0.374531,-0.3864503
0.964815,-0.5012814,-0.0593315,-0.2358312,-0.381494,-0.2967405
1.035801,-0.449767,-0.08830331,-0.03582294,-0.4001251,-0.3026327
0.952058,-0.4403318,-0.06626796,0.1444168,-0.4684268,-0.3173777
0.8654586,-0.4180182,0.02211471,0.174274,-0.4323762,-0.4767451
0.8116958,-0.3119174,-0.0007276858,0.3678859,-0.4221354,-0.5383768
0.7197487,-0.2500749,-0.00797546,0.4533905,-0.420952,-0.4405754
0.6729244,-0.2010941,-0.01643448,0.3198653,-0.304828,-0.3971413
0.6635136,-0.1406695,-0.07371381,0.2137754,-0.2134803,-0.3281243
0.6358445,-0.124686,-0.07975715,-0.005420016,-0.156243,-0.2954002
0.6292903,-0.1103161,-0.07737896,-0.1605436,-0.1224583,-0.2859596
0.6683737,-0.1343167,-0.06200579,-0.139208,-0.0589114,-0.2108475
0.7179875,-0.1704651,-0.0601977,-0.1039526,0.0619822,-0.1479486
0.7860613,-0.1928815,-0.05698513,-0.05327069,0.1263917,-0.03447826
0.8841974,-0.2177,-0.02854468,0.01455954,0.2247997,0.04267597
0.9565233,-0.1769442,-0.04309099,0.06786144,0.3349064,0.005495083
0.9943384,-0.1164075,-0.03691328,-0.07463529,0.3394805,0.0005357697
1.042521,-0.06262532,-0.01649513,-0.3595052,0.332325,0.01148737
1.104594,-0.02557969,-0.005721424,-0.5400424,0.3571715,-0.01705708
1.136836,-0.06195558,0.02179479,-0.605454,0.4052344,-0.03920616
1.18512,-0.1031825,0.02216475,-0.5733569,0.4245514,-0.02728699
1.315137,-0.1615724,0.02149688,-0.5527659,0.3448459,0.00668483
1.458261,-0.284752,0.0123508,-0.5798238,0.2277517,0.06038828
1.56569,-0.404887,0.002454028,-0.597603,0.1388077,0.08115437
1.573293,-0.4622536,0.02984055,-0.6722817,0.02508883,0.01793064
1.467779,-0.4527759,0.03640182,-0.6929701,-0.1198451,0.002099514
1.330721,-0.4793689,-0.002377491,-0.5440448,-0.07856271,0.1219619
1.172923,-0.5250346,-0.0714594,-0.3666139,0.2557835,0.2478817
1.112996,-0.4774106,-0.09286474,-0.295992,0.6381617,0.2283047
1.132558,-0.3998968,-0.01981145,-0.3268174,0.8142642,0.1374466
1.057926,-0.2913652,0.05687094,-0.4629346,0.7784101,0.1074285
0.9864144,-0.1791404,0.07726793,-0.6958342,0.6966008,0.08541705
0.9678538,-0.1754236,0.05681684,-0.8422691,0.6056376,0.1055816
0.9402887,-0.1752839,0.0465877,-0.8748153,0.5154651,0.1758156
0.8876409,-0.1906768,0.03175325,-0.8950531,0.5306482,0.2153068
0.7779419,-0.3004973,-0.001196967,-0.8035257,0.5588703,0.2593212
0.6923567,-0.3673128,0.02367065,-0.6283381,0.585971,0.2554633
0.6632288,-0.3869685,0.06492712,-0.4080622,0.6292098,0.2420239
0.6255678,-0.3733185,0.07295416,-0.1573505,0.5577626,0.2731512
0.5927001,-0.2793544,0.08511742,-0.1054635,0.4648299,0.2664603
0.5914225,-0.1949251,0.08209523,-0.2185951,0.386885,0.2995491
0.6179559,-0.1525677,0.07261304,-0.4019745,0.2797302,0.3453342
0.6679317,-0.1458455,0.07144532,-0.6882358,0.1579451,0.3410563
0.7319265,-0.1828724,0.07124117,-0.8681016,0.04167309,0.3387199
0.7975591,-0.2661577,0.1070333,-0.8417782,0.1072586,0.2786701
0.8780927,-0.3718481,0.1666404,-0.6729693,0.2221581,0.1907995
0.942886,-0.3905285,0.2072535,-0.4436677,0.2393647,0.0998885
0.9662284,-0.3358012,0.2211798,-0.3386605,0.3180443,-0.01784932
0.992833,-0.2802033,0.2254287,-0.3712217,0.3459052,-0.08804837
1.019953,-0.2467753,0.2503643,-0.4165782,0.3061492,-0.1056705
1.111396,-0.2674696,0.2780528,-0.4586193,0.2496558,-0.1177888
1.311029,-0.3006412,0.2698204,-0.4513137,0.008131871,-0.1010611
1.476574,-0.3764629,0.2256661,-0.2880477,-0.3152457,0.1085586
1.528531,-0.5093126,0.138976,-0.02040503,-0.4759123,0.4356211
1.443455,-0.5538662,0.04687938,0.09740176,-0.4084084,0.4810052
1.215023,-0.519335,0.0145778,-0.1774242,-0.3245448,0.2546434
0.974141,-0.5465639,-0.007182281,-0.5306507,-0.3420887,0.003957814
0.8685241,-0.6018388,-0.02661774,-0.4611551,-0.2987332,-0.2507036
0.9060648,-0.5980709,-0.0008633293,-0.2170144,-0.3510907,-0.4095717
0.9605609,-0.5813241,-0.01966218,-0.03233009,-0.483776,-0.3988289
0.9843687,-0.5483358,-0.06504587,0.1643285,-0.4331297,-0.3555
0.9696512,-0.4621438,-0.06602587,0.232203,-0.393367,-0.3520014
0.9078057,-0.3946535,-0.06899516,0.2749689,-0.3822799,-0.4053568
0.8997686,-0.3540615,-0.05190035,0.3108477,-0.3263653,-0.5113576
0.85607,-0.2731443,-0.03778817,0.2674731,-0.3494268,-0.5718071
0.738427,-0.1711393,-0.03802966,0.3017182,-0.316594,-0.5917905
0.7274533,-0.1526403,-0.0262736,0.2955624,-0.2488273,-0.6127304
0.7044596,-0.1854852,-0.05579311,0.2219267,-0.2427038,-0.600399
0.6242831,-0.1504523,-0.06502324,0.1355783,-0.2126912,-0.5660434
0.6540942,-0.1442344,-0.04671856,0.014353,-0.1628687,-0.4996038
0.9416727,-0.03872898,0.01193437,0.5656246,0.02116209,-0.09174717
1.029877,-0.01598396,0.06161918,0.4979746,0.003669243,-0.1992391
1.094253,-0.03997897,0.09967237,0.3290386,-0.0882937,-0.2566798
1.29634,-0.1139444,0.07612526,0.1063722,-0.1819078,-0.2025387
1.583282,-0.2587784,0.04510211,0.06631653,-0.2229093,-0.005334533
1.799797,-0.4478855,0.04184593,0.1234589,-0.2020287,0.2989272
1.813876,-0.5536,0.0115825,0.07422766,-0.1811924,0.4208378
1.557462,-0.5384011,-0.006428914,-0.03065186,-0.1432123,0.2024715
1.226808,-0.5051946,0.002571197,-0.1002528,-0.03447466,0.01940147
1.100764,-0.5130819,0.001646869,-0.01282121,0.1686077,0.08906495
1.088917,-0.4851844,0.02217797,0.2570139,0.4819174,0.1300038
1.082589,-0.400198,0.03630837,0.4122344,0.6884079,0.1209365
1.13535,-0.2824476,0.03697851,0.2700377,0.6653653,0.1801221
1.067619,-0.1450974,0.04599369,-0.03370068,0.5731002,0.1481089
0.9508894,-0.1084907,0.03850417,-0.3203773,0.4167156,0.1210183
0.9235126,-0.1818164,0.04982114,-0.4353991,0.3015088,0.2238623
0.7608516,-0.256104,0.06225238,-0.3536053,0.2665053,0.3123002
0.6416589,-0.313912,0.05257232,-0.1822672,0.1700969,0.3614713
0.6542631,-0.3368491,0.06636528,0.08488336,0.1853987,0.3699603
0.5276829,-0.3477644,0.09184865,0.3463524,0.1696252,0.3971466
0.4617159,-0.3347208,0.1143594,0.383669,-0.06332586,0.4798279
0.5135976,-0.2440603,0.1060106,0.3251835,-0.2232264,0.4983135
0.5004324,-0.1732889,0.07871175,0.2160408,-0.2792213,0.4821917
0.533392,-0.1544964,0.07555148,-0.05665028,-0.2292126,0.4637817
0.5931693,-0.1636862,0.07144429,-0.2615546,-0.1619598,0.4354964
0.6491222,-0.2376641,0.1008147,-0.2974278,-0.2405063,0.4391355
0.7963077,-0.3391084,0.154638,-0.2052675,-0.2303081,0.3863521
0.9725672,-0.4482066,0.1803049,0.08745392,-0.1147505,0.1839863
1.131621,-0.5136787,0.2258475,0.4785537,0.04844928,-0.09742806
1.243979,-0.4935882,0.259801,0.7300344,0.1736826,-0.2652817
1.303917,-0.4552527,0.2396186,0.698321,-0.02134532,-0.290896
1.435744,-0.4323171,0.2064081,0.586676,-0.3532619,-0.2690595
1.601034,-0.4959156,0.1326794,0.5579124,-0.5333766,-0.06672565
1.621812,-0.5820327,0.03581865,0.5253765,-0.4910078,0.2326565
1.364616,-0.5533551,-0.009913764,0.4549285,-0.360673,0.2259574
0.9366682,-0.5727194,-0.03316277,0.2909386,-0.4038727,-0.0608171
0.7856904,-0.6750664,-0.03797896,0.2520815,-0.4723962,-0.3284886
0.9059276,-0.6838968,-0.0186501,0.4600516,-0.5944594,-0.4465223
0.9634842,-0.6239411,-0.04292552,0.7012222,-0.8473382,-0.3721954
1.048659,-0.5512379,-0.08123972,0.9682692,-0.7918875,-0.2709191
1.076408,-0.4694449,-0.09276904,1.062818,-0.5607545,-0.2646295
0.9361785,-0.3732599,-0.07910742,0.9694816,-0.476957,-0.2951825
0.8387349,-0.2512908,-0.02957814,0.9981088,-0.4006344,-0.3740491
0.749172,-0.2018489,-0.01811148,1.006693,-0.4502851,-0.360851
0.6705193,-0.2065189,-0.03296027,0.9177077,-0.5222857,-0.2809661
0.6484092,-0.143844,-0.0319252,0.7648886,-0.4569274,-0.2921646
0.609197,-0.1104205,-0.05278599,0.5308976,-0.4096175,-0.2588125
0.610546,-0.138659,-0.04536001,0.4584243,-0.2589222,-0.2580442
0.5788978,-0.1492872,-0.03079177,0.5155732,-0.145322,-0.285615
0.5454517,-0.1979125,-0.04032942,0.5101491,-0.1677274,-0.21314
0.6336093,-0.2267568,-0.02772415,0.5267287,-0.07934607,-0.1767657
0.73082,-0.1845625,-0.03609984,0.5412576,-0.03448781,-0.1095862
0.8301891,-0.1498693,-0.06173693,0.4588856,0.00721969,-0.04982988
0.9518786,-0.1091748,-0.07259675,0.3267814,0.1710068,-0.07406593
1.12249,-0.1011981,-0.05395561,0.1929395,0.216031,-0.08440786
1.358304,-0.1382903,0.001899393,0.1496898,0.1604793,-0.1595881
1.518771,-0.1679942,0.01808792,0.1295535,0.1205841,-0.2091044
1.633325,-0.2502638,-0.005487267,-0.08331544,0.07929929,-0.1885027
1.725265,-0.3666945,-0.005884248,-0.3087646,0.008813173,-0.1635358
1.718114,-0.4609853,0.03312777,-0.2993944,-0.07404582,-0.06652486
1.603057,-0.5335918,0.06480473,-0.1347549,-0.04326961,0.01869188
1.343699,-0.5356671,0.007287833,0.0401169,0.169955,0.05125587
1.092227,-0.4599594,-0.05058186,0.08263373,0.4756733,0.04049631
1.037263,-0.3760455,-0.009635151,0.04041227,0.6874266,0.01711867
1.07185,-0.3432609,0.03792155,-0.007560947,0.7729148,0.0408432
1.026469,-0.2990301,0.05455338,-0.1888481,0.7824661,0.04105554
0.9396616,-0.2052498,0.06883262,-0.440148,0.6585785,0.04981337
0.9187907,-0.1810305,0.0661278,-0.5674668,0.4925194,0.08080058
0.8993458,-0.210065,0.05990097,-0.5751143,0.4089879,0.1382955
0.8152413,-0.2506793,0.0453708,-0.5448803,0.3645462,0.272581
0.6925948,-0.3486231,0.03195106,-0.4387901,0.3430378,0.3340249
0.6117653,-0.3814894,0.06681842,-0.1967717,0.3408939,0.3346024
0.6078114,-0.3333339,0.0946617,0.01791983,0.2973823,0.3945783
0.5671843,-0.3113125,0.07075342,0.0644962,0.2096922,0.4201223
0.5418768,-0.25796,0.05717207,0.02310883,0.1314238,0.4123794
0.5816961,-0.2024739,0.06824368,-0.1044187,0.09221573,0.4264482
0.5993436,-0.2331976,0.07676175,-0.3038904,0.07172222,0.426396
0.6609139,-0.2837965,0.09456556,-0.3932466,0.007378911,0.4260371
0.7198449,-0.307236,0.1205761,-0.3349148,-0.05780474,0.4146427
0.7340528,-0.3211869,0.1271985,-0.2450251,-0.02790601,0.3202155
0.8492641,-0.3285464,0.1571315,-0.1323004,0.02426063,0.13236
1.013156,-0.3457013,0.2242622,-0.01647836,0.02048777,-0.03794894
1.071747,-0.3528603,0.2359724,0.05435292,-0.0431076,-0.08326373
1.131099,-0.3383104,0.2188344,0.1554208,-0.1509084,-0.07756422
1.322317,-0.357028,0.2216455,0.2588449,-0.2241151,-0.08740913
1.418656,-0.4028132,0.1878343,0.3409705,-0.2782673,-0.01746418
1.386643,-0.5149718,0.1325969,0.4476265,-0.3127457,0.1620302
1.452376,-0.6623276,0.08762778,0.4546569,-0.3393125,0.3110334
1.392461,-0.6324197,0.07163185,0.3945205,-0.4731576,0.2364062
1.051878,-0.5748343,0.04194247,0.2677162,-0.5181255,-0.01244558
0.7478682,-0.6617022,-0.04210113,0.095151,-0.4355041,-0.2624672
0.7680988,-0.6672271,-0.03198141,0.2369775,-0.4954878,-0.5134717
0.9455409,-0.6309182,0.01075711,0.5456156,-0.5927953,-0.5646401
0.9594015,-0.6278034,-0.05322237,0.7724702,-0.6467803,-0.4076561
0.982366,-0.5321506,-0.06884348,1.020616,-0.5938191,-0.406584
1.007353,-0.4477624,-0.06298805,1.062324,-0.4090818,-0.4551299
0.9027042,-0.3935701,-0.07336968,0.9798941,-0.3966067,-0.481083
0.8980192,-0.3128302,-0.02402646,1.019096,-0.4360453,-0.5594346
0.8212092,-0.246914,-0.02899139,0.9744951,-0.4036167,-0.5267531
0.7002066,-0.1725127,-0.05026744,0.8605722,-0.4428182,-0.5178108
0.7210973,-0.140832,-0.04868671,0.7609134,-0.438449,-0.5358877
0.6457482,-0.1403547,-0.06935992,0.6558218,-0.4678136,-0.4365994
0.6257727,-0.1303712,-0.05416618,0.6376443,-0.5369146,-0.3280135
0.6853015,-0.157416,-0.06188846,0.6175868,-0.4901211,-0.2330633
0.6906155,-0.1819851,-0.07239073,0.5587491,-0.3368152,-0.2038849
0.7697064,-0.1944544,-0.04352095,0.5797082,-0.1007157,-0.1846492
0.8131725,-0.1731079,-0.02771224,0.6213945,0.02097928,-0.08623253
0.8694551,-0.1115967,-0.0002069823,0.6133722,0.08239808,-0.00493064
0.9713129,-0.07050438,0.004727621,0.5476497,0.198876,0.03258095
0.9968709,-0.03626808,0.001507223,0.3676039,0.1144756,-0.01453179
1.051749,-0.03583956,0.02371684,0.1395977,0.002739965,-0.08094079
1.158432,-0.06375577,0.0262304,0.01567067,0.07334363,-0.09084599
1.312265,-0.127023,0.02148121,-0.002917192,0.08485979,-0.1103636
1.510562,-0.3126749,0.0140512,0.02561684,0.06320207,-0.09357113
1.622064,-0.5194058,0.0266536,0.09304552,0.05182907,-0.02096417
1.555157,-0.5794517,0.03720792,0.1223648,-0.03910063,0.1085941
1.405792,-0.5041689,-0.008060554,0.02926842,-0.04041977,0.2245584
1.264831,-0.461469,-0.04119176,-0.06807022,0.0920648,0.1858449
1.124014,-0.49547,-0.02214664,-0.01266333,0.2698308,0.143642
1.121659,-0.4565153,0.01875958,0.06051242,0.4522989,0.1740757
1.159917,-0.3590106,0.05749011,0.01759081,0.5012633,0.1499029
1.089016,-0.2819376,0.08161187,-0.09846433,0.4525072,0.1254854
1.055645,-0.228824,0.09270121,-0.3523675,0.3927223,0.08199843
1.012314,-0.2434191,0.1080597,-0.5282394,0.2967863,0.01102237
0.9521325,-0.3192739,0.1205961,-0.3321665,0.266433,0.08676315
0.8658477,-0.4355503,0.08746652,-0.06240245,0.3042083,0.209006
0.7266985,-0.502802,0.06410361,0.1765083,0.3102384,0.2352793
0.7038647,-0.4454997,0.08078881,0.5284527,0.3024569,0.287823
0.6521341,-0.3689209,0.07628058,0.6731132,0.2423753,0.335243
0.5682161,-0.2798989,0.07113905,0.569124,0.07780599,0.294926
0.6215152,-0.1847784,0.06883225,0.4519166,-0.08964233,0.2703655
0.6585827,-0.1724768,0.059932,0.1929006,-0.194916,0.2864283
0.696837,-0.1920074,0.06727963,-0.06368017,-0.2772925,0.2827292
0.7293708,-0.2390334,0.08080971,-0.06279989,-0.3026569,0.2719728
0.695293,-0.2994554,0.1002807,0.02302943,-0.2475018,0.2713329
0.7107209,-0.324833,0.122496,0.1559219,-0.1664609,0.2601927
0.7180252,-0.3565683,0.1605695,0.3561081,-0.1294855,0.2415038
0.7279528,-0.3344606,0.1852625,0.4915427,-0.1847014,0.2317164
0.8050823,-0.2584916,0.1544336,0.5320625,-0.2182371,0.2464714
0.8830741,-0.2130447,0.1417936,0.4974513,-0.1249257,0.2927375
0.987221,-0.2049646,0.1720134,0.491569,-0.0782918,0.3081086
1.09678,-0.2592314,0.201462,0.5155354,-0.2970047,0.2279156
1.206526,-0.3397191,0.2217222,0.5435441,-0.6759137,0.1220387
1.331078,-0.4256372,0.2190238,0.6788977,-0.876919,0.1362478
1.357115,-0.4889532,0.2126707,0.8319045,-0.811108,0.2605963
1.329402,-0.465802,0.1960464,0.9450568,-0.7016287,0.3204783
1.316992,-0.477254,0.1015641,0.9374712,-0.6368471,0.2197306
1.190225,-0.5464033,-0.0019286,0.6248792,-0.5579356,0.05471573
0.9266738,-0.5775056,0.01829749,0.3282498,-0.5031361,-0.0692043
0.7548633,-0.6380528,0.06355736,0.4484944,-0.5084644,-0.2748082
0.7995152,-0.7317518,0.04987219,0.7277587,-0.6735284,-0.5521754
0.8233111,-0.7725507,0.06744563,0.961554,-0.976224,-0.6349506
0.8247965,-0.6875958,0.01164727,1.34017,-1.074223,-0.5682673
0.9702477,-0.5452806,-0.1128272,1.608886,-0.9787082,-0.5315159
0.9958521,-0.5494666,-0.09022947,1.634875,-0.8509417,-0.5314652
0.9504689,-0.5298919,-0.05199791,1.704904,-0.6182216,-0.5517022
1.030453,-0.3605622,-0.07154269,1.666116,-0.5263651,-0.553303
1.006754,-0.3320037,-0.03416913,1.584737,-0.588368,-0.5347381
0.9535969,-0.3447685,-0.04757026,1.568079,-0.5548382,-0.4924866
0.8972423,-0.270116,-0.09412308,1.463561,-0.5608674,-0.4808453
0.7361018,-0.3112939,-0.1018017,1.454217,-0.5101956,-0.5555432
0.7234954,-0.3515329,-0.1076799,1.466348,-0.3000243,-0.6412676
0.7670157,-0.3196673,-0.07874516,1.539027,-0.1149092,-0.7027508
0.7081431,-0.3288339,-0.0497275,1.820403,0.0148246,-0.681557
0.7040092,-0.3062014,-0.02474283,2.088332,-0.02250779,-0.5693348
0.7043349,-0.220997,-0.01100549,2.201588,-0.1202146,-0.4306965
0.6982749,-0.09941711,-0.05213864,1.948646,-0.09101315,-0.3099021
0.7833687,0.02514086,-0.06606059,1.553609,-0.1102381,-0.2363612
0.9055826,0.08336511,-0.05738594,1.316217,-0.1072535,-0.1000937
1.002845,0.07548222,-0.058224,1.077196,-0.0403599,0.0245794
1.050141,0.05096361,-0.03545553,0.9036261,-0.03424956,0.006851094
1.042345,0.02507195,0.004900418,0.7349827,-0.005601586,-0.05545415
1.035506,-0.005229945,0.07808778,0.6072297,0.005275791,-0.1380921
1.069904,-0.0116869,0.1254278,0.6217368,0.02934261,-0.1385608
1.082464,-0.01816854,0.1025831,0.5781286,0.09325009,-0.06441366
1.100062,-0.05742173,0.09158288,0.5517225,0.1010537,-0.05754595
1.229501,-0.1057357,0.1186421,0.555206,0.1141258,-0.005048644
1.423182,-0.1842188,0.128259,0.5046841,0.0813067,0.1182833
1.590332,-0.3120725,0.1030861,0.3744206,-0.02840277,0.2718867
1.622507,-0.4262194,0.09148055,0.1629885,-0.212039,0.3557045
1.518209,-0.4843002,0.0958079,0.0721612,-0.4012908,0.2406526
1.414459,-0.5538811,0.07317491,0.02269007,-0.3215673,0.1765521
1.276949,-0.6004602,0.007081064,-0.04754066,1.056431e-05,0.2477797
1.137675,-0.5448981,-0.05262389,0.01070907,0.3467502,0.2754905
1.10707,-0.5163395,-0.02543928,0.08686414,0.5007924,0.2786642
1.104697,-0.4902452,0.01662682,0.1081586,0.497029,0.2345346
1.061853,-0.3649476,0.02192119,0.06238538,0.544472,0.160714
0.9612219,-0.277214,0.05757801,-0.01907891,0.4055398,0.156531
0.8708258,-0.2568828,0.07605125,0.01644273,0.2446624,0.1782402
0.8336605,-0.2816721,0.06073073,0.09004109,0.3383848,0.2333598
0.7339099,-0.3337075,0.06968465,0.1878077,0.3133102,0.3630401
0.5947472,-0.323841,0.0888787,0.4755522,0.2017581,0.4715936
0.5368148,-0.2973484,0.1072263,0.7701194,0.09948326,0.5408974
0.5472875,-0.2472345,0.1027118,0.8518341,-0.08520589,0.6167561
0.5376239,-0.1363756,0.06758601,0.7285531,-0.2230694,0.6359126
0.5239068,-0.0423475,0.04819763,0.4077655,-0.3818384,0.6322939
0.5801621,-0.03233164,0.05980661,-0.001326549,-0.4933287,0.6374257
0.6693967,-0.1154486,0.0929853,-0.3275371,-0.5147833,0.5986444
0.7631152,-0.1933152,0.1281,-0.3543788,-0.584003,0.5788551
0.8509794,-0.2831501,0.1555631,-0.14589,-0.5815758,0.5511785
0.9463341,-0.4066774,0.1861093,-0.005922746,-0.480395,0.4135905
1.05729,-0.4109315,0.2083982,0.1109849,-0.2474546,0.140591
1.09165,-0.3298262,0.2176883,0.103045,0.1759303,-0.1457666
1.078188,-0.2964691,0.2266778,-0.1186906,0.480547,-0.1968907
1.124119,-0.366083,0.2396914,-0.2705965,0.4486627,-0.08648629
1.293203,-0.466528,0.2334324,-0.298513,0.2132758,-0.01027087
1.551719,-0.5043917,0.1876491,-0.2062628,-0.1486581,0.1221686
1.721353,-0.6491931,0.145372,0.01973723,-0.4190704,0.3471285
1.702703,-0.8092621,0.138408,0.3413958,-0.2540041,0.4386619
1.376266,-0.6757433,0.1189613,0.4354445,-0.04201948,0.2099348
0.8508225,-0.4907953,0.04373381,-0.00372856,-0.1385491,-0.1416548
0.6815147,-0.5025527,-0.03946486,-0.3705509,-0.1798809,-0.3680303
0.8791482,-0.5269131,-0.07607888,-0.3287973,-0.2386085,-0.4728191
0.959937,-0.5203644,-0.09496912,-0.1686929,-0.3781913,-0.4689281
0.9646067,-0.5277792,-0.1051359,0.08957401,-0.3562902,-0.4375675
0.9738588,-0.497555,-0.0869773,0.3478516,-0.3430574,-0.4686889
0.8556807,-0.4401937,-0.0617935,0.5102696,-0.2505908,-0.5867065
0.7681591,-0.3074234,-0.02793931,0.5482897,-0.03012523,-0.7877652
0.7108387,-0.1412489,0.005488856,0.5215875,0.03382665,-0.8447181
0.6121062,-0.06267039,-0.01079796,0.4486749,-0.01836629,-0.676656
0.6008846,-0.02880572,-0.04866073,0.1589708,-0.07917629,-0.4975828
0.5874193,-0.05021394,-0.0599171,-0.1695553,-0.04963125,-0.3696399
0.5831846,-0.1156091,-0.04919222,-0.3501789,0.05264177,-0.2984487
0.6526716,-0.1742701,-0.02102051,-0.3370836,0.1392696,-0.2610044
0.7274744,-0.2487069,-0.008481462,-0.1826628,0.2035625,-0.1776746
0.8665343,-0.2683125,0.003454127,-0.06389173,0.1809077,-0.1231367
0.9575086,-0.2133759,0.03002214,0.09748864,0.1990529,-0.08464919
0.9883652,-0.1145387,0.003421972,0.1561152,0.2356897,-0.04436607
1.080396,-0.04046497,-0.0200651,-0.04044257,0.2277562,-0.1649596
1.088824,-0.07137017,0.01445231,-0.2779167,0.2392831,-0.3512642
1.064305,-0.08961395,0.02694736,-0.3971313,0.1274998,-0.3938335
1.128283,-0.09022591,0.006992117,-0.3204353,0.03286962,-0.3239045
1.236172,-0.1623875,-0.01294363,-0.17372,0.03746664,-0.2057908
1.501682,-0.2443293,-0.01778488,-0.1220633,0.04079069,-0.06262835
1.853659,-0.332802,-0.007746286,-0.3480995,0.1895297,0.08079882
1.935463,-0.4049731,0.005418859,-0.7033056,0.3549497,0.1764618
1.731914,-0.4302384,0.04073764,-0.6397383,0.3449144,0.1953421
1.473575,-0.5085143,0.07671266,-0.4367219,0.3334828,0.1246753
1.17825,-0.5737943,0.06692431,-0.3647891,0.4229114,0.02761956
0.9563806,-0.4790402,0.05230095,-0.1446275,0.4430543,0.09125067
0.9850164,-0.3761143,0.08784072,-0.08565184,0.4777521,0.1844217
1.070906,-0.3505208,0.1181393,-0.2183209,0.6093904,0.1634443
1.069602,-0.2392849,0.1210494,-0.3336014,0.5641401,0.2064283
1.083222,-0.1144749,0.1400879,-0.6218487,0.5131623,0.2193676
1.041944,-0.1237789,0.1326521,-0.8613969,0.5452387,0.2016135
0.9042441,-0.176383,0.1084368,-0.8723713,0.4419806,0.3264808
0.7889922,-0.2079163,0.1122217,-0.7416248,0.3762828,0.4473718
0.7077081,-0.2540152,0.1105157,-0.4681891,0.3342389,0.519052
0.6456602,-0.2771583,0.1192746,-0.2520035,0.2665162,0.5812951
0.6098242,-0.2347119,0.1318396,-0.2245194,0.2022883,0.6160033
0.5905621,-0.1919455,0.1029598,-0.3375825,0.09534023,0.6141537
0.5586303,-0.1668972,0.06694599,-0.5161165,0.0869403,0.5444055
0.5368216,-0.1676188,0.07144764,-0.6951467,0.07211166,0.4913761
0.6221833,-0.2399275,0.1250421,-0.7810987,0.004590889,0.4348385
0.7161924,-0.2981391,0.1821354,-0.6822212,-0.009673813,0.3532954
0.7587074,-0.3058006,0.1875324,-0.5642224,-0.02953693,0.2922982
0.8498597,-0.3359957,0.1846499,-0.4375527,0.0209588,0.1890226
0.9185485,-0.3699039,0.2242765,-0.2417244,0.07697251,0.07990488
0.9432,-0.3262473,0.2462354,-0.1843526,0.05883606,-0.03663527
1.01035,-0.2553291,0.2354517,-0.2058687,0.09756664,-0.1370966
1.154242,-0.2810144,0.2518343,-0.1861123,0.1601154,-0.1639534
1.336164,-0.3445379,0.2611683,-0.1567596,0.08894637,-0.2027108
1.441204,-0.4408856,0.2251823,-0.08842489,-0.2024179,-0.14661
1.505849,-0.5909178,0.17298,0.03394989,-0.4907418,0.04494644
1.529659,-0.6142603,0.08854574,0.2265691,-0.4850405,0.1516831
1.315328,-0.5220379,-0.02611573,0.2454074,-0.371508,0.08361998
1.0268,-0.4851693,-0.06362564,-0.07977487,-0.3319369,-0.1244194
0.9658364,-0.5645504,-0.009071464,-0.3411016,-0.288443,-0.3599992
0.9028552,-0.6538394,0.02381951,-0.1926088,-0.4825176,-0.4684016
0.8388382,-0.6118182,0.04294566,0.1906522,-0.8732931,-0.4103137
0.9966002,-0.5677796,0.02565137,0.5772708,-0.9433253,-0.3139679
1.02699,-0.5610909,-0.06063843,0.9082267,-0.7652435,-0.2840318
0.9608048,-0.495042,-0.06570714,1.054934,-0.5781897,-0.3283676
0.9823675,-0.4392198,-0.03262151,1.119457,-0.4082142,-0.4515223
0.8652665,-0.3393281,-0.04325631,1.211652,-0.3412514,-0.4998081
0.7994617,-0.1822706,-0.02497065,1.160112,-0.2992722,-0.4553056
0.7826569,-0.08671931,-0.04391893,1.063217,-0.232483,-0.4823706
0.7068789,-0.03977891,-0.06655899,0.861043,-0.08843947,-0.4920091
0.7240379,-0.04223315,-0.03730552,0.5635746,0.02453416,-0.449681
0.6920651,-0.0686369,-0.03144732,0.4898574,0.05026294,-0.4041421
0.6960252,-0.09112754,-0.02577331,0.4810061,0.2668603,-0.3444164
0.7528706,-0.1405085,-0.01773009,0.5344604,0.4281865,-0.3070945
0.7390169,-0.1560232,-0.009967371,0.6497589,0.3099374,-0.2099326
0.7897657,-0.125634,0.00084586,0.5840328,0.2514518,-0.06541691
0.8530433,-0.08355795,-0.005578452,0.5322115,0.2978954,0.01642449
0.9532967,-0.02853993,0.002959213,0.4633848,0.2751431,0.02225822
1.035987,-0.001153157,0.01550286,0.2486279,0.2047246,-0.0465346
1.019706,-0.006065453,0.0254444,0.07308274,0.1297564,-0.09076534
1.069857,-0.02087921,0.023123,-0.01654616,0.04532552,-0.05026206
1.130232,-0.06376899,0.01079414,-0.01801414,0.05456172,0.01846369
1.264548,-0.1776385,0.02798808,0.1250394,0.06371874,0.1065189
1.497433,-0.3574413,0.05749766,0.4559015,-0.02632869,0.2100284
1.588459,-0.4597694,0.1165049,0.6010229,-0.02423947,0.2394533
1.536749,-0.4000683,0.154877,0.06225571,-0.08309062,0.2124683
1.413203,-0.3792363,0.1035541,-0.6089635,-0.2121402,0.2888797
1.2688,-0.5318486,0.06824385,-0.6189745,-0.09557547,0.4051791
1.131013,-0.6215001,0.09017258,-0.4045972,0.138332,0.4222438
1.050612,-0.5095987,0.1229223,-0.4863386,0.3123118,0.3293292
1.050817,-0.3878293,0.1543592,-0.5507536,0.2895684,0.2269915
0.9805248,-0.362694,0.1660515,-0.5654215,0.03758634,0.2949729
0.9227599,-0.3517421,0.1637011,-0.5976221,-0.1657167,0.3463976
0.9672935,-0.3409067,0.1496603,-0.4867254,-0.2458144,0.224034
0.9669021,-0.3734739,0.1261014,-0.3598139,-0.1937835,0.1672649
0.8981083,-0.405552,0.09699781,-0.1530475,-0.03243283,0.1906004
0.8040405,-0.4334378,0.07394586,0.1138842,0.09811941,0.2188547
0.7189911,-0.4428109,0.09166461,0.3457442,0.1720418,0.2658315
0.6644967,-0.3852621,0.105407,0.7069809,0.07313043,0.2869811
0.656719,-0.2911542,0.07101287,0.8692935,-0.08435746,0.315378
0.6643483,-0.1458971,0.04110002,0.7196134,-0.1017647,0.3747202
0.6516794,-0.09830372,0.04437041,0.5400258,-0.1570238,0.4501713
0.6979583,-0.177778,0.067719,0.2364744,-0.2284271,0.4815362
0.7393565,-0.1406921,0.08972829,-0.05050756,-0.2239532,0.4618826
0.7144417,-0.1438174,0.09459418,-0.08503953,-0.2058406,0.4575809
0.728328,-0.2666088,0.1270482,0.06178996,-0.1505968,0.4116024
0.7823408,-0.3445007,0.205591,0.2681702,-0.1033443,0.3165916
0.830446,-0.3808468,0.2406976,0.3612143,-0.07770655,0.1848328
0.8391155,-0.2870047,0.204912,0.2844742,-0.1056832,0.002337343
0.836923,-0.1960462,0.1927932,0.2145622,-0.1809637,-0.1243392
0.8619196,-0.2315056,0.220117,0.2561879,-0.1795221,-0.1511594
0.875124,-0.271163,0.2340799,0.2870867,-0.131472,-0.1184554
0.9888079,-0.3420809,0.2422496,0.3197682,-0.08768861,-0.09969085
1.265079,-0.3570838,0.2451054,0.3735146,-0.1098933,-0.1010352
1.528569,-0.336049,0.2225601,0.3411867,-0.2053157,0.007229881
1.632717,-0.4195553,0.1719085,0.3355424,-0.2499767,0.1878414
1.598821,-0.5657364,0.1223836,0.3714954,-0.2643586,0.2796737
1.548544,-0.7038539,0.1326018,0.4129284,-0.3340422,0.2540612
1.344663,-0.633518,0.1356587,0.4810376,-0.4386366,0.1330166
0.9237743,-0.5084549,0.04072687,0.3943693,-0.4415075,-0.0775466
0.765711,-0.5995246,-0.0399085,0.2833349,-0.4310507,-0.2493514
0.9273009,-0.6117569,-0.04103431,0.3585672,-0.533605,-0.2469335
0.9859137,-0.5419443,-0.05637092,0.4450833,-0.4736909,-0.2148263
0.9979137,-0.5643346,-0.08163631,0.5545464,-0.3569022,-0.2664116
1.000193,-0.5152615,-0.05591495,0.757566,-0.3999985,-0.3407843
0.9082436,-0.4581485,-0.02938032,0.8986842,-0.3848521,-0.465431
0.9192504,-0.3960659,-0.03348556,0.9524669,-0.3859478,-0.5654719
0.9284044,-0.272227,-0.01886098,0.9379643,-0.4063079,-0.5509679
0.8100722,-0.2154297,-0.02089349,0.8592889,-0.3448999,-0.481586
0.7174112,-0.1326647,-0.04701194,0.782054,-0.3381857,-0.3643394
0.6137245,-0.06271908,-0.03572604,0.6752254,-0.3254158,-0.248649
0.5609361,-0.103714,-0.03550033,0.5493771,-0.3412191,-0.1739644
0.5809425,-0.1075449,-0.04296063,0.4785769,-0.4326551,-0.09011908
0.581436,-0.1171219,-0.02126168,0.4939807,-0.4607763,-0.007448911
0.6824746,-0.1548006,-0.01055454,0.5649285,-0.3823623,0.07401449
0.7994562,-0.1383078,0.003204769,0.5694245,-0.1825674,0.1212576
0.8774042,-0.097035,0.01486749,0.5191643,0.003247304,0.07987374
0.9796105,-0.02983862,0.01781243,0.3507247,0.0795682,-0.02882832
1.052711,-0.007415852,0.03244308,-0.03008076,0.1520344,-0.2047081
1.226683,-0.0594278,0.03539909,-0.3193672,0.2766645,-0.3210929
1.471335,-0.1296836,0.02692915,-0.3888198,0.4106217,-0.2438164
1.700681,-0.2953305,0.01529834,-0.4809248,0.4513234,-0.1028465
1.858575,-0.5153934,0.01926313,-0.6530951,0.4243736,7.630537e-05
1.701129,-0.585377,0.03725618,-0.7474931,0.3548884,0.0120686
1.416391,-0.5333639,0.03531677,-0.7122961,0.2806006,-0.04485568
1.223032,-0.5263906,0.02183433,-0.58317,0.4051868,0.01034468
1.0765,-0.5155889,0.009741053,-0.3487154,0.6560843,0.1134637
1.097424,-0.4492163,0.0364493,-0.2453998,0.8053962,0.1944597
1.122732,-0.3891603,0.08170384,-0.3453096,0.8198228,0.2531335
1.033444,-0.2558501,0.08497347,-0.4866793,0.7301224,0.1764704
1.010911,-0.08055656,0.0996952,-0.8203085,0.6032606,0.1435387
1.007912,-0.0523493,0.1097383,-1.124982,0.4847864,0.1915866
0.9842438,-0.1400919,0.07650619,-1.163025,0.4308187,0.2200841
0.8879164,-0.2578338,0.0699197,-1.141302,0.4220171,0.3587086
0.6761229,-0.3837079,0.08601785,-0.8941407,0.35296,0.4550123
0.5618315,-0.4240313,0.1057365,-0.4881007,0.3098823,0.4638887
0.5686981,-0.3505445,0.1190948,-0.3527867,0.2843123,0.5086716
0.5282744,-0.2420172,0.08274334,-0.4521987,0.1800689,0.5087068
0.4577334,-0.1591879,0.04321605,-0.6358504,0.1351672,0.515254
0.4732722,-0.1480775,0.04650481,-0.9333605,0.1416694,0.5277736
0.5484559,-0.1944924,0.06282375,-1.180972,0.1254281,0.5234532
0.6378401,-0.2377495,0.0916092,-1.117652,0.1362296,0.5285476
0.792419,-0.3294159,0.1497726,-0.9411571,0.1591562,0.4545129
0.9352973,-0.4308254,0.1980781,-0.7669031,0.3067693,0.2728017
1.070769,-0.4387465,0.2149326,-0.488444,0.5531758,0.01537128
1.246519,-0.4409171,0.2344817,-0.4120352,0.6369524,-0.1665064
1.365127,-0.4116536,0.2372936,-0.4418121,0.5330537,-0.2329409
1.452171,-0.3756958,0.2157557,-0.3377136,0.2552306,-0.2306673
1.51255,-0.5079255,0.1975687,-0.3348184,-0.1295933,-0.01008665
1.588429,-0.6283584,0.1755162,-0.3462058,-0.2677844,0.2267735
1.59782,-0.5816163,0.1561311,-0.3783981,-0.1157658,0.140735
1.209663,-0.5545559,0.07520606,-0.6065219,0.0332821,-0.135278
0.7640232,-0.5990582,-0.03141565,-0.8102839,0.04171207,-0.4181147
0.7916524,-0.6033154,0.02111584,-0.7619164,-0.2754143,-0.5528377
0.9452514,-0.593506,0.07810271,-0.448505,-0.6672348,-0.4167482
0.9647771,-0.5808517,-0.03715166,-0.1032642,-0.570668,-0.2902129
1.073897,-0.5046487,-0.09076236,0.07944367,-0.280408,-0.3436832
1.048679,-0.4598052,-0.01863516,0.148529,-0.1018776,-0.4524194
0.8496431,-0.4187715,0.008864665,0.2255266,0.006625015,-0.6264244
0.8019161,-0.2708964,-0.01189815,0.3029546,-0.1218106,-0.6525565
0.6480891,-0.1157234,-0.0309242,0.1918287,-0.2418229,-0.4810134
0.53396,-0.05932774,-0.04077916,-0.05772756,-0.2430036,-0.4183952
0.6806921,-0.1063789,-0.06083803,-0.3350236,-0.2466859,-0.3520362
0.6272247,-0.1054434,-0.08003771,-0.5285024,-0.1414812,-0.2445473
0.6111274,-0.09626858,-0.06054371,-0.4660206,-0.1001961,-0.149303
0.7117936,-0.2041346,-0.03488361,-0.3635095,-0.06759627,0.00298529
0.6747758,-0.2270058,-0.02103008,-0.2730998,0.0644781,0.03236439
0.8145314,-0.1981472,-0.01706884,-0.1430427,0.07179796,0.01686483
0.9486386,-0.1812355,-0.02121799,-0.1413709,0.06096562,-0.01577083
1.021148,-0.09707517,-0.02295288,-0.213612,0.08183256,-0.1470238
1.242569,-0.09315665,-0.04320488,-0.4019798,0.073199,-0.1521806
1.442066,-0.1370725,-0.06154817,-0.5689828,0.1279089,-0.06195641
1.653472,-0.1980799,-0.05051817,-0.5301093,0.2254108,0.02220915
1.724436,-0.3526768,-0.03626028,-0.5995903,0.3286435,0.05489549
1.590669,-0.4974876,-0.02425295,-0.8123674,0.344187,-0.03464138
1.417785,-0.5360631,0.03449949,-0.9666907,0.3117599,-0.1807242
1.164819,-0.4936345,0.1065186,-0.9427778,0.35172,-0.295214
1.054441,-0.5203648,0.08508559,-0.7014128,0.419399,-0.1276552
1.129056,-0.5620673,0.04910198,-0.4515005,0.6355773,0.1657929
1.168753,-0.5162174,0.05733471,-0.3490481,0.9671078,0.1772492
1.190668,-0.4579199,0.02566602,-0.5659304,1.064801,0.1410574
1.12796,-0.2868099,0.03364127,-1.004025,0.8537479,0.1407323
0.9818112,-0.07762525,0.09287645,-1.312271,0.6365257,0.04924105
0.9377469,-0.05093924,0.08814214,-1.499445,0.6378198,0.07633998
0.9128273,-0.1398864,0.06419552,-1.495739,0.6510204,0.1655743
0.7504512,-0.2476766,0.04766233,-1.321206,0.5727973,0.2288714
0.6044929,-0.3410318,0.05081672,-1.116886,0.5718688,0.3454143
0.5781852,-0.3923092,0.09769503,-0.7616486,0.5411135,0.4054407
0.5761349,-0.3714268,0.113942,-0.5274602,0.4418373,0.4123031
0.5603103,-0.2985585,0.09866317,-0.567624,0.3771284,0.3905035
0.5333419,-0.2289795,0.07775553,-0.6667361,0.2828697,0.3455504
0.5352858,-0.1819398,0.06887853,-0.8576312,0.2068119,0.3740175
0.5986367,-0.2154005,0.09496189,-0.9967602,0.154525,0.383024
0.7071736,-0.273928,0.1096583,-0.9968919,0.07314964,0.350061
0.8189137,-0.3117736,0.1373967,-0.9303381,0.07356123,0.3014696
0.9024391,-0.3712804,0.1868519,-0.7792452,0.1155785,0.1498048
0.9993773,-0.388363,0.204134,-0.6431232,0.1260707,-0.004539374
1.081278,-0.3951709,0.2043023,-0.4581543,0.173402,-0.08283022
1.123784,-0.3955186,0.2178995,-0.3049903,0.2036836,-0.1259336
1.204161,-0.345163,0.2456196,-0.3386026,0.1778461,-0.166059
1.330615,-0.3103775,0.2459028,-0.336125,0.09024195,-0.1986692
1.441215,-0.2969172,0.2242638,-0.3238321,-0.09930136,-0.07423513
1.484018,-0.4213483,0.1780101,-0.340801,-0.2671905,0.180134
1.493345,-0.597278,0.08216326,-0.1993085,-0.38576,0.3085552
1.399831,-0.5534862,0.02843929,-0.1225466,-0.4427872,0.2191751
1.06796,-0.5320126,0.004430816,-0.3012801,-0.2964486,-0.02330894
0.7741741,-0.6402768,-0.04868591,-0.4329185,-0.188155,-0.3104849
0.7901362,-0.6376311,-0.03546586,-0.2536299,-0.3089886,-0.4592329
0.9448084,-0.5925128,0.007901943,0.05566139,-0.4222307,-0.393453
1.031297,-0.5406579,-0.02385926,0.2652827,-0.4480753,-0.318983
0.9779385,-0.4553273,-0.04150643,0.4311653,-0.4142711,-0.3229386
0.9055394,-0.3832527,-0.01955323,0.463029,-0.3298462,-0.3615362
0.8911229,-0.2598075,-0.02459195,0.3567322,-0.252907,-0.4984846
0.80873,-0.1647901,-0.01120619,0.3118614,-0.1886392,-0.5427168
0.7321545,-0.1410604,-0.01061347,0.1927669,-0.1745144,-0.4603615
0.7036365,-0.115124,-0.03903291,0.003374981,-0.1903844,-0.4475254
0.6348287,-0.1372714,-0.02707328,-0.1195231,-0.1983343,-0.3935899
0.619425,-0.1667026,-0.02149291,-0.1983978,-0.256198,-0.3261187
0.6475949,-0.1839378,-0.0180385,-0.1365095,-0.3088033,-0.2724918
0.6716003,-0.2089814,-0.01179059,-0.05417693,-0.2632846,-0.17086
0.748908,-0.1955079,-0.0279623,-0.02907728,-0.136431,-0.1278332
0.8136044,-0.1918191,-0.01534354,0.02062371,0.06512952,-0.06868791
0.8644381,-0.1590717,-0.004317032,-0.01211692,0.3227922,-0.03499902
0.9605295,-0.06129678,0.003369943,-0.07391735,0.5160088,-0.1418823
1.020094,-0.00469726,0.017924,-0.2050426,0.5153664,-0.2582065
1.053185,-0.0226986,0.01126238,-0.4715388,0.3675018,-0.302655
1.171417,-0.07813995,0.01705017,-0.5982767,0.2447998,-0.2880756
1.346102,-0.1523962,0.01027542,-0.5538641,0.2056064,-0.2625904
1.522886,-0.2630585,-0.001514563,-0.5426047,0.223262,-0.1670277
1.624321,-0.3379313,0.01410238,-0.5851132,0.2340886,-0.04702712
1.558642,-0.3791409,0.04619301,-0.6038305,0.1606241,-0.1083499
1.487967,-0.4848619,0.108389,-0.596611,0.063969,-0.2092799
1.436894,-0.4982591,0.1144243,-0.6007957,0.03184156,-0.1871896
1.204686,-0.4341712,0.02704628,-0.5602205,0.1542277,-0.08694988
0.9923522,-0.4519663,-0.02979597,-0.4657002,0.470632,0.09959328
1.033512,-0.4151635,-0.0005093345,-0.4045928,0.8129872,0.2210769
1.095275,-0.355676,0.04396429,-0.4403581,0.9725523,0.1863309
1.003871,-0.2951507,0.07022416,-0.5684642,0.8229267,0.1773551
0.963416,-0.1616396,0.1237725,-0.7516176,0.5966368,0.2018933
0.9906642,-0.1709593,0.1231552,-0.934709,0.5380365,0.2019118
0.8921405,-0.2329028,0.05398671,-0.976834,0.4569655,0.2526008
0.8003803,-0.2087533,0.04607573,-0.897407,0.4182017,0.299716
0.7681338,-0.2873882,0.04688593,-0.8029641,0.487585,0.3066687
0.708942,-0.3378861,0.06808602,-0.6291914,0.476934,0.3288061
0.674776,-0.3283373,0.1278833,-0.4299057,0.4426643,0.3622367
0.6469379,-0.3565533,0.1108553,-0.263888,0.3320153,0.3991069
0.633744,-0.2629873,0.09826785,-0.1752643,0.1900461,0.4072337
0.5802948,-0.1767227,0.0994199,-0.3396927,0.1743723,0.3868308
0.5527316,-0.155351,0.06801931,-0.6257938,0.1251675,0.3719459
0.641754,-0.1047962,0.08287172,-0.79941,0.02069205,0.3600227
0.6852676,-0.161583,0.1047008,-0.8296879,-0.01806223,0.3487551
0.7794287,-0.257204,0.1383762,-0.6615377,0.01704413,0.3084184
0.9116753,-0.3172045,0.1866626,-0.403372,0.07130443,0.2120945
0.9339905,-0.3378237,0.186758,-0.2494552,0.1189622,0.07990436
0.9514775,-0.2748473,0.1914556,-0.1951884,0.1713695,0.00175911
0.9477797,-0.2446657,0.2115123,-0.2066582,0.2036613,0.009386195
0.9921202,-0.2353232,0.2177688,-0.2955728,0.2354172,0.00753331
1.14391,-0.2318888,0.2164704,-0.4288935,0.1880163,0.02151514
1.358072,-0.3386384,0.1902543,-0.4150787,0.02903303,0.1396108
1.626616,-0.5540599,0.1535111,-0.1448405,-0.2051792,0.3032121
1.700141,-0.7095532,0.1387745,0.05217248,-0.5369174,0.3592763
1.47195,-0.6153151,0.1064788,-0.09588403,-0.7105859,0.2787915
1.155933,-0.5165868,0.03695829,-0.2920245,-0.6516989,0.1943885
0.9640229,-0.5798547,-0.004405326,-0.2496386,-0.4874413,0.06719121
0.9476139,-0.5593271,-0.02013432,-0.1683859,-0.1782351,-0.1473977
0.9744885,-0.5177047,-0.01607105,-0.08113769,-0.09083692,-0.3048862
0.9683699,-0.4934782,0.0219838,0.1596659,-0.369677,-0.3808984
0.9439662,-0.3785777,0.03131876,0.3452017,-0.5767935,-0.3831187
0.9378557,-0.3419089,0.010871,0.4311656,-0.6004996,-0.3659031
0.9440041,-0.3432063,-0.01706409,0.4777017,-0.4605716,-0.426231
0.9301504,-0.2713807,-0.02992388,0.4355783,-0.2862501,-0.4745394
0.9066344,-0.2251897,-0.005220669,0.4181259,-0.2851336,-0.5078468
0.8521787,-0.1765559,-0.001678716,0.3393222,-0.2430658,-0.5611908
0.7809,-0.1520161,-0.01500992,0.1963211,-0.1444761,-0.5853825
0.6713953,-0.166426,-0.02926087,0.1111219,-0.1684178,-0.6077048
0.558058,-0.1408545,-0.04505508,0.008910861,-0.1931635,-0.5617208
0.5720177,-0.157412,-0.02703456,0.001316857,-0.1938361,-0.4593461
0.6173551,-0.1949073,-0.01325331,0.1053214,-0.1844554,-0.4063728
0.639074,-0.1836463,-0.01273421,0.1958607,-0.07550567,-0.3184442
0.7341321,-0.1811207,-0.01007646,0.2606759,0.09695801,-0.1771402
0.8545629,-0.1500584,-0.03003866,0.2344212,0.2481048,-0.07411597
0.9531379,-0.08965806,-0.05232124,0.1203034,0.3862555,-0.05053718
1.006249,-0.06108339,-0.0499715,-0.0597511,0.4728274,-0.07317394
1.006191,-0.06506413,-0.02613872,-0.230839,0.3631273,-0.05468955
0.7472143,-0.1681969,0.2165169,0.1758843,0.3752555,0.121994
0.9058696,-0.2145337,0.2764389,0.3400038,0.2518916,0.01632559
1.110269,-0.2978734,0.337162,0.5994941,0.001103212,-0.122677
1.204478,-0.2941905,0.3343739,0.765819,-0.2409545,-0.1674112
1.316059,-0.2685079,0.2876194,0.7456085,-0.3727254,-0.05537917
1.481173,-0.2627866,0.2322543,0.521069,-0.393068,0.08315615
1.5801,-0.3012497,0.1999569,0.2888733,-0.1826039,0.2173847
1.55087,-0.3763117,0.2033382,0.1947121,0.09662181,0.2849298
1.259575,-0.3615759,0.2589473,0.1282696,0.09294506,0.2629254
0.8131541,-0.4033255,0.338338,0.1536647,-0.3038328,0.1663545
0.6459404,-0.5509215,0.364018,0.3800272,-0.8316494,0.06956185
0.84037,-0.5986609,0.313013,0.6715072,-1.059003,0.05781691
0.9934632,-0.5729508,0.2208788,0.8757793,-1.02854,0.07240536
1.019035,-0.5254629,0.119896,0.9501165,-0.9395245,0.06055893
1.051383,-0.4320922,0.07775078,0.9546967,-0.821725,0.02610916
0.9334058,-0.3194785,0.1159978,0.8988601,-0.9473963,-0.004104643
0.7691724,-0.2517694,0.1129072,0.7753348,-1.202784,-0.02585197
0.7145568,-0.2477193,0.06966936,0.7400139,-1.235836,-0.03237871
0.6532498,-0.2190043,0.05105181,0.7615227,-1.233748,-0.01101091
0.6348173,-0.181875,0.009562129,0.7229557,-1.190201,0.02271166
0.6443478,-0.1712282,-0.01246402,0.7296241,-0.9929501,0.08894324
0.6430999,-0.150022,-0.0174269,0.7381607,-0.773738,0.1493783
0.6511409,-0.1392388,-0.03831699,0.7147266,-0.5531956,0.1679016
0.640861,-0.156672,-0.01751087,0.7226402,-0.5164308,0.1486277
0.6870961,-0.193446,-0.007464896,0.6982495,-0.6000667,0.06353264
0.7699664,-0.2078419,-0.03390449,0.6792584,-0.562102,-0.05855765
0.8844647,-0.2063953,-0.06556964,0.6352422,-0.5713159,-0.1409608
1.042469,-0.2229661,-0.1169326,0.537923,-0.6258033,-0.1348713
1.236273,-0.2489025,-0.1609161,0.5083136,-0.6318532,-0.1352695
1.533424,-0.3188282,-0.1867487,0.492735,-0.5515915,-0.1712184
1.759735,-0.4090638,-0.1730959,0.4328784,-0.2485187,-0.1253457
1.781319,-0.4973252,-0.0841074,0.3039405,0.1239705,-0.0287773
1.656719,-0.5775798,0.04100445,0.09437214,0.2919781,0.05197303
1.429756,-0.5785889,0.09895011,-0.0003480777,0.2063705,0.02553927
1.225671,-0.5667229,0.06849474,0.1048631,0.1037496,-0.09898387
1.133753,-0.5768137,0.07466424,0.3336917,0.08793809,-0.229152
1.171041,-0.502156,0.1119161,0.6598112,0.07588921,-0.4820866
1.199583,-0.3254826,0.1051628,0.7665132,0.2792889,-0.6283388
1.15354,-0.09561442,0.09179146,0.3476001,0.579315,-0.444176
1.175111,0.0535739,0.06708057,-0.2409072,0.6953943,-0.2848321
1.152121,0.01445171,0.06122963,-0.6945522,0.8683324,-0.1875709
0.9905896,-0.1530848,0.07485378,-1.005787,1.114875,-0.01792413
0.8170954,-0.327909,0.05391255,-1.02164,1.233693,0.09430651
0.7097929,-0.348586,0.0706159,-0.8466928,1.213786,0.1468953
0.5863313,-0.2743241,0.1267245,-0.6045985,1.110756,0.1269574
0.3622783,-0.2879929,0.1637512,-0.3104131,0.9852887,0.08999011
0.3559277,-0.2682927,0.1654781,-0.1733216,0.7587817,0.1226644
0.4906884,-0.1904431,0.1422462,-0.1727568,0.5252447,0.1133065
0.4033777,-0.1634306,0.1624537,-0.1803245,0.3746903,0.07830364
0.4440436,-0.1407097,0.1714884,-0.1672821,0.1936026,0.04563438
0.5912526,-0.1647504,0.1541044,-0.1138874,0.150435,-0.01002395
0.6695732,-0.1811829,0.174915,-0.07704547,0.2409459,0.01035611
0.8694704,-0.1463787,0.1720671,-0.05603707,0.22799,0.01729774
0.9515512,-0.1674443,0.1714932,-0.006769913,0.1447425,-0.1019342
1.053818,-0.1854615,0.1904312,0.1003287,0.02861987,-0.2155337
1.253826,-0.2185201,0.193631,0.1566151,-0.1015906,-0.2144559
1.301193,-0.2870934,0.2216975,0.08952463,-0.2751093,-0.07873601
1.496153,-0.3807085,0.2291183,0.100715,-0.3504402,0.08010586
1.664332,-0.5591059,0.2119649,0.2343925,-0.02394522,0.1312152
1.566053,-0.6169089,0.2248958,0.319164,0.2537007,0.1279059
1.301701,-0.5058817,0.27445,0.2361306,-0.03683991,0.1118396
0.8262935,-0.4625899,0.3318525,0.1377153,-0.5318817,0.09178692
0.6862738,-0.5393467,0.3074213,0.3068091,-0.8705978,0.1048712
0.9411159,-0.6407937,0.2341521,0.613861,-0.981326,0.1179693
1.019,-0.6577912,0.1648226,0.9113734,-0.8907163,0.1013613
1.04214,-0.6092118,0.07975147,1.175991,-0.8563152,0.07656319
1.04389,-0.5142603,0.06333971,1.228432,-0.890387,0.06068222
0.9295497,-0.357043,0.09372847,1.165127,-0.9374872,0.06425453
0.8483389,-0.2381303,0.0768747,1.10306,-1.117252,0.07866498
0.7447169,-0.1846612,0.04710657,0.985512,-1.194434,0.06833209
0.6560975,-0.1505492,0.008800752,0.871022,-1.141254,0.04688551
0.6293704,-0.1175711,-0.01532127,0.7568117,-1.15712,0.03412114
0.5967467,-0.09829025,-0.007816354,0.6443866,-1.076209,0.03859132
0.6018042,-0.1027664,-0.030555,0.5684793,-0.9351068,0.1124545
0.6139202,-0.1361784,-0.04797524,0.556506,-0.7636188,0.1805707
0.660244,-0.2198316,-0.04083725,0.6254171,-0.5682041,0.1414051
0.7835026,-0.2768885,-0.05662162,0.7202129,-0.5104773,0.04472545
0.8729098,-0.2732546,-0.08128055,0.8118244,-0.4004495,-0.1006401
0.9299131,-0.2292817,-0.1085006,0.8030417,-0.2584158,-0.2436227
0.9969929,-0.1156388,-0.1176283,0.6557028,-0.2264084,-0.2448
1.049171,-0.03445624,-0.113228,0.4052361,-0.2551547,-0.1966991
1.078661,-0.06437244,-0.1275385,0.09765777,-0.3803644,-0.224588
1.160168,-0.1194541,-0.128544,-0.06263883,-0.4398765,-0.2022691
1.382685,-0.2257748,-0.1300762,-0.05799911,-0.3696258,-0.1037396
1.648669,-0.4671078,-0.1263862,0.02855581,-0.1100834,0.007822605
1.779233,-0.6235819,-0.06481648,0.1406613,0.2555334,0.1058532
1.654077,-0.559917,0.01725849,0.1043269,0.2610121,0.08667692
1.402098,-0.5388201,0.06846356,0.06926798,0.1375664,0.04518386
1.220027,-0.568628,0.06974219,0.1796989,0.1922679,-0.005205752
1.089356,-0.5348642,0.05909396,0.2623856,0.1588633,-0.2315583
1.116891,-0.5169558,0.0735681,0.3265772,0.2172375,-0.4321408
1.199043,-0.4141129,0.07294356,0.3319487,0.537239,-0.4359795
1.13704,-0.229907,0.06154954,0.1485526,0.8361443,-0.3521488
1.096083,-0.1149563,0.0543762,-0.1291488,0.9627016,-0.2604092
0.995817,-0.08849262,0.05223422,-0.3836511,0.9516528,-0.1991255
0.8637902,-0.1614046,0.06604888,-0.5205822,0.9686165,-0.1296217
0.8081789,-0.2495316,0.07950482,-0.5346015,1.04631,-0.05980812
0.6517932,-0.2768612,0.09865979,-0.4734417,1.054096,-0.03271993
0.5866955,-0.2653128,0.1005758,-0.2804945,1.044473,-0.02167905
0.6054812,-0.2204792,0.09762607,-0.04114186,1.031371,0.009332916
0.5338231,-0.1775161,0.1331265,0.02169128,0.9744356,0.08942812
0.5318071,-0.1552348,0.1535482,-0.08442697,0.8630678,0.1540057
0.533197,-0.1677562,0.1685848,-0.1254386,0.6313377,0.1632149
0.5524425,-0.2105997,0.1958949,-0.09118774,0.38206,0.1425692
0.64314,-0.2501761,0.1887499,-0.05418253,0.2120771,0.06803221
0.7027302,-0.2718584,0.1801095,0.1259693,0.08324341,-0.02160059
0.7704484,-0.249885,0.1862513,0.3495414,-0.01988412,-0.04257221
0.8406429,-0.2181588,0.2018952,0.4851969,-0.09943458,-0.005154445
0.9304086,-0.1804356,0.2289158,0.5754471,-0.1622527,0.03681665
0.9898986,-0.147661,0.2275705,0.5547688,-0.2318739,0.1443645
1.078496,-0.2081465,0.2144171,0.5516125,-0.2462296,0.283774
1.348371,-0.2920299,0.2102434,0.6401761,-0.2527887,0.2789794
1.509805,-0.3687665,0.1927615,0.7007476,-0.3485325,0.224451
1.579492,-0.4871333,0.1837533,0.7714141,-0.3351292,0.2163201
1.706732,-0.506795,0.2110075,0.7910005,-0.05046277,0.1855429
1.456275,-0.3780985,0.2949526,0.6539325,0.197915,0.1934776
0.9542248,-0.2935515,0.3999553,0.4183977,-0.1224808,0.2286749
0.71556,-0.4033539,0.4149569,0.2949322,-0.6898154,0.2325103
0.7039895,-0.573143,0.3630715,0.5072365,-0.8795524,0.2017276
0.8429377,-0.6204251,0.2950812,0.9041893,-1.060954,0.1344954
1.009755,-0.6111612,0.1571309,1.249324,-1.241927,0.1151178
1.044109,-0.5623282,0.06126456,1.522746,-1.102154,0.1035222
1.019479,-0.4417185,0.08569516,1.664126,-1.075713,0.0215934
0.9482603,-0.3216854,0.08872096,1.660076,-1.174497,-0.03886844
0.8486198,-0.2122175,0.0579358,1.561117,-1.197957,-0.04413286
0.7691698,-0.1536507,0.03563874,1.406163,-1.251947,-0.03627313
0.7085115,-0.1505091,0.006560694,1.256625,-1.234258,-0.05011763
0.6501457,-0.1354095,0.002571635,1.110911,-1.227794,-0.1043489
0.581773,-0.1386614,-0.003703759,1.032219,-1.300875,-0.1480714
0.6062715,-0.1723065,-0.01942796,1.055895,-1.318773,-0.1417385
0.6800403,-0.2322087,-0.03580685,1.144255,-1.272163,-0.1413178
0.7165315,-0.2774044,-0.1007684,1.335091,-1.173205,-0.1847487
0.7952579,-0.24195,-0.1594435,1.480049,-1.076293,-0.2039477
0.909225,-0.1786866,-0.1802432,1.450451,-0.9149207,-0.2027369
1.0198,-0.09473391,-0.2056066,1.306203,-0.5908489,-0.2175877
1.039048,-0.01693693,-0.2041013,1.040463,-0.3188462,-0.2068107
0.992691,-0.02950873,-0.1764297,0.7809021,-0.2399578,-0.2071372
1.020873,-0.05101208,-0.1449164,0.6403925,-0.1920029,-0.2139866
1.022561,-0.05772233,-0.1282114,0.5944295,-0.1350892,-0.1919042
1.014337,-0.1343609,-0.1554088,0.6569062,-0.173023,-0.1888997
1.104,-0.2445167,-0.1816259,0.7544599,-0.266045,-0.1834582
1.248941,-0.321605,-0.1928499,0.9026514,-0.3615154,-0.1779949
1.451598,-0.335388,-0.1845658,1.059762,-0.3969986,-0.1726864
1.601095,-0.288619,-0.1238901,0.9854054,-0.2999891,-0.102272
1.619683,-0.2496384,-0.06207465,0.6082293,-0.108518,0.08919839
1.568268,-0.3160141,0.005746436,0.09406402,0.153636,0.3682919
1.445033,-0.4920366,0.1441156,-0.1074979,0.3427208,0.4287232
1.272931,-0.6138946,0.2506858,0.02006182,0.373504,0.2026572
1.136993,-0.5479352,0.2145631,0.001330773,0.2996252,-0.002358604
1.127196,-0.3728505,0.1702425,-0.03004124,0.1869107,-0.09916073
1.123212,-0.2662185,0.1709792,-0.07950151,0.4060647,-0.02381151
1.064763,-0.2821064,0.123741,-0.2910969,0.7627456,0.09771843
1.093734,-0.3174165,0.1338872,-0.2621902,0.7549251,0.01550089
1.061483,-0.3003388,0.1651911,-0.156736,0.7676371,-0.01824354
0.9799769,-0.299129,0.1056588,-0.1636696,0.8434476,0.01688065
0.9638915,-0.3568592,0.09359692,-0.06685557,0.8001037,-0.02448277
0.8231349,-0.3988889,0.1046969,0.04499624,0.8416594,0.04401642
0.696563,-0.4065746,0.08347353,0.3179947,0.6963823,0.08185014
0.7017524,-0.3692028,0.06592864,0.6766986,0.4942094,0.03369603
0.7032989,-0.3002161,0.01982985,0.7859953,0.5890927,0.04114333
0.7180237,-0.2623574,0.02056117,0.7921553,0.6639014,0.01798397
0.714566,-0.1587525,0.07452521,0.7145509,0.6522109,0.03073933
0.7159266,-0.02167531,0.1206413,0.4747306,0.6489331,0.1063171
0.7157371,0.01093403,0.1475096,0.2272043,0.5340624,0.2033204
0.6928297,0.006772511,0.1534114,0.1461165,0.3877903,0.2905053
0.7381803,-0.03162169,0.1808834,0.2326552,0.359383,0.2850834
0.7858798,-0.1041095,0.1968741,0.2701012,0.3791671,0.2801938
0.8053417,-0.1026438,0.2220125,0.2642796,0.2829151,0.2254586
0.8090495,-0.05825819,0.265141,0.2936942,0.06165585,0.0745792
0.8219606,-0.0603966,0.2531416,0.2935782,-0.1264742,-0.0007481154
0.9122074,-0.1019939,0.2682608,0.3935693,-0.1615316,-0.01167177
1.034195,-0.1905035,0.3203094,0.6160341,-0.1696947,-0.02591163
1.240837,-0.3167612,0.3578088,0.7233509,-0.2001352,0.01675461
1.504255,-0.3936336,0.3940242,0.6406928,-0.1203003,0.1746809
1.68591,-0.4423644,0.3647305,0.5446203,-0.03025375,0.3232748
1.75311,-0.4769853,0.2934524,0.5299985,0.1086275,0.3684425
1.563942,-0.4433847,0.2687271,0.492909,0.2879307,0.4446948
1.155712,-0.420113,0.3252885,0.4922971,0.06922494,0.5036007
0.8132933,-0.461358,0.3975915,0.5970201,-0.3955659,0.4044453
0.7037246,-0.4996737,0.3592985,0.7313385,-0.7031341,0.2376285
0.8164888,-0.4932901,0.2917457,0.9052126,-0.9691807,0.1304767
0.9344005,-0.4747495,0.2402233,0.992827,-1.052702,0.06091061
0.9905984,-0.4473186,0.1314641,1.0099,-0.9478806,-0.03459316
1.033949,-0.3731879,0.07738709,1.058389,-0.9749439,-0.1078419
0.9651511,-0.2583144,0.07654771,0.8952947,-0.9955429,-0.119985
0.887908,-0.1327275,0.0510121,0.5605265,-1.01191,-0.06819632
0.8252503,-0.0899412,0.0470126,0.3097373,-1.124759,-9.525939e-05
0.7018352,-0.142413,0.02046594,0.2664871,-1.116384,0.00476682
0.6315887,-0.1827053,0.008271736,0.3844753,-1.089298,0.0138361
0.5414777,-0.2212716,0.0252125,0.4062353,-1.11953,0.07423629
0.5105409,-0.2490925,-0.01143829,0.4910444,-1.044023,0.1404582
0.6308094,-0.230353,-0.03419107,0.6903689,-0.8802456,0.1533289
0.6811304,-0.2276515,-0.05726695,0.7066043,-0.6487727,0.06434603
0.7284206,-0.2128417,-0.07946895,0.6710371,-0.4924035,-0.05271067
0.8350051,-0.1635722,-0.07160907,0.6169794,-0.4241851,-0.109677
0.9307571,-0.1384294,-0.1103592,0.4567202,-0.2282043,-0.1137637
1.029796,-0.1167613,-0.09540983,0.2563032,-0.1241876,-0.1454416
1.083759,-0.1067693,-0.05668048,0.01798437,-0.2233428,-0.2199873
1.161889,-0.142838,-0.1032761,-0.1319905,-0.26841,-0.2567754
1.295443,-0.2138928,-0.1115794,-0.188807,-0.3219577,-0.2491709
1.523285,-0.3551521,-0.1021243,-0.2056869,-0.3295359,-0.156194
1.790365,-0.5283675,-0.09282936,-0.1242455,-0.07659824,0.01036199
1.805595,-0.5861327,-0.01125696,-0.09538671,0.2232165,0.08211166
1.600323,-0.4952629,0.06768991,-0.3060042,0.3396873,0.08109412
1.3464,-0.4342416,0.08707303,-0.5757513,0.3508517,0.09839266
1.141281,-0.5275841,0.07007912,-0.5520818,0.4078706,0.04143047
1.052595,-0.5859231,0.08561438,-0.3457711,0.4554093,-0.1258767
1.03727,-0.4783302,0.134328,-0.1942559,0.448176,-0.3161284
1.111584,-0.3118357,0.1527452,-0.1239015,0.5969434,-0.396931
1.144318,-0.133465,0.1134439,-0.3384561,0.835687,-0.311983
1.060746,-0.04059733,0.03342456,-0.7285084,1.015019,-0.2329848
0.9774204,-0.09610725,0.02896122,-0.9887455,1.165697,-0.2246796
0.8573457,-0.1745023,0.06330492,-1.121012,1.199378,-0.1449589
0.6968556,-0.2565764,0.05850271,-1.04682,1.206947,-0.05499747
0.5667433,-0.3054193,0.09644206,-0.810212,1.189362,-0.05515702
0.5475981,-0.2543659,0.1201086,-0.5236523,1.084458,-0.06864107
0.5792698,-0.2112009,0.1185407,-0.2858766,1.075677,-0.04508397
0.5302983,-0.1496319,0.1414933,-0.3271044,1.044152,0.02055586
0.5234151,-0.0500238,0.1538406,-0.4616309,0.9188433,0.1131201
0.5662036,-0.04834647,0.2006304,-0.5908493,0.790298,0.1954137
0.6025098,-0.09387498,0.2323304,-0.8083451,0.568907,0.235768
0.7044186,-0.1640467,0.2307518,-0.8200629,0.3740064,0.2462997
0.8107306,-0.2606308,0.2611578,-0.6700186,0.2867444,0.2416589
0.8977067,-0.2583293,0.258756,-0.5143541,0.1997738,0.1714067
0.9776991,-0.2294853,0.2465276,-0.3201598,0.1122097,0.06829966
1.061568,-0.2227425,0.260716,-0.2649982,0.08342752,0.03216432
1.227216,-0.1847286,0.2642935,-0.2358974,0.1216543,0.09651547
1.422227,-0.2328893,0.2939077,-0.1946191,0.1279325,0.2216395
1.535829,-0.3988847,0.3303292,-0.3665514,0.1215228,0.3720995
1.584298,-0.6114236,0.3160781,-0.4733397,0.1481839,0.4562699
1.578112,-0.7298373,0.2528644,-0.2173871,0.1688729,0.229514
1.443148,-0.5549865,0.1954767,0.02053386,0.2224569,-0.08791144
1.230154,-0.3686627,0.222772,-0.1525066,0.1684469,-0.06352242
0.948663,-0.4648879,0.2989091,-0.3537144,-0.1696597,0.002328335
0.6415588,-0.4946937,0.3335449,-0.2832062,-0.6531771,-0.02434396
0.709503,-0.4305767,0.2951271,-0.1646869,-0.9160581,0.0821936
1.028932,-0.5321833,0.15789,0.07059733,-0.8289096,0.08697068
1.074901,-0.574084,0.03555723,0.3407276,-0.7407614,0.01336332
1.004091,-0.5121374,0.08599567,0.4812347,-0.7574305,0.003860526
0.914026,-0.456198,0.1600054,0.6477408,-0.8535071,-0.09701572
0.743218,-0.3319918,0.1222288,0.6636618,-1.085414,-0.1112827
0.6949489,-0.2284077,0.09337167,0.5107827,-1.117063,-0.04019918
0.6587819,-0.1568077,0.0620439,0.3362748,-1.022181,-0.06981845
0.6158178,-0.09748421,0.00789169,0.09894165,-1.025061,-0.04787495
0.6195847,-0.1096358,0.01263556,0.03409119,-0.8886942,-0.01278266
0.5758915,-0.147927,0.006804849,0.1260388,-0.741779,-0.01664862
0.617023,-0.2059186,-0.0151805,0.2266249,-0.6229722,-0.001164981
0.682278,-0.2355849,-0.03426838,0.3858644,-0.4551737,-0.02719613
0.7664988,-0.2078147,-0.09346686,0.4272165,-0.4035235,-0.05319833
0.9357423,-0.1899439,-0.1073532,0.3508421,-0.2827527,-0.1512834
1.016182,-0.1596582,-0.1006365,0.2511662,-0.1250491,-0.3298579
1.036589,-0.08948723,-0.1093624,0.03025237,-0.1633603,-0.3841738
1.03713,-0.01955452,-0.08326731,-0.2057523,-0.2577029,-0.3241323
1.084405,-0.02325076,-0.09275447,-0.3397749,-0.3018878,-0.247193
1.208864,-0.1260802,-0.1208604,-0.4680087,-0.2854144,-0.1675794
1.304842,-0.2718049,-0.1377522,-0.5155881,-0.2685242,-0.05511275
1.497432,-0.415265,-0.1517697,-0.3682149,-0.2174208,0.06872171
1.750669,-0.4925908,-0.1085177,-0.2918307,0.07473325,0.1416162
1.802337,-0.4498802,-0.04856759,-0.4723788,0.4139076,0.1926495
1.574719,-0.4147768,0.02369928,-0.7039305,0.4279252,0.2091882
1.257866,-0.5339232,0.09970821,-0.7394407,0.3362652,0.1449628
1.040786,-0.6492976,0.1012877,-0.5245994,0.3326528,-0.03966294
0.9573293,-0.6183856,0.08851921,-0.226248,0.2351693,-0.259031
1.082936,-0.5400775,0.1176003,-0.05891247,0.4157386,-0.3364807
1.195692,-0.4157486,0.1316566,-0.1387017,0.8521423,-0.3114011
1.111182,-0.2625652,0.09131843,-0.3497046,0.9148908,-0.2782556
1.0644,-0.1850356,0.04264468,-0.5600803,0.929457,-0.2707061
1.024249,-0.1775672,0.04634017,-0.729732,1.081551,-0.2161202
0.9077308,-0.2274946,0.07142884,-0.7063817,1.157807,-0.07665403
0.7832852,-0.286282,0.08435976,-0.6069754,1.266674,-0.001208453
0.6360382,-0.2853055,0.1063566,-0.5016252,1.168336,0.03602404
0.5710486,-0.2513037,0.143498,-0.2828153,0.9856507,0.07917812
0.5633455,-0.2076807,0.1654275,-0.2243755,0.8799241,0.1097281
0.515524,-0.1509438,0.1502386,-0.3044168,0.6528733,0.1372184
0.5153572,-0.1046978,0.131791,-0.3302854,0.5218339,0.09789682
0.5434299,-0.1021636,0.1309135,-0.3975836,0.4232994,0.08597631
0.5724226,-0.1468861,0.1451171,-0.3604883,0.3121946,0.1205433
0.6379317,-0.2113843,0.1824464,-0.2047623,0.3308564,0.1348425
0.685944,-0.2457972,0.2082445,-0.05757825,0.279959,0.1823759
0.7528737,-0.2392476,0.2214413,0.1019216,0.2373067,0.2484271
0.8866057,-0.251168,0.2418118,0.1808656,0.2539148,0.3634504
1.013197,-0.2653394,0.2250949,0.2012825,0.1812629,0.4451108
1.13773,-0.2215793,0.1949336,0.1994802,-0.003443838,0.3472401
1.340773,-0.1931354,0.1999861,0.1275904,-0.2114178,0.2610139
1.5719,-0.2744501,0.2088447,0.07526692,-0.1494621,0.3716332
1.726104,-0.4089479,0.2124946,0.06828163,0.08720605,0.526487
1.744639,-0.4931504,0.2344661,0.03527369,0.185906,0.5877143
1.47869,-0.5405506,0.2727864,-0.01073796,0.1873687,0.5969242
1.020385,-0.5930385,0.3272201,0.06209427,0.08005763,0.5172435
0.7070322,-0.6106486,0.4179074,0.2529506,-0.2077488,0.339189
0.5705397,-0.606105,0.4564368,0.4785402,-0.7330723,0.1469658
0.6142528,-0.6299051,0.3632149,0.8558221,-1.318635,0.05620128
0.8025407,-0.6282042,0.2306991,1.288352,-1.529922,0.1538232
0.9458079,-0.5983339,0.1015532,1.594352,-1.451993,0.2085114
1.058975,-0.5673208,0.05929578,1.83287,-1.32257,0.1323452
1.068489,-0.4749986,0.1173679,1.879457,-1.152599,0.08543739
1.003998,-0.3819792,0.09334633,1.701619,-1.099057,0.007222519
0.9869216,-0.2926825,0.07099047,1.449494,-1.075104,-0.02668751
0.8937971,-0.146651,0.08537567,1.114893,-0.9435885,0.004525565
0.8360349,-0.1520981,0.03647009,0.854347,-0.8588014,-0.05342226
0.7353062,-0.2907366,0.03429507,0.8542981,-0.8853906,-0.1093626
0.5053017,-0.3365414,0.02697439,1.026424,-1.017503,-0.1540034
0.5386692,-0.3728828,0.001519784,1.274061,-1.197624,-0.2184862
0.6558409,-0.3783199,0.008387073,1.607215,-1.296841,-0.2326121
0.6510978,-0.3408776,-0.05122417,1.947718,-1.307115,-0.2464942
0.7753379,-0.3473025,-0.08007003,2.095443,-1.323979,-0.2583321
0.8516737,-0.1916046,-0.09577286,1.995052,-1.311195,-0.2418816
0.8925615,0.04593374,-0.1954191,1.713246,-1.110176,-0.2118145
1.001334,0.08529769,-0.2310313,1.251546,-0.6974826,-0.182653
0.96881,0.03528948,-0.1842458,0.7864153,-0.3074588,-0.2279565
0.9893797,0.0211253,-0.139041,0.6129691,-0.254333,-0.3118068
1.058398,-0.00401402,-0.1165342,0.5806172,-0.3399599,-0.3471705
1.016244,-0.06524031,-0.12112,0.4774611,-0.2816259,-0.3491347
1.106535,-0.08590444,-0.123273,0.4756921,-0.3056738,-0.3228504
1.26089,-0.1388299,-0.1123513,0.5082936,-0.3316215,-0.2643872
1.44335,-0.3030042,-0.0925259,0.4658556,-0.2282303,-0.1402388
1.686647,-0.3950528,-0.04648734,0.372765,-0.1423218,0.08821957
1.732068,-0.4274517,0.05019838,0.05315888,0.08452849,0.3122183
1.657717,-0.4333733,0.1353806,-0.3598736,0.4151591,0.4130599
1.514628,-0.3996129,0.1588578,-0.5639808,0.571227,0.397791
1.240752,-0.4661703,0.1632593,-0.4993406,0.4707142,0.252743
1.084119,-0.5283084,0.1510807,-0.3005094,0.3597006,-0.01451432
1.126204,-0.5279844,0.1428558,-0.1925379,0.5439853,-0.2260733
1.15123,-0.4757585,0.1356301,-0.2148832,0.7601796,-0.2473642
1.057614,-0.3155137,0.1035403,-0.3981391,0.8441669,-0.1911891
0.9844505,-0.2226554,0.09286841,-0.6262945,0.8531772,-0.1875106
0.9491527,-0.2435762,0.104067,-0.7039633,0.7988912,-0.2007694
0.9054386,-0.3234085,0.1200223,-0.7022509,0.9511168,-0.1791656
0.8227921,-0.4186901,0.1196194,-0.5729054,1.065403,-0.1193564
0.6388602,-0.402918,0.1095484,-0.2912958,0.9350174,-0.05282859
0.5638635,-0.3386588,0.1242555,-0.007559238,0.8451866,-0.05099364
0.5532654,-0.2614493,0.1174584,0.0907736,0.7290023,-0.06671327
0.4779675,-0.1523156,0.1055841,-0.08085911,0.6601446,-0.02314593
0.5290445,-0.08612477,0.1074341,-0.3291564,0.6779346,0.02151344
0.563656,-0.03648913,0.1064174,-0.573477,0.6034358,0.0795099
