accx,accy,accz,gyrox,gyroy,gyroz
0.5092677,-0.05867439,-0.1622741,0.121655,0.1411319,0.308
0.474736,-0.08504164,-0.1303166,0.1425193,0.08509076,0.3125455
0.5049951,-0.1188832,-0.09756404,0.1683526,-0.1184049,0.3229409
0.5524191,-0.1463672,-0.08511354,0.2600796,-0.4144461,0.3645857
0.6903916,-0.1834345,-0.09334429,0.3223161,-0.6830174,0.3505608
0.9564754,-0.2390924,-0.1172043,0.3374567,-0.7693395,0.2956034
1.123715,-0.2432765,-0.1542172,0.3401278,-0.7061358,0.2021205
1.328042,-0.1899272,-0.2345325,0.3088963,-0.5322454,0.1296479
1.682787,-0.1325807,-0.3573913,0.2978575,-0.3400532,0.101043
1.698585,-0.09228773,-0.4055421,0.3249109,-0.3372798,0.0657083
1.478407,-0.1547676,-0.4316274,0.3484543,-0.3725832,0.09453984
1.537988,-0.3477087,-0.5575874,0.3179391,-0.1239893,0.08223231
1.539805,-0.4776216,-0.6089489,0.1805506,0.308502,-0.1446393
1.340178,-0.3857007,-0.5409596,-0.05664227,0.5612123,-0.4315102
1.093251,-0.1885101,-0.5155601,-0.2846015,0.4838209,-0.5083833
0.7913853,-0.1042528,-0.4861436,-0.3570136,0.2959576,-0.419533
0.7913386,-0.1373698,-0.4674641,-0.3318651,0.1738648,-0.4181812
0.8197191,-0.1618288,-0.489604,-0.3529728,-0.007719735,-0.4426121
0.7082109,-0.1760324,-0.4350379,-0.3594551,-0.1001634,-0.4567
0.8854623,-0.2168443,-0.3986732,-0.3094476,0.02762355,-0.5663043
0.9526364,-0.2266676,-0.4188748,-0.230051,0.1755698,-0.5772425
0.9122118,-0.171488,-0.4137373,-0.07133244,0.3795087,-0.5373688
0.98635,-0.1350922,-0.4343164,0.08544644,0.4648501,-0.5774425
0.8811,-0.1251864,-0.4081128,0.1069104,0.3117652,-0.5493667
0.8353899,-0.100198,-0.3346759,0.04466178,0.1889332,-0.5367548
0.8017083,-0.07982273,-0.3002589,-0.01549092,0.0179988,-0.5372961
0.7140698,-0.03374598,-0.2744584,-0.03902153,-0.1192304,-0.4627704
0.7515721,-0.01880325,-0.2860335,-0.009852714,-0.08320334,-0.3851029
0.7036929,-0.0477445,-0.2880906,0.04557547,-0.07115184,-0.2887576
0.6907728,-0.05081267,-0.255391,0.1065586,-0.005864933,-0.2546095
0.7000837,-0.07450213,-0.2347001,0.1693331,0.1366943,-0.278032
0.6331398,-0.057002,-0.1914652,0.2133418,0.1797886,-0.2541402
0.6428222,0.02312664,-0.1679234,0.219223,0.05969765,-0.2083663
0.6304201,0.1083632,-0.1703305,0.1888998,-0.2126611,-0.1005
0.6848005,0.2048584,-0.1910582,0.1057425,-0.5219017,0.01058232
0.8257938,0.2176499,-0.2576137,-0.02792108,-0.7352892,0.05420191
0.9525742,0.1621521,-0.2979917,-0.0915599,-0.7409803,0.1184193
1.106861,0.09892787,-0.313614,-0.01949297,-0.5867852,0.180285
1.226018,-0.02640238,-0.3473682,0.08750165,-0.4243055,0.1726983
1.363888,-0.1466721,-0.4156838,0.1475751,-0.3164961,0.1411514
1.418437,-0.1519006,-0.5205379,0.09832571,-0.322146,0.1231435
1.350095,-0.09321008,-0.6042834,-0.05382998,-0.3461719,0.08614855
1.348034,-0.0997895,-0.6574261,-0.1290321,-0.2422672,0.0768528
1.266949,-0.157594,-0.6494582,-0.04547178,0.05275602,0.1422457
1.101095,-0.2178415,-0.5922034,0.091631,0.3661986,0.2017656
1.017639,-0.270077,-0.5685143,0.1572228,0.2515368,0.2187988
1.002737,-0.2566276,-0.5367834,0.1026319,0.02597712,0.2114929
1.065941,-0.234223,-0.508693,0.02417893,0.1905486,0.2299736
1.108103,-0.2307446,-0.5051106,-0.005709053,0.3707479,0.2670743
1.082331,-0.2205858,-0.4445985,0.01607442,0.4859585,0.2490084
1.058471,-0.2300879,-0.3620765,0.08156091,0.4370457,0.2391121
1.017554,-0.1972847,-0.3180718,0.1414748,0.01947968,0.2577166
0.9995269,-0.165634,-0.3359887,0.2382571,-0.1445969,0.2658877
0.9856271,-0.1856314,-0.3860541,0.3453258,0.08959416,0.281852
0.8980991,-0.1810934,-0.3837217,0.3572409,0.4802766,0.2461345
0.7583536,-0.1634501,-0.3378776,0.3522163,0.8302119,0.1883562
0.6079871,-0.1321773,-0.2577436,0.3524645,0.6798649,0.1965268
0.55051,-0.0972332,-0.2070956,0.2904635,0.3820519,0.2155341
0.5774912,-0.08713655,-0.2252395,0.1966867,0.1807493,0.234565
0.5551621,-0.0589091,-0.1997469,0.1065934,-0.09721571,0.3108498
0.5338316,-0.02203563,-0.1680094,0.05876861,-0.1479931,0.4176889
0.5608949,-0.028369,-0.1751308,0.05571635,-0.1671135,0.5056785
0.6077184,-0.08775718,-0.1587746,0.07485179,-0.3259675,0.5545847
0.7168562,-0.1589997,-0.1412973,0.1292098,-0.4062825,0.5442726
0.8080102,-0.208014,-0.1398547,0.1753044,-0.5256545,0.4803879
0.8548955,-0.2262571,-0.1677601,0.2012428,-0.6303654,0.3665304
1.022201,-0.2533659,-0.2036294,0.2692591,-0.6249228,0.2136013
1.254864,-0.2885264,-0.2186822,0.3709446,-0.52348,0.08630065
1.403307,-0.2431613,-0.2636132,0.4428579,-0.4115644,0.005804453
1.465593,-0.1981217,-0.3707674,0.4535757,-0.5720775,-0.01923442
1.416655,-0.2259907,-0.5172355,0.4298796,-0.7204582,0.008580237
1.366837,-0.3029121,-0.6059418,0.3925113,-0.4085348,-0.04108214
1.397999,-0.4434457,-0.6113045,0.2804986,0.1556261,-0.2767727
1.314436,-0.4672195,-0.5952483,0.05784943,0.6601387,-0.6204975
1.104539,-0.3447194,-0.5603956,-0.1706729,0.7554187,-0.7903636
0.893519,-0.2593593,-0.5387994,-0.3020552,0.3663932,-0.702249
0.7420002,-0.2029132,-0.5413289,-0.3479405,0.07935291,-0.6545376
0.7654365,-0.1924917,-0.5265358,-0.3314198,0.1160984,-0.651859
0.8776822,-0.2105806,-0.4822665,-0.2667785,0.2389709,-0.5969706
0.9448197,-0.1915687,-0.4367241,-0.1925413,0.3780561,-0.6161478
0.9509731,-0.1721113,-0.4333594,-0.1565168,0.4158367,-0.5940464
0.8909335,-0.1341716,-0.4282616,-0.1293383,0.2519579,-0.5365932
0.8600241,-0.1096511,-0.4108189,-0.06680593,0.01833786,-0.5274747
0.8327141,-0.1152976,-0.4124762,-0.06654997,-0.05383202,-0.4802121
0.780438,-0.104242,-0.3824123,-0.08243579,0.02325863,-0.4551165
0.7568335,-0.1026639,-0.3436576,-0.02485229,0.06470253,-0.3697085
0.6883858,-0.09748424,-0.3358779,-0.02781782,0.1086265,-0.2419214
0.6237069,-0.08367608,-0.3191859,-0.03692762,0.1263662,-0.213872
0.6091148,-0.07121529,-0.2822428,0.02182187,0.04125883,-0.1904437
0.6052356,-0.03960061,-0.2348128,0.06471523,-0.01966278,-0.1972432
0.6258933,-0.008629239,-0.2039011,0.1125328,-0.06647485,-0.1784306
0.6335208,0.02116048,-0.1951897,0.1207825,-0.1834297,-0.07972893
0.6728592,0.05675461,-0.1947936,0.1296003,-0.3357799,-0.007542752
0.7544562,0.1002697,-0.2429666,0.1673949,-0.4773227,0.06624891
0.8343358,0.1294781,-0.3355003,0.07952184,-0.6006449,0.07860502
0.9538858,0.09241784,-0.3890856,-0.0353892,-0.6683405,0.06322595
1.088474,0.01853989,-0.3763328,-0.03509318,-0.5771249,0.09030046
1.220712,-0.06177107,-0.3525596,0.08400238,-0.3993513,0.06106983
1.293624,-0.1240352,-0.3647504,0.3000912,-0.2991028,0.05004183
1.271855,-0.112617,-0.4462705,0.3831419,-0.3036937,0.08883635
1.268738,-0.09659376,-0.5863129,0.2030253,-0.3659465,0.1218761
1.279794,-0.1457049,-0.6499905,-0.0255613,-0.3382898,0.141013
1.253694,-0.2434517,-0.6121369,-0.06138536,-0.1143331,0.1303656
1.188348,-0.3724357,-0.6078455,0.1127425,0.239797,0.1535082
1.051744,-0.4219728,-0.6003996,0.3440238,0.4070028,0.176029
0.9478176,-0.3891832,-0.5489984,0.4770275,0.1710841,0.1379907
0.9928828,-0.3750608,-0.5352914,0.4612358,-0.03982532,0.1011217
1.066793,-0.3385137,-0.508827,0.3971312,0.03137002,0.0870905
1.100886,-0.3533308,-0.4524567,0.3498351,0.212481,0.04572854
1.169173,-0.4110938,-0.409331,0.3543517,0.4658774,-0.06360833
1.169598,-0.3424527,-0.3645685,0.5293389,0.5216369,-0.1459492
1.062587,-0.2471343,-0.3706921,0.7872312,0.3974372,-0.1323487
0.9520785,-0.1798708,-0.3908418,0.8945323,0.4180102,-0.1029911
0.8548253,-0.1438143,-0.3763227,0.8508992,0.3773392,-0.07482533
0.8257868,-0.1831592,-0.3837333,0.798599,0.2809163,-0.04502069
0.7691065,-0.1896392,-0.3400886,0.7670482,0.2754656,-0.04656181
0.6422674,-0.2188944,-0.2499052,0.7726843,0.169719,-0.05082933
0.6521189,-0.2475879,-0.2221985,0.8423309,0.1015858,-0.04122589
0.682536,-0.1943144,-0.2204181,0.889939,0.2039504,-0.04535241
0.6016394,-0.1625516,-0.2153525,0.9012045,0.2692344,-0.04173911
0.5489768,-0.08570088,-0.2052531,0.8598136,0.2353617,0.009792352
0.5263982,-0.04243813,-0.1901159,0.7211519,0.1654095,0.07584866
0.5117416,-0.08059058,-0.1788306,0.5707847,0.02346013,0.1119711
0.5052427,-0.03855154,-0.1381652,0.4239616,-0.2610558,0.1377485
0.517219,-0.05199587,-0.0999662,0.3341493,-0.6373038,0.1695326
0.6157836,-0.1092463,-0.09730496,0.3356939,-0.9583905,0.1747777
0.7759944,-0.1086052,-0.1179916,0.321736,-1.079923,0.1493948
0.9834096,-0.1578226,-0.176562,0.3039342,-0.9818943,0.08805232
1.218959,-0.2009096,-0.2504117,0.2920648,-0.6678636,-0.06866331
1.390961,-0.2195889,-0.2955564,0.3230588,-0.2118773,-0.2607491
1.451681,-0.2331436,-0.3077283,0.4144866,-0.1473156,-0.3028184
1.402093,-0.2326599,-0.3227367,0.5091867,-0.6292164,-0.1421266
1.333436,-0.3342206,-0.3798419,0.702199,-1.023547,0.03797472
1.286573,-0.5373111,-0.4774359,0.8825785,-0.9555868,0.008590908
1.21294,-0.699439,-0.5530777,0.8484823,-0.3251901,-0.3267851
1.106037,-0.7090058,-0.565376,0.6690532,0.400429,-0.86408
0.9446853,-0.6307004,-0.590516,0.3656141,0.3965626,-1.179902
0.8496715,-0.4974359,-0.6221635,0.1236791,0.1271404,-1.076129
0.8232747,-0.2382101,-0.5803784,0.2371088,0.1050467,-0.9286381
0.7327082,-0.1126838,-0.5300447,0.4329035,-0.1417243,-0.8122731
0.7926791,-0.2122669,-0.4867083,0.4801761,-0.3074928,-0.6533492
0.9600148,-0.2676125,-0.4398103,0.6259828,-0.1373144,-0.7297383
1.028756,-0.3148411,-0.4552862,0.7595124,-0.1695122,-0.9584884
1.100036,-0.328412,-0.4895408,0.7377725,-0.1721837,-1.150051
1.078846,-0.227616,-0.5055477,0.7455639,0.0730219,-1.255906
1.014094,-0.1544916,-0.4892013,0.7725535,0.2707279,-1.145319
0.9683928,-0.04687707,-0.414215,0.8208539,0.392848,-1.051748
0.8228015,0.01719614,-0.3534051,0.8364431,0.2865429,-1.03965
0.7558448,-0.06431389,-0.3167049,0.7956837,0.06339997,-1.01619
0.7063382,-0.09395854,-0.2798326,0.8434514,-0.07423329,-1.115592
0.6294934,-0.1147212,-0.2718692,0.8893741,-0.1542021,-1.102032
0.678064,-0.1223297,-0.2793257,0.9452568,-0.02398989,-0.967721
0.6840766,-0.03296311,-0.296271,1.016739,0.0220865,-0.8320171
0.6972046,0.03412688,-0.3303069,1.002304,-0.1197956,-0.5537632
0.7822332,0.08920296,-0.361569,0.9772626,-0.1306387,-0.3804984
0.8238929,0.09662948,-0.3451832,0.9206535,-0.07774465,-0.3651512
0.9027969,0.06054845,-0.2880644,0.8786156,0.04652845,-0.4064818
0.9701556,0.06296478,-0.2363351,0.8597916,0.1092839,-0.5082454
0.9848359,0.04173243,-0.1979859,0.8387114,0.03523081,-0.5141545
0.9973954,0.04728241,-0.2063584,0.9567773,-0.01285661,-0.4854253
0.9947424,0.05262232,-0.2550832,1.107587,-0.1711039,-0.3931254
1.036553,-0.01067833,-0.3542265,1.144193,-0.3720055,-0.2133069
1.16213,-0.0623463,-0.5170704,0.9844261,-0.4640268,-0.07619892
1.38361,-0.1271951,-0.6099416,0.6285252,-0.3511149,-0.02754632
1.532042,-0.208441,-0.6193457,0.4031695,-0.005547159,-0.1179109
1.412898,-0.2871597,-0.6334603,0.457259,0.3020395,-0.1239861
1.213489,-0.4005042,-0.632862,0.5780879,0.4541186,-0.008216166
1.056065,-0.4741381,-0.5784637,0.6380812,0.3797623,0.04337426
0.9380008,-0.4359253,-0.4846014,0.7072661,0.2254429,0.05168674
0.9798646,-0.3880944,-0.463866,0.700273,0.2106829,0.0009094121
1.05233,-0.380696,-0.4788526,0.6315218,0.177001,-0.03431103
1.042836,-0.3297838,-0.416837,0.7429828,0.1259211,-0.08585338
1.032433,-0.30116,-0.3756998,0.862724,-0.002701789,-0.1201112
0.9648372,-0.2927563,-0.3558793,0.9289017,-0.157527,-0.02429276
0.9176714,-0.2625521,-0.3197047,1.046215,-0.1335361,0.00926591
0.9340773,-0.3043679,-0.3221121,1.081963,-0.1292598,0.01139971
0.9018004,-0.3138577,-0.3129072,1.166463,-0.07681252,-0.0440136
0.8823535,-0.2664622,-0.3017548,1.245328,0.05284454,-0.1933924
0.8334238,-0.2148096,-0.307863,1.20697,0.1029613,-0.1933196
0.7395481,-0.1063069,-0.2875755,1.141377,0.2052091,-0.1570781
0.6667323,-0.04271026,-0.2647285,0.9191794,0.2614427,-0.1285509
0.5530375,-0.02787515,-0.2166973,0.6804629,0.224899,-0.01122951
0.473938,-0.03418412,-0.1388579,0.5848869,0.106054,0.08609729
0.4465549,-0.0787451,-0.08734839,0.5338058,-0.1622496,0.1732051
0.4399435,-0.1065095,-0.07490565,0.4795515,-0.4308992,0.2531754
0.5005896,-0.1448133,-0.1020496,0.3935544,-0.6743317,0.3075551
0.5831046,-0.1611158,-0.1332863,0.3484404,-0.9093758,0.3371008
0.7281643,-0.1887168,-0.1555876,0.3158559,-1.104839,0.3315192
1.008821,-0.2902248,-0.2018836,0.2622167,-1.097446,0.275469
1.383843,-0.36555,-0.2488387,0.2126802,-0.7037624,0.1203418
1.598255,-0.3745792,-0.2836116,0.1541237,-0.1941542,-0.007513758
1.534399,-0.3168399,-0.3654499,0.1681223,-0.07874085,0.02030291
1.491768,-0.2910625,-0.494254,0.1855452,-0.5330021,0.1743896
1.478407,-0.3832986,-0.5658843,0.1517781,-0.7820673,0.281384
1.394834,-0.448544,-0.5881374,0.03246488,-0.1583682,0.1082283
1.29655,-0.39111,-0.6214918,-0.2735805,0.5287432,-0.1920123
1.039755,-0.267869,-0.6086318,-0.6213273,0.4988484,-0.3364214
0.8015678,-0.1714734,-0.5932836,-0.9168331,0.2115949,-0.3790138
0.7945638,-0.1519149,-0.6026755,-1.049078,0.1255917,-0.3901449
0.855816,-0.2027481,-0.5615928,-0.932744,0.09770135,-0.3615248
0.9254559,-0.2361472,-0.5431698,-0.8428839,0.203928,-0.3366727
0.9308772,-0.1765526,-0.5530665,-0.818896,0.4227672,-0.292376
0.8903945,-0.1280605,-0.5388992,-0.7599111,0.4109077,-0.2559383
0.8886899,-0.1138878,-0.5387459,-0.7589132,0.2631448,-0.2627153
0.8352922,-0.06871132,-0.5173151,-0.7259257,0.07810847,-0.2071173
0.7892257,-0.03101075,-0.4918283,-0.6802661,-0.02363328,-0.1234984
0.7935584,-0.04171613,-0.4862335,-0.7294358,0.1359395,-0.09913448
0.7534145,-0.1079897,-0.432108,-0.7420924,0.2603053,-0.08617012
0.6723532,-0.1498434,-0.352178,-0.7209107,0.2585042,-0.06375956
0.6335145,-0.1450809,-0.3246382,-0.6826473,0.1858947,-0.02800815
0.6423441,-0.1420004,-0.3156815,-0.5628767,0.05347402,-0.022987
0.6054281,-0.1297795,-0.2454804,-0.4494526,0.04279727,-0.0572949
0.5980553,-0.125689,-0.2117863,-0.3377546,0.06196094,-0.06586589
0.6372133,-0.08971915,-0.2549331,-0.2262061,-0.003824946,-0.05333846
0.6324636,-0.007828881,-0.2618451,-0.211231,-0.1510994,0.01187936
0.6768854,0.05109199,-0.2817706,-0.2433562,-0.3413254,0.1253419
0.7549898,0.06165842,-0.3213545,-0.2851151,-0.3803117,0.1938096
0.8688196,0.06060436,-0.3508581,-0.384833,-0.2816942,0.2088631
1.02608,0.07855347,-0.4058359,-0.4439321,-0.2305986,0.2150481
1.078001,0.0228121,-0.4042342,-0.3094952,-0.2341134,0.2242565
1.118263,-0.08014762,-0.3970983,-0.1159038,-0.2178461,0.2312086
1.200048,-0.131325,-0.47089,-0.1062116,-0.231624,0.2796329
1.235288,-0.1434472,-0.5742706,-0.2714016,-0.2791895,0.362023
1.267884,-0.1213234,-0.703089,-0.4365886,-0.2316999,0.4080077
1.276452,-0.1618097,-0.7721782,-0.4355837,-0.001218734,0.4569694
1.249322,-0.2466619,-0.7334521,-0.3365598,0.3608372,0.4946678
1.185604,-0.3049113,-0.6828584,-0.283066,0.5215655,0.4246523
1.114383,-0.3662397,-0.6244402,-0.2111992,0.4446999,0.2870118
1.121642,-0.3432978,-0.5448464,-0.1759743,0.5136969,0.1734235
1.11761,-0.2819789,-0.5066758,-0.2441515,0.6338437,0.1450055
1.062656,-0.2344133,-0.4953301,-0.2753223,0.6352191,0.18347
1.025885,-0.1849572,-0.4504933,-0.2527737,0.5535235,0.1966459
1.010231,-0.1997963,-0.4221889,-0.2333988,0.3502954,0.237173
1.013906,-0.1949553,-0.4108536,-0.2063065,0.3179091,0.349645
0.9819608,-0.1821163,-0.3690007,-0.1356517,0.5550105,0.4094598
0.8871548,-0.1999951,-0.3533084,-0.03346737,0.7761357,0.403385
0.7680585,-0.1802746,-0.3366517,-0.01036564,0.8404653,0.3955246
0.6284093,-0.1711911,-0.2771029,-0.05716278,0.7138895,0.3867233
0.4968199,-0.144355,-0.2217984,-0.1014415,0.5553992,0.3666562
0.4382166,-0.1074648,-0.192183,-0.1717807,0.3933837,0.3269733
0.4209432,-0.1042925,-0.1715851,-0.2534357,0.2238696,0.3208736
0.3881931,-0.08717818,-0.1293576,-0.2895007,0.1763787,0.3601183
0.4158185,-0.09398319,-0.1195914,-0.2835137,0.08288992,0.4096245
0.4732102,-0.1014426,-0.1274661,-0.2524099,-0.06420545,0.4749096
0.4977906,-0.09484395,-0.1037039,-0.1655934,-0.2808421,0.547025
0.5808783,-0.1277465,-0.1257377,-0.05926486,-0.6994282,0.6187102
0.7094399,-0.1798024,-0.16033,-0.03462909,-1.010601,0.6113594
0.9215375,-0.2670186,-0.1929982,-0.07478145,-1.043821,0.4736656
1.258206,-0.3519539,-0.2581824,-0.08257853,-0.8241502,0.2711927
1.578228,-0.3660758,-0.3173421,-0.02786389,-0.3866494,0.05498184
1.744146,-0.3326369,-0.3811215,0.01574659,-0.008849068,-0.08379862
1.648141,-0.2556483,-0.4000394,0.002260811,-0.02606411,-0.0719949
1.483489,-0.1882049,-0.423627,-0.01400779,-0.5978141,0.09529463
1.428783,-0.2611387,-0.4996472,0.006319505,-1.027503,0.2292015
1.38464,-0.4599459,-0.5116897,0.07505784,-0.4813264,0.0005181163
1.391682,-0.569909,-0.5656782,0.1063527,0.3652762,-0.4076978
1.261393,-0.4796874,-0.682273,-0.1110136,0.6338497,-0.5937924
0.9366047,-0.3346209,-0.6855667,-0.4701231,0.6376525,-0.6136118
0.7709051,-0.2619564,-0.6128479,-0.5565343,0.4919407,-0.6147809
0.7374712,-0.2427108,-0.5236221,-0.4243152,0.0776495,-0.6295239
0.7593553,-0.2623812,-0.4534208,-0.3511647,-0.1531327,-0.5961111
0.842561,-0.2925676,-0.4416756,-0.2113571,-0.1111567,-0.4834035
0.9183026,-0.2778634,-0.461569,-0.01070419,0.1460614,-0.4716475
1.001825,-0.2507855,-0.4976854,0.1076064,0.5576188,-0.5601771
0.9802972,-0.209607,-0.5004104,0.2160495,0.6233699,-0.6596417
0.8922269,-0.1451166,-0.4610484,0.2454501,0.4377572,-0.7626248
0.7921316,-0.1145908,-0.3979596,0.1533315,0.3320114,-0.7338163
0.6491192,-0.09038198,-0.3225971,0.1003921,0.2205818,-0.6211142
0.5934418,-0.09348594,-0.2845354,0.1670296,0.09735431,-0.4925634
0.5705471,-0.1336311,-0.2549519,0.3019272,-0.03776619,-0.3429899
0.5685015,-0.1516674,-0.2162315,0.3996194,-0.1236323,-0.3599938
0.6107427,-0.1677466,-0.1988202,0.4715015,-0.1485174,-0.4573625
0.6125184,-0.1256285,-0.2039592,0.5550805,-0.1616541,-0.4861574
0.6446719,-0.01386264,-0.2454237,0.5791956,-0.1648019,-0.5012901
0.6500483,0.09290863,-0.2864292,0.4641553,-0.206243,-0.3626673
0.6407875,0.1592818,-0.2860037,0.2437893,-0.2438348,-0.118388
0.7041641,0.1728194,-0.2820324,0.08188639,-0.404721,0.03415268
0.7455854,0.2065174,-0.3080589,-0.02227507,-0.6582488,0.1166857
0.8531202,0.2181234,-0.3536419,-0.0871013,-0.7225655,0.08755678
1.047028,0.1676484,-0.3974145,-0.08229886,-0.7564135,-0.004973519
1.252256,0.05962982,-0.4108328,-0.06097116,-0.7237944,-0.06642008
1.471505,-0.1610151,-0.4276409,0.1293972,-0.4490977,-0.1124605
1.470736,-0.2406986,-0.5237848,0.3316332,-0.3895885,-0.01564974
1.326783,-0.1307709,-0.6264167,0.2294435,-0.6134533,0.126815
1.373104,-0.1498539,-0.6698793,0.002176912,-0.6855977,0.1270703
1.401098,-0.2400107,-0.6815446,-0.2151389,-0.4728483,0.1808688
1.339045,-0.2917034,-0.6590253,-0.2416927,0.05506322,0.2732377
1.293712,-0.3468979,-0.6405113,-0.04993716,0.4946277,0.2304119
1.047469,-0.4052695,-0.5729045,0.03661498,0.4637292,0.1571173
0.858852,-0.4686145,-0.4769902,0.1036439,0.4158316,0.06018219
0.9138095,-0.4543952,-0.4566821,0.2951113,0.4996514,-0.03967464
0.8700393,-0.4536317,-0.3831511,0.6134342,0.2701713,-0.05073415
0.8524261,-0.4979479,-0.3166456,0.9620152,-0.1832073,-0.0917641
0.9864658,-0.4246538,-0.3797465,1.099816,-0.4122766,-0.1701427
1.081783,-0.3414354,-0.4498626,1.168575,-0.3167051,-0.1896204
1.090429,-0.2878754,-0.5521296,1.218465,0.01931714,-0.1817258
0.9878334,-0.2299262,-0.609154,1.173793,0.3948707,-0.1403142
0.8326628,-0.2225451,-0.4954755,1.150946,0.497554,-0.07446731
0.7005151,-0.1644184,-0.3741429,1.04212,0.3259531,-0.03447171
0.6088908,-0.100627,-0.2802281,0.8784806,0.1058594,0.001323371
0.5659196,-0.07207489,-0.2024283,0.7224979,-0.07904985,0.04979539
0.5374245,-0.02155738,-0.2063701,0.5517166,-0.1592953,0.09705073
0.5199011,-0.03197221,-0.1964402,0.5201861,-0.06277916,0.1443285
0.50651,-0.06249004,-0.1647841,0.4882058,-0.01688172,0.2120452
0.5021616,-0.08052648,-0.1509956,0.3630345,-0.0954205,0.3058239
0.5414991,-0.1111777,-0.1198998,0.2601808,-0.2086736,0.3573918
0.6461583,-0.1140749,-0.1236985,0.1405208,-0.5246225,0.300135
0.7925096,-0.1363644,-0.1436405,0.07614711,-0.744364,0.2113341
0.9612639,-0.1915768,-0.1440984,0.1158722,-0.6237113,0.1420343
1.201338,-0.2558874,-0.1604354,0.1506822,-0.3825824,0.02191699
1.400669,-0.2904792,-0.2113618,0.1245902,-0.2012524,-0.05136609
1.399054,-0.2788247,-0.3578138,0.1231539,-0.5986321,-0.002604457
1.341684,-0.3494414,-0.5286554,0.1854651,-1.018981,0.01021001
1.35285,-0.5046672,-0.5955968,0.1703179,-0.3286088,-0.07117377
1.332421,-0.5588566,-0.6453409,-0.0527793,0.572853,-0.3033646
1.22151,-0.4383996,-0.7247913,-0.5326678,0.6734935,-0.6214024
1.014333,-0.2889145,-0.7132096,-0.9155843,0.4518443,-0.6486814
0.8347905,-0.2597716,-0.631276,-0.8258379,0.2843392,-0.5109788
0.8301233,-0.2867567,-0.5987134,-0.5585759,0.1706345,-0.5409186
0.890463,-0.3022118,-0.5809772,-0.4083753,0.1426553,-0.5061002
0.9488066,-0.3187535,-0.5647979,-0.3983898,0.2551154,-0.4880057
1.012985,-0.2797919,-0.5673805,-0.4282793,0.397255,-0.6517264
0.9969213,-0.1945594,-0.528394,-0.3199841,0.3624507,-0.6837346
0.9380854,-0.1354761,-0.4719412,-0.234778,0.3522273,-0.6483476
0.8654837,-0.09851872,-0.420478,-0.2307442,0.4258211,-0.603782
0.7510673,-0.07290171,-0.3780124,-0.2059407,0.3446839,-0.4422268
0.6582727,-0.06115743,-0.3475862,-0.2418203,0.1820428,-0.330512
0.5997414,-0.05760013,-0.3140799,-0.2361114,-0.07396435,-0.2475814
0.5786939,-0.06740958,-0.3277105,-0.1974246,-0.3310245,-0.2090095
0.6159371,-0.08549394,-0.334895,-0.1812893,-0.3279753,-0.2313621
0.6567354,-0.09596643,-0.3115208,-0.07962583,-0.22115,-0.2103562
0.6822905,-0.08031141,-0.3179889,-0.03344819,-0.06103722,-0.1950416
0.6990694,-0.03373527,-0.3088645,-0.06535536,0.1790847,-0.1241484
0.6904318,0.02275565,-0.3009978,-0.09908897,0.2351385,-0.02298666
0.7015505,0.08379645,-0.299366,-0.1931989,0.00605743,0.04692727
0.7720265,0.1282939,-0.2912195,-0.2869985,-0.2867148,0.1250203
0.8861401,0.1100499,-0.3214522,-0.3422074,-0.3454225,0.164762
1.007563,0.06716962,-0.3515869,-0.345341,-0.2668284,0.1940792
1.110962,0.02840211,-0.3845851,-0.2956508,-0.305439,0.1918957
1.235893,-0.07100653,-0.4519369,-0.1777019,-0.3772089,0.1806927
1.334131,-0.2015871,-0.5550277,-0.04127164,-0.401263,0.2261208
1.329407,-0.2944726,-0.6824179,-0.01682488,-0.3257271,0.2678412
1.303316,-0.3477985,-0.7460701,0.003510831,-0.1240285,0.3457971
1.256863,-0.3359856,-0.7313129,0.008708639,0.152636,0.4303875
1.173309,-0.3233512,-0.6987361,-0.03854737,0.5441407,0.4023033
1.138378,-0.3586735,-0.64388,-0.003130285,0.7774263,0.2739156
1.123836,-0.345969,-0.5638075,-0.02197889,0.7132407,0.1034219
1.097502,-0.2839727,-0.5068583,-0.06943997,0.7426957,0.008156138
1.046684,-0.1940408,-0.4518098,-0.02435968,0.6750912,0.08668523
0.9705506,-0.1097613,-0.3913321,-0.04202042,0.2432983,0.2442021
0.9673559,-0.1163802,-0.4279211,-0.09254334,0.007546797,0.3865579
0.9911879,-0.1485046,-0.4703282,-0.1324657,0.1724169,0.5066568
0.946449,-0.1793488,-0.4325319,-0.1580212,0.4558359,0.5131755
0.8625049,-0.2172131,-0.4047415,-0.09812835,0.7937186,0.4488195
0.7249897,-0.198999,-0.3154241,-0.05627965,0.9756041,0.3991047
0.5796854,-0.1567639,-0.2155884,-0.0503292,0.7841467,0.3236943
0.5118744,-0.09140063,-0.2100239,-0.06739253,0.4623111,0.3134831
0.4805472,-0.02867934,-0.1957099,-0.1351285,0.2338238,0.3460406
0.4723625,-0.03454478,-0.1858915,-0.1548065,0.08379275,0.3876554
0.4907972,-0.05872305,-0.1705881,-0.1389764,0.1041627,0.5052986
0.5009323,-0.09368326,-0.125973,-0.1234305,0.1142152,0.5573715
0.5203385,-0.1278651,-0.1210381,-0.104053,-0.0544935,0.5534168
0.5802377,-0.1472375,-0.1311725,-0.1066677,-0.2357203,0.562921
0.7288203,-0.2087306,-0.1594697,-0.1085404,-0.5381454,0.5031856
0.9224763,-0.2565921,-0.1916011,-0.1083654,-0.725271,0.4131001
1.119045,-0.2538092,-0.2082423,-0.06581486,-0.4999897,0.3382141
1.403934,-0.2726353,-0.2617213,-0.01764411,-0.2161492,0.3031221
1.522062,-0.2837162,-0.3454114,-0.08581238,-0.1399441,0.3109064
1.383327,-0.2762413,-0.4947022,-0.2546454,-0.4855018,0.3518883
1.427293,-0.3389041,-0.6692372,-0.4267586,-0.7950678,0.3745369
1.494174,-0.4012928,-0.66408,-0.4832613,-0.2286866,0.1958274
1.325773,-0.3660829,-0.5775453,-0.5054814,0.5556392,-0.07759052
1.097426,-0.3093941,-0.6148468,-0.6427479,0.6229094,-0.1602414
0.805229,-0.2604282,-0.5950067,-0.7703537,0.3180925,-0.151642
0.7805395,-0.2150187,-0.5384093,-0.8556165,0.08135239,-0.2205645
0.9417816,-0.177406,-0.571589,-0.9734806,-0.0448355,-0.2938245
0.8497687,-0.1175475,-0.5057048,-1.0387,0.04301806,-0.3176016
0.9244797,-0.1136455,-0.4625656,-1.011493,0.2487994,-0.2930828
1.046943,-0.1421244,-0.4930367,-0.9389539,0.4559894,-0.2432231
0.9409172,-0.09516142,-0.4545961,-0.8425481,0.6214921,-0.2167496
0.9547317,-0.07438414,-0.4739966,-0.7195221,0.5619938,-0.1875033
0.8851691,-0.08562683,-0.4528748,-0.6660654,0.4003049,-0.1679308
0.7571204,-0.07274529,-0.3780708,-0.7317384,0.1963982,-0.1748082
0.7303705,-0.1007861,-0.3509096,-0.7669113,-0.08986507,-0.1667647
0.6379995,-0.1056668,-0.2946111,-0.7611633,-0.1907192,-0.1545253
0.6402074,-0.09977412,-0.300865,-0.7122008,-0.1774775,-0.09973166
0.6757909,-0.1241467,-0.3111881,-0.552256,-0.1141954,-0.02171829
0.6825978,-0.0913751,-0.2844822,-0.4293071,0.08457481,-0.01667561
0.7252685,-0.05630693,-0.3010067,-0.4177715,0.1550543,-0.05483112
0.6926394,-0.02313579,-0.2786964,-0.4798565,0.04334681,-0.08384743
0.6928542,0.03880756,-0.2632935,-0.5539895,-0.1494812,-0.0675587
0.749763,0.07912239,-0.2695907,-0.5563039,-0.3967702,0.01534916
0.8345022,0.1200341,-0.2846257,-0.5591663,-0.5249128,0.1386533
0.9737315,0.1236569,-0.3430048,-0.5698471,-0.3869475,0.2326237
1.0753,0.09049817,-0.3699014,-0.5187329,-0.1127731,0.2435539
1.139297,0.04354038,-0.3782351,-0.4287094,-0.007008352,0.2366165
1.163065,-0.0601056,-0.3861485,-0.3354274,-0.0621097,0.2399449
1.187221,-0.1547394,-0.4083731,-0.286848,-0.1454295,0.2461605
1.237189,-0.1797957,-0.5057465,-0.2784869,-0.1876414,0.2790367
1.224103,-0.1468129,-0.6243488,-0.2723119,-0.06779103,0.3132241
1.155934,-0.1259253,-0.6898137,-0.266408,0.04576561,0.3930244
1.068899,-0.1627823,-0.7080536,-0.2683111,0.03749394,0.5366971
1.056563,-0.219268,-0.7149664,-0.2764772,0.1085612,0.6129213
1.156884,-0.3053806,-0.6708258,-0.2676812,0.3429518,0.555287
1.229788,-0.3477996,-0.5785808,-0.217529,0.5999827,0.4309727
1.214924,-0.2986542,-0.5131604,-0.1309615,0.7729541,0.2871716
1.129182,-0.2403091,-0.4481845,-0.1022967,0.7883185,0.2189516
1.020421,-0.1353917,-0.4148754,-0.1496958,0.4581314,0.3582289
0.9654649,-0.03018982,-0.4332217,-0.1611518,0.05277,0.5606607
0.9611547,-0.04431959,-0.4275985,-0.1526256,0.06111992,0.6771934
0.9357661,-0.1134727,-0.4187899,-0.1622242,0.3823923,0.7173953
0.860163,-0.1866289,-0.3928434,-0.1475161,0.7268199,0.6144273
0.7733284,-0.2294973,-0.3181078,-0.09338231,0.8863644,0.4707767
0.6488142,-0.2212915,-0.2324415,-0.01278128,0.8097782,0.355199
0.526584,-0.1993369,-0.1650312,0.0299067,0.6115745,0.2404288
0.497391,-0.1195874,-0.165946,0.01495465,0.3063873,0.2380563
0.4587189,-0.03556745,-0.1863759,-0.03274195,0.03802671,0.2782077
0.4220549,-0.03346826,-0.1589077,-0.108276,-0.0459574,0.3461606
0.4742106,-0.05938479,-0.1493852,-0.1277491,-0.1609303,0.5155266
0.5214196,-0.1174107,-0.1482832,-0.05840027,-0.4509074,0.6660433
0.5772873,-0.1830596,-0.131267,0.0176025,-0.7436911,0.7224188
0.6933345,-0.2241382,-0.1562504,0.06931136,-0.8565899,0.6422482
0.8913069,-0.296047,-0.1929829,0.05980157,-0.6831087,0.4817018
1.171494,-0.3230403,-0.2258399,-0.04894458,-0.3536784,0.3133059
1.364222,-0.2295621,-0.2863028,-0.1772327,-0.2034805,0.1565534
1.420231,-0.1181857,-0.3730285,-0.2181563,-0.4663744,0.1511044
1.379398,-0.1046924,-0.5039537,-0.1770987,-0.8371569,0.1985117
1.304581,-0.2451696,-0.6077218,-0.1703686,-0.682825,0.1413699
1.307542,-0.4636484,-0.6435703,-0.2289247,-0.2585517,0.03626504
1.229534,-0.5211107,-0.6789894,-0.3596371,0.1120649,-0.1428978
1.028208,-0.379993,-0.6724131,-0.6035577,0.4383223,-0.2914482
0.8771563,-0.240567,-0.6290499,-0.7517448,0.2441004,-0.328834
0.8185281,-0.1461398,-0.602364,-0.7639816,0.04917365,-0.3709623
0.8706877,-0.08249495,-0.5569164,-0.8825655,0.2270367,-0.3371452
0.9081178,-0.05660745,-0.5402598,-0.99624,0.2096595,-0.2361322
0.9067375,-0.0168314,-0.5529302,-1.003626,0.3048451,-0.1706348
0.9499483,0.0005403286,-0.5318782,-0.998114,0.2909477,-0.092045
0.9629027,-0.0264389,-0.5202267,-0.9449074,0.0506457,-0.0865589
0.9905561,-0.06175351,-0.5108946,-0.8887496,0.1645763,-0.1390017
0.989445,-0.1077987,-0.4890985,-0.8480641,0.2452816,-0.1389413
0.9104668,-0.134161,-0.4721097,-0.8029473,0.3269205,-0.1202244
0.8194906,-0.1275587,-0.4272297,-0.7814947,0.4285431,-0.04997275
0.6813628,-0.127108,-0.3846649,-0.7278145,0.2245601,0.02634035
0.6206939,-0.1224058,-0.3688617,-0.6770826,0.0758855,0.05168081
0.6250328,-0.09128205,-0.3494827,-0.6467044,-0.09942528,0.0743546
0.6091614,-0.06475045,-0.3290482,-0.5941477,-0.202693,0.08234773
0.6927532,-0.03806714,-0.318549,-0.561549,-0.008480193,0.1014097
0.7541529,0.01319895,-0.3071007,-0.5204511,0.1098186,0.143955
0.7460067,0.07192006,-0.2840425,-0.4943583,0.1150079,0.1959768
0.766366,0.1345004,-0.2878506,-0.5411983,-0.008078238,0.2338839
0.7778942,0.1664155,-0.3166508,-0.5931361,-0.2514435,0.2398116
0.8383362,0.1119435,-0.3363686,-0.6114571,-0.4192839,0.2778239
0.9366719,-0.006683119,-0.3576307,-0.524631,-0.4284218,0.3141441
1.045764,-0.1345087,-0.3816289,-0.3215455,-0.2873889,0.3112568
1.185809,-0.2000925,-0.4714577,-0.2056954,-0.1933155,0.2895658
1.286125,-0.1497243,-0.6232085,-0.2518827,-0.07313149,0.2324927
1.318236,-0.0875809,-0.6911273,-0.3621679,0.1930781,0.2082366
1.227567,-0.1039576,-0.6578362,-0.4412446,0.4214167,0.285448
1.084793,-0.1412603,-0.6319033,-0.3923179,0.4118613,0.4507957
1.051951,-0.2223628,-0.639172,-0.307398,0.1519402,0.5809991
1.093491,-0.3540297,-0.6078937,-0.3006429,0.02597893,0.5584471
1.141418,-0.4475959,-0.5637491,-0.2453729,0.1535464,0.4598115
1.160084,-0.4704711,-0.555843,-0.1198897,0.3656387,0.3440142
1.152379,-0.4247817,-0.5287867,-0.02442128,0.5786892,0.227402
1.128203,-0.3554414,-0.4863611,0.0666539,0.5451833,0.1901972
1.092629,-0.2484341,-0.4415837,0.1361775,0.3453569,0.2202487
1.088567,-0.1651409,-0.4332267,0.1458249,0.2548389,0.2866482
1.020437,-0.1791389,-0.4527262,0.1539932,0.3661684,0.4184111
0.8755615,-0.1300644,-0.4118096,0.1825769,0.6107645,0.5282838
0.8023435,-0.1134983,-0.3973687,0.1975211,0.6902251,0.5331352
0.7151769,-0.1979959,-0.3604055,0.1831851,0.5866178,0.5084895
0.531664,-0.1864338,-0.2238376,0.1612704,0.4442327,0.4628034
0.4688434,-0.1774414,-0.1820454,0.1262637,0.3032574,0.3729918
0.5260441,-0.1575019,-0.200938,0.05685345,0.2433387,0.3244842
0.4656206,-0.06778839,-0.1584498,-0.003514976,0.2290808,0.3491391
0.4230488,-0.05348218,-0.1337179,-0.04573706,0.1747279,0.410914
0.4811169,-0.06448086,-0.1370999,-0.07430829,0.004164596,0.4908531
0.4801654,-0.08397389,-0.1189073,-0.04588747,-0.3015441,0.5672048
0.5429953,-0.1160153,-0.09779561,0.002989835,-0.685984,0.5879176
0.7022555,-0.1554267,-0.1260125,0.0254512,-0.8806922,0.5220871
0.9081292,-0.2538023,-0.1646075,0.04476688,-0.6789829,0.383881
1.192765,-0.3337131,-0.1922097,0.07501952,-0.37965,0.2082035
1.395164,-0.361742,-0.2420996,0.1271794,-0.07364222,0.0861384
1.497664,-0.3037594,-0.2834376,0.1539706,0.05817262,0.08766768
1.520089,-0.1914553,-0.3625345,0.09548792,-0.342686,0.189888
1.449115,-0.1807712,-0.5015268,0.004599034,-0.6566903,0.2565145
1.428221,-0.3214725,-0.6175517,-0.09234451,-0.4699866,0.1161042
1.407772,-0.5252444,-0.6738015,-0.2251322,-0.1012829,-0.1927173
1.28233,-0.5432732,-0.6705502,-0.3946806,0.3065765,-0.4683021
1.05589,-0.3768065,-0.6429465,-0.5460668,0.3930212,-0.5782706
0.849675,-0.2515193,-0.6057186,-0.5873907,0.2695886,-0.5962768
0.8176231,-0.1811587,-0.5630041,-0.5792303,0.3745367,-0.6679944
0.8339377,-0.18284,-0.5179796,-0.5886235,0.3198785,-0.6972197
0.8370016,-0.1876749,-0.479057,-0.5733396,0.08310697,-0.5952322
0.8770319,-0.1278301,-0.5032349,-0.5733458,0.07888772,-0.5008307
0.9131693,-0.1058695,-0.5348114,-0.5594371,0.1516268,-0.4785231
0.9641517,-0.09701715,-0.532643,-0.4965256,0.2172672,-0.4996498
0.9727005,-0.104707,-0.5383974,-0.4667715,0.2591842,-0.50848
0.9347402,-0.1204766,-0.5040241,-0.4756284,0.2182789,-0.4701676
0.8852555,-0.09498542,-0.4395388,-0.4841183,0.2197919,-0.424533
0.7645486,-0.09849418,-0.3790867,-0.4409392,0.1932658,-0.3439926
0.6735463,-0.1025324,-0.3450981,-0.3306093,0.1825768,-0.254464
0.6536809,-0.1042975,-0.3499612,-0.1998456,0.2264421,-0.2093027
0.6009259,-0.125903,-0.3036634,-0.1117083,0.1697618,-0.1862684
0.5479296,-0.1143552,-0.2421985,-0.1049397,0.0813757,-0.2198156
0.5373425,-0.08843044,-0.2156031,-0.08524001,-0.06836716,-0.2396048
0.528928,-0.03926549,-0.1744956,-0.0191904,-0.1907534,-0.1728583
0.5316704,0.006524968,-0.1651517,0.05368809,-0.1544194,-0.0755808
0.5847359,0.05027884,-0.1864449,0.1073372,-0.1720656,0.04076685
0.6587797,0.1516099,-0.2172424,0.06792341,-0.260139,0.1374688
0.7402041,0.206172,-0.2670017,-0.006866475,-0.485785,0.2178937
0.8946093,0.1898531,-0.2948968,-0.08100858,-0.8470418,0.2832473
0.6831693,-0.1024819,-0.3627054,1.069266,0.6554636,0.09467687
0.6042785,-0.1259152,-0.3004424,1.001465,0.7027039,0.09603647
0.5201531,-0.1026977,-0.200913,0.9259431,0.4673826,0.0842906
0.4711344,-0.07954184,-0.149658,0.8438846,0.1555301,0.05833263
0.4488046,-0.04679408,-0.1267827,0.7980372,-0.1705624,0.09596012
0.4264277,-0.02654991,-0.09739008,0.854015,-0.5503432,0.2166965
0.4855481,-0.0599195,-0.1144479,0.9006852,-0.7953414,0.3365174
0.6116144,-0.1230168,-0.1479074,0.9169339,-0.7331049,0.3384133
0.7804094,-0.1996083,-0.1889149,0.9650492,-0.7054042,0.2319057
0.9414244,-0.244902,-0.2282324,0.9779866,-0.7702141,0.1073219
1.269393,-0.2857084,-0.2876285,1.018398,-0.6048077,-0.09818739
1.687548,-0.3269888,-0.3711589,1.084329,-0.3033243,-0.2888088
1.640717,-0.2973514,-0.3963836,1.12384,-0.1859541,-0.3041653
1.424716,-0.3160658,-0.490822,1.12596,-0.3423396,-0.2413848
1.424071,-0.4417081,-0.6812121,1.01779,-0.413265,-0.2060974
1.356781,-0.5196964,-0.7212629,0.8388731,-0.01025462,-0.3695604
1.282986,-0.4710285,-0.6593483,0.5567771,0.4584947,-0.6292611
1.096259,-0.3155933,-0.6605839,0.1438173,0.3938533,-0.643657
0.7935544,-0.1716166,-0.6491971,-0.1468801,0.06108589,-0.5718488
0.7629752,-0.1198043,-0.6198247,-0.1809236,-0.09176707,-0.5837018
0.8371417,-0.1485124,-0.6255237,-0.1455314,-0.007091889,-0.6036457
0.9093494,-0.2380382,-0.5851183,-0.06529893,0.244389,-0.6392139
0.978823,-0.3023595,-0.502288,0.1813562,0.4335445,-0.6453442
0.8936909,-0.3178338,-0.4526263,0.4386289,0.4246475,-0.6333581
0.8086636,-0.263736,-0.4240914,0.6018143,0.2008078,-0.6338424
0.7783856,-0.1611982,-0.4194517,0.6394551,-0.1035836,-0.6374502
0.7867228,-0.08808023,-0.4359324,0.4356732,-0.1830887,-0.6377129
0.8142133,-0.02463205,-0.4469638,0.2043265,-0.08505937,-0.5711759
0.800177,-0.03764511,-0.4364201,0.179611,0.01669888,-0.456078
0.7963991,-0.08557959,-0.3868451,0.2580549,0.1036665,-0.3939495
0.7550006,-0.1102125,-0.3188765,0.3716529,0.1031815,-0.449194
0.7236027,-0.1608612,-0.2645366,0.5418459,-0.03325829,-0.5357188
0.7385218,-0.1272123,-0.2625434,0.6068374,-0.1562035,-0.5626456
0.7510634,-0.05170497,-0.2898892,0.5132865,-0.06622258,-0.5575168
0.8035407,0.04405803,-0.2903799,0.4917807,0.09824767,-0.4814531
0.8166879,0.1645044,-0.2864318,0.4478943,0.1975563,-0.3675087
0.7873165,0.1447984,-0.2780438,0.2638762,0.2269711,-0.2911346
0.7834196,0.09748045,-0.2713535,0.1923324,0.04871066,-0.2423363
0.7988709,0.0279112,-0.279155,0.2649344,-0.1972358,-0.2451291
0.8631728,-0.1771828,-0.311636,0.4358667,-0.3617936,-0.2210975
0.9650409,-0.3091667,-0.4502317,0.6604153,-0.6004362,-0.1023132
1.104694,-0.3292344,-0.665097,0.7248852,-0.7726698,0.01015353
1.230573,-0.3510875,-0.8129683,0.6730571,-0.4995739,0.02614152
1.254784,-0.3295736,-0.8300119,0.6613872,0.1321969,-0.04587907
1.22456,-0.2913646,-0.7673648,0.5932077,0.6280708,-0.1241579
1.19662,-0.3052816,-0.6695645,0.4400244,0.7749937,-0.1910834
1.137415,-0.2907039,-0.5327157,0.4110166,0.6761258,-0.2370979
1.046307,-0.2083877,-0.4528034,0.4908057,0.5122414,-0.2031172
1.026111,-0.1464461,-0.448217,0.4930867,0.2657295,-0.09592544
1.076291,-0.1327991,-0.4320441,0.4378135,-0.09515871,0.07197931
1.110648,-0.1659222,-0.4538339,0.3963776,-0.07515738,0.1952741
1.117124,-0.2061061,-0.4853308,0.4635916,0.3590343,0.1830415
1.042441,-0.2020782,-0.4451373,0.6003271,0.7188113,0.1378621
0.8497422,-0.1883096,-0.3741131,0.6463675,0.8469921,0.07062669
0.632332,-0.1564006,-0.2824179,0.6493665,0.6448764,-0.006416101
0.5517542,-0.1180025,-0.2271287,0.6564292,0.4378545,0.0118554
0.5728483,-0.1092499,-0.2356557,0.6385926,0.3522404,0.06374704
0.5030223,-0.0870595,-0.2003715,0.5839043,0.1664314,0.1162474
0.4324585,-0.0593201,-0.150012,0.516879,0.1472833,0.2052783
0.4620832,-0.06999374,-0.1542689,0.4888199,0.1160415,0.2579652
0.488809,-0.1110456,-0.1555187,0.4732956,-0.07736463,0.2637582
0.5239821,-0.1402065,-0.1416378,0.4752721,-0.2297729,0.2634996
0.5783399,-0.1417018,-0.1467035,0.4731245,-0.4018024,0.2315989
0.656709,-0.1421542,-0.1693902,0.4503959,-0.4300482,0.1482526
0.8455335,-0.1583743,-0.1968151,0.4569186,-0.4488898,0.01046395
1.070016,-0.1895661,-0.2147855,0.4741166,-0.5059912,-0.1423072
1.226825,-0.2177441,-0.2203419,0.5555917,-0.3791034,-0.1954195
1.410484,-0.2491873,-0.2733163,0.7233967,-0.3829637,-0.1268629
1.550365,-0.2778656,-0.4088312,0.9153508,-0.5700675,-0.02353481
1.525343,-0.3085927,-0.5398417,1.042622,-0.6187681,0.03712279
1.532776,-0.3753979,-0.6383387,0.8938072,-0.153116,-0.1408212
1.513158,-0.3873499,-0.7016354,0.4966992,0.5410686,-0.5012516
1.296743,-0.3070373,-0.6654687,0.1171021,0.5428064,-0.6141063
1.05406,-0.2218359,-0.5898362,-0.04163079,0.28513,-0.5462524
0.8438409,-0.1617622,-0.5350637,0.02984689,0.3608007,-0.559314
0.7220112,-0.154242,-0.5009246,0.00192326,0.2801211,-0.5438081
0.7172255,-0.1636295,-0.4929373,-0.1682371,0.1121986,-0.538427
0.7549139,-0.138647,-0.4499369,-0.2331152,0.02926312,-0.5583382
0.8563819,-0.09223931,-0.4273748,-0.2804608,-0.04244141,-0.5308344
0.9217106,-0.01677182,-0.4576183,-0.2841152,0.04370202,-0.523644
0.9758028,0.01308946,-0.4387057,-0.1965028,0.1143573,-0.501672
1.021169,-0.03374038,-0.4326999,-0.1430761,0.1701833,-0.4776606
0.9323127,-0.06507619,-0.4440207,-0.1224268,0.2909845,-0.4703138
0.8346641,-0.08478871,-0.4021079,-0.1983927,0.26294,-0.4393827
0.741997,-0.107038,-0.3688736,-0.2374683,0.1762022,-0.4313253
0.6528463,-0.1067475,-0.3458628,-0.1258496,0.06633128,-0.4039116
0.6403954,-0.1062935,-0.339603,-0.003186309,-0.09666654,-0.3278645
0.6350901,-0.09651686,-0.3273357,0.1405419,-0.1474209,-0.262745
0.6484113,-0.07421334,-0.2822342,0.22176,-0.1261406,-0.2373213
0.6554701,-0.05426893,-0.287534,0.2309798,-0.06279669,-0.2295044
0.6563429,-0.007659039,-0.2774765,0.2370002,0.05475731,-0.1868905
0.6840082,0.05674521,-0.2331104,0.2053938,0.08690548,-0.1418612
0.6855784,0.1245544,-0.2504919,0.1756815,-0.07373897,-0.1054001
0.712304,0.1930187,-0.275762,0.03870194,-0.3823482,-0.04924921
0.7805085,0.1968722,-0.3066231,-0.1247599,-0.6104585,-0.00182576
0.9037399,0.1498764,-0.3564199,-0.1190545,-0.6102914,0.04936703
1.102924,0.08786875,-0.3753588,0.006219928,-0.4936204,0.09432807
1.27243,-0.04680624,-0.418026,0.2485633,-0.4149961,0.1299792
1.365194,-0.1379521,-0.5158899,0.4152433,-0.4219891,0.1694285
1.404486,-0.08116268,-0.6181727,0.3099134,-0.5405611,0.143201
1.454086,-0.05358815,-0.6869828,0.1624137,-0.6165678,0.08608038
1.477598,-0.08896118,-0.7200468,0.1593511,-0.2994471,0.09272079
1.336596,-0.1246579,-0.737994,0.2240164,0.2131027,0.1675786
1.125923,-0.2316546,-0.7009037,0.3508371,0.4266096,0.2267983
0.9941246,-0.3116763,-0.5918188,0.4967962,0.4257403,0.1127012
0.9278965,-0.2950483,-0.4989592,0.5016523,0.36664,-0.04865137
0.9066626,-0.2740896,-0.4459013,0.4342338,0.2618208,-0.01949965
0.9309799,-0.2371734,-0.4145777,0.3826339,0.2690896,0.0441669
0.9865569,-0.2130958,-0.4103361,0.3706022,0.2961372,0.04425324
1.036719,-0.2115304,-0.3852493,0.4410978,0.2252446,0.08242546
1.051337,-0.1757625,-0.347921,0.5234275,0.2071014,0.109379
1.002282,-0.1680898,-0.3499276,0.638312,0.2846155,0.115438
0.8960585,-0.1826932,-0.368671,0.7173083,0.4897228,0.09853902
0.7729456,-0.1782633,-0.3665013,0.7003311,0.7406417,0.04319755
0.6405514,-0.1812287,-0.3235571,0.724322,0.7394684,0.02508023
0.5431344,-0.1644526,-0.2534704,0.7377164,0.5372201,0.02364258
0.4930541,-0.1298901,-0.1996911,0.6826082,0.2989045,0.03690176
0.4712087,-0.09848147,-0.1790087,0.6078654,0.0355545,0.07414258
0.4901258,-0.07401925,-0.1720002,0.5502564,-0.04718124,0.09351091
0.4941008,-0.06846495,-0.1714522,0.5230744,0.02765849,0.1482934
0.4878261,-0.06887769,-0.1683062,0.497241,-0.02375973,0.2213545
0.513701,-0.08611946,-0.1360113,0.5094299,-0.2143297,0.2952392
0.5771392,-0.1352903,-0.1134684,0.5281998,-0.6018393,0.4033387
0.7576666,-0.2142908,-0.1466733,0.5700518,-1.098805,0.4349039
1.057785,-0.2950332,-0.2115947,0.6803232,-1.225137,0.3298852
1.382259,-0.3137972,-0.2854012,0.7182506,-0.9832138,0.1389607
1.61653,-0.2627049,-0.3726874,0.6845805,-0.6889009,-0.06329977
1.64362,-0.2005353,-0.4715926,0.6820138,-0.4477879,-0.1400105
1.511536,-0.1846612,-0.5565079,0.6880176,-0.4966389,-0.09381714
1.417381,-0.2459941,-0.5926843,0.6884164,-0.7330974,-0.03758807
1.449817,-0.4369202,-0.5784622,0.7205639,-0.7085628,-0.03363838
1.450939,-0.6581038,-0.598266,0.7417244,-0.301568,-0.2814953
1.333834,-0.619385,-0.6503526,0.5855799,0.3235229,-0.6922259
1.127525,-0.3974113,-0.6267769,0.2636296,0.6229383,-0.7912897
0.8022573,-0.2508704,-0.5967463,-0.006565039,0.4554461,-0.7662666
0.6697858,-0.1565564,-0.5922782,-0.1157408,0.2918111,-0.9465915
0.826813,-0.1651237,-0.5299387,-0.1109926,0.05876265,-0.9858818
0.8429528,-0.192831,-0.4795589,-0.06429563,-0.05092097,-0.8490234
0.8658462,-0.1264939,-0.4842817,0.05069881,0.256724,-0.765399
1.019985,-0.1529866,-0.4980692,0.2534656,0.4700625,-0.7102397
0.9877963,-0.1588199,-0.4870851,0.458639,0.524197,-0.7173329
0.9195738,-0.1224481,-0.4427584,0.5871336,0.4294096,-0.7161115
0.8536145,-0.173836,-0.3962202,0.6205528,0.149023,-0.6697101
0.716541,-0.1363134,-0.3694081,0.6051102,0.05680687,-0.6421763
0.6594208,-0.1231961,-0.3831391,0.5944198,-0.001573319,-0.570476
0.5870217,-0.1714352,-0.381467,0.6215056,-0.05711468,-0.5334789
0.5407427,-0.1528253,-0.3412909,0.7048213,-0.03830561,-0.5746048
0.5652191,-0.1513522,-0.3107772,0.8077479,-0.1109454,-0.5919535
0.5659683,-0.08121167,-0.2570018,0.8477199,-0.1027411,-0.5865323
0.6107797,0.01452796,-0.2242762,0.8187791,-0.1015268,-0.528664
0.6370219,0.06632867,-0.2357518,0.8040665,-0.1895682,-0.4069165
0.6531726,0.1303904,-0.25212,0.7425281,-0.3274752,-0.3093507
0.732281,0.158506,-0.300398,0.5907852,-0.5894868,-0.2671865
0.8349426,0.1736266,-0.3257568,0.4686563,-0.7245019,-0.2534849
1.037341,0.1072323,-0.3183116,0.4196893,-0.6063339,-0.2766145
1.289584,-0.009069432,-0.3114543,0.537131,-0.3534587,-0.3456425
1.390248,-0.07511478,-0.3085864,0.7834794,-0.2254879,-0.3704692
1.322735,-0.1418344,-0.3945618,0.8520591,-0.416252,-0.2669771
1.259011,-0.1450836,-0.5635417,0.7098883,-0.5940483,-0.09142434
1.24083,-0.1458929,-0.7040723,0.6101134,-0.4888602,0.05899749
1.212447,-0.2545192,-0.7490065,0.673361,-0.3194928,0.1886655
1.246644,-0.4492402,-0.7449582,0.7516358,-0.1035345,0.2436461
1.275515,-0.6313184,-0.7619656,0.8021456,0.4937127,0.03503096
1.231271,-0.6098777,-0.7193397,0.9521722,1.193803,-0.3866127
1.151545,-0.5127523,-0.5711942,1.063272,1.412377,-0.7339207
0.9860261,-0.4769229,-0.4292249,1.111164,0.9805082,-0.7965732
0.8613905,-0.3577548,-0.3821208,1.188448,0.0971407,-0.6064725
0.8590457,-0.2472509,-0.384498,1.229849,-0.3783708,-0.426732
0.9411804,-0.2525392,-0.3879314,1.371616,-0.07495843,-0.3718133
1.065304,-0.2860802,-0.4281535,1.563111,0.3971723,-0.4355881
0.992836,-0.303384,-0.4446498,1.649008,0.7017437,-0.5569789
0.7874992,-0.2549392,-0.4020609,1.70199,0.7080053,-0.5379661
0.6192212,-0.1554942,-0.3565279,1.643578,0.3789504,-0.433414
0.4522824,-0.06285451,-0.2786305,1.504082,-0.01753128,-0.2964427
0.4459409,0.005803077,-0.2183595,1.344173,-0.2260813,-0.1046797
0.4928559,0.006567827,-0.2012261,1.188724,-0.2241401,-0.03788609
0.4609707,-0.05191843,-0.1521814,1.157662,-0.1688607,-0.03095209
0.4986026,-0.1242341,-0.1195334,1.113287,-0.1778688,-0.02754431
0.4908111,-0.1679465,-0.1171664,1.081874,-0.2297199,-0.1014853
0.4685645,-0.1726389,-0.1199048,1.138448,-0.2872955,-0.1427158
0.5115662,-0.1821526,-0.1406429,1.109026,-0.4371628,-0.1603624
0.5425497,-0.1671774,-0.1582774,1.019292,-0.6318425,-0.137202
0.7018857,-0.1412416,-0.1730891,0.8619257,-0.8450892,-0.07052894
1.026223,-0.159583,-0.1664548,0.6932947,-1.088531,-0.06370316
1.46467,-0.1657575,-0.1829378,0.6021376,-1.058929,-0.05533067
1.813899,-0.1599177,-0.315829,0.5067753,-0.6692625,-0.04792227
1.813013,-0.1972721,-0.4919297,0.5440764,-0.3234021,-0.01012504
1.705492,-0.3264312,-0.5462805,0.631314,-0.4222265,0.1192686
1.677857,-0.5325131,-0.5022321,0.5840007,-0.5210831,0.145846
1.600351,-0.5966381,-0.5605966,0.4855655,-0.1243656,-0.1124502
1.43207,-0.4452838,-0.6565128,0.1409162,0.09221119,-0.4791635
1.122458,-0.2621653,-0.6346882,-0.3921387,-0.07743889,-0.553394
0.7965114,-0.137318,-0.620606,-0.5957017,-0.1713666,-0.4429767
0.7537149,-0.1475503,-0.6111734,-0.4873126,-0.2059394,-0.4453197
0.8767162,-0.2534558,-0.5415691,-0.4409839,-0.1006038,-0.3853242
0.8722797,-0.2729514,-0.5045083,-0.3879754,0.2069953,-0.3351825
0.8514172,-0.2682376,-0.4877912,-0.1773949,0.553451,-0.4065409
0.8556661,-0.2476496,-0.4668008,-0.02014511,0.5919648,-0.4315069
0.7778992,-0.1432522,-0.4653544,0.01347922,0.171452,-0.523796
0.7596714,-0.07189024,-0.4766187,-0.0299426,-0.1953239,-0.6194056
0.783697,-0.03136063,-0.4762783,-0.1589909,-0.2115154,-0.5737746
0.7549345,-0.03302393,-0.4315362,-0.1919302,-0.01299001,-0.5107409
0.7301954,-0.07268742,-0.3665156,-0.1308605,0.1651101,-0.3940686
0.6868116,-0.09051441,-0.3167628,-0.03646225,0.1971632,-0.3113342
0.6606467,-0.1543769,-0.2984655,0.1595232,0.2047306,-0.3820116
0.6413309,-0.1790609,-0.2807349,0.3479265,0.1866068,-0.4807515
0.574299,-0.1604665,-0.2300742,0.481821,0.1747664,-0.5821098
0.549122,-0.1098081,-0.2081852,0.5292289,0.121591,-0.6068187
0.5819277,0.07266766,-0.228295,0.4891713,-0.06623719,-0.50487
0.6323737,0.1840375,-0.2526821,0.4136572,-0.286003,-0.38505
0.7216356,0.1981361,-0.2974717,0.2230661,-0.5068408,-0.2191273
0.877618,0.2184195,-0.3448058,0.0354068,-0.5557978,-0.08963361
1.057523,0.1558949,-0.3478842,-0.05884021,-0.4482315,-0.09955566
1.170267,0.09543247,-0.3431033,-0.08305372,-0.3438985,-0.1080914
1.244467,0.0003649413,-0.39192,0.0666795,-0.1331838,-0.1143532
1.338141,-0.1726162,-0.4633159,0.276233,-0.00304014,-0.1112018
1.335963,-0.2065275,-0.5069742,0.3437816,-0.09390162,0.03529623
1.215925,-0.1340471,-0.5432163,0.2486023,-0.2932659,0.2273198
1.178157,-0.1121915,-0.631541,0.1114357,-0.5524112,0.305925
1.200175,-0.112996,-0.7356746,0.03304938,-0.5104236,0.2735864
1.212704,-0.1814129,-0.7714014,0.003748841,0.06092582,0.2127378
1.256872,-0.3420793,-0.7664663,0.1056327,0.7364227,0.1251455
1.190595,-0.394954,-0.693129,0.2829894,0.9859974,0.02574353
1.068889,-0.3230594,-0.551448,0.3983497,0.824312,0.02170688
0.9888416,-0.2665068,-0.4744126,0.4593225,0.5891118,0.08738197
0.8954252,-0.1834336,-0.4457452,0.3727722,0.1928509,0.2064051
0.9047933,-0.1514064,-0.4139454,0.2555595,-0.2927442,0.3083015
0.9827979,-0.2121095,-0.4084058,0.3116966,-0.3510101,0.2846877
1.035948,-0.2145215,-0.4233541,0.4267952,-0.03726675,0.2556866
1.028875,-0.1941854,-0.4368198,0.54892,0.4342803,0.2304431
0.9037181,-0.1828889,-0.4216758,0.5851902,0.9180254,0.1979063
0.7521872,-0.1398158,-0.3844528,0.4462852,1.030174,0.2210668
0.5624118,-0.1002261,-0.2980469,0.3196075,0.7995197,0.236454
0.3591339,-0.06112825,-0.1780363,0.2325802,0.3806866,0.2545544
0.2950279,-0.0560491,-0.1370875,0.1607556,-0.04999356,0.271726
0.3229564,-0.09521731,-0.1295527,0.1673307,-0.2356404,0.3181309
0.3507313,-0.1211425,-0.09725863,0.1567463,-0.3473863,0.4533568
0.41272,-0.1404087,-0.110632,0.1539352,-0.496916,0.5768693
0.5412427,-0.1558374,-0.1498608,0.2060063,-0.6610922,0.6550274
0.7034678,-0.1749462,-0.1968642,0.2215754,-0.894156,0.6763951
0.965111,-0.2226111,-0.2799424,0.2083314,-1.041353,0.6139027
1.324998,-0.2777067,-0.3545224,0.1503136,-0.954971,0.5071769
1.587367,-0.3183113,-0.4108312,0.08386859,-0.6045922,0.3609632
1.646149,-0.3157169,-0.4438921,0.1147937,-0.05786546,0.2455138
1.506808,-0.2977589,-0.4597473,0.121875,0.07422953,0.2272284
1.335556,-0.3385945,-0.5329807,-0.001045777,-0.716476,0.2832016
1.2867,-0.4385439,-0.594804,-0.1078572,-1.304659,0.3184892
1.292715,-0.5239111,-0.6114785,-0.1382838,-0.5027443,0.1053043
1.230843,-0.4252499,-0.6884998,-0.354679,0.5960414,-0.2826796
1.00536,-0.1956038,-0.7233724,-0.825949,0.7767821,-0.4465181
0.7742285,-0.1065398,-0.6330001,-1.114844,0.5941631,-0.368785
0.7052496,-0.114457,-0.5426811,-1.082697,0.4357194,-0.2867409
0.7109494,-0.1556055,-0.4984766,-1.017558,0.07718309,-0.2249246
0.7809974,-0.2409556,-0.4859288,-0.9567014,-0.1553888,-0.1747307
0.8879203,-0.2305141,-0.4960395,-0.9103247,-0.09803,-0.2065238
0.9559392,-0.1952636,-0.4988946,-0.8846444,0.05042115,-0.2731269
0.9727769,-0.1900942,-0.4983753,-0.7469371,0.3009828,-0.3104202
0.9331027,-0.1399169,-0.4928288,-0.643268,0.5360006,-0.352798
0.8627526,-0.08189307,-0.4682716,-0.6757007,0.599775,-0.3482175
0.7603983,-0.03612725,-0.4392267,-0.7380939,0.5263505,-0.3074819
0.6383987,-0.05676932,-0.3915692,-0.8006019,0.3789003,-0.2594284
0.4779848,-0.08903124,-0.3138264,-0.7680305,0.1350929,-0.1208275
0.3827658,-0.08154626,-0.279556,-0.6532265,-0.1397944,0.01200984
0.4864676,-0.1322674,-0.2916966,-0.5047566,-0.263582,0.05351467
0.5691891,-0.1524648,-0.274191,-0.3004671,-0.3138779,0.0335159
0.6256958,-0.07832304,-0.2968267,-0.1904914,-0.367923,0.009643062
0.783375,0.01856795,-0.3873838,-0.1885666,-0.4207788,0.04691
0.8930979,0.07504442,-0.4357101,-0.2376316,-0.4960609,0.07676881
1.013636,0.06282478,-0.4608313,-0.3506751,-0.4593853,0.1326885
1.105444,0.0567461,-0.4790177,-0.3757335,-0.3852704,0.1925832
1.144336,0.01433705,-0.4552461,-0.3305889,-0.3338597,0.1782175
1.301153,-0.08521722,-0.4441865,-0.2457647,-0.2392487,0.1991966
1.331644,-0.1433241,-0.4562945,-0.03222209,-0.2658921,0.2012951
1.242352,-0.204245,-0.5346321,0.02977439,-0.283062,0.1917428
1.253887,-0.2803919,-0.7153766,-0.1651722,-0.1275413,0.259708
1.203002,-0.2829088,-0.8191938,-0.2591915,0.05332594,0.3040052
1.169475,-0.2494821,-0.7465463,-0.1258055,0.2520778,0.3094346
1.156147,-0.2971874,-0.68014,0.02992011,0.3120733,0.2733565
0.9988281,-0.3607772,-0.6985823,0.07057543,0.1254842,0.2196277
0.8994982,-0.3703348,-0.6723466,0.1248876,0.001965326,0.1891746
0.8990025,-0.3877445,-0.6316394,0.1997433,0.1303737,0.1471791
0.9050988,-0.3647341,-0.5995301,0.191988,0.3561565,0.1146347
0.9474761,-0.3407318,-0.4943051,0.2420595,0.4515209,0.03643361
0.9765579,-0.3483515,-0.4124626,0.3571579,0.4193882,-0.06420147
1.002722,-0.3096826,-0.3682843,0.5094319,0.38488,-0.08520874
0.9990602,-0.2801468,-0.3383253,0.7635244,0.397001,-0.08478327
0.9168272,-0.2392953,-0.3841953,0.9869199,0.4762828,-0.09080141
0.7955284,-0.2001851,-0.4068915,1.062263,0.6268359,-0.09821232
0.6533228,-0.1973803,-0.3787,0.9807406,0.7416898,-0.1171813
0.5612483,-0.1612503,-0.3372711,0.860064,0.5581549,-0.1292505
0.5182575,-0.1419028,-0.2707806,0.7633227,0.2271223,-0.1174828
0.4921444,-0.1193395,-0.2246505,0.6741131,0.1095367,-0.08629582
0.5046216,-0.0803224,-0.1954884,0.6583343,0.1161998,-0.07353507
0.5139919,-0.06651735,-0.1961571,0.563763,0.2002338,-0.06320142
0.5295812,-0.03205837,-0.2122702,0.4217968,0.2549756,-0.05368183
0.5124077,-0.03383065,-0.1886311,0.4013215,0.05489614,-0.0338824
0.4642287,-0.06991561,-0.1755865,0.3377028,-0.267888,0.05818038
0.4918955,-0.09813624,-0.1786949,0.2491582,-0.5792477,0.1850457
0.5755584,-0.1724765,-0.1674203,0.1840582,-0.851328,0.2797048
0.7712019,-0.255166,-0.169464,0.1162592,-1.041167,0.2788961
1.104453,-0.3107107,-0.1949821,0.1170439,-1.055626,0.1846936
1.45509,-0.3317919,-0.2556808,0.1133771,-0.7694754,0.05831917
1.740525,-0.2754129,-0.3559054,0.1181674,-0.3005483,-0.09804801
1.790986,-0.170794,-0.4569432,0.1204981,-0.1371565,-0.1261354
1.611239,-0.1364076,-0.5064908,0.1319292,-0.6809858,0.08553586
1.478023,-0.3092333,-0.5052364,0.2990215,-1.164275,0.234792
1.456382,-0.5882655,-0.5291958,0.4137689,-0.6598926,0.01814032
1.325934,-0.6682945,-0.5753345,0.1738097,0.1452325,-0.4263198
1.001376,-0.5620184,-0.576752,-0.2986729,0.4177707,-0.7760773
0.7566964,-0.4678611,-0.5647084,-0.5884083,0.1817515,-0.9520232
0.7334665,-0.3592623,-0.5545299,-0.5187225,-0.2816359,-1.027679
0.7723709,-0.2843998,-0.5355035,-0.1912026,-0.4112882,-1.019531
0.8558801,-0.3163971,-0.5442375,0.2108967,-0.1091233,-0.8620755
0.9771568,-0.3117123,-0.5515476,0.3663563,0.4131643,-0.6546338
1.001948,-0.2682088,-0.5283329,0.4266703,0.8551995,-0.706642
0.9174494,-0.2267428,-0.5099785,0.5649577,0.4868821,-0.9243758
0.83862,-0.1165117,-0.5084368,0.3644328,-0.2238739,-1.064024
0.8231759,-0.02566902,-0.5103766,0.0292787,-0.3273274,-1.092916
0.8012235,-0.01499635,-0.496872,0.02106871,-0.004868215,-0.8977701
0.7294145,-0.05693658,-0.4565517,0.1804213,0.4355314,-0.6608377
0.6312327,-0.1436316,-0.3933545,0.4312659,0.4767652,-0.5808108
0.5593764,-0.2013169,-0.3305496,0.6529788,0.03978896,-0.5747164
0.5647611,-0.210303,-0.29934,0.6676868,-0.2832706,-0.6774103
0.6171451,-0.1533792,-0.30367,0.63557,-0.4250458,-0.7824107
0.6838512,-0.04342078,-0.324745,0.6316398,-0.3245209,-0.7634269
0.7267874,0.02368428,-0.3389902,0.6033238,-0.2337991,-0.6198397
0.7741276,0.1105571,-0.348381,0.5530325,-0.3338464,-0.4202321
0.9026347,0.2103768,-0.3552208,0.5029262,-0.3401703,-0.3749592
1.029242,0.132005,-0.3241877,0.4673271,-0.4340226,-0.4269749
1.13272,-0.05673637,-0.2779907,0.4689199,-0.3264001,-0.4595402
1.204256,-0.1470231,-0.3002924,0.6202605,0.0348374,-0.5066583
1.146142,-0.1861763,-0.3967948,0.8663552,0.1243551,-0.4612281
1.096603,-0.1973189,-0.4979447,0.9241299,0.1196255,-0.2535843
1.09482,-0.1153576,-0.5833386,0.6053069,-0.01783696,0.04877421
1.035735,-0.07498557,-0.6805893,0.1436892,-0.2109942,0.2682449
1.078308,-0.1302879,-0.7282099,-0.007754973,-0.1107652,0.2985264
1.18912,-0.245854,-0.7084277,0.06452769,0.2459007,0.2989255
1.185172,-0.4110843,-0.7304927,0.09270117,0.8152267,0.3189062
1.134836,-0.4758608,-0.7079092,0.2220106,1.036612,0.257019
1.028363,-0.4248671,-0.5583521,0.4743226,0.7174854,0.1642538
0.9162186,-0.3624815,-0.4315928,0.5704584,0.3191797,0.07732597
0.9455443,-0.2774729,-0.3849156,0.4117431,-0.2067855,0.05111638
1.001479,-0.1745797,-0.4152047,0.3002031,-0.4969896,0.1610408
1.010803,-0.1275363,-0.4500215,0.4104824,-0.1784486,0.2589101
1.017641,-0.1511423,-0.4500663,0.5263687,0.2270827,0.2746313
0.9671168,-0.193291,-0.486946,0.5997469,0.6109277,0.2623757
0.8350891,-0.2507851,-0.4364239,0.6589629,0.9135044,0.2475528
0.642174,-0.2468831,-0.3148702,0.6283484,0.7581503,0.2846459
0.4446532,-0.1378093,-0.2193552,0.579418,0.5430507,0.3322747
0.3423349,-0.03836402,-0.1181262,0.47636,0.278907,0.4245537
0.3530685,-0.007134859,-0.116729,0.2872156,-0.3269562,0.5730323
0.4326124,-0.04016291,-0.1390019,0.1767185,-0.6828892,0.6791517
0.5690237,-0.06116587,-0.1454061,0.09689573,-0.8228096,0.7978946
0.7624574,-0.09038382,-0.232763,-0.02689317,-0.9968322,0.8979104
0.9852146,-0.20946,-0.2841188,-0.05597137,-0.9790526,0.8834308
1.215498,-0.3332718,-0.3165323,0.06497843,-0.8978304,0.7198295
1.418611,-0.4307796,-0.3596898,0.2374356,-0.5460553,0.3850849
1.47116,-0.4258493,-0.3673702,0.2896638,-0.01247794,0.07471179
1.353009,-0.3050969,-0.4284968,0.1883511,-0.01130522,-0.007544356
1.253653,-0.2783328,-0.5437046,0.01709488,-0.6295479,0.04919094
1.254215,-0.388286,-0.6179311,-0.2027365,-1.054968,0.01922321
1.248153,-0.5052383,-0.6182765,-0.343117,-0.3979677,-0.1817113
1.13371,-0.4659271,-0.6602883,-0.4195625,0.5952756,-0.4505933
0.9159923,-0.3289006,-0.7367464,-0.6720434,0.8059805,-0.5689269
0.7578507,-0.2536768,-0.6760063,-0.9768215,0.7083295,-0.4474216
0.766678,-0.1919069,-0.5942246,-1.066749,0.6232811,-0.3796194
0.8317873,-0.2102632,-0.574838,-1.034061,0.3637376,-0.4402166
0.8700113,-0.2369979,-0.5072229,-1.006809,0.1830306,-0.4035985
0.8918451,-0.1865508,-0.4957746,-0.922552,0.1735837,-0.3670949
0.8766476,-0.216271,-0.5214256,-0.7430681,0.246482,-0.3443693
0.8530553,-0.2040775,-0.4485096,-0.5758724,0.2970157,-0.2741425
0.8421845,-0.1659127,-0.4268133,-0.5194777,0.2286505,-0.2873094
0.7993045,-0.1751774,-0.4398305,-0.5282994,0.1751924,-0.3108669
0.7355219,-0.09787539,-0.3671155,-0.5600762,0.2015851,-0.2993598
0.681406,-0.07911353,-0.3454633,-0.603822,0.2703041,-0.2526682
0.6315732,-0.09967218,-0.344507,-0.6119855,0.3265902,-0.1133009
0.5564777,-0.06908611,-0.2926288,-0.5442729,0.2121943,-0.01484015
0.5179514,-0.08321453,-0.279344,-0.4241016,-0.01119128,0.006131557
0.5829002,-0.07490481,-0.2858413,-0.3684616,-0.1486455,0.01029241
0.646194,-0.04107364,-0.2972898,-0.3879222,-0.2335713,0.02740957
0.7302323,0.001901473,-0.330098,-0.4138708,-0.311431,0.1029089
0.8629783,0.04720561,-0.3688982,-0.4879374,-0.2991607,0.1721165
0.9594015,0.05494995,-0.3883487,-0.5564499,-0.1822914,0.2191806
1.094551,0.0697763,-0.3949374,-0.5159031,-0.03466736,0.2434752
1.16154,0.03683812,-0.4262454,-0.430386,0.0478393,0.2361407
1.109584,-0.07151974,-0.432227,-0.3398004,0.01182323,0.2816908
1.151385,-0.1735224,-0.4485379,-0.2134695,-0.03425025,0.3542082
1.185184,-0.2021494,-0.5550851,-0.198621,-0.004280934,0.446001
1.142383,-0.1942434,-0.7004676,-0.4182488,0.08496918,0.5702737
1.141055,-0.2411051,-0.782543,-0.6075762,0.2667844,0.5842555
1.139423,-0.2802471,-0.7165498,-0.5466636,0.4498685,0.4916268
1.13619,-0.3374724,-0.6309238,-0.4654025,0.5184574,0.401507
1.137815,-0.4272473,-0.6035104,-0.4435338,0.6451096,0.279949
1.11379,-0.3795354,-0.5229519,-0.2899535,0.9281755,0.1649483
1.05132,-0.2692043,-0.4608172,-0.2350969,0.9820462,0.1564466
0.9467601,-0.1814697,-0.432765,-0.4141386,0.5933476,0.2087819
0.9066054,-0.1021864,-0.3869969,-0.5141948,0.1989398,0.2966635
0.9626066,-0.1257572,-0.3880485,-0.5309206,0.1334299,0.4437556
0.9879539,-0.1508598,-0.3923392,-0.466465,0.3985051,0.5469846
0.9332195,-0.1519138,-0.3829158,-0.3303103,0.7561676,0.5446952
0.824817,-0.2094533,-0.361931,-0.3324415,0.868006,0.5278129
0.6510429,-0.2014867,-0.2870166,-0.3316204,0.8330542,0.5383816
0.4788905,-0.1600686,-0.2188219,-0.3279127,0.7048349,0.5467506
0.3967308,-0.1300658,-0.1865977,-0.4191559,0.395358,0.5639207
0.3677846,-0.08471653,-0.1726945,-0.4759985,0.03515125,0.6086196
0.3989776,-0.1051293,-0.1630664,-0.5340666,-0.2966636,0.6833096
0.4800837,-0.1311379,-0.162111,-0.5448055,-0.451737,0.7641109
0.5584244,-0.1547104,-0.1846138,-0.4822602,-0.5016263,0.8098308
0.6945372,-0.2344903,-0.1939562,-0.355332,-0.6293565,0.8215876
0.8646767,-0.2957151,-0.2079131,-0.122375,-0.6666659,0.7670277
1.041489,-0.327283,-0.2356532,-0.000149389,-0.5617393,0.6090973
1.293178,-0.3365856,-0.2755534,-0.03411754,-0.3346736,0.3941402
1.50117,-0.3229695,-0.3356062,-0.04445282,-0.03583109,0.2093708
1.519348,-0.2891857,-0.3403104,-0.02335843,0.0934265,0.1479027
1.444433,-0.2006166,-0.3652848,-0.0726323,-0.009391304,0.1644106
1.363812,-0.1278164,-0.4745478,-0.2297701,-0.3929165,0.2269404
1.231248,-0.2138277,-0.5285574,-0.3639341,-0.8336574,0.3081741
1.136385,-0.4070022,-0.5366513,-0.3588568,-0.5978399,0.1192163
1.145282,-0.473821,-0.5555686,-0.3680268,-0.001422808,-0.2370436
1.101393,-0.4129716,-0.5704307,-0.5997121,0.224014,-0.3717557
0.9726998,-0.3242539,-0.5988846,-0.9010475,0.5126722,-0.4244938
0.8481053,-0.1780888,-0.5869011,-1.087961,0.661396,-0.4772747
0.7608403,-0.09618457,-0.5359646,-1.141792,0.3489179,-0.4292185
0.7604992,-0.1163259,-0.4972353,-1.060722,0.1538512,-0.3512493
0.8206841,-0.1145132,-0.4673692,-1.042069,0.01948408,-0.1910973
0.8698882,-0.1078908,-0.4927702,-1.005802,0.08352487,-0.01745585
0.9033083,-0.1123264,-0.5394532,-0.8114915,0.3030185,0.01090716
0.9096598,-0.1218636,-0.5398709,-0.6998392,0.2288536,-0.0267049
0.8904068,-0.1531243,-0.5173864,-0.6826008,0.2137813,-0.07542849
0.8596825,-0.1758733,-0.4539525,-0.7378685,0.1418529,-0.1556644
0.7990094,-0.163605,-0.384324,-0.8053382,0.01332778,-0.1960307
0.7350312,-0.1312556,-0.3628861,-0.7497762,0.1189324,-0.1204158
0.68684,-0.1005478,-0.3526685,-0.6719704,0.1491337,0.003939625
0.6421422,-0.07179324,-0.3355133,-0.5445309,0.1747935,0.1029648
0.6296454,-0.06873261,-0.2997522,-0.4740281,0.0746921,0.1446911
0.6418142,-0.07088117,-0.2736362,-0.5465892,-0.2495294,0.09866188
0.6891416,-0.03932006,-0.278829,-0.5836044,-0.4599657,0.0833014
0.8096191,-0.002214384,-0.2916496,-0.6402553,-0.5716206,0.131681
0.9533782,0.03763744,-0.3381971,-0.6887216,-0.4958765,0.1829437
1.066412,0.05203781,-0.3757281,-0.669032,-0.2053735,0.2864233
1.115565,0.0129498,-0.3626782,-0.6491034,0.1492719,0.3616395
1.102275,-0.03406725,-0.3516042,-0.5526332,0.3445066,0.3590704
1.097898,-0.08041839,-0.3455861,-0.4467763,0.2322318,0.3657699
1.11716,-0.1330201,-0.3427305,-0.3943027,0.195811,0.3892979
1.115982,-0.1508876,-0.3861984,-0.3122925,0.1329001,0.4572176
1.086772,-0.08414598,-0.5253539,-0.2862879,-0.2097069,0.5470936
1.063762,-0.023363,-0.7124393,-0.3974114,-0.32737,0.5740766
1.090758,-0.1157115,-0.7873599,-0.5203323,-0.01886782,0.5513848
1.133177,-0.2579393,-0.74852,-0.5144303,0.5046498,0.4981876
1.12871,-0.3299287,-0.7129557,-0.460599,0.8659365,0.4010482
1.115933,-0.3748753,-0.6453367,-0.4142879,0.8418904,0.2845448
1.109391,-0.3577411,-0.5366039,-0.2586896,0.8471612,0.1930238
1.073242,-0.2732236,-0.4698509,-0.1686533,0.872969,0.1536257
1.045483,-0.1634768,-0.4128403,-0.3378152,0.5409575,0.2061534
1.045879,-0.03811544,-0.383769,-0.5391205,0.05114959,0.3595008
1.048961,-0.0006125392,-0.427872,-0.5973794,-0.123719,0.556476
1.03241,-0.04122372,-0.4548291,-0.5669822,0.2819402,0.6851093
0.9554335,-0.07517071,-0.4475001,-0.5531144,0.8403232,0.6554964
0.8003379,-0.1512088,-0.3993742,-0.5649893,1.022518,0.5805206
0.6109247,-0.2133686,-0.2915897,-0.4993136,0.9758652,0.5302596
0.467294,-0.205383,-0.2089773,-0.4116568,0.7810395,0.4730387
0.3896046,-0.1901186,-0.1563834,-0.3742947,0.3810582,0.4877522
0.3645371,-0.1547075,-0.1172957,-0.3427284,0.01120275,0.5218977
0.3896189,-0.1141055,-0.109417,-0.3112901,-0.1264319,0.5569448
0.423177,-0.1011826,-0.09937609,-0.2656956,-0.1288209,0.649796
0.4901314,-0.0959531,-0.1010696,-0.2393206,-0.3016784,0.7129135
0.6414154,-0.1120818,-0.1150747,-0.2549624,-0.6783901,0.7373248
0.8735828,-0.1651468,-0.1222712,-0.2486988,-0.9831149,0.6761642
1.178718,-0.2499606,-0.1758598,-0.2120021,-1.008309,0.5175807
1.435343,-0.293487,-0.2796804,-0.1453757,-0.6957629,0.3656558
1.534079,-0.246419,-0.3770649,-0.05219507,-0.2634494,0.2707175
1.513311,-0.1892506,-0.4511925,-0.004235752,-0.1189525,0.3169426
1.397695,-0.1836898,-0.5103399,-0.05354902,-0.4829839,0.3974978
1.289208,-0.2885922,-0.5525436,-0.09894232,-0.8430892,0.3869547
1.304186,-0.471707,-0.5787792,-0.03158498,-0.5800195,0.2455568
1.255559,-0.4968084,-0.6266426,-0.04887542,-0.1003081,-0.1150388
1.015529,-0.3268643,-0.6800488,-0.3829801,0.238469,-0.4067337
0.8296427,-0.1600735,-0.6567517,-0.8336502,0.3739751,-0.4463222
0.8048775,-0.09370944,-0.581871,-1.006099,0.1525013,-0.4519514
0.8349216,-0.1227072,-0.5188294,-0.9525881,0.1066722,-0.4609454
0.8690286,-0.1365924,-0.4782427,-0.9643129,0.2382476,-0.449055
0.8578571,-0.1082628,-0.4752311,-0.9326875,0.2346899,-0.3784902
0.8621047,-0.1239504,-0.4589695,-0.8111434,0.368145,-0.2382887
0.8811887,-0.116773,-0.4299067,-0.7263767,0.2229831,-0.1766837
0.8475793,-0.08249651,-0.4582594,-0.6526876,-0.161722,-0.1938966
0.8531515,-0.07275327,-0.4732583,-0.7178608,-0.2576142,-0.1774055
0.8608624,-0.0592289,-0.4595426,-0.8457685,-0.2648051,-0.118211
0.8480256,-0.07326269,-0.4728334,-0.8469586,-0.1262257,-0.07669712
0.8635223,-0.08330824,-0.4661259,-0.7714354,0.09331682,-0.0476325
0.8260232,-0.0900242,-0.4463716,-0.5892304,0.2440607,-0.01171947
0.7597181,-0.126007,-0.3953935,-0.4360461,0.3300344,-0.01924199
0.6995084,-0.1275392,-0.3098328,-0.3594305,0.1245683,-0.04466795
0.6721805,-0.1066445,-0.2815696,-0.2938629,-0.1150699,-0.05525899
0.6925242,-0.05540158,-0.2600573,-0.3355278,-0.2130063,-0.04344465
0.7080205,0.03060682,-0.2352829,-0.3365503,-0.240494,0.03088464
0.776701,0.1111738,-0.2746861,-0.3469488,-0.1794286,0.1385778
0.8493909,0.1960953,-0.2963754,-0.4586613,-0.1957643,0.2055417
0.8950458,0.2121027,-0.2763386,-0.4699686,-0.1935995,0.1927823
0.9859993,0.1291768,-0.2801295,-0.4371447,-0.1458642,0.1583896
1.028285,0.003327888,-0.326157,-0.3840767,-0.1423166,0.1636969
1.02336,-0.1208256,-0.4467852,-0.3132168,-0.1827984,0.2261293
1.033526,-0.1917608,-0.6162148,-0.305721,-0.3976504,0.3427266
1.071783,-0.2453216,-0.7097272,-0.2674641,-0.5566464,0.3923262
1.187528,-0.2982015,-0.7340758,-0.189423,-0.2461972,0.361177
1.285938,-0.3497855,-0.7889279,-0.05231891,0.6476239,0.3116172
1.273094,-0.4239307,-0.7798816,0.1195228,1.481393,0.1689055
1.182709,-0.4213927,-0.6544107,0.1900973,1.348656,0.01334877
1.074564,-0.3214738,-0.5278143,0.2156992,0.8149566,-0.01339849
1.011851,-0.2178374,-0.4197555,0.2171099,0.5752662,0.06625711
0.9966643,-0.1335767,-0.3957768,0.1514583,0.1402556,0.2080615
1.006607,-0.09570026,-0.4534373,0.1241412,-0.1620174,0.3664776
1.030751,-0.09399513,-0.4500823,0.1590787,0.01453044,0.5136981
1.03287,0.1376012,-0.3845121,-0.8704395,-0.2809036,0.4111372
1.100685,0.0734054,-0.3837082,-0.8442331,-0.2523799,0.4841673
1.414893,0.0004265596,-0.4729364,-0.7479532,-0.2599821,0.5211093
1.523509,-0.1102782,-0.5228521,-0.7491409,-0.3314748,0.5249358
1.414915,-0.1455992,-0.6245332,-0.9198263,-0.3744902,0.5167926
1.427608,-0.1541511,-0.8076183,-1.084885,-0.217152,0.5999477
1.360216,-0.2274458,-0.8246107,-1.002528,0.1090945,0.7034819
1.17878,-0.2218878,-0.7539684,-0.8382926,0.4514049,0.710931
1.119979,-0.2734491,-0.7393568,-0.8250184,0.6367472,0.5753989
1.078338,-0.3738904,-0.6535444,-0.7581172,0.6219784,0.3877257
1.002181,-0.352664,-0.5367841,-0.7065777,0.6732853,0.3489026
0.9752411,-0.3201116,-0.480963,-0.728269,0.8426289,0.4561741
0.9206052,-0.2260855,-0.404215,-0.6403158,0.6754522,0.5689385
0.8708855,-0.1205564,-0.3781997,-0.6558816,0.2190254,0.6371103
0.9118034,-0.1163806,-0.3992178,-0.7628831,-0.1229029,0.6525303
0.9636696,-0.1240495,-0.3664819,-0.8063823,-0.2308529,0.6131986
0.9816452,-0.1751651,-0.3904364,-0.8195158,0.1375034,0.5738909
0.9308923,-0.2234878,-0.4211389,-0.6829245,0.7482959,0.5760608
0.7781605,-0.2241753,-0.3832423,-0.5220695,1.113722,0.5801513
0.6119822,-0.1963363,-0.3361751,-0.4642785,1.149187,0.5989989
0.458077,-0.1260453,-0.2410034,-0.4765445,0.7614702,0.656521
0.3446048,-0.08549561,-0.1712782,-0.5706657,0.2168129,0.7189778
0.3447559,-0.06840922,-0.1472304,-0.643953,-0.2743337,0.8087471
0.4156882,-0.08863262,-0.1011061,-0.6768971,-0.7182688,0.9087321
0.57485,-0.138625,-0.1099226,-0.6004187,-0.9478556,0.9807126
0.844163,-0.1890123,-0.1898208,-0.4797033,-1.037863,1.015863
1.135797,-0.2955249,-0.3138937,-0.4901837,-0.8120511,0.871346
1.353466,-0.3611289,-0.4161665,-0.4758523,-0.1889858,0.4857512
1.41246,-0.3555285,-0.4071537,-0.4188669,0.4332679,0.09922588
1.387929,-0.3294858,-0.3674511,-0.3977667,0.7393214,-0.06127188
1.320152,-0.2608,-0.3743655,-0.4401408,0.4276551,-0.0279319
1.113049,-0.2228605,-0.4372772,-0.5616802,-0.5481481,0.1347849
0.9693674,-0.2789942,-0.5468148,-0.5817114,-1.392865,0.2889302
1.094458,-0.4280875,-0.6171849,-0.5641245,-0.6203525,0.05697847
1.192355,-0.5306499,-0.6804617,-0.7202054,0.862384,-0.3698791
1.053058,-0.4242059,-0.7635872,-1.141158,0.8802177,-0.4594608
0.9126911,-0.2313761,-0.7274816,-1.639408,0.6737854,-0.4663719
0.8532918,-0.1210394,-0.6414379,-1.691623,0.7809982,-0.5135076
0.8256722,-0.1009864,-0.605452,-1.416537,0.3542191,-0.3904517
0.8927445,-0.1668797,-0.5143343,-1.235467,0.5004554,-0.3154134
0.925612,-0.2753463,-0.4224826,-0.9926695,0.7102668,-0.3052624
0.8774331,-0.3257929,-0.3848815,-0.7367185,0.5504181,-0.3282031
0.8400265,-0.3203302,-0.3590972,-0.6724373,0.6673104,-0.4094014
0.7676381,-0.2619343,-0.3743095,-0.6741448,0.4341705,-0.4300678
0.7111055,-0.140576,-0.3612382,-0.6905456,0.3193664,-0.4549712
0.6699277,-0.05223118,-0.3149725,-0.6908486,0.4066523,-0.3843499
0.5816227,-0.01115634,-0.300596,-0.640243,0.2437634,-0.2019103
0.5159674,-0.005195031,-0.2749554,-0.5894438,0.2003733,-0.04148709
0.4924569,-0.03882554,-0.2546887,-0.5236706,-0.07618038,0.1153113
0.5078918,-0.0603702,-0.2540729,-0.4589736,-0.3276753,0.1582344
0.5440096,-0.06742759,-0.2659781,-0.3829114,-0.3717175,0.1541738
0.6087532,-0.02199388,-0.2965344,-0.3442279,-0.5404879,0.2022966
0.721923,0.07247617,-0.3222434,-0.4573926,-0.5779466,0.2679
0.8199261,0.1285176,-0.3642504,-0.6223205,-0.6619651,0.3856941
0.9508871,0.1281859,-0.4093409,-0.750247,-0.702098,0.4478892
1.117128,0.09172291,-0.4342117,-0.8122952,-0.5030933,0.4675925
1.204753,0.02836005,-0.4462319,-0.7782935,-0.336013,0.4909621
1.276698,-0.09496292,-0.4662768,-0.7012545,-0.3001105,0.466661
1.355357,-0.2064233,-0.531055,-0.5860843,-0.4129373,0.4748168
1.352266,-0.2239709,-0.6132955,-0.5103832,-0.3709275,0.4840358
1.346544,-0.2784899,-0.7360897,-0.512566,-0.0340017,0.4706905
1.307664,-0.3774762,-0.8360517,-0.4338951,0.3190915,0.4667
1.131521,-0.4213848,-0.7843841,-0.2648376,0.3910651,0.4122461
1.026078,-0.4682805,-0.7287582,-0.1213825,0.3183996,0.3060633
1.053954,-0.5068991,-0.699662,-0.01695128,0.6093688,0.1257117
1.063358,-0.474271,-0.5875127,0.02543309,1.002242,-0.1001556
1.057966,-0.372425,-0.491498,-0.01362247,1.138486,-0.2438111
0.9964463,-0.1876229,-0.424819,-0.09346061,0.8837863,-0.2365723
0.9122153,-0.02927335,-0.4027136,-0.2242016,0.2278597,-0.05681869
0.913157,-0.02822073,-0.4611497,-0.3260858,0.02247287,0.197284
0.9307264,-0.1236149,-0.4827055,-0.3127668,0.3448411,0.3441012
0.8981396,-0.2354524,-0.4626753,-0.302855,0.6662945,0.331418
0.801336,-0.2878863,-0.3968865,-0.2819424,1.016377,0.2671175
0.6383044,-0.2470424,-0.2677982,-0.1874673,1.072891,0.2326547
0.4698756,-0.1946996,-0.1920309,-0.1159986,0.829114,0.2298308
0.3711265,-0.1160985,-0.1892966,-0.1068176,0.5606537,0.2897328
0.3191043,-0.03434808,-0.1935043,-0.1755915,0.2836708,0.3835614
0.2957339,-0.04446665,-0.1737493,-0.2630806,0.07557235,0.4517528
0.3473073,-0.0799956,-0.1532056,-0.3036134,-0.190171,0.4814952
0.4400346,-0.131806,-0.1487164,-0.2901864,-0.4554436,0.4680059
0.600007,-0.2177067,-0.1397115,-0.2048841,-0.548583,0.4788927
0.8346995,-0.2413908,-0.1580799,-0.1181239,-0.4509228,0.5333168
1.041957,-0.2215095,-0.2117534,-0.06755153,-0.2423926,0.5993842
1.241072,-0.1939394,-0.2811636,-0.1622435,-0.1665851,0.6710273
1.477091,-0.1116966,-0.3808316,-0.3977134,-0.2819191,0.6830828
1.665775,-0.05955451,-0.5555416,-0.4955331,-0.4751155,0.6387446
1.658547,-0.2395802,-0.7454071,-0.4718712,-0.4872605,0.5456473
1.589033,-0.6397165,-0.7607569,-0.4946485,-0.2434516,0.2818497
1.603887,-0.8577267,-0.6802779,-0.5955644,0.2261443,-0.1494101
1.403716,-0.6088984,-0.643115,-0.7246982,0.8287296,-0.446599
1.033621,-0.2372462,-0.5718608,-0.8445358,0.8843834,-0.4188631
0.8086471,-0.0934546,-0.5568818,-1.097054,0.536987,-0.3222029
0.6987252,-0.03967128,-0.6159843,-1.412354,0.4705448,-0.2921792
0.7148579,-0.07329314,-0.5997902,-1.5697,0.3853738,-0.2267229
0.7938204,-0.230216,-0.5313843,-1.563943,0.2599205,-0.1907784
0.8673568,-0.3198186,-0.4320922,-1.386054,0.2854652,-0.1797907
0.9321367,-0.3686882,-0.3819799,-1.005884,0.3617705,-0.1870727
0.8734378,-0.3411726,-0.4267091,-0.6116469,0.555584,-0.2593676
0.8073294,-0.2399361,-0.4218223,-0.4702226,0.5932046,-0.3345641
0.7609388,-0.2011216,-0.4050952,-0.5281249,0.3971384,-0.3865901
0.6474675,-0.08478675,-0.4090401,-0.6539507,0.2130954,-0.3183173
0.5591342,0.01777252,-0.3499659,-0.8270344,0.08482188,-0.1511297
0.5363023,-0.02869216,-0.3060146,-0.873476,0.07325981,-0.05076251
0.5822514,-0.09720902,-0.2800789,-0.7117661,-0.02169514,-0.03413217
0.594929,-0.1601221,-0.2141621,-0.4753135,-0.2868516,-0.1131237
0.5987221,-0.1567184,-0.1892765,-0.2853796,-0.4915209,-0.1766189
0.6954514,-0.0683296,-0.2439185,-0.2134033,-0.5765961,-0.1454345
0.805376,0.08870306,-0.318097,-0.294264,-0.5084031,-0.1066889
0.9236356,0.1919048,-0.3598238,-0.4291019,-0.3966799,-0.01695515
0.9593171,0.1282014,-0.3512712,-0.4952865,-0.357399,0.06791815
1.007112,0.07852738,-0.3241196,-0.4826308,-0.3306612,0.06717055
1.177924,0.01870244,-0.3220476,-0.3335195,-0.325122,0.04440802
1.220974,-0.1282149,-0.3258003,-0.1097134,-0.3233432,0.02657062
1.22427,-0.222359,-0.4130916,0.01595558,-0.377039,0.06877869
1.199219,-0.2554395,-0.643702,0.01121791,-0.4549531,0.1985524
1.090692,-0.2855986,-0.7964298,-0.02440983,-0.3284555,0.3629462
1.146288,-0.3376244,-0.7882488,0.02416227,0.08843699,0.4145041
1.179688,-0.3948969,-0.7580049,0.04572364,0.6796267,0.2993411
1.140311,-0.4324969,-0.6822546,0.04229695,0.9915155,0.1534576
1.152808,-0.4359988,-0.562141,0.1006054,0.8712899,-0.03292961
1.038591,-0.3556773,-0.5242745,0.08583337,0.7645099,-0.1472953
0.9142862,-0.2180741,-0.4952266,0.05888796,0.4699321,-0.02336454
0.8903652,-0.1532155,-0.4005249,0.01662029,-0.1280038,0.1330099
0.9432158,-0.1929598,-0.4206822,-0.05232413,-0.2206059,0.2373783
1.053181,-0.2406189,-0.477655,0.09579333,0.1804389,0.2757166
1.058656,-0.3006569,-0.4358734,0.3768674,0.4663539,0.1583222
0.94854,-0.3520797,-0.4318362,0.6086663,0.599116,0.05999004
0.7536269,-0.3213437,-0.368222,0.7710015,0.5364525,0.03346517
0.5648738,-0.2687813,-0.2659382,0.784968,0.3579876,0.02860001
0.4761961,-0.1777609,-0.2519926,0.6650604,0.2359057,0.07496975
0.4082454,-0.05423785,-0.2056585,0.4766222,0.1185532,0.1131381
0.3862116,-0.004873611,-0.1886202,0.2804213,0.02662801,0.2180789
0.3812198,-0.002897193,-0.1859536,0.2076057,-0.139683,0.3609538
0.3681191,-0.04410899,-0.1375108,0.2497833,-0.3643711,0.4406023
0.4322476,-0.1248512,-0.1258756,0.2627456,-0.5514983,0.5141405
0.5540893,-0.1656308,-0.1089141,0.241561,-0.8442871,0.4998663
0.763041,-0.1847058,-0.1505556,0.1389386,-1.096759,0.4560761
1.043922,-0.2195333,-0.2518607,0.00998517,-1.203397,0.4476854
1.326995,-0.2831786,-0.3231139,0.160726,-1.176421,0.3310081
1.55915,-0.3533432,-0.3955104,0.3990007,-0.7081788,0.1224708
1.632256,-0.3453002,-0.4072857,0.385608,0.06241879,-0.186726
1.606297,-0.2600933,-0.3737649,0.2903877,0.3109823,-0.4799907
1.492997,-0.1971007,-0.3793649,0.2337429,-0.3549938,-0.4893895
1.239267,-0.2599533,-0.4050648,0.2671458,-1.011515,-0.2551628
1.106535,-0.444444,-0.4540815,0.4109445,-0.8398081,-0.1104885
1.170035,-0.605226,-0.5224976,0.4169328,-0.3825763,-0.4129112
1.107265,-0.6080987,-0.6258187,0.01572449,-0.004549676,-0.8576311
0.914659,-0.4706749,-0.7366452,-0.7058422,0.2987818,-0.9294797
0.8377011,-0.3510783,-0.7026317,-1.00437,0.3421647,-0.9044854
0.8094091,-0.3288627,-0.6029251,-0.5304222,0.3277198,-0.9307877
0.768235,-0.3873388,-0.6136232,0.02735352,0.3315787,-0.7901406
0.8091585,-0.489678,-0.5833328,0.3857914,0.360213,-0.685048
0.8387961,-0.5348077,-0.5109925,0.6966618,0.4393621,-0.7713435
0.8100771,-0.5193942,-0.5217637,0.8725845,0.250904,-0.9452102
0.8017422,-0.4408469,-0.4899889,0.9922441,-0.2014649,-1.128172
0.7947063,-0.2749624,-0.4833607,1.0229,-0.5270004,-1.187895
0.7857072,-0.1458037,-0.5389811,0.9658399,-0.2270455,-1.059535
0.7565591,-0.0876375,-0.5297306,0.9948817,0.3556093,-0.8881515
0.6702664,-0.0780719,-0.4919196,0.9976607,0.3238296,-0.8270133
0.5945085,-0.1098682,-0.3945857,0.9869985,0.02603314,-0.8549464
0.5897629,-0.1361742,-0.3093897,1.008587,-0.2855629,-0.9640323
0.6497845,-0.1857958,-0.3129131,0.9984457,-0.6593657,-1.137044
0.7392576,-0.2152799,-0.3082413,1.082752,-0.5860933,-1.211699
0.8047207,-0.1547512,-0.3274813,1.205916,-0.4382305,-1.139438
0.8337497,-0.02445456,-0.3621463,1.226983,-0.4524723,-0.9853591
0.8634027,0.1407929,-0.3881684,1.116813,-0.4097161,-0.7531024
0.9163265,0.230986,-0.3964916,0.887283,-0.4697575,-0.5172557
0.9899701,0.1873464,-0.3550397,0.6765036,-0.4012804,-0.4700968
1.081867,0.04955628,-0.3273535,0.6096454,-0.2534558,-0.5768507
1.187165,-0.1760275,-0.3036536,0.7624141,-0.1260012,-0.6400958
1.232103,-0.3348762,-0.3511814,0.9970967,0.05989527,-0.6330235
1.12994,-0.2517762,-0.5430408,1.01558,0.01753818,-0.4321183
1.008901,-0.1336029,-0.7244097,0.6803115,-0.09485227,-0.04330443
1.023309,-0.1481894,-0.7693325,0.261655,-0.123089,0.1876607
1.092856,-0.2440649,-0.7509346,0.2142852,-0.01409196,0.1720905
1.151797,-0.4256725,-0.7990205,0.2520523,0.473319,0.05828809
1.173022,-0.4867433,-0.7684338,0.1798951,0.9741267,-0.1041823
1.098369,-0.4241948,-0.6273122,0.399762,1.024226,-0.2745401
0.9748489,-0.3980648,-0.5769814,0.5719002,0.7284002,-0.3063391
0.8676892,-0.2405539,-0.4980444,0.5126079,0.2972354,-0.1826564
0.8568368,-0.1424944,-0.4285264,0.5180895,-0.2665586,-0.03777766
0.9530731,-0.1978067,-0.46937,0.4815091,-0.4713406,0.1224397
1.000371,-0.1777025,-0.4650056,0.5786187,0.03304183,0.1943815
0.9504043,-0.2146743,-0.4840469,0.778849,0.5059011,0.1394409
0.8411653,-0.2210176,-0.4627431,0.7989709,0.7872467,0.1305589
0.6729814,-0.1432639,-0.3371001,0.7382835,0.9916087,0.1286793
0.5178255,-0.1122518,-0.2516147,0.6073333,0.8178016,0.134516
0.4362897,-0.03756403,-0.1597311,0.4883317,0.5588812,0.2107335
0.4167816,-0.03239091,-0.1167422,0.3621713,0.1818109,0.2755228
0.4383351,-0.07904122,-0.1229137,0.2034899,-0.1636347,0.3659966
0.4879175,-0.09424077,-0.09739098,0.1835614,-0.1105193,0.4645215
0.5702361,-0.1515878,-0.1219124,0.1916174,-0.2013522,0.4952537
0.7089126,-0.1639893,-0.1470294,0.1920111,-0.4356197,0.495702
0.9048034,-0.1993291,-0.1752305,0.1755343,-0.5653278,0.4077882
1.111429,-0.2767469,-0.2340781,0.1116041,-0.6404519,0.2248275
1.280347,-0.2981366,-0.2774766,0.0937836,-0.5112823,0.09431588
1.418761,-0.2962876,-0.3515665,0.08057387,-0.4050234,0.06990372
1.5205,-0.2479328,-0.427833,0.08938076,-0.371797,0.0996899
1.467252,-0.2454659,-0.5027745,0.06767549,-0.4030483,0.1483357
1.363999,-0.4058811,-0.561207,0.002054533,-0.4975867,0.1825853
1.414605,-0.5843663,-0.5544142,-0.03994268,-0.230905,0.07968015
1.374713,-0.5263399,-0.6000819,-0.1527247,0.2725313,-0.2176225
1.146728,-0.2548576,-0.6797327,-0.389178,0.6034594,-0.5022265
0.9551996,-0.06211276,-0.6586259,-0.8441177,0.6190093,-0.5518725
0.8404607,-0.05207024,-0.5899743,-1.203697,0.5347645,-0.4597723
0.8174671,-0.1329283,-0.5279396,-1.116048,0.6334596,-0.4443325
0.7960533,-0.2030234,-0.4278813,-0.999061,0.5227142,-0.4477821
0.7563291,-0.3034528,-0.325363,-0.9043358,0.2547845,-0.3910893
0.7774753,-0.3683694,-0.3363281,-0.6502411,0.1516998,-0.3924447
0.7733235,-0.2194886,-0.42377,-0.5555847,0.003483827,-0.4327512
0.8012036,-0.09771674,-0.4541837,-0.5270063,-0.01782769,-0.4784956
0.8326444,-0.06891987,-0.4593277,-0.4079082,0.05368054,-0.5118328
0.7996481,-0.003268737,-0.4535925,-0.4144593,0.05244,-0.4352612
0.7673599,-0.002593347,-0.3827025,-0.4645788,0.1191073,-0.3236526
0.6876488,-0.007949675,-0.3218572,-0.458614,0.1130369,-0.211114
0.654719,-0.05675835,-0.2996716,-0.4248314,0.1020067,-0.08268472
0.6831675,-0.1077134,-0.2721492,-0.3156347,0.08164428,-0.01699171
0.6704637,-0.1006416,-0.234564,-0.2410026,-0.02265101,0.004643606
0.6789895,-0.1269444,-0.2293772,-0.2562791,-0.03865604,-0.01966938
0.7266679,-0.02646062,-0.2797844,-0.284245,-0.1346879,-0.06428832
0.8111161,0.07014436,-0.3050096,-0.2978262,-0.2786408,-0.05145563
0.8635054,0.06329974,-0.325929,-0.2548422,-0.2731919,0.01825315
0.8673865,0.0799688,-0.3344171,-0.1767663,-0.2442263,0.1362438
0.9308539,0.05376972,-0.298338,-0.132458,-0.2475768,0.2110363
0.9965238,0.07632408,-0.3260929,-0.1335144,-0.2694819,0.2167735
1.02916,0.06862085,-0.3503075,-0.1163773,-0.2830662,0.2477706
1.112342,-0.0128108,-0.3783709,-0.05492064,-0.2972714,0.2763686
1.189166,-0.05943862,-0.4615587,-0.02824326,-0.3487729,0.2783835
1.2058,-0.1462899,-0.506321,-0.00740431,-0.3838392,0.3035576
1.236794,-0.2049426,-0.5983385,0.05023757,-0.3182993,0.3800494
1.199124,-0.2708993,-0.6698665,0.107789,-0.1101343,0.5058534
1.085903,-0.3242422,-0.6568911,0.1588675,0.1627437,0.5756695
1.089988,-0.3138467,-0.6856443,0.1113072,0.3605751,0.4772419
1.146875,-0.3451387,-0.6562483,-0.02383998,0.4073343,0.2758688
1.162304,-0.2939292,-0.5719322,-0.06815878,0.4320613,0.1439068
1.113678,-0.2250243,-0.5177475,-0.009750142,0.3719508,0.1755574
0.9888742,-0.215729,-0.4403499,0.08988136,-0.05891674,0.3224513
0.9579378,-0.1891071,-0.3971468,0.2050178,-0.5626392,0.4712011
1.008268,-0.2297615,-0.4158265,0.2698911,-0.6348231,0.5190489
1.034608,-0.2670947,-0.4469634,0.313938,-0.1366584,0.421217
1.027273,-0.2758495,-0.4751315,0.3753195,0.6145709,0.2869439
0.9101691,-0.2618069,-0.4491971,0.3807563,0.9895808,0.2515028
0.7154673,-0.1809862,-0.3458237,0.3670867,0.9738168,0.2806171
0.540093,-0.1118938,-0.219673,0.3903752,0.8397708,0.319065
0.427467,-0.02591527,-0.1359147,0.3556862,0.5705273,0.3587963
0.3551651,0.0304446,-0.1166855,0.2582112,0.2295503,0.401843
0.316892,0.01262906,-0.110686,0.1548333,-0.1540484,0.4558581
0.3434258,-0.02338658,-0.0934164,0.0676938,-0.5037777,0.4782567
0.402119,-0.1169733,-0.1050581,0.06400356,-0.7794426,0.4718023
0.5530679,-0.2073319,-0.1376538,0.0962429,-1.019771,0.4394171
0.7781481,-0.263136,-0.2006807,0.1075552,-1.078882,0.3802513
0.9671276,-0.3172026,-0.2857669,0.1529412,-0.9443923,0.3454085
1.150934,-0.3396802,-0.3272707,0.2240831,-0.7455731,0.3207757
1.35017,-0.3519373,-0.3712985,0.2808749,-0.545451,0.2974431
1.547023,-0.3514979,-0.4359548,0.2679412,-0.3800935,0.2283388
1.579866,-0.3667537,-0.4894786,0.2272231,-0.3438854,0.1065289
1.452349,-0.466373,-0.6111898,0.2533248,-0.393218,0.04145949
1.441924,-0.6066826,-0.7342655,0.2596203,-0.2171713,-0.03580934
1.439668,-0.639603,-0.7137316,0.1896034,0.2649418,-0.2166307
1.302406,-0.4933734,-0.6929386,-0.06987448,0.7262105,-0.4291318
1.087072,-0.2873118,-0.7202378,-0.5762733,0.7082513,-0.5178374
0.811269,-0.1290594,-0.62466,-0.881535,0.3885315,-0.444826
0.6809932,-0.1080017,-0.5222055,-0.7863361,0.2335249,-0.4674118
0.7062434,-0.2476096,-0.4981417,-0.6289868,-0.02834998,-0.5808288
0.7673746,-0.376706,-0.4482682,-0.4475948,-0.1876542,-0.5987565
0.8835214,-0.4103586,-0.4460659,-0.2077326,0.1046698,-0.6384322
0.9300562,-0.3477172,-0.4845156,-0.04940347,0.3483377,-0.6685702
0.9195671,-0.2307329,-0.4911461,0.09934747,0.4974424,-0.6674427
0.8976769,-0.1438319,-0.467705,0.2088862,0.5064447,-0.7098624
0.8021296,-0.05415998,-0.4016709,0.2095725,0.2952303,-0.6643485
0.6954698,-0.01298191,-0.350582,0.2162755,0.1571213,-0.5799225
0.592035,-0.04720133,-0.3098755,0.1640938,-0.01741073,-0.4962953
0.5212387,-0.09493594,-0.2737437,0.1048973,-0.06094512,-0.3968293
0.5019703,-0.1844267,-0.261135,0.1750912,0.03970767,-0.3973579
0.4981149,-0.206856,-0.2332105,0.2465889,-0.01160591,-0.419774
0.5323796,-0.1002455,-0.230732,0.2929565,-0.03381121,-0.4378058
0.5634055,0.01933876,-0.2448179,0.3096022,-0.09425516,-0.4696323
0.5804797,0.1002891,-0.2502894,0.2656057,-0.1583994,-0.4125236
0.6203076,0.129361,-0.2734375,0.2071338,-0.1427514,-0.2909303
0.6785581,0.1438793,-0.2918202,0.1014219,-0.3271536,-0.1544679
0.7626847,0.1391373,-0.3327816,-0.012262,-0.642612,-0.03055315
0.937739,0.1069982,-0.386376,-0.09767198,-0.8889837,0.07379832
1.221963,0.1043596,-0.4074739,-0.1290905,-0.8700757,0.1237749
1.463208,0.04915283,-0.4384653,-0.02519315,-0.5314862,0.04739376
1.618748,-0.08547364,-0.5019176,0.1699681,-0.1406308,-0.03792752
1.623754,-0.1880172,-0.5908763,0.2915938,-0.0168084,-0.01952516
1.377319,-0.2373593,-0.7033112,0.1420961,-0.2756169,0.07267055
1.187707,-0.2860947,-0.780774,-0.02855764,-0.4064719,0.2293278
1.180737,-0.4057144,-0.7557727,0.173527,-0.134378,0.3531224
1.14608,-0.5343496,-0.7035336,0.4021581,0.2035087,0.321496
1.096809,-0.537076,-0.6921152,0.3978366,0.4844707,0.1480677
1.07305,-0.4642409,-0.6440186,0.3722679,0.6438661,-0.1372853
1.03687,-0.3898929,-0.5647851,0.3370934,0.7561404,-0.3496086
0.9428907,-0.3209289,-0.472673,0.3865823,0.7699609,-0.2829216
0.8648233,-0.2950504,-0.3819525,0.5727326,0.3632705,-0.1450878
0.8933732,-0.304203,-0.3866383,0.7901803,-0.1414527,-0.07081857
0.926783,-0.3152277,-0.4245914,1.013693,-0.2406578,-0.003245034
0.9355572,-0.320981,-0.4524767,1.131817,0.04356393,-0.08465888
0.86435,-0.3005507,-0.4826882,1.22563,0.3736521,-0.1974542
0.7014355,-0.2390856,-0.4338527,1.288116,0.479669,-0.1783429
0.595819,-0.1511263,-0.3529699,1.189783,0.4387211,-0.1351249
0.5254586,-0.0696227,-0.2770366,1.11146,0.3073304,-0.0322069
0.4695644,-0.03044581,-0.2045668,1.013901,0.1307736,0.07224855
0.4581094,-0.01268974,-0.1712632,0.8645743,0.01664527,0.1350831
0.4588087,0.02052569,-0.1264713,0.7658791,-0.05437978,0.233045
0.4786134,0.008241565,-0.09911672,0.638373,-0.149171,0.2685234
0.5086557,-0.04814395,-0.107475,0.5624857,-0.4116383,0.3067922
0.5690061,-0.07800198,-0.111825,0.5050025,-0.7668081,0.3863791
0.7440886,-0.1883506,-0.1616669,0.4094089,-1.048175,0.4019462
1.028494,-0.3798339,-0.2311094,0.3832796,-1.163568,0.3886564
1.2424,-0.4236862,-0.2662006,0.371968,-0.9433306,0.2760517
1.476787,-0.3484303,-0.327648,0.3636961,-0.4290611,0.05615787
1.848161,-0.3186301,-0.4296858,0.3289892,0.3160375,-0.1087986
1.776467,-0.3032643,-0.4475712,0.2374641,0.6460877,-0.1494368
1.277341,-0.3470716,-0.4150724,0.1342409,-0.1823202,-0.09562316
1.11249,-0.4752644,-0.4653093,0.04787528,-0.8555473,-0.07275231
1.168859,-0.5086795,-0.4972058,0.03937178,-0.2078219,-0.159986
1.132877,-0.4434688,-0.5806877,-0.1540628,0.4206312,-0.3319201
0.9761041,-0.3478914,-0.7823889,-0.6764233,0.3260991,-0.5448456
0.8137957,-0.220127,-0.7920631,-1.073071,0.318033,-0.7102545
0.9119129,-0.1878183,-0.6462509,-1.062235,0.3646867,-0.7479091
0.9427078,-0.1939096,-0.5746555,-0.7650559,0.3130374,-0.6616458
0.8938847,-0.1747021,-0.5232665,-0.4049368,0.4026842,-0.5225445
0.9773071,-0.2478132,-0.4938947,-0.2148002,0.4335419,-0.4278815
0.9042997,-0.259457,-0.4885488,-0.2308866,0.4090923,-0.4328887
0.8383019,-0.1765936,-0.4844697,-0.2770596,0.2883886,-0.4704252
0.8003473,-0.1255252,-0.4759551,-0.2935436,-0.02866878,-0.463953
0.7010049,-0.03526104,-0.4325481,-0.3502633,-0.1792248,-0.4125218
0.6998252,-0.01296209,-0.393488,-0.3588704,-0.1583885,-0.2860956
0.6310924,-0.08325546,-0.3492806,-0.2756173,-0.1569449,-0.1137266
0.5958829,-0.1262492,-0.3149572,-0.1477486,-0.2165727,-0.02788785
0.6555586,-0.1677686,-0.3096323,0.004842227,-0.3601198,-0.06922535
0.7092958,-0.145677,-0.300955,0.0529219,-0.4719294,-0.1813063
0.852219,-0.09694995,-0.3346623,0.03991488,-0.5257481,-0.3111379
0.962433,-0.06522092,-0.3774699,0.08351992,-0.4174378,-0.3527374
1.011325,0.01581544,-0.3945749,0.1005419,-0.08917445,-0.2748268
1.038017,0.08695712,-0.3939139,0.09232797,0.3178716,-0.2193854
1.010254,0.1538849,-0.3490618,0.05293652,0.5656174,-0.2103961
0.9650499,0.1668809,-0.3105354,-0.02368276,0.4805337,-0.2008612
0.8780533,0.05377521,-0.2895856,0.01988929,0.3901127,-0.2067273
0.8183196,-0.0999948,-0.3035756,0.1901111,0.306398,-0.1208504
0.8332869,-0.2399042,-0.3762597,0.305701,-0.1539112,0.1130301
0.892714,-0.2847573,-0.4787417,0.2420743,-0.6509618,0.3635023
1.001575,-0.264875,-0.6046581,0.1186351,-0.5741062,0.4673383
1.116905,-0.2879695,-0.6848963,0.06603974,0.1550352,0.4431009
1.207904,-0.3330127,-0.7229094,-0.06052975,0.8915519,0.4249831
1.218694,-0.3972378,-0.6907267,-0.122394,0.948899,0.3077803
1.14923,-0.4111951,-0.5445249,0.0290434,0.5774087,0.1383238
1.114312,-0.3675798,-0.4401838,0.1093336,0.2809496,0.1539287
1.122814,-0.3510542,-0.3824901,0.1977147,0.00101937,0.2557696
1.136198,-0.2894612,-0.3779118,0.3316646,-0.169292,0.3522663
1.147521,-0.209816,-0.4556717,0.3209439,0.06605403,0.4152334
1.097542,-0.1764985,-0.4608381,0.3473733,0.3730516,0.4007551
0.9791282,-0.1359887,-0.4380015,0.3788786,0.5539267,0.4052631
0.8345652,-0.1191178,-0.3900035,0.3608751,0.7769565,0.4190229
0.6820186,-0.1150483,-0.2726665,0.3718211,0.8360146,0.4211587
0.5546226,-0.0970654,-0.1953931,0.3355822,0.7650398,0.4134197
0.4502838,-0.09171827,-0.123805,0.3254673,0.5986123,0.3776259
0.3758988,-0.06926519,-0.07916365,0.2560547,0.2198819,0.3781384
0.3543318,-0.05636825,-0.07669401,0.09908433,-0.08145272,0.4122929
0.358967,-0.07054537,-0.06537907,0.00351168,-0.229344,0.4891297
0.4042241,-0.08083462,-0.07717551,-0.07693773,-0.4179191,0.6018318
0.5268458,-0.1126491,-0.07743498,-0.0960431,-0.7355813,0.637697
0.7491603,-0.1703507,-0.1105605,-0.07647636,-1.050947,0.5689504
1.078195,-0.2588233,-0.1880357,-0.09801152,-1.21576,0.4629001
1.453407,-0.3658563,-0.2603551,-0.09890748,-1.206126,0.4005955
1.748594,-0.3978713,-0.3925022,-0.07083175,-0.8811547,0.3998454
1.793577,-0.3336351,-0.5521252,-0.04436179,-0.5076536,0.4140764
1.58539,-0.299251,-0.6526328,-0.07630766,-0.4610897,0.4169645
1.406936,-0.3870519,-0.650956,-0.1123393,-0.5354016,0.3504278
1.423515,-0.5160662,-0.5782548,-0.09774481,-0.39009,0.09404682
1.416876,-0.5437346,-0.5365965,-0.1732199,0.09000997,-0.2675789
1.192344,-0.3820293,-0.5584759,-0.5008745,0.5882093,-0.3809388
0.8376616,-0.1215459,-0.5859653,-1.005333,0.6171117,-0.2668826
0.5782102,-0.02745282,-0.5490926,-1.253814,0.1931347,-0.2700319
0.6140745,-0.1252,-0.5131242,-1.15651,-0.1490156,-0.2929789
0.7472846,-0.205598,-0.5100309,-1.0438,-0.1945835,-0.2231631
0.7715541,-0.2378167,-0.4960712,-0.8980941,-0.1725065,-0.2386355
0.8751056,-0.2386728,-0.5172639,-0.7975293,-0.1020556,-0.2861791
0.9351283,-0.1705296,-0.5309691,-0.8440024,0.06876437,-0.3381665
0.87217,-0.09742806,-0.5143199,-0.7695628,0.3495225,-0.4006868
0.8539567,-0.05353612,-0.4843734,-0.6907549,0.5448831,-0.3545535
0.7247991,-0.03720709,-0.4001321,-0.7133229,0.4904545,-0.2973928
0.5776721,-0.06047099,-0.3358252,-0.6891247,0.3750476,-0.2175565
0.5274509,-0.07910526,-0.3142019,-0.7131831,0.1430561,-0.07093683
0.4749453,-0.1038378,-0.3016344,-0.6768589,-0.1588203,-0.008586192
0.5366334,-0.124516,-0.3088518,-0.5705561,-0.3987259,0.02126898
0.6430107,-0.09184662,-0.3095565,-0.5380562,-0.5537155,0.03117558
0.7714185,-0.05295261,-0.3299318,-0.4780268,-0.3751447,0.001017108
0.9267062,-0.001275069,-0.3690541,-0.436408,-0.04967548,0.01892598
0.9425298,0.0692826,-0.3834007,-0.4162786,0.2103245,0.03713401
0.9287162,0.108842,-0.3758765,-0.4114448,0.3643726,0.07798751
0.9184365,0.1238954,-0.353389,-0.4494311,0.1888061,0.1557935
0.8888217,0.0970395,-0.3378578,-0.423905,-0.09202656,0.2264792
0.9541903,0.03136465,-0.341348,-0.374966,-0.3792054,0.3326716
1.109259,-0.05104675,-0.3927057,-0.2660496,-0.6435153,0.4072449
1.325654,-0.1111056,-0.527109,-0.1522224,-0.5758588,0.4153374
1.418583,-0.08932843,-0.7105736,-0.1987557,-0.3990884,0.4192608
1.289676,-0.08118241,-0.8469306,-0.3328197,-0.1497304,0.4391745
1.156876,-0.1494498,-0.847929,-0.496697,0.2619298,0.5003479
1.082605,-0.2440216,-0.7591168,-0.5582364,0.442945,0.5305664
1.040663,-0.3513867,-0.6687818,-0.5264128,0.5279322,0.4354639
1.063248,-0.3844735,-0.6091361,-0.5137077,0.7453928,0.2701196
1.055885,-0.3488052,-0.5691559,-0.4196812,1.00238,0.1396649
1.002888,-0.3340223,-0.4913803,-0.3936697,1.200419,0.1030313
0.9904766,-0.2780477,-0.4357168,-0.4501809,0.9329545,0.1515719
0.9696655,-0.1732695,-0.4259802,-0.4281036,0.3656115,0.2670578
0.9342438,-0.0799598,-0.3710198,-0.4753409,0.01332557,0.4671761
0.9455797,-0.0690423,-0.3700209,-0.4965403,-0.05136062,0.6625019
0.9440279,-0.1503976,-0.4294121,-0.3854792,0.3356917,0.6770344
0.8971106,-0.1727294,-0.4193034,-0.3043271,0.8616087,0.570679
0.8283396,-0.1690903,-0.4042372,-0.2800113,1.013859,0.5241846
0.6845,-0.1834021,-0.3461002,-0.3001507,0.8772818,0.5224995
0.460101,-0.131226,-0.210192,-0.3014478,0.6184465,0.5375746
0.350678,-0.1019999,-0.1468602,-0.2950693,0.3335853,0.568191
0.4111522,-0.09335229,-0.1429196,-0.3287763,-0.01196611,0.5983372
0.4332047,-0.0881255,-0.1446582,-0.3270673,-0.2487874,0.6689697
0.4599394,-0.1126331,-0.1508747,-0.3315721,-0.3518177,0.748155
0.5411833,-0.1047764,-0.1419589,-0.2865916,-0.6312868,0.8130525
0.5863954,-0.1525598,-0.1579391,-0.1185026,-0.8498497,0.8568794
0.7748074,-0.2423236,-0.1887024,0.05115423,-0.9419899,0.8167746
1.09424,-0.3029528,-0.244525,0.1264863,-0.8583824,0.6578583
1.382882,-0.3542938,-0.3514476,0.07078249,-0.4233524,0.3912547
1.619483,-0.3240519,-0.4251306,0.04256248,-0.1525991,0.199241
1.632827,-0.2377295,-0.4512354,0.1079905,-0.17773,0.1679488
1.493054,-0.1754115,-0.5292427,0.08663049,-0.2459281,0.1247949
1.400371,-0.2394416,-0.6526589,-0.03669624,-0.2032801,0.03089936
1.286034,-0.4065999,-0.6812339,-0.2413925,0.03503526,-0.1044053
1.126972,-0.4451533,-0.6425831,-0.5315064,0.2841762,-0.2531844
0.946537,-0.3475094,-0.6493354,-0.8489942,0.4412817,-0.2687623
0.816682,-0.226038,-0.6103796,-1.010357,0.3449268,-0.2450423
0.7946948,-0.170113,-0.526202,-0.8763581,0.3044295,-0.3391979
0.8184142,-0.1976523,-0.5047077,-0.7353126,0.5629916,-0.3974987
0.8417408,-0.187911,-0.4954972,-0.6758041,0.733054,-0.3410747
0.8036898,-0.1655983,-0.455755,-0.5969903,0.8086086,-0.2881764
0.7622528,-0.1376719,-0.4131533,-0.6033586,0.5160362,-0.215134
0.7719528,-0.07477126,-0.4046969,-0.5449077,-0.05261448,-0.1318795
0.7909824,-0.05611232,-0.4258988,-0.5317388,-0.2782262,-0.1325939
0.8489224,-0.06788703,-0.4284672,-0.6462833,-0.306724,-0.1467301
0.8799413,-0.09556234,-0.4339706,-0.5945178,-0.112008,-0.1210456
0.8729407,-0.1368926,-0.4327624,-0.5413367,0.2030648,-0.08665734
0.8673796,-0.1687313,-0.3793542,-0.4608784,0.2699612,-0.07306802
0.8336046,-0.1748396,-0.3063554,-0.3108751,0.1990881,-0.1340657
0.841455,-0.1186563,-0.2581932,-0.3436944,0.09550678,-0.23911
0.8469172,-0.04061932,-0.2602763,-0.337866,0.09200199,-0.2855969
0.8092195,0.03410066,-0.2818509,-0.3077147,0.1319183,-0.2303485
0.7914468,0.09822662,-0.2831822,-0.376148,0.1734326,-0.09423678
0.7580747,0.1438845,-0.2713377,-0.4263038,0.2295364,0.08238735
0.7337099,0.1822204,-0.2511948,-0.5209848,0.05836341,0.1999274
0.7341741,0.1594019,-0.2505394,-0.5718907,-0.1660541,0.2345861
0.7651671,0.07672537,-0.2515286,-0.5513807,-0.2573055,0.306824
0.8723383,-0.05832803,-0.2449855,-0.4610861,-0.3200622,0.3553694
0.9951331,-0.1927313,-0.3154366,-0.2888395,-0.4214108,0.3221962
1.114866,-0.2146282,-0.4676938,-0.2215958,-0.5158784,0.3371186
1.218383,-0.2017985,-0.6294562,-0.2193234,-0.304065,0.3704935
1.22958,-0.1744268,-0.736165,-0.2285576,0.1056823,0.4331003
1.163257,-0.1226105,-0.7650629,-0.3310782,0.2507805,0.5589806
1.12951,-0.1960878,-0.7484258,-0.5049758,0.09172158,0.5693428
1.225409,-0.3440228,-0.6903015,-0.5969925,0.05155994,0.4387127
1.349311,-0.441119,-0.5995654,-0.4297205,0.5292217,0.2503348
1.335548,-0.4709973,-0.5006318,-0.1890614,1.190715,0.0843608
1.202436,-0.3727397,-0.4135346,-0.09342158,1.3325,0.06707452
1.063119,-0.2016271,-0.3544862,-0.07142061,0.8063875,0.1479137
1.023317,-0.07295549,-0.336394,-0.09542367,0.1544175,0.3179187
1.02729,5.925513e-05,-0.3885475,-0.1200238,0.00777132,0.6074206
0.9513212,0.005454522,-0.4305302,-0.1168559,0.4160417,0.7547358
0.8574854,-0.07885881,-0.3851727,-0.1200283,0.9437604,0.6722164
0.7544089,-0.2161872,-0.2962169,-0.0540513,1.088979,0.5715013
0.5982112,-0.2654479,-0.1706238,0.06950067,0.7797766,0.4283739
0.4904575,-0.20802,-0.08804062,0.1300018,0.3719881,0.2766798
0.4457342,-0.1600532,-0.1154012,0.1022108,0.07461213,0.2803643
0.4320584,-0.07341074,-0.1447289,0.05302363,-0.03983241,0.3265867
0.4539215,0.01108487,-0.1513807,0.001342547,-0.05159429,0.4169266
0.4801591,-0.005109458,-0.1629012,-0.09594289,-0.2229195,0.571816
0.5758966,-0.02932011,-0.1516017,-0.138918,-0.5827223,0.5970134
0.7628879,-0.08694691,-0.1513663,-0.094527,-0.8446994,0.5065189
0.9713858,-0.2116825,-0.1560118,-0.06974405,-0.7773336,0.3575195
1.157007,-0.3254164,-0.1341014,0.01263735,-0.4466881,0.1749965
1.227343,-0.3689801,-0.1335108,0.1460393,-0.03788958,0.06474918
1.198182,-0.2712178,-0.1883583,0.1844999,-0.04969555,0.06763267
1.21487,-0.1707927,-0.3203766,0.1177793,-0.9287247,0.1712469
1.344951,-0.2192524,-0.508436,0.04596559,-1.657846,0.2008557
1.521797,-0.328431,-0.6709262,0.03324846,-0.9149319,-0.06198092
1.53756,-0.3988626,-0.7458849,-0.1804487,0.4739658,-0.5106269
1.260447,-0.3177245,-0.6946598,-0.6260401,1.058693,-0.7623106
0.8925471,-0.1695964,-0.5611307,-0.7659885,0.9081889,-0.7319237
0.7252248,-0.1656413,-0.4235239,-0.5531575,0.489726,-0.6585815
0.7309235,-0.181573,-0.3753775,-0.4296156,0.007559204,-0.5584677
0.7716892,-0.1497503,-0.4504176,-0.4573684,-0.3633152,-0.4507015
0.8932961,-0.1514962,-0.4930441,-0.5455028,-0.4618367,-0.4156006
1.059014,-0.08219757,-0.5109668,-0.6798779,-0.1103789,-0.420126
1.128749,0.01230488,-0.5617706,-0.6974228,0.3269279,-0.4861536
1.109849,0.03553491,-0.518941,-0.5791512,0.6087911,-0.5130283
1.049572,0.04180098,-0.4550814,-0.5315727,0.7766505,-0.4392999
0.9125002,0.01092045,-0.3951466,-0.5639273,0.6703726,-0.3336271
0.7461927,-0.02867015,-0.2926194,-0.6226307,0.5028952,-0.2310401
0.6956841,-0.04959463,-0.2886668,-0.674957,0.2392708,-0.2114205
0.6808956,-0.0758713,-0.3104581,-0.6114207,-0.07706862,-0.2237066
0.6006492,-0.07753592,-0.2876635,-0.4828994,-0.1556425,-0.201047
0.6038923,-0.06828128,-0.3125572,-0.3563985,-0.2293014,-0.1655971
0.633137,-0.05002388,-0.3204647,-0.2309372,-0.2113312,-0.1094264
0.6015721,-0.02190203,-0.2989276,-0.1607637,-0.1396643,-0.04765136
0.628005,0.004748603,-0.2886836,-0.1040698,-0.1335347,0.04556121
0.6343986,0.02095205,-0.2715839,-0.0135406,-0.009031414,0.1505288
0.629827,0.03048155,-0.2589898,0.03997167,-0.06637546,0.2307624
0.6924064,0.08767205,-0.2416761,0.03881938,-0.2780831,0.29153
0.7087687,0.1180784,-0.2444898,0.04216453,-0.4995604,0.3318206
0.7638952,0.1036248,-0.2841204,0.02606092,-0.7688318,0.395395
0.9534836,0.1431253,-0.3255659,-0.01704241,-0.8230438,0.4266873
1.125863,0.1562489,-0.3623425,-0.02004111,-0.8010755,0.4046405
1.208793,0.1090639,-0.4054562,0.004990156,-0.7631744,0.417305
1.338073,0.04061836,-0.5390733,0.0915568,-0.6353827,0.4517984
1.130329,-0.4232954,-0.2262851,0.950702,-0.02338003,0.1756038
1.091309,-0.4085938,-0.223273,1.063467,0.01941328,0.1918502
0.9369341,-0.3673639,-0.2209223,1.120104,0.05952571,0.138518
0.8000035,-0.330337,-0.2136647,1.027927,0.08554013,0.08224274
0.6737368,-0.2747488,-0.1658383,0.9276657,0.03026103,0.06006483
0.5876631,-0.2239654,-0.1506703,0.8076968,-0.01835741,0.07063936
0.559207,-0.195669,-0.1340618,0.7055791,-0.0009077403,0.1156232
0.5043764,-0.1758155,-0.1048928,0.6681155,0.01428885,0.1817654
0.4599134,-0.172458,-0.08707535,0.5538658,0.002752211,0.2515529
0.4163903,-0.1716891,-0.04703808,0.4501932,-0.01500994,0.2851232
0.4200905,-0.1927828,-0.03040079,0.4171077,-0.02889066,0.2842675
0.5230821,-0.239026,-0.01671816,0.3742599,-0.006235279,0.2559818
0.6702088,-0.2981821,-0.005546141,0.3713206,0.0408573,0.194444
0.8529663,-0.4016519,-0.01952118,0.4016521,0.03902174,0.144111
1.051766,-0.5202075,-0.003775885,0.5359285,0.03792124,0.1094574
1.29859,-0.5450714,0.0007119391,0.8487916,0.07199022,0.08417676
1.504872,-0.4508563,-0.03295277,1.027483,-0.01280717,0.1131187
1.541262,-0.4145464,-0.1365939,0.8858486,-0.3026284,0.228188
1.549074,-0.5738772,-0.2641138,0.8115493,-0.5131694,0.3211317
1.533753,-0.7246549,-0.2338083,0.9815573,-0.3352572,0.2161993
1.368365,-0.6526972,-0.1689794,1.015394,-0.1722977,-0.04490754
1.102668,-0.5315185,-0.2159257,0.7761675,-0.3382504,-0.2794463
0.8847694,-0.4947795,-0.2429971,0.4866132,-0.4111184,-0.3075878
0.8571345,-0.4698592,-0.2630772,0.3125511,-0.3797684,-0.2269891
0.9162211,-0.5300234,-0.2840853,0.2992068,-0.3500446,-0.3866206
0.9374341,-0.6052122,-0.2380998,0.4224818,-0.1537289,-0.6633973
0.9765862,-0.5615233,-0.2280588,0.6552622,-0.07073102,-0.8508978
0.955459,-0.4862301,-0.2308054,0.8207913,-0.1679331,-0.9927022
0.8776735,-0.3805687,-0.1988199,0.9036766,-0.2909852,-0.970867
0.8623073,-0.33318,-0.2128364,1.008298,-0.5020435,-0.8994828
0.8244965,-0.3464631,-0.2203608,0.9232435,-0.6212332,-0.8386315
0.7314021,-0.251837,-0.2175544,0.7701167,-0.6124916,-0.7136855
0.6798413,-0.2221122,-0.2219498,0.7616799,-0.5979088,-0.6598442
0.662735,-0.2896986,-0.1793421,0.814871,-0.524622,-0.5922927
0.6052573,-0.3052355,-0.1199239,1.017762,-0.4670108,-0.5610278
0.5498185,-0.3226304,-0.07603344,1.231667,-0.4841469,-0.6260671
0.5807977,-0.2751367,-0.09264114,1.300977,-0.5058005,-0.6139086
0.5971452,-0.1598844,-0.125931,1.259514,-0.5160884,-0.5573958
0.5970968,-0.0693659,-0.1234969,1.129585,-0.5470681,-0.4057806
0.6858899,0.01124968,-0.1690915,0.9979082,-0.5977664,-0.2170442
0.764061,0.03921038,-0.2277139,0.6652608,-0.6315016,-0.1567781
0.8592871,0.0003411128,-0.2391566,0.2886483,-0.5996725,-0.1601229
1.087241,-0.1028606,-0.1964834,0.2488612,-0.4291275,-0.1512424
1.306727,-0.2356668,-0.1353695,0.3224329,-0.1974197,-0.07384443
1.358807,-0.3098091,-0.156859,0.4017776,-0.08046744,-0.0338225
1.36795,-0.4038894,-0.1984753,0.4929308,-0.04948497,-0.05404924
1.465231,-0.4939,-0.2262996,0.5210682,-0.07028038,-0.02503541
1.462026,-0.45496,-0.2947517,0.4677449,-0.2293079,0.008074128
1.380318,-0.4407235,-0.3706776,0.346206,-0.3450527,0.07309707
1.33533,-0.4881344,-0.4573069,0.3567264,-0.1459607,0.1250243
1.198958,-0.5433521,-0.4785549,0.4026319,0.2167175,0.06574453
1.148777,-0.6699611,-0.3986976,0.4623152,0.4437059,-0.04414858
1.193208,-0.6760532,-0.3139834,0.7202198,0.4695716,-0.119252
1.130461,-0.5865016,-0.2144129,0.9216596,0.3923494,-0.1592003
1.0893,-0.5475004,-0.1614491,0.9331967,0.2647123,-0.1786673
1.069377,-0.3719263,-0.1932394,0.7689117,0.03804544,-0.01698392
1.061392,-0.2167138,-0.2260332,0.5075081,-0.09931048,0.2610952
1.052209,-0.24206,-0.2805993,0.4322967,0.05036846,0.36984
0.9317612,-0.3108438,-0.2868805,0.5199416,0.2217305,0.3297871
0.7672189,-0.4210976,-0.1992817,0.682549,0.2511866,0.225875
0.5893622,-0.4368669,-0.1268446,0.8789128,0.222413,0.08097299
0.4681633,-0.338449,-0.07820897,0.9266823,0.08642888,-0.01050647
0.4246365,-0.2516283,-0.06725081,0.8529386,-0.05168881,-0.006893079
0.4030521,-0.1531665,-0.07970151,0.7633137,-0.06108546,0.01828001
0.4531314,-0.1216958,-0.06669512,0.5883512,0.01134201,0.05893935
0.5111471,-0.1470292,-0.06661291,0.4340554,0.117705,0.1693636
0.5614094,-0.178327,-0.04634818,0.4352021,0.1488297,0.2341002
0.6253599,-0.2657184,-0.01427576,0.4103609,0.1009884,0.2089047
0.6981962,-0.3487303,-0.01937746,0.3813913,0.04723893,0.1574416
0.8679831,-0.412106,-0.004757886,0.4564442,0.009457865,0.07091739
1.097388,-0.4715382,0.03821332,0.5810294,0.002231086,0.004421616
1.31912,-0.4878059,0.04895703,0.7712363,-0.06410824,-0.004677462
1.482135,-0.4814598,-0.0422447,0.8021588,-0.1891779,0.05257416
1.528762,-0.5034822,-0.1708847,0.7201385,-0.2641268,0.2173394
1.509276,-0.5638849,-0.1798261,0.7998425,-0.2220929,0.3381507
1.402716,-0.6036286,-0.1498766,0.8151188,-0.1647316,0.1252382
1.205895,-0.5970461,-0.1881414,0.7171622,-0.267589,-0.2420291
1.065397,-0.5635354,-0.2173191,0.6196603,-0.354519,-0.3539025
1.002041,-0.5064846,-0.2564773,0.5146034,-0.3093439,-0.419258
0.9185832,-0.4690598,-0.3032989,0.5027413,-0.2552203,-0.6206249
0.8763603,-0.458594,-0.2509387,0.5213066,-0.2043346,-0.7754777
0.9045609,-0.418699,-0.1975689,0.5379402,-0.2767825,-0.8590561
0.9013155,-0.3395588,-0.2337099,0.5584601,-0.4491661,-0.7551751
0.9209686,-0.2599826,-0.2540629,0.4815248,-0.5292812,-0.572423
0.9548553,-0.2335249,-0.2497253,0.3843837,-0.5752434,-0.5260177
0.9280503,-0.2784835,-0.2486693,0.3729567,-0.6468769,-0.4671328
0.9047299,-0.3340014,-0.2266315,0.4147191,-0.695208,-0.4653553
0.8353013,-0.3592069,-0.2169496,0.4644545,-0.6896085,-0.5052683
0.7369475,-0.3687038,-0.2019602,0.5636362,-0.6460584,-0.4545347
0.6851527,-0.3470408,-0.1629829,0.7016473,-0.5826286,-0.4646923
0.6283585,-0.2919105,-0.1497584,0.7711717,-0.4986338,-0.4678689
0.6091528,-0.2098976,-0.1452887,0.7739424,-0.4659715,-0.4474441
0.6145961,-0.1077304,-0.1484007,0.7192681,-0.4880093,-0.4619442
0.6350706,-0.04953147,-0.1762082,0.6130621,-0.5136247,-0.3696379
0.7298896,-0.03684138,-0.1953556,0.5024207,-0.5371425,-0.2149687
0.8365719,-0.02942108,-0.2150216,0.3736073,-0.5191847,-0.07299363
0.9631833,-0.03472109,-0.2089191,0.2689331,-0.4108564,-0.002012035
1.098508,-0.05146715,-0.1811308,0.2051563,-0.2172085,-0.007262243
1.162356,-0.08143772,-0.1938983,0.08897752,-0.05726708,0.03829087
1.177031,-0.1329055,-0.2052452,-0.01975814,0.01418726,0.09044559
1.175493,-0.2746267,-0.2342584,0.02966732,0.02366876,0.157662
1.210517,-0.454293,-0.2962596,0.1079049,-0.003452534,0.2591735
1.267999,-0.461238,-0.3203882,0.1013526,0.01962949,0.2609515
1.272811,-0.4553265,-0.3691031,0.1839438,0.03120964,0.2494549
1.238803,-0.5958541,-0.4267352,0.3245371,0.06102901,0.2947305
1.177249,-0.6405432,-0.4009356,0.4340248,0.1777757,0.232888
1.120899,-0.6421146,-0.3579283,0.5249983,0.1692003,0.07233704
1.112838,-0.6773882,-0.3026142,0.5294211,0.07156465,-0.05616565
1.129981,-0.6170432,-0.2350322,0.5937605,0.02975625,-0.08511418
1.143324,-0.600127,-0.2200656,0.7087489,0.02681621,0.01379401
1.137634,-0.5644136,-0.1806967,0.7886311,0.0368033,0.1336434
1.142393,-0.4431885,-0.1325765,0.9122917,-0.04345232,0.2562717
1.147892,-0.3984987,-0.1638356,0.8740302,-0.1078212,0.3808653
1.087329,-0.3489995,-0.1841317,0.7712114,-0.1033974,0.3675022
0.9647784,-0.3306284,-0.1827462,0.7497615,-0.122376,0.304055
0.8132416,-0.3330875,-0.1884421,0.6492776,-0.08916249,0.2436652
0.6699278,-0.2657915,-0.1552683,0.5957358,-0.07821373,0.1626092
0.5616229,-0.2532257,-0.1308113,0.5026349,-0.1099776,0.1688582
0.4969157,-0.2208227,-0.1157723,0.3537664,-0.08785557,0.1804534
0.4862266,-0.1873347,-0.08485417,0.2821601,-0.008018121,0.1890934
0.4770205,-0.2278476,-0.05478213,0.165425,0.09048863,0.2432978
0.4524953,-0.232239,-0.0063423,0.1799965,0.03209108,0.2474991
0.4677217,-0.2412097,0.01475111,0.2385558,-0.07486182,0.2407474
0.5305072,-0.2463681,0.005661144,0.1642208,-0.07110157,0.2349432
0.6367308,-0.2616784,0.00102627,0.1515435,-0.1437218,0.2088736
0.7692028,-0.357795,-0.01642012,0.1304237,-0.2563684,0.1755231
0.8808607,-0.4574607,0.0002951412,0.2363709,-0.3107003,0.07968763
0.963825,-0.4977728,0.02077731,0.5216162,-0.3188517,-0.04237428
1.084357,-0.4681914,-0.01184205,0.6398302,-0.2526522,-0.1093375
1.258666,-0.4486944,-0.02798478,0.6184048,-0.2522316,-0.1333507
1.310186,-0.4414133,-0.03820281,0.5085736,-0.3874737,-0.1104102
1.266,-0.4345162,-0.1200867,0.3803435,-0.5560621,0.04213777
1.386125,-0.5953198,-0.2185766,0.4759184,-0.5909536,0.1839976
1.482781,-0.8052908,-0.2251418,0.693799,-0.4068605,0.02886908
1.32873,-0.7988407,-0.2139268,0.8064775,-0.1852696,-0.2922337
1.10294,-0.6887841,-0.2563148,0.6885171,-0.08002985,-0.518268
0.8915191,-0.6295221,-0.2585466,0.4882187,-0.1466894,-0.6529251
0.7998943,-0.5678667,-0.2812053,0.5052276,-0.2527185,-0.6993365
0.8684705,-0.5225742,-0.3405481,0.5808506,-0.2488528,-0.7034708
0.9153054,-0.524122,-0.3230642,0.6407066,-0.33617,-0.7131172
0.9673282,-0.5046894,-0.3118024,0.825959,-0.4409788,-0.7029701
1.013731,-0.4851184,-0.3105809,0.8789923,-0.4324869,-0.7771435
0.9746423,-0.4621538,-0.2756325,0.8359731,-0.4965715,-0.8827014
0.9530187,-0.4127276,-0.26501,0.9357254,-0.5568585,-0.8585642
0.9153307,-0.3817414,-0.2504794,1.013923,-0.607454,-0.7650861
0.8336855,-0.3449334,-0.2436686,1.054929,-0.6668695,-0.6611023
0.7954308,-0.3416353,-0.2384658,1.093395,-0.6264707,-0.626795
0.7361099,-0.3736787,-0.2024232,1.122872,-0.6125368,-0.6926488
0.6745856,-0.3657485,-0.1723343,1.240205,-0.5767807,-0.7575969
0.6969486,-0.3573394,-0.1576741,1.352731,-0.4585179,-0.8033889
0.6974516,-0.3092807,-0.1653046,1.409971,-0.3935543,-0.7428776
0.6779313,-0.2009512,-0.1628771,1.420308,-0.3843151,-0.5738457
0.7145325,-0.1159798,-0.1568797,1.364893,-0.4163479,-0.448027
0.7491793,-0.06198602,-0.1759258,1.265327,-0.4866126,-0.3617966
0.7998429,-0.04931611,-0.1811835,1.075238,-0.580069,-0.3314311
0.8620078,-0.0726265,-0.1877729,0.9404987,-0.6118669,-0.3618369
0.9197081,-0.1172002,-0.1734004,1.002155,-0.5493769,-0.3659698
1.046311,-0.2039014,-0.1432479,1.135224,-0.4924713,-0.3680902
1.158889,-0.3079317,-0.1696551,1.270003,-0.3845866,-0.3519779
1.190465,-0.3689772,-0.2159722,1.264522,-0.2269738,-0.2634955
1.211292,-0.3592502,-0.2611621,0.9290763,-0.1794049,-0.1575913
1.212659,-0.350069,-0.2998709,0.4616791,-0.3461074,-0.05479328
1.196237,-0.4159596,-0.302175,0.2849229,-0.5259418,0.06390012
1.182821,-0.5927269,-0.2925278,0.4304451,-0.2954601,0.112479
1.14858,-0.8073367,-0.2778743,0.4959156,0.05339631,0.05366435
1.122063,-0.8070621,-0.2715802,0.4360255,0.06303688,-0.0022382
1.089933,-0.6998099,-0.2643977,0.5230775,0.00291247,-0.1228631
1.003257,-0.7319617,-0.198682,0.7001285,-0.1306863,-0.2961064
0.9771642,-0.6856946,-0.1358002,1.006115,-0.4285045,-0.2564923
1.097019,-0.6122812,-0.1755965,1.440929,-0.528251,-0.1069747
1.223267,-0.6253875,-0.2530694,1.643069,-0.4110974,-0.02822159
1.225947,-0.522733,-0.2792556,1.622251,-0.3411517,-0.01347685
1.097503,-0.473059,-0.2789369,1.548125,-0.3715261,-0.09264673
0.940775,-0.4474732,-0.2490153,1.485021,-0.3917409,-0.1319043
0.877632,-0.3502494,-0.1997605,1.519323,-0.445596,-0.13936
0.8435863,-0.3625128,-0.1897924,1.523267,-0.568963,-0.1432016
0.768804,-0.2909642,-0.1706804,1.495568,-0.5561951,-0.04696466
0.7216703,-0.1930671,-0.1381213,1.406891,-0.4418871,0.0279609
0.6600433,-0.1671485,-0.131423,1.16635,-0.3407904,0.09809621
0.5210983,-0.09155249,-0.0927995,0.9747412,-0.2847393,0.172195
0.4083719,-0.1434264,-0.03277151,0.8578978,-0.3338206,0.1743692
0.3754996,-0.1853812,0.006458613,0.7537523,-0.3566318,0.1654721
0.410589,-0.1700318,0.01263566,0.6915728,-0.3585466,0.1047204
0.5131761,-0.2430607,-0.002206687,0.6221272,-0.3714381,0.04480128
0.6461895,-0.2417774,0.00667471,0.5549424,-0.3099296,0.02728369
0.8340128,-0.2577184,0.002833815,0.4715146,-0.2544923,0.02612679
1.044603,-0.3254753,-0.009828227,0.315475,-0.1630832,0.07277025
1.217991,-0.3532232,-0.003036415,0.1322271,0.005610328,0.08557778
1.365127,-0.4275383,-0.02772311,0.07929152,0.06782738,0.1031265
1.429673,-0.5695056,-0.08757852,0.2028013,-0.1061136,0.176007
1.497096,-0.8132988,-0.1611175,0.458362,-0.2213215,0.1937572
1.570532,-0.9427373,-0.1998997,0.7485511,0.1791787,-0.02457757
1.416368,-0.7565422,-0.2169905,0.641904,0.5836885,-0.4314151
1.124326,-0.5493012,-0.2631891,0.1496929,0.3471875,-0.5726209
0.9193688,-0.4859094,-0.273031,-0.1821166,0.03625291,-0.4701432
0.869553,-0.4628763,-0.2889515,-0.266147,-0.05884917,-0.4871345
0.9391153,-0.4953859,-0.3323596,-0.1772262,-0.1864178,-0.5314775
0.9681333,-0.5606336,-0.3209283,-0.02788134,-0.1287794,-0.5617491
0.9703335,-0.561192,-0.3171438,0.130521,-0.06127841,-0.6544811
0.9793369,-0.5070579,-0.3141013,0.326553,-0.1425561,-0.7247552
0.9344382,-0.4172685,-0.2974212,0.3222092,-0.0854491,-0.7742463
0.921215,-0.3257584,-0.3080705,0.295651,-0.1068173,-0.8446104
0.9008702,-0.2854345,-0.286524,0.3027761,-0.2382428,-0.8598299
0.824097,-0.2536189,-0.2658128,0.1984966,-0.3318686,-0.7799472
0.7734207,-0.2553911,-0.2475352,0.2941779,-0.4490187,-0.6598754
0.6976467,-0.3187604,-0.197651,0.4423287,-0.3955461,-0.5233742
0.6126184,-0.3651674,-0.1754214,0.5913855,-0.3466377,-0.4440281
0.5722327,-0.34719,-0.1601984,0.8302658,-0.3809703,-0.460515
0.5455402,-0.2526969,-0.1455266,0.9006327,-0.2972266,-0.4775761
0.5570443,-0.1512404,-0.1439945,0.9306849,-0.2843764,-0.4728616
0.5845615,-0.08796856,-0.1465428,0.8888718,-0.2459233,-0.4334573
0.6180927,-0.01075707,-0.1605127,0.7481638,-0.1902118,-0.3222534
0.694278,0.06827603,-0.1686441,0.5914102,-0.2981934,-0.1757758
0.8154624,0.08446531,-0.1960602,0.3161526,-0.342598,-0.02809497
0.978433,0.01179484,-0.2247259,0.11586,-0.3134845,0.08643314
1.127827,-0.09404255,-0.2227513,-0.02439976,-0.255954,0.143354
1.233814,-0.1809131,-0.2223181,-0.08532723,-0.1423697,0.1489253
1.340752,-0.2614648,-0.2220988,0.01184709,-0.0431129,0.1114363
1.458984,-0.3527924,-0.2316242,0.05608882,0.09481425,0.07351227
1.503856,-0.388981,-0.2776248,0.05554004,0.2029822,0.07900175
1.439696,-0.2958655,-0.3455473,-0.196867,0.183064,0.1266176
1.383623,-0.2470804,-0.3661925,-0.6770695,0.1100745,0.2300138
1.337138,-0.3886143,-0.345733,-0.8417002,0.1164041,0.3350129
1.224693,-0.5534612,-0.3490052,-0.7406528,0.3065294,0.3007573
1.119552,-0.5977932,-0.3183848,-0.671434,0.6010692,0.2093725
1.055853,-0.571385,-0.2601331,-0.5848385,0.7611441,0.16976
1.021258,-0.5523848,-0.2286603,-0.4821138,0.7350125,0.07700299
1.027313,-0.5080189,-0.1849458,-0.4659074,0.6928609,0.02990305
1.043407,-0.441745,-0.1496543,-0.4067567,0.5737424,0.1116379
1.078392,-0.4139268,-0.1438954,-0.2696202,0.3767744,0.2067483
1.103422,-0.3913093,-0.1538249,-0.2158919,0.3362421,0.3528692
1.034638,-0.3901833,-0.17978,-0.1250798,0.392491,0.4543978
0.914077,-0.4015739,-0.2008009,-0.04557544,0.4880136,0.4318071
0.8227513,-0.3772434,-0.187469,-0.0464311,0.6013937,0.4115618
0.6993756,-0.3402465,-0.1212617,0.03383854,0.514371,0.3158728
0.5209141,-0.2625857,-0.05716666,0.022006,0.2774057,0.2054253
0.4927527,-0.2048918,-0.05026106,-0.0367673,0.1605694,0.2841278
0.5963526,-0.1867756,-0.06503549,-0.03663147,0.269453,0.4381449
0.5926525,-0.09822432,-0.05465301,-0.2008047,0.4062836,0.5372643
0.5815371,-0.05908373,-0.03860015,-0.4112315,0.3446079,0.5756951
0.5736099,-0.137733,-0.04549263,-0.5431603,0.2013846,0.5562615
0.4921638,-0.2016652,-0.02374565,-0.5987142,0.07010571,0.5573128
0.5412544,-0.2710571,0.01425073,-0.5524778,-0.05608945,0.5712376
0.6519247,-0.3622104,0.01296367,-0.4918596,-0.09378431,0.4884613
0.7838033,-0.4357769,0.01162678,-0.3257875,-0.1170997,0.3231577
1.008975,-0.5057343,0.01761521,-0.08533911,-0.08052133,0.1262036
1.08471,-0.5122625,0.0172283,0.06113129,0.0800864,-0.02046948
1.14926,-0.4643018,0.01411942,0.1177866,0.09457964,-0.01791337
1.387636,-0.4283587,-0.01407507,0.05833981,-0.09214876,0.1135334
1.498302,-0.4053223,-0.09396553,-0.008046039,-0.2590383,0.3969176
1.491936,-0.4856759,-0.1914645,0.01263549,-0.2025257,0.6101715
1.529856,-0.6447603,-0.2081229,0.0143225,-0.02982226,0.4156257
1.426399,-0.6882889,-0.2004041,0.007569684,0.01005694,0.1054285
1.164339,-0.6190247,-0.245543,-0.002847862,0.06335254,-0.03013167
0.9785455,-0.5483888,-0.2472975,-0.03353682,0.1092745,-0.1265462
0.8648017,-0.5031843,-0.2264985,-0.02011441,0.1422958,-0.1871905
0.7747909,-0.4667192,-0.2363817,-0.007208314,0.2152963,-0.2965494
0.7857322,-0.4150008,-0.218784,-0.02477174,-0.05660882,-0.4924651
0.8488299,-0.3526389,-0.2172452,-0.02352173,-0.4326952,-0.5341019
0.9403975,-0.2920214,-0.2608355,-0.0384298,-0.4269188,-0.4807161
1.023652,-0.2526253,-0.2884428,-0.1107474,-0.211068,-0.4424686
1.019487,-0.2502959,-0.2763161,-0.2284177,-0.07434947,-0.3755684
0.9728691,-0.284858,-0.2394702,-0.3145534,-0.1843352,-0.4068321
0.8976178,-0.3345514,-0.2178,-0.2818117,-0.3718979,-0.4680799
0.8254303,-0.3535981,-0.2090854,-0.1597284,-0.5245556,-0.4374588
0.784067,-0.3570863,-0.2184249,0.0150971,-0.657107,-0.3609979
0.7338803,-0.3617104,-0.2422358,0.1921483,-0.6088562,-0.2280515
0.7072683,-0.3374896,-0.2223487,0.3149921,-0.5435359,-0.1629006
0.7155424,-0.2892194,-0.2102626,0.3995655,-0.5365066,-0.1851838
0.7310302,-0.2293161,-0.2198352,0.3832997,-0.4304483,-0.156375
0.7416706,-0.1744786,-0.198959,0.3174093,-0.3557146,-0.109774
0.7453495,-0.1313274,-0.1960967,0.2823336,-0.3490002,-0.03579574
0.7678211,-0.0818776,-0.2063506,0.1550933,-0.3413672,0.0494633
0.8356222,-0.03936774,-0.2162684,-0.005634551,-0.3349076,0.07611691
0.9424162,-0.02158422,-0.2394503,-0.1514248,-0.2516567,0.1238723
1.009444,-0.04029584,-0.2474538,-0.3122231,-0.1075605,0.1863979
1.011011,-0.114026,-0.2430096,-0.3622293,0.03985496,0.1992163
1.020601,-0.2363821,-0.2230795,-0.3775656,0.1528925,0.1979977
1.061183,-0.3510318,-0.216182,-0.3856095,0.1898896,0.1806936
1.145502,-0.3885185,-0.2684282,-0.3758107,0.2027944,0.137676
1.243545,-0.37334,-0.3317847,-0.5317247,0.1320961,0.1163841
1.246081,-0.3922752,-0.3484029,-0.6553924,0.004900405,0.1679526
1.210561,-0.4797946,-0.367291,-0.5168189,0.0105258,0.2612918
1.206863,-0.5712293,-0.4160907,-0.3828758,0.05188648,0.3112681
1.136364,-0.5713847,-0.4176887,-0.4332299,0.05796371,0.3089527
1.086971,-0.5683652,-0.4074334,-0.4571756,0.1496084,0.2934736
1.121688,-0.6430899,-0.4018845,-0.37231,0.3140908,0.287356
1.091966,-0.6538051,-0.3138594,-0.2900179,0.4705885,0.2374568
1.042871,-0.6076948,-0.219677,-0.07926958,0.4938891,0.1332505
1.019843,-0.5760585,-0.1696512,0.1829172,0.3391143,0.1062321
1.009458,-0.4890583,-0.1579716,0.2637536,0.134256,0.1917922
1.053909,-0.4075323,-0.2095234,0.3596067,-0.005674417,0.3169862
1.051508,-0.3779419,-0.2450548,0.522806,0.003708747,0.3891001
0.9769933,-0.3737164,-0.2574505,0.592957,0.1547886,0.3555632
0.8577289,-0.3993624,-0.2515913,0.5977162,0.3001476,0.2811035
0.7152204,-0.3962957,-0.2033293,0.5944044,0.3100216,0.1714881
0.6517314,-0.3706187,-0.1638913,0.6215868,0.2133522,0.0787718
0.6258502,-0.3173389,-0.1247473,0.6718275,0.1369822,0.1213856
0.6138515,-0.231135,-0.1070858,0.6991226,0.09440467,0.1875242
0.606264,-0.206596,-0.1137423,0.6096847,0.04846924,0.2002307
0.5324394,-0.2064398,-0.1005531,0.4083876,-0.04293837,0.2281844
0.4689055,-0.1838244,-0.09501437,0.2792747,-0.190158,0.2201096
0.4685118,-0.1989267,-0.08018196,0.2540659,-0.2176783,0.2066481
0.516948,-0.2458589,-0.06020771,0.2516172,-0.1524362,0.2368049
0.5629411,-0.2885059,-0.04550794,0.2498233,-0.1737763,0.2187827
0.5765669,-0.3275805,-0.01355792,0.2601346,-0.2108544,0.1817808
0.6652538,-0.3603038,0.0001486419,0.2835247,-0.2752115,0.1314503
0.8637078,-0.3768348,-0.008598563,0.260479,-0.3750355,0.05958754
1.099264,-0.3974365,-0.02023103,0.223424,-0.4015227,0.05572683
1.279612,-0.394635,-0.02778714,0.1918953,-0.3992432,0.075036
1.426553,-0.3476885,-0.04713104,0.04586833,-0.3866271,0.1125128
1.536212,-0.3422577,-0.07733226,-0.1687012,-0.4188825,0.1946218
1.47805,-0.4427085,-0.1046601,-0.1920702,-0.6159897,0.2917126
1.436887,-0.6284297,-0.1642848,0.07988536,-0.7657833,0.3661111
1.454625,-0.730377,-0.2087846,0.2887076,-0.5123776,0.2689979
1.296497,-0.6799042,-0.2236268,0.1151436,-0.1232684,0.101315
1.09963,-0.6823507,-0.257149,-0.05310097,-0.07672126,0.04316144
0.9247724,-0.7253487,-0.271154,0.05111625,-0.08733576,-0.07762354
0.7535334,-0.6889904,-0.2908057,0.08355495,-0.01840517,-0.2994936
0.706478,-0.6714328,-0.3220232,0.1012693,-0.1186874,-0.4549169
0.7331238,-0.6462101,-0.3303939,0.2633577,-0.1946726,-0.5172328
0.8107619,-0.5600599,-0.3619265,0.2740655,-0.2275195,-0.526164
0.9068008,-0.5086749,-0.3950505,0.2047547,-0.1692044,-0.5261933
0.9832513,-0.4880148,-0.391774,0.1907456,0.004662614,-0.5632663
1.007617,-0.4611173,-0.3651611,0.1106905,-0.09589111,-0.6389757
0.9467906,-0.4424959,-0.3226075,0.1013073,-0.2090587,-0.7104006
0.9120054,-0.4333135,-0.2904556,0.1527413,-0.1686091,-0.7486526
0.8346662,-0.4392733,-0.267435,0.2013147,-0.2413029,-0.7729899
0.6902332,-0.4342747,-0.2332578,0.3631577,-0.2707597,-0.8181596
0.6072604,-0.4002381,-0.2133603,0.545393,-0.37978,-0.9039402
0.5914838,-0.3360854,-0.2326089,0.6793012,-0.5868479,-0.9635501
0.6500285,-0.2375972,-0.2549726,0.7886969,-0.658904,-0.9128235
0.6875917,-0.1451039,-0.2581096,0.8399826,-0.6691517,-0.7732006
0.6951892,-0.08901886,-0.2661345,0.8113793,-0.6149879,-0.5676903
0.7193507,-0.08483614,-0.2678619,0.7002479,-0.580652,-0.3860611
