accx,accy,accz,gyrox,gyroy,gyroz
1.145432,-0.4676075,-0.2234042,-0.2106838,0.1752136,-0.2767425
1.213244,-0.5395097,-0.2002375,-0.113683,0.1149828,-0.2815079
1.307843,-0.6653929,-0.2310577,0.1023842,0.2668766,-0.1066836
1.315214,-0.7320684,-0.2810225,0.3088558,0.4400596,0.1308798
1.160412,-0.7283703,-0.2536315,0.3930293,0.3596891,0.258294
1.000742,-0.6831166,-0.2128025,0.3685273,0.255853,0.20498
0.9612058,-0.6137222,-0.185701,0.3922832,0.2355259,0.1198681
1.030903,-0.5510546,-0.1132391,0.4136955,0.1050502,0.07997509
1.082114,-0.4495073,-0.05914179,0.3577721,0.001133324,0.03125968
1.063998,-0.3527304,-0.05401731,0.3210918,-0.06549939,0.05003101
1.046895,-0.3197434,-0.08556561,0.1611768,-0.1102604,0.06805269
1.001665,-0.2987964,-0.1239231,-0.04828447,-0.001048005,0.04446906
0.934668,-0.3189742,-0.118277,-0.1240807,0.1338587,0.03903076
0.8349462,-0.3771863,-0.106732,-0.144001,0.1902493,-0.004972021
0.7126916,-0.3735517,-0.09246099,0.0001891077,0.1610274,0.005300251
0.6928566,-0.3479004,-0.07663122,0.2375222,0.1494526,0.06077374
0.6841299,-0.3369616,-0.07347282,0.3582691,0.2577654,0.06543801
0.6445117,-0.2893989,-0.04566649,0.3626801,0.314073,0.08247255
0.6658362,-0.2361001,-0.02535968,0.2646303,0.2553691,0.07368905
0.667061,-0.2006609,-0.015609,0.1356818,0.1557857,0.07431543
0.7076063,-0.2060311,-0.0009765864,-0.01945415,0.09653119,0.1089056
0.8117535,-0.2550789,-0.004699151,-0.1468918,0.1346987,0.1110129
0.822394,-0.2966033,-0.00295273,-0.1803782,0.1535798,0.123425
0.8195064,-0.3577979,-0.0005330986,-0.1807445,0.1351589,0.0684195
0.873554,-0.4075735,0.006543892,-0.09657047,0.1483544,-0.09549327
0.916962,-0.4075689,0.02816535,0.03277159,0.1725563,-0.3083785
0.9483879,-0.3854138,0.04099118,0.09296898,0.1759879,-0.5230616
0.9550551,-0.3203903,0.05337916,0.08385936,0.1171722,-0.586955
0.974223,-0.2690092,0.05002738,0.07352909,-0.02270589,-0.5078639
1.047585,-0.2649268,0.01318211,0.1194733,-0.2189529,-0.3698129
1.167552,-0.3225533,-0.05548579,0.2062469,-0.3514906,-0.1300078
1.318137,-0.4688594,-0.1270759,0.4034934,-0.338211,0.0552537
1.357534,-0.5523757,-0.1263924,0.5984884,-0.309593,-0.001145199
1.221586,-0.519666,-0.07955076,0.5707256,-0.3550869,-0.09971925
1.101757,-0.4745052,-0.07457449,0.4024098,-0.4118111,-0.0702541
1.106976,-0.456223,-0.1309823,0.1663362,-0.5133692,0.007617367
1.08654,-0.4933129,-0.2354828,-0.02814938,-0.6285085,0.191587
0.9709077,-0.5604417,-0.3171386,-0.06555993,-0.5409874,0.3787801
0.8929712,-0.6003212,-0.32813,-0.09826801,-0.3565385,0.3916179
0.8980351,-0.6068316,-0.3154714,-0.1693669,-0.277855,0.3556899
0.9804455,-0.6049849,-0.2961924,-0.1688107,-0.2045417,0.2472578
1.080144,-0.6090403,-0.2745605,-0.06457791,-0.1778192,0.07018988
1.05116,-0.5893514,-0.260991,0.105363,-0.2417301,-0.05320292
0.9690237,-0.5070051,-0.2184308,0.2677169,-0.3141306,-0.1550978
0.9311874,-0.4071562,-0.1658452,0.38358,-0.4219704,-0.1976901
0.906143,-0.3973832,-0.1773693,0.4149598,-0.4723589,-0.187172
0.8878191,-0.3819316,-0.2135267,0.3586484,-0.4092317,-0.1516472
0.8085567,-0.2700604,-0.2051575,0.2403066,-0.3218084,-0.1252965
0.7404452,-0.2458957,-0.1957201,0.07226086,-0.2497574,-0.1802667
0.7387826,-0.2854405,-0.1688757,-0.03369212,-0.2565764,-0.2435374
0.6712249,-0.2547875,-0.1186934,-0.008557475,-0.3220591,-0.2795503
0.6349452,-0.2577639,-0.1371737,0.06980052,-0.3689756,-0.2735948
0.6851336,-0.2762921,-0.1669803,0.1688715,-0.381002,-0.2092872
0.7064758,-0.2610859,-0.1807931,0.2462399,-0.3145024,-0.1226818
0.7595472,-0.2720205,-0.2285335,0.2625384,-0.2216087,-0.07092416
0.8171155,-0.2735576,-0.2337953,0.3200819,-0.1988332,-0.1032828
0.8217016,-0.2740653,-0.2147683,0.4205298,-0.1785255,-0.09819897
0.8594053,-0.2786291,-0.2254828,0.4550218,-0.1298502,-0.03324619
0.8994218,-0.2417062,-0.2405962,0.3964536,-0.1146502,0.01456804
0.9380883,-0.2164927,-0.2708479,0.2622237,-0.06410156,0.04887161
1.023979,-0.2323049,-0.2896873,0.1429561,0.05910954,-0.009563797
1.077117,-0.2693069,-0.2896858,0.1070736,0.1508021,-0.09523907
1.077278,-0.3146763,-0.2915678,0.1398574,0.1836135,-0.1211928
1.071571,-0.3502661,-0.2724203,0.2177252,0.1976556,-0.180475
1.068406,-0.3626818,-0.2481453,0.3030894,0.1958498,-0.2610335
1.070042,-0.3480168,-0.2451431,0.2688185,0.1593007,-0.2954489
1.077006,-0.346483,-0.2627788,-0.03362947,0.06192558,-0.2751611
1.124876,-0.3896782,-0.2797508,-0.3369198,-0.07987323,-0.2507718
1.232495,-0.516096,-0.2812556,-0.2547489,-0.1183685,-0.227751
1.351463,-0.7039258,-0.3131242,0.06307172,0.1112859,-0.1032815
1.37833,-0.7905046,-0.3546102,0.3304438,0.4798466,0.06813475
1.232821,-0.7585242,-0.31466,0.4447198,0.6173706,0.1286191
1.028182,-0.6927211,-0.229853,0.39004,0.4039208,0.1059133
0.9581679,-0.5728233,-0.1762394,0.3058783,0.1613633,0.1133436
1.019738,-0.4819611,-0.1432078,0.2319476,0.1194377,0.1166441
1.054626,-0.4787512,-0.1260055,0.09980776,0.1222923,0.06364616
1.036815,-0.4547584,-0.1211767,-0.0107177,0.104205,0.04474948
1.038233,-0.4256162,-0.1183181,-0.1051282,0.1434564,0.08581064
1.004695,-0.4310196,-0.1308989,-0.1724659,0.2158461,0.1304451
0.9325143,-0.4206122,-0.1482666,-0.150989,0.2706479,0.1381015
0.8773662,-0.4244992,-0.1502819,-0.1385679,0.2574008,0.09262244
0.8026744,-0.4355994,-0.1301455,-0.03717307,0.2349358,0.06093704
0.7302471,-0.4161311,-0.1040488,0.1737261,0.2599559,0.06392215
0.6907247,-0.3854437,-0.09719702,0.2850389,0.2792437,0.08134499
0.6563067,-0.3346825,-0.09341719,0.2782794,0.3084979,0.09400909
0.6312189,-0.2794989,-0.07670063,0.1874146,0.3007269,0.05532553
0.6638316,-0.2401123,-0.05273775,0.09788182,0.2405343,-0.00329745
0.7490397,-0.2182843,-0.03715916,0.01227217,0.2158818,-0.03022994
0.7819044,-0.2291467,-0.03804773,-0.1162128,0.1841485,0.00119664
0.7795354,-0.2620563,-0.03291219,-0.2283023,0.153119,0.03115951
0.8015603,-0.3221999,-0.01955835,-0.3151522,0.1825325,-0.03152981
0.824271,-0.3842939,0.001068921,-0.2518282,0.2267456,-0.1556004
0.8667392,-0.386804,0.03331533,-0.1001015,0.2366334,-0.3467039
0.8896908,-0.3388505,0.043421,-0.05149808,0.1997989,-0.5463249
0.8848869,-0.2630315,0.02884334,-0.07695926,0.1260859,-0.5952016
0.9086908,-0.1847117,0.01716359,-0.1852686,0.002514763,-0.5268799
0.9563728,-0.1705734,-0.009623941,-0.288995,-0.1160304,-0.4356371
1.018944,-0.2583577,-0.05530012,-0.3283633,-0.1667843,-0.3394321
1.063427,-0.4237154,-0.09298984,-0.2977999,-0.2156478,-0.2685603
1.146976,-0.575923,-0.1348316,-0.07091286,-0.2310788,-0.2069263
1.329668,-0.6144524,-0.1724573,0.311697,-0.115141,-0.1520237
1.43506,-0.5403091,-0.1702985,0.5845977,0.004443498,-0.2049968
1.31681,-0.4368016,-0.1362281,0.4605185,-0.07754151,-0.283129
1.121354,-0.3675202,-0.1046977,0.1726598,-0.2575659,-0.1778555
1.029054,-0.3798202,-0.1381014,-0.006210925,-0.3942309,0.0687144
1.012118,-0.5002445,-0.236072,-0.1631466,-0.5033014,0.3518077
1.025254,-0.625529,-0.3242752,-0.104181,-0.3858943,0.4736522
1.033376,-0.636866,-0.3625821,-0.07503188,-0.1468017,0.340392
1.015576,-0.5929488,-0.3171022,-0.2448211,-0.1120021,0.2368224
1.027629,-0.5762531,-0.2473516,-0.1784655,-0.1103724,0.1106824
1.010525,-0.5472222,-0.2183262,-0.07383859,-0.1337696,-0.06785154
0.9522389,-0.4825339,-0.1760396,0.06778633,-0.2486132,-0.08789489
0.9088954,-0.4202569,-0.1552577,0.31266,-0.2964001,-0.1680649
0.8675142,-0.3468258,-0.179905,0.3085005,-0.3547264,-0.2351492
0.8571445,-0.2502767,-0.199702,0.2893995,-0.4049405,-0.1639465
0.8439418,-0.1880025,-0.2124577,0.2093462,-0.3976795,-0.1669548
0.8194509,-0.1975867,-0.2013971,-0.05201325,-0.3232351,-0.1268086
0.7775644,-0.2357562,-0.1811032,-0.1674901,-0.157629,-0.1238364
0.6857748,-0.2543395,-0.1591689,-0.2031371,-0.1196516,-0.241621
0.6476892,-0.2739891,-0.1465454,-0.1923808,-0.180457,-0.3013337
0.6633744,-0.2748643,-0.1704214,-0.08809483,-0.210744,-0.3257636
0.7030042,-0.2545371,-0.1950595,0.08605434,-0.2844789,-0.2437727
0.7768054,-0.2601759,-0.2339518,0.2989843,-0.3085192,-0.1168842
0.8149634,-0.2509183,-0.2581982,0.3778822,-0.2074015,-0.04820169
0.8601515,-0.2418145,-0.2353912,0.3724906,-0.06782397,0.01332974
0.9301308,-0.2373796,-0.2362069,0.3392284,-0.02601983,-0.0002787563
0.9448537,-0.2078213,-0.2390128,0.2887031,-0.08156874,0.001066295
0.9605066,-0.2194109,-0.2374094,0.301681,-0.09260707,0.02291873
1.044941,-0.2313321,-0.2646337,0.29173,-0.0492707,0.004678907
1.074263,-0.2258691,-0.2691752,0.2605547,0.03196865,0.009376208
1.030513,-0.2586013,-0.2411601,0.267063,0.1059994,-0.06422297
1.049345,-0.276752,-0.2169045,0.3220861,0.06393407,-0.1647857
1.061145,-0.2718528,-0.2247661,0.4840067,-0.02592127,-0.1680033
1.084587,-0.2823918,-0.2527959,0.6754059,-0.03624876,-0.1248634
1.199647,-0.3320459,-0.2902363,0.7218244,0.00766905,-0.07273405
1.247231,-0.3830854,-0.3390455,0.5123356,0.02788608,-0.05179107
1.219882,-0.4051031,-0.3281124,0.1508427,-0.03641025,-0.1025275
1.216287,-0.5368725,-0.2847439,0.008560444,-0.1513387,-0.2200694
1.22332,-0.7564262,-0.2661886,0.3224484,-0.153359,-0.2726333
1.195792,-0.8015933,-0.2274884,0.8178503,-0.02223,-0.1979938
1.121826,-0.6545793,-0.2333733,0.9783557,0.1157009,-0.0866011
1.084607,-0.515605,-0.2562677,0.6874941,0.1635931,0.03080765
1.099074,-0.4332002,-0.192754,0.3306268,0.12604,0.06705776
1.121937,-0.3760523,-0.1380225,0.1278738,0.1181496,0.02601757
1.12391,-0.3465806,-0.1095829,-0.1199249,0.06679824,0.034925
1.088827,-0.3274676,-0.09452762,-0.3565474,-0.02352304,0.07087661
1.042287,-0.3496897,-0.1330503,-0.3445096,0.06417078,0.1138981
0.9799054,-0.402585,-0.1536372,-0.2562191,0.1929197,0.1488749
0.8996245,-0.4189689,-0.1465194,-0.1698826,0.1999861,0.09541993
0.7817371,-0.4214961,-0.1287067,0.01718105,0.1717156,0.02179998
0.6687237,-0.4194733,-0.09702673,0.2306174,0.1483147,0.03348631
0.6370489,-0.3978513,-0.0848146,0.417741,0.1741941,0.05491467
0.6334916,-0.3540482,-0.08331375,0.4607738,0.1997767,0.05365356
0.6356649,-0.2802118,-0.08603755,0.3936571,0.1720357,0.06547057
0.6654828,-0.2310378,-0.08107183,0.3243825,0.1715808,0.01857511
0.7442896,-0.2298569,-0.07583489,0.1768237,0.201333,-0.05267792
0.8290197,-0.2420688,-0.07034095,0.1091297,0.2478878,-0.05418119
0.8268953,-0.2515152,-0.04111371,0.09303665,0.2797854,-0.02565733
0.8014735,-0.2554089,-0.023547,-0.006077987,0.2058926,0.001191529
0.8086255,-0.2776175,-0.007393571,0.05240974,0.09726307,0.002009085
0.8602477,-0.3289112,0.008033352,0.1966068,0.06686377,-0.08917981
0.9350154,-0.3665546,0.002966176,0.2702068,0.05036292,-0.2592435
0.9325292,-0.3158532,0.003616131,0.351141,0.009667415,-0.3828329
0.9178059,-0.2244365,-0.005312484,0.3687166,0.004625941,-0.3947111
0.9421616,-0.2221436,0.006706136,0.3794929,-0.03131707,-0.3278529
0.9564539,-0.2480733,0.02424682,0.4538856,-0.1714525,-0.2379445
1.062931,-0.2834115,-0.04547135,0.5642071,-0.3067372,-0.1931068
1.259105,-0.4067688,-0.1616846,0.756272,-0.3587485,-0.1072959
1.327828,-0.4885387,-0.2264016,0.894119,-0.3456042,0.03093055
1.265026,-0.5114872,-0.1913181,0.9312976,-0.3302301,0.01522462
1.25701,-0.5777572,-0.1252477,0.9450548,-0.3905195,-0.07012709
1.253399,-0.581396,-0.1097291,0.8319084,-0.466793,-0.08884051
1.126148,-0.5441749,-0.1088031,0.7021806,-0.5173038,-0.1304629
0.9309926,-0.5840393,-0.1216819,0.7284789,-0.5599738,-0.1419506
0.8202872,-0.5987088,-0.1298104,0.7853676,-0.5581405,-0.1692485
0.9197948,-0.5691223,-0.1382651,0.8500913,-0.5527775,-0.2858237
1.040155,-0.5606782,-0.1988322,1.016898,-0.5404773,-0.3145775
1.003572,-0.5222336,-0.2200467,1.181775,-0.5006758,-0.2857835
0.9797553,-0.4856492,-0.1785863,1.275822,-0.499336,-0.3147862
0.9607493,-0.4688851,-0.1482327,1.385227,-0.5341854,-0.3599044
0.9094398,-0.4474171,-0.1440228,1.47817,-0.6055281,-0.4319489
0.9093827,-0.4443935,-0.1561646,1.507842,-0.6704704,-0.4530354
0.8885691,-0.3937636,-0.1602139,1.456654,-0.6598761,-0.3655036
0.8900323,-0.321384,-0.209112,1.244583,-0.5862098,-0.3013619
0.9076135,-0.2816134,-0.2697908,0.9793345,-0.4516852,-0.3324585
0.8726225,-0.2753484,-0.2431497,0.8879285,-0.3571534,-0.4048466
0.8439709,-0.3396953,-0.203556,1.004318,-0.3698099,-0.443074
0.782353,-0.3668665,-0.1830901,1.149412,-0.3429044,-0.414473
0.7663816,-0.3572666,-0.1572622,1.263868,-0.2564597,-0.3666452
0.8184191,-0.3363612,-0.1531051,1.375239,-0.2624078,-0.3574016
0.8134921,-0.2373292,-0.1465705,1.346884,-0.3455496,-0.325498
0.8358467,-0.2054868,-0.1445488,1.26849,-0.393431,-0.2398666
0.885573,-0.2293152,-0.1680417,1.223216,-0.36528,-0.1968925
0.9135878,-0.2407502,-0.1701798,1.14921,-0.2713275,-0.1950606
0.9457533,-0.2866015,-0.1533486,1.227289,-0.221052,-0.2007057
0.9466879,-0.2753191,-0.1368758,1.359717,-0.2547546,-0.2001451
0.9559372,-0.2366455,-0.107329,1.372036,-0.2856655,-0.1632102
0.9653358,-0.1984095,-0.1095087,1.345716,-0.2968308,-0.1105999
0.9435745,-0.1385119,-0.1360878,1.28967,-0.352607,-0.005739464
0.9327092,-0.1237825,-0.1445335,1.308147,-0.4970381,0.1448369
0.9389363,-0.153223,-0.1615693,1.36831,-0.5712561,0.273905
0.9830168,-0.2182831,-0.1706896,1.391037,-0.4774505,0.3316648
1.022671,-0.2430687,-0.1664438,1.404958,-0.440615,0.2722682
0.9942704,-0.2099839,-0.1568598,1.316201,-0.5698691,0.2333593
0.9784305,-0.2198097,-0.1369633,1.263865,-0.6966051,0.2980805
1.063116,-0.2776237,-0.1459859,1.33062,-0.6917029,0.3488983
1.186009,-0.3365869,-0.1490202,1.31315,-0.6697613,0.3678112
1.228924,-0.3201531,-0.1123538,1.058932,-0.7455455,0.3700271
1.207675,-0.3033239,-0.07946338,0.6073901,-0.829311,0.3193703
1.228474,-0.3994551,-0.06936645,0.3484824,-0.8779152,0.2063742
1.28694,-0.5037929,-0.07880925,0.3825891,-0.8606417,0.1207416
1.28109,-0.5656442,-0.07648202,0.3905305,-0.6441202,0.1891422
1.204777,-0.5798539,-0.06174242,0.3155937,-0.2905647,0.2724088
1.111424,-0.5549061,-0.05950815,0.1466187,-0.1570274,0.2156201
1.03895,-0.565028,-0.06424912,-0.07962472,-0.2970035,0.1532269
1.040385,-0.58937,-0.0941201,-0.1275175,-0.3303963,0.05781321
1.037799,-0.6057477,-0.1371559,-0.0252404,-0.2634371,-0.1170544
0.9852195,-0.5923403,-0.163906,0.07045007,-0.2620683,-0.1460198
0.9709582,-0.5456045,-0.1875216,0.1872473,-0.1728486,-0.06640959
0.9605358,-0.5129347,-0.2032621,0.2200085,-0.05901317,-0.0653799
0.9018382,-0.4537507,-0.2001213,0.1480476,-0.006695522,-0.1751757
0.7887728,-0.3947634,-0.1885773,0.1943666,0.06002196,-0.351394
0.7011287,-0.3807248,-0.1858549,0.2501647,0.05206336,-0.3975086
0.7327917,-0.3510768,-0.1960758,0.2532963,0.04861037,-0.3302228
0.7590282,-0.3242787,-0.2073353,0.3136408,0.1907593,-0.3237853
0.7458723,-0.3345392,-0.1999344,0.2890604,0.321067,-0.3255905
0.7262247,-0.3706088,-0.1519368,0.2802144,0.3236168,-0.3252135
0.680285,-0.3979566,-0.0934062,0.3527252,0.2944285,-0.359054
0.7306744,-0.3599395,-0.07329664,0.3328828,0.3243194,-0.3804134
0.8434303,-0.2932984,-0.07603523,0.2528359,0.3504554,-0.358463
0.9212222,-0.2571502,-0.07419107,0.1082655,0.3195467,-0.2945168
0.9735058,-0.2504264,-0.07649716,-0.03702183,0.2683707,-0.1976313
0.938007,-0.2678012,-0.07240624,-0.1337252,0.2049676,-0.08783706
0.9149931,-0.2928192,-0.05770437,-0.2204598,0.217063,-0.05077495
0.9859716,-0.3111126,-0.06038319,-0.1950308,0.3189478,-0.06002894
1.010944,-0.3165661,-0.05419928,-0.1855271,0.3700645,-0.03246961
0.9659476,-0.2841924,-0.02813494,-0.2825997,0.346264,-0.02716961
0.9096982,-0.2309009,-0.01745837,-0.3898931,0.2848381,-0.01037945
0.877804,-0.2268481,-0.0129685,-0.4856152,0.2537115,0.04012937
0.8841764,-0.2799428,-0.01322275,-0.4045727,0.2928356,0.02885614
0.9003067,-0.3420922,-0.007149178,-0.1978145,0.3554286,-0.06870035
0.9231341,-0.3625333,0.01949082,-0.09144558,0.3876705,-0.268314
0.9245388,-0.3047315,0.03781473,-0.08323355,0.2460476,-0.4341491
0.9178919,-0.2224553,0.02960345,-0.1829236,-0.02882258,-0.3995365
0.9736787,-0.2041531,-0.03941178,-0.3235927,-0.1615395,-0.2446094
1.138254,-0.2994804,-0.1523083,-0.3881283,-0.1125127,-0.05037549
1.41862,-0.4792928,-0.1945915,-0.2987291,-0.06949772,0.03673545
1.553658,-0.5719913,-0.1452575,-0.07427813,-0.1058514,-0.1023907
1.340984,-0.4837757,-0.1111161,0.004552176,-0.1721914,-0.1914747
1.140676,-0.3494827,-0.135108,-0.09968099,-0.2908456,-0.03839109
1.182288,-0.3031907,-0.2100791,-0.2888418,-0.3502998,0.2223646
1.18126,-0.3689008,-0.3229141,-0.6038091,-0.2396929,0.4929005
1.073503,-0.4739745,-0.3456295,-0.8523134,-0.1440722,0.5886889
1.015288,-0.5070107,-0.2793183,-0.9688559,-0.09131194,0.4493714
0.9988142,-0.5150806,-0.2672486,-1.02242,-0.05599029,0.3651714
1.031007,-0.5413994,-0.2489944,-0.9067944,-0.09115634,0.3321678
1.050677,-0.5099776,-0.1980152,-0.6787378,-0.08670462,0.2267013
0.9847508,-0.4704634,-0.1725508,-0.4626028,-0.098133,0.1678204
0.9030871,-0.4131304,-0.1399922,-0.2648547,-0.1843952,0.06914147
0.8230269,-0.3001907,-0.1448735,-0.1849624,-0.2423176,-0.05305053
0.7879431,-0.2371573,-0.1863371,-0.3010471,-0.2259882,-0.03231636
0.7482016,-0.1668146,-0.2057936,-0.4573234,-0.1109204,0.04208893
0.6439481,-0.1006468,-0.2019705,-0.588242,-0.004098455,0.1353857
0.6161231,-0.1446289,-0.1782064,-0.7580027,0.01485521,0.2049666
0.610303,-0.1841239,-0.1819975,-0.8657132,-0.01123379,0.1865042
0.6169763,-0.2238857,-0.1976056,-0.865069,-0.05160632,0.1843728
0.7357544,-0.2918379,-0.2134196,-0.7491868,-0.05393827,0.1984467
0.8281389,-0.2920992,-0.2549339,-0.5311275,0.01180424,0.1988543
0.8844005,-0.2907572,-0.2671384,-0.3985813,0.1776618,0.2147206
0.9278638,-0.3089681,-0.268975,-0.3693539,0.3270988,0.210342
0.9231344,-0.2970377,-0.2655266,-0.3264046,0.3437725,0.1593342
0.9388578,-0.2751308,-0.2213702,-0.2716666,0.3244613,0.07471162
0.9412498,-0.2115771,-0.1923998,-0.2311501,0.2628309,0.03909731
0.9518214,-0.1594082,-0.2057559,-0.2418343,0.196317,0.1029304
1.014345,-0.1824452,-0.2473041,-0.305418,0.2344626,0.18068
1.065514,-0.1894464,-0.2712343,-0.3944046,0.3316124,0.2064287
1.067346,-0.1808538,-0.2590561,-0.4536639,0.4249571,0.1768023
1.018954,-0.2306605,-0.2440897,-0.4089893,0.4310547,0.09959872
1.008724,-0.29447,-0.2190983,-0.2899289,0.3451132,0.02460946
1.038166,-0.3156386,-0.2047109,-0.106042,0.2781456,0.01502997
1.088196,-0.330915,-0.2388704,0.01262518,0.2831539,0.06059502
1.174715,-0.3880403,-0.3168179,-0.2186375,0.3338286,0.07051324
1.181741,-0.4446015,-0.3592978,-0.6467281,0.3677971,-0.001754235
1.215034,-0.5162641,-0.2876861,-0.8073107,0.3715187,-0.1047737
1.369367,-0.6890493,-0.198893,-0.4883238,0.3760915,-0.130083
1.410355,-0.807228,-0.1983619,0.008703079,0.3809073,0.03246495
1.278226,-0.7408328,-0.2257741,0.1298695,0.3614615,0.2927934
1.130942,-0.6765241,-0.2252726,0.005234255,0.369332,0.4040782
1.089615,-0.6246077,-0.2140421,-0.003467016,0.4681992,0.3423151
1.120397,-0.5117404,-0.1668709,-0.09449614,0.5418556,0.2787684
1.083578,-0.4637572,-0.09299531,-0.2733574,0.4225159,0.2484323
0.993312,-0.4215678,-0.0587623,-0.3581891,0.1959285,0.2169946
0.9377601,-0.3559886,-0.04386055,-0.404908,0.1215407,0.2293608
0.9193816,-0.369355,-0.06163016,-0.4589901,0.2066908,0.2303563
0.890718,-0.3738121,-0.1312609,-0.4774747,0.3004284,0.1598801
0.8113406,-0.3601503,-0.155353,-0.379864,0.3661192,0.09183298
0.7112778,-0.3684394,-0.1196555,-0.2224845,0.3605855,0.06971757
0.6441651,-0.3509636,-0.0855606,-0.09487685,0.3573864,0.1398871
0.6258209,-0.3271169,-0.07174417,-0.03462127,0.4433878,0.2036878
0.6330774,-0.2958816,-0.06537917,-0.07706371,0.4972637,0.1132685
0.6265915,-0.2571708,-0.03356996,-0.1399842,0.4663998,0.02563466
0.6349075,-0.2215563,0.00449084,-0.2260299,0.3783048,0.02991035
0.699338,-0.2012245,0.01532073,-0.3669901,0.2280949,0.06769888
0.7714508,-0.2304687,0.009316141,-0.472424,0.06210513,0.1697476
0.8104378,-0.2829398,0.006189696,-0.490298,-0.02927455,0.2546101
0.8415384,-0.3591034,0.007730447,-0.4173363,0.007526534,0.1900212
0.9035667,-0.4484193,0.002086789,-0.3045771,0.0903058,0.01874189
0.9576277,-0.4689503,0.01076058,-0.1892589,0.1563507,-0.1922445
0.9502906,-0.3848021,0.03847421,-0.1023978,0.2111423,-0.4491313
0.9449542,-0.2431153,0.06067222,-0.1158126,0.1709339,-0.5695135
0.9535494,-0.1529237,0.07584437,-0.2091807,0.08653386,-0.4759664
0.9773429,-0.1512789,0.07510023,-0.3346509,0.009491943,-0.3484146
1.064606,-0.2133235,0.05148517,-0.4145375,-0.2095298,-0.1216261
1.159397,-0.3630114,-0.03777227,-0.2940404,-0.3542012,0.1054631
1.276828,-0.5853678,-0.1822647,0.007086614,-0.1616519,0.09844695
1.378376,-0.7319168,-0.2180321,0.2439791,-0.02515376,0.02159073
1.310833,-0.6319181,-0.1419263,0.1686227,-0.2307797,-0.02155764
1.167931,-0.4522775,-0.1155631,-0.1485344,-0.4680378,0.03567099
1.077878,-0.4542867,-0.1250087,-0.3129898,-0.5016673,0.2242618
1.021248,-0.5423335,-0.1355011,-0.2184485,-0.3897197,0.3499719
0.997346,-0.618668,-0.1959595,-0.1416833,-0.2349057,0.3479448
0.9897551,-0.6185787,-0.2626549,-0.2153195,-0.1778,0.2257149
1.007337,-0.5330141,-0.2786633,-0.2592335,-0.2088271,0.09043597
1.050146,-0.5055398,-0.2432111,-0.171706,-0.1806417,0.03706819
1.056071,-0.4456166,-0.1981662,-0.08426594,-0.1308963,-0.02522628
1.031587,-0.3702556,-0.1834515,0.03262405,-0.09925317,-0.1058327
0.9811965,-0.3549347,-0.1609476,0.08821661,-0.09595012,-0.1943465
0.9048279,-0.2783705,-0.1377385,-0.02852485,-0.1530522,-0.2255533
0.8653375,-0.2417612,-0.1461913,-0.114154,-0.1769956,-0.2047686
0.8387016,-0.2394895,-0.1542411,-0.2598222,-0.1523116,-0.2459521
0.7686407,-0.2309788,-0.1572367,-0.4277639,-0.1248096,-0.2887177
0.6714006,-0.2848934,-0.1539088,-0.4285202,-0.1394074,-0.3478822
0.5942264,-0.29811,-0.1492404,-0.3989347,-0.2524302,-0.3901272
0.5925553,-0.3065853,-0.1748569,-0.2306287,-0.3947688,-0.2834945
0.6832081,-0.3005849,-0.2342085,0.03515596,-0.4216884,-0.1255973
0.8284821,-0.26979,-0.2951383,0.1247051,-0.256298,-0.05331615
0.9197095,-0.3136754,-0.2981846,0.09005148,-0.08148533,-0.1120541
0.9150919,-0.3247368,-0.2553685,0.0952487,-0.05065804,-0.2033382
0.9105673,-0.2948197,-0.2282506,0.1902559,-0.03087173,-0.2192505
0.9361624,-0.2401143,-0.220956,0.2394688,0.02952658,-0.1745712
0.9634691,-0.1366515,-0.237578,0.2188796,0.06933099,-0.08916143
0.9932579,-0.08884924,-0.2608018,0.1227914,0.07923216,-0.05564154
1.019407,-0.09782057,-0.2542133,-0.06019585,0.10925,-0.05268147
1.028335,-0.1446977,-0.2372473,-0.09874193,0.1474316,-0.001172424
1.010194,-0.2154626,-0.2268772,0.01310342,0.1295351,0.02692235
0.9899847,-0.2623493,-0.2370088,0.1487198,0.1208632,0.04030042
0.9990694,-0.2816714,-0.2677578,0.2577547,0.1142291,0.02419151
1.037542,-0.292996,-0.2758439,0.2975721,0.06719617,-0.01764723
1.086765,-0.314106,-0.2550456,0.3396222,0.02011045,0.002988066
1.101247,-0.30018,-0.2136903,0.344658,-0.08520062,-0.0004842792
1.078822,-0.2764952,-0.1760694,0.2050829,-0.2528722,-0.0396388
1.105296,-0.3045581,-0.1979181,-0.04524305,-0.3939788,-0.03999628
1.242364,-0.3949675,-0.2696034,-0.1529539,-0.4047142,0.00385708
1.410663,-0.5329288,-0.3379162,-0.04512577,-0.1603655,0.165839
1.422897,-0.5952567,-0.3418169,-0.03306923,0.1956126,0.3771381
1.270472,-0.6114351,-0.2723022,-0.120852,0.3064112,0.4825892
1.138405,-0.6745991,-0.1990664,-0.1346699,0.2341918,0.4816653
1.067086,-0.6753819,-0.1265906,-0.08359942,0.3041198,0.4289679
1.055286,-0.61371,-0.05055477,0.005345996,0.3594796,0.3604169
1.08957,-0.5073761,-0.01267038,0.01256252,0.2411932,0.28089
1.075288,-0.3497023,-0.005990952,-0.1075734,0.1744776,0.2252745
1.051696,-0.2961303,-0.02368289,-0.3055959,0.1434893,0.2027526
0.9748042,-0.3210331,-0.0656105,-0.5327836,0.07717118,0.1493282
0.8377118,-0.3010238,-0.1170052,-0.6952117,0.07266466,0.07622386
0.8322624,-0.3017671,-0.1366152,-0.737043,0.1303976,0.03298304
0.8273777,-0.3607161,-0.1094795,-0.5673397,0.2405829,-0.03298489
0.662783,-0.422076,-0.1013677,-0.2308912,0.3026013,-0.1824217
0.5495051,-0.4311195,-0.09433079,0.02966441,0.236496,-0.3292007
0.6031903,-0.3779946,-0.0686703,0.1361163,0.1794928,-0.4027034
0.6723085,-0.3094384,-0.06414045,0.1807238,0.1927431,-0.4240818
0.6736099,-0.2777261,-0.05138084,0.2344156,0.1747144,-0.3722036
0.7021771,-0.2765228,-0.05758276,0.2570631,0.1230164,-0.2785891
0.7802025,-0.2610098,-0.07345875,0.2343806,0.121595,-0.219993
0.8563498,-0.2528421,-0.05875765,0.2555042,0.1125177,-0.2102486
0.8864878,-0.2571234,-0.07028686,0.2907893,0.07114796,-0.1900558
0.8901227,-0.2445308,-0.07664724,0.3029986,0.03569408,-0.09789316
0.9418467,-0.2679413,-0.06534008,0.3146554,-0.01510411,-0.01062169
0.956645,-0.3256739,-0.06320935,0.307553,0.04344036,-0.01719193
0.9541307,-0.3500802,-0.03017709,0.3087113,0.1693657,-0.1037659
0.9786715,-0.3421796,0.006272292,0.3060859,0.1588198,-0.2163115
0.9380397,-0.2906379,0.02092901,0.300708,0.1064665,-0.2923767
0.9377844,-0.2223543,0.02784584,0.3258761,0.0612479,-0.3302531
0.9480977,-0.2349681,0.0424123,0.3858494,-0.01319671,-0.3426328
0.9206318,-0.2967118,0.06974064,0.5798492,-0.03776065,-0.3259604
0.9541344,-0.3178671,0.09235907,0.8715161,-0.07028011,-0.2840914
0.9609486,-0.2908051,0.1086266,1.01854,-0.2077679,-0.1754613
0.9752945,-0.2530605,0.0774648,0.9607,-0.4261881,0.0403899
1.039104,-0.287267,-0.0050481,0.9435735,-0.5449363,0.3074615
1.201293,-0.420939,-0.08701042,1.109933,-0.4369527,0.4108104
1.460539,-0.554109,-0.1221075,1.264967,-0.3648176,0.2335884
1.488748,-0.5574803,-0.09291841,1.29043,-0.5029622,0.08977039
1.39934,-0.4881292,-0.09012125,1.169916,-0.6841293,0.2026519
1.370567,-0.5020883,-0.1184583,0.9200898,-0.7905593,0.3133843
1.185973,-0.5236041,-0.1413036,0.7440272,-0.7069181,0.3189294
1.048825,-0.5434221,-0.2016729,0.7192154,-0.5031871,0.2834683
1.05929,-0.6185456,-0.2290351,0.7580513,-0.4123943,0.1258858
1.041187,-0.5936491,-0.2231842,0.7560627,-0.3733786,-0.001347636
1.09529,-0.5326029,-0.2420308,0.7224077,-0.3926946,-0.003009215
1.131621,-0.5119856,-0.2363908,0.7394552,-0.4487206,-0.04302707
1.067448,-0.4550653,-0.2286987,0.7260273,-0.3298301,-0.1157394
1.014862,-0.4539727,-0.2299303,0.7302526,-0.2122602,-0.1894888
0.9376169,-0.4361509,-0.2121821,0.763386,-0.2058556,-0.233817
0.8793261,-0.3412857,-0.1982772,0.7006259,-0.2141595,-0.2116781
0.8227516,-0.2747927,-0.1941366,0.6105816,-0.3014423,-0.1836505
0.7063287,-0.2201688,-0.1981918,0.4698024,-0.3830386,-0.142613
0.6216461,-0.2174799,-0.1974218,0.3011246,-0.3998564,-0.110846
0.5661011,-0.2468762,-0.1883901,0.2230658,-0.3840129,-0.1200971
0.554115,-0.2444743,-0.1779036,0.2326612,-0.3834319,-0.111305
0.5881541,-0.2457984,-0.1659129,0.3609355,-0.4396008,-0.03020126
0.6350023,-0.2234286,-0.175912,0.4936857,-0.4676058,0.1077907
0.748425,-0.1921613,-0.2036241,0.4813075,-0.4787638,0.2077575
0.8546515,-0.1867351,-0.2201728,0.3514161,-0.392995,0.2194668
0.875123,-0.2348664,-0.1959166,0.2321219,-0.2310549,0.1487289
0.8932062,-0.3374953,-0.1288693,0.2610027,-0.2097791,0.04514595
0.9393446,-0.3737492,-0.08640242,0.4014778,-0.2169319,-0.008380162
0.9540849,-0.3299345,-0.09286822,0.5564686,-0.1858384,0.0009608503
1.00957,-0.2759324,-0.09931643,0.6090707,-0.1503964,0.003880819
1.129582,-0.217446,-0.09221156,0.5378397,-0.03436773,-0.08034184
1.16,-0.1724428,-0.093089,0.5060631,0.06432154,-0.2365555
1.152114,-0.1632514,-0.0976119,0.4844875,0.07892567,-0.3804088
1.169036,-0.2104819,-0.09919088,0.4332157,0.08922386,-0.4061883
1.156176,-0.3187774,-0.1343663,0.4614456,0.1502333,-0.2763331
1.162694,-0.4348275,-0.2093348,0.4117671,0.2210814,-0.05443975
1.179463,-0.4881405,-0.2618773,0.05196807,0.2354262,0.1331998
1.239897,-0.5567398,-0.2494593,-0.3827934,0.224593,0.09540625
1.303496,-0.7387391,-0.2091536,-0.3391334,0.2367116,-0.003999396
1.18615,-0.8472867,-0.180882,0.2024297,0.2304303,0.07476785
0.9942171,-0.7532346,-0.1627891,0.593073,0.1034773,0.1611943
0.9510748,-0.6068696,-0.2019042,0.4894943,-0.002641106,0.2724788
1.043648,-0.4801475,-0.2467306,0.1469633,0.1521559,0.3347438
1.094732,-0.3874524,-0.1751346,-0.1386193,0.3008508,0.1690425
1.026041,-0.3834986,-0.094628,-0.2925001,0.1450995,0.08023176
0.9615608,-0.4051018,-0.09247152,-0.3162576,-0.01669414,0.09363899
0.9576262,-0.4022177,-0.1011348,-0.28257,0.02329086,0.08996944
0.932579,-0.4080475,-0.1201273,-0.3204684,0.1052024,0.1207376
0.8514376,-0.3939188,-0.1375761,-0.354758,0.1963697,0.05136132
0.7658809,-0.362391,-0.1277148,-0.3605021,0.2189537,-0.00425318
0.7425949,-0.3429846,-0.1108051,-0.3619798,0.1683951,0.01729616
0.7673326,-0.3332377,-0.09920579,-0.2710644,0.2226528,0.02658932
0.7638349,-0.3554388,-0.07684657,-0.2199071,0.2931103,0.08498158
0.7354569,-0.3651758,-0.03113134,-0.2195117,0.3746934,0.1178048
0.7178577,-0.3338809,0.0008269583,-0.2038517,0.4877472,0.115991
0.7084707,-0.302282,0.008636892,-0.2484543,0.4622674,0.1016541
0.7395185,-0.2584879,0.01527868,-0.2873811,0.3769095,0.08729862
0.7763779,-0.210502,0.02529298,-0.3620229,0.2517603,0.1210126
0.7797403,-0.2179758,0.02658083,-0.4863876,0.1197038,0.1300563
0.8353689,-0.2916476,0.01116105,-0.5937752,0.1509674,0.1221967
0.91488,-0.3605007,0.009258657,-0.6572893,0.2313406,0.06723538
0.9095626,-0.3833236,0.01719804,-0.6236055,0.2756602,-0.05698186
0.8863716,-0.3657081,0.0315549,-0.6111587,0.2822863,-0.1749633
0.9113026,-0.3229256,0.0619927,-0.5990657,0.2649635,-0.2862273
0.9121392,-0.2998465,0.06503868,-0.5427916,0.2901239,-0.3465612
0.917339,-0.2731594,0.05757409,-0.5550073,0.2299346,-0.3331055
0.9779204,-0.2296947,0.06664837,-0.5699962,0.06623048,-0.2524282
1.00834,-0.2140595,0.05781563,-0.5915411,-0.09897352,-0.1198609
1.038519,-0.258699,0.01044341,-0.6121693,-0.2476371,0.01763446
1.146969,-0.4060391,-0.08531894,-0.4549333,-0.2665543,0.1234184
1.279412,-0.6082616,-0.1752262,-0.06824605,-0.1332902,0.1148609
1.34896,-0.7042022,-0.1878811,0.2564653,0.01984437,0.009001956
1.319219,-0.5624963,-0.1504172,0.09839111,0.01517922,-0.0644604
1.262015,-0.3269396,-0.1368066,-0.373955,-0.2248523,0.04953394
1.147567,-0.254636,-0.1787789,-0.7365441,-0.3965444,0.3333901
0.9688039,-0.3777111,-0.218513,-0.8102251,-0.2369296,0.4982316
0.9626277,-0.5967653,-0.2140576,-0.5505049,-0.03729886,0.4280009
1.043196,-0.6828413,-0.2301946,-0.3887158,-0.04194434,0.2667894
1.002238,-0.602613,-0.2710933,-0.467221,-0.009154959,0.1286039
1.013605,-0.5564763,-0.2616947,-0.4285131,0.0378032,0.01510841
1.042629,-0.5045573,-0.2279298,-0.3619079,-0.05752576,-0.04599161
0.981598,-0.4478634,-0.2082729,-0.2568534,-0.07453626,-0.04232512
0.9504826,-0.4315146,-0.1851951,-0.1150308,-0.07780138,-0.07842155
0.8855329,-0.389905,-0.1821544,-0.11998,-0.1068567,-0.1233599
0.8208149,-0.3520944,-0.1872057,-0.1022833,-0.05404073,-0.1661125
0.8203665,-0.3155674,-0.1791884,-0.1493131,-0.1190591,-0.2175637
0.7796248,-0.2810366,-0.1851123,-0.295243,-0.1513304,-0.1713354
0.7582464,-0.2600215,-0.1906803,-0.3463354,-0.05316423,-0.1113061
0.736582,-0.2481894,-0.1929865,-0.3912136,-0.0334078,-0.08150425
0.6955334,-0.2592362,-0.1959205,-0.4172266,-0.08496347,-0.05563678
0.7105821,-0.2552737,-0.1924502,-0.4304759,-0.2066591,-0.04987548
0.7390624,-0.261059,-0.2098074,-0.4443488,-0.2298765,0.02723372
0.82209,-0.2853026,-0.2363222,-0.3861168,-0.07785245,0.1176941
0.9207874,-0.2934514,-0.2480349,-0.3376406,0.1022676,0.1238481
0.9470766,-0.3016072,-0.2389798,-0.3307048,0.2466555,0.05612324
0.9474433,-0.2927181,-0.2107922,-0.3480911,0.2416986,-0.03472762
0.9235131,-0.2713615,-0.1886277,-0.3474151,0.1747703,-0.03098245
0.9083334,-0.2526045,-0.1800878,-0.3198027,0.1203696,0.04737171
0.9305792,-0.2340831,-0.1961337,-0.3135581,0.07732763,0.09437291
0.9713935,-0.236244,-0.2253328,-0.3069077,0.122192,0.06613405
1.007796,-0.2507218,-0.235713,-0.2977285,0.1629187,0.009108872
1.00194,-0.259771,-0.2256144,-0.2544974,0.2229843,-0.003646625
0.9882255,-0.2429735,-0.2019789,-0.1928088,0.2747116,-0.01607323
0.9822782,-0.2067954,-0.1992496,-0.1597822,0.2484472,-0.01804593
0.9747796,-0.1965514,-0.2122427,-0.1093037,0.2569873,0.012769
0.9904661,-0.2116543,-0.2203495,-0.04441523,0.2366009,0.02833618
1.030891,-0.2528962,-0.2429288,0.02498235,0.2282085,0.0516301
1.094463,-0.3283269,-0.2479802,0.02806504,0.3425088,0.03741507
1.156171,-0.3754139,-0.2383246,-0.1605914,0.4087931,-0.05521727
1.189472,-0.3771669,-0.2404149,-0.4901173,0.2881344,-0.1655901
1.253213,-0.4455487,-0.2344292,-0.6867362,0.1626268,-0.218034
1.380945,-0.6058658,-0.2360603,-0.5234665,0.3107411,-0.1422121
1.436613,-0.7066333,-0.2435731,-0.2429418,0.5388846,-0.02833759
1.353249,-0.7075969,-0.2311709,-0.08590851,0.5932492,0.07878054
1.227986,-0.6966771,-0.1726526,0.05388724,0.5844073,0.2033396
1.10219,-0.6468213,-0.08183502,0.1323415,0.5427036,0.2195475
1.070675,-0.5324452,-0.05023854,0.1264895,0.5051617,0.1950652
1.129645,-0.4076716,-0.05449992,0.02477997,0.464024,0.249214
1.103938,-0.3085908,-0.02818688,-0.2046781,0.3865801,0.2959189
1.049182,-0.2954035,-0.03121202,-0.3887526,0.3533596,0.2951713
0.9788737,-0.3329772,-0.047348,-0.5679713,0.3175462,0.2258237
0.846539,-0.3256615,-0.0332331,-0.6857311,0.3726748,0.1128737
0.7862875,-0.3346104,-0.03649961,-0.6189466,0.481769,0.02219637
0.7000587,-0.3401622,-0.03122605,-0.5776349,0.4394607,-0.01990724
0.5767734,-0.2755834,-0.01127952,-0.5037785,0.3953784,-0.002691406
0.5925356,-0.2415664,-0.01828357,-0.3897628,0.3726143,0.004454935
0.6134729,-0.2387906,-0.01930407,-0.4045962,0.328226,0.01273455
0.6083602,-0.2418117,-0.0179499,-0.4384844,0.3279411,0.07854117
0.663745,-0.263029,-0.01871224,-0.4723761,0.2985628,0.1221877
0.727323,-0.2529826,0.001576472,-0.5183934,0.2951207,0.09886949
0.7996145,-0.2557858,0.01988407,-0.5810683,0.3070146,0.07068162
0.838135,-0.2602712,0.02801587,-0.670225,0.2800337,0.07867562
0.8645941,-0.2510272,0.02789296,-0.7020807,0.283436,0.0860692
0.9158465,-0.2829998,0.03351008,-0.7729386,0.2680218,0.08060445
0.9318342,-0.3082696,0.04526038,-0.8390492,0.2454359,0.05880793
0.9445085,-0.3176663,0.04200139,-0.7687277,0.2544407,0.00895356
0.9601626,-0.3100014,0.04766792,-0.7323613,0.2917862,-0.01926634
0.9841625,-0.2848762,0.06654325,-0.7901681,0.3458343,-0.0776317
0.9906619,-0.2738035,0.07753028,-0.8532619,0.29165,-0.177228
0.9444348,-0.2498045,0.07302919,-0.8884594,0.1904518,-0.2059598
0.9403377,-0.2330001,0.06456491,-0.8418893,0.1690342,-0.2100391
0.9397144,-0.2304365,0.07127464,-0.7664623,0.1542471,-0.2170866
0.9272435,-0.2285421,0.07260273,-0.7638317,0.1167923,-0.1844511
0.9404714,-0.2181823,0.07552981,-0.7966469,-0.001952505,-0.1325085
0.9201414,-0.1931754,0.08638162,-0.8056819,-0.191082,-0.04698351
0.9396518,-0.2128981,0.06946939,-0.7790455,-0.2379558,0.01706678
0.9983307,-0.251484,0.03914828,-0.6961226,-0.1828538,0.05588598
1.074919,-0.2900724,-0.001633359,-0.570152,-0.1758977,0.1968352
1.22447,-0.3634361,-0.07320312,-0.4012085,-0.06594025,0.3774163
1.373496,-0.4402528,-0.1278937,-0.1911304,0.2173625,0.4084813
1.458109,-0.5029087,-0.1129455,-0.07274898,0.4086756,0.2595302
1.40293,-0.4997126,-0.05600217,-0.1357825,0.2588095,0.1560701
1.275264,-0.4515232,-0.03566399,-0.2564106,-0.1229453,0.2891716
1.200942,-0.44367,-0.09745452,-0.3376303,-0.3880454,0.4399607
1.119855,-0.4504223,-0.1902179,-0.4420219,-0.3951583,0.4887478
1.072773,-0.4794947,-0.2282434,-0.5664217,-0.3507217,0.6348281
1.035782,-0.5395213,-0.2408746,-0.6371208,-0.3901162,0.7125886
1.001686,-0.5927935,-0.2586122,-0.6380852,-0.3601781,0.5376373
1.056325,-0.6130351,-0.2444734,-0.5973186,-0.3185474,0.3341921
1.053664,-0.5794273,-0.2466319,-0.5477894,-0.340148,0.1480784
1.024655,-0.527305,-0.2443256,-0.462885,-0.2238798,-0.008573705
1.017833,-0.4394906,-0.1933143,-0.3760658,-0.1534684,-0.05184877
0.9135654,-0.3254051,-0.16427,-0.313304,-0.2101828,-0.1005113
0.8151461,-0.2637893,-0.1545387,-0.2636351,-0.1953313,-0.1045091
0.7372941,-0.2187359,-0.1645345,-0.3316344,-0.2319342,-0.03343104
0.6682527,-0.1867566,-0.1800059,-0.4565067,-0.2384228,0.01831895
0.6425741,-0.1927763,-0.1681298,-0.5440526,-0.2030955,0.09650437
0.5837137,-0.1981213,-0.1845406,-0.6224782,-0.2388731,0.1271855
0.5758249,-0.2162247,-0.2042525,-0.6430982,-0.2103489,0.1440343
0.6607678,-0.2639733,-0.2175223,-0.6500465,-0.1762702,0.2197423
0.7701129,-0.3468626,-0.2310074,-0.6038239,-0.08226425,0.1986335
0.8413711,-0.425788,-0.2111204,-0.4176183,0.06424621,0.09969715
0.8333809,-0.4333039,-0.2023743,-0.1718828,0.06380933,0.01038938
0.8504151,-0.388153,-0.1924476,0.1108419,0.01026758,-0.02008175
0.8984945,-0.3050406,-0.1858807,0.2962614,-0.02504872,0.01864309
0.9465963,-0.1984842,-0.2071928,0.2832674,-0.02273107,0.01130866
1.011652,-0.1266316,-0.2155574,0.1815764,0.001304234,0.006529699
1.035502,-0.1169471,-0.2347038,0.01369424,0.02099744,0.04098009
1.042692,-0.1630254,-0.2503858,-0.1135243,0.1086558,0.03764085
1.039249,-0.2286977,-0.2466116,-0.1115668,0.1968026,0.02115889
1.022029,-0.280023,-0.2484946,-0.06991004,0.2621596,-0.0200636
1.031489,-0.3082828,-0.2379513,-0.0161272,0.3081329,-0.0692838
1.057197,-0.3356328,-0.2403434,0.01169236,0.3230388,-0.089931
1.107124,-0.3852145,-0.2493381,0.0044272,0.376014,-0.121007
1.133985,-0.4061024,-0.2480899,-0.1367157,0.3680095,-0.1142085
1.151398,-0.4065817,-0.2543723,-0.4803534,0.283916,-0.08980223
1.239291,-0.4988778,-0.2299095,-0.6079885,0.2712478,-0.1491567
1.325204,-0.6465318,-0.2066145,-0.3249422,0.3453962,-0.1907404
1.310866,-0.6924396,-0.2373133,-0.03054049,0.4879689,-0.09629847
1.100585,-0.5569036,-0.2097501,0.7370187,-0.5058762,-0.3180485
0.9399145,-0.3598523,-0.2905551,0.2268894,-1.014376,-0.1346989
0.8693038,-0.3210548,-0.3946486,-0.09806349,-0.9261914,0.1681439
0.9794011,-0.5237199,-0.4147945,-0.01736416,-0.6159946,0.1988306
1.118902,-0.7352702,-0.3232919,0.350426,-0.4461586,-0.001955692
1.138293,-0.7228095,-0.2916857,0.7416281,-0.250295,-0.2038089
1.05866,-0.5589078,-0.246277,0.8932799,-0.4001571,-0.3338294
0.9755794,-0.4021254,-0.2013708,0.9010382,-0.6092989,-0.3988747
0.9149834,-0.3253834,-0.238047,0.8682264,-0.540592,-0.4687755
0.8355987,-0.2633874,-0.2222421,0.7772445,-0.5825685,-0.4763428
0.7582706,-0.200078,-0.2205013,0.6607297,-0.5437327,-0.373482
0.7219765,-0.2352573,-0.2386074,0.5360788,-0.4188301,-0.3331867
0.6804346,-0.2606097,-0.2107906,0.518704,-0.421231,-0.3478974
0.635061,-0.2483079,-0.2121694,0.5562836,-0.3846014,-0.3462959
0.6377465,-0.276775,-0.2073987,0.592919,-0.3858173,-0.3159668
0.65775,-0.2542076,-0.2142535,0.658609,-0.3361413,-0.2258971
0.6878979,-0.2397029,-0.2385598,0.6565685,-0.2033044,-0.1549831
0.7279414,-0.2700377,-0.2417606,0.6478833,-0.1368837,-0.1177701
0.7473999,-0.2750678,-0.2553558,0.7022575,-0.09147934,-0.1076689
0.7890163,-0.3004317,-0.2591073,0.8044374,-0.1359136,-0.06213863
0.8741858,-0.2983012,-0.2684457,0.9094441,-0.1480151,0.05994068
0.976431,-0.2587331,-0.2710388,0.9209524,-0.06022152,0.1038757
1.039489,-0.230538,-0.2545531,0.8265533,-0.03243137,0.05004224
1.046146,-0.1956812,-0.2426401,0.6552001,-0.04528606,-0.06046881
1.075018,-0.1919192,-0.2141809,0.517617,-0.07160215,-0.1759012
1.102316,-0.1961881,-0.2244615,0.4566917,-0.02151496,-0.1979835
1.093917,-0.1986055,-0.2478542,0.4350822,0.07010528,-0.1886062
1.09919,-0.2364347,-0.2286864,0.4706871,0.0996887,-0.2317806
1.110633,-0.3110066,-0.2380119,0.5142542,0.1259385,-0.3218845
1.122204,-0.425506,-0.2618214,0.5583341,0.1265542,-0.3743423
1.13286,-0.4571488,-0.2756447,0.5414961,0.1465468,-0.3680936
1.173205,-0.4237246,-0.2952622,0.3584425,0.1537058,-0.3673132
1.260663,-0.4937506,-0.3023439,0.1464185,0.08928962,-0.3961573
1.290355,-0.5825264,-0.3048358,0.157739,0.0793318,-0.4777206
1.242856,-0.6790031,-0.299889,0.5060401,0.1415584,-0.50013
1.174615,-0.8182619,-0.3001447,0.9136554,0.2614699,-0.3084231
1.102566,-0.7707413,-0.3012832,0.9646126,0.3331941,-0.02443683
1.10131,-0.5639145,-0.2594911,0.7150636,0.3033986,0.05492667
1.130181,-0.4317001,-0.1946756,0.4733671,0.2868951,-0.05844488
1.095794,-0.3885792,-0.1475048,0.3104026,0.1599992,-0.1184905
1.078131,-0.4163826,-0.1288131,0.2386134,-0.09817325,-0.1461347
1.065582,-0.404879,-0.1146496,0.2692232,-0.190511,-0.1280889
1.026139,-0.3305748,-0.1341961,0.2411146,0.01957729,-0.03063806
0.9905938,-0.3365994,-0.2011389,0.1529423,0.2633855,-0.02881821
0.8495361,-0.3193956,-0.1936525,0.08969353,0.2629736,-0.04900901
0.6944079,-0.2836576,-0.1489738,0.04494655,0.179234,-0.02212922
0.6691982,-0.309638,-0.1346277,0.1316011,0.1548358,-0.02618606
0.6464801,-0.2934863,-0.07933106,0.2629519,0.148924,-0.0065223
0.6301321,-0.2949873,-0.05536653,0.324041,0.1837488,-0.01183519
0.6696297,-0.2918436,-0.05516788,0.3585825,0.1928823,-0.05607541
0.6942093,-0.2348541,-0.02236185,0.2745445,0.1438581,-0.08372658
0.7149633,-0.1980483,-0.0302377,0.1309558,0.06239564,-0.1002503
0.7517157,-0.1698497,-0.03431876,0.005497219,-0.01182881,-0.04045774
0.7858979,-0.2053095,-0.02396534,-0.08311115,-0.005965796,0.03998279
0.8199088,-0.2658724,-0.0279628,-0.06159599,0.01446405,0.0460063
0.8682061,-0.2985466,-0.01565649,-0.01633597,0.02383438,-0.01347983
0.9089996,-0.3300891,-0.01732252,0.08444732,0.07306667,-0.1592753
0.9252073,-0.2969202,-0.01717881,0.2143993,0.1360927,-0.3735869
0.9454993,-0.2432835,-0.001237622,0.1988367,0.178874,-0.5573198
0.9746317,-0.1887414,0.007298971,0.1399359,0.1217617,-0.5570119
1.028427,-0.160161,0.0005764652,0.134399,-0.03957062,-0.3923991
1.156552,-0.2463247,-0.05897835,0.1837608,-0.174005,-0.2317157
1.350322,-0.3783687,-0.1664094,0.3295385,-0.2160498,-0.126968
1.470912,-0.5155185,-0.2316631,0.496653,-0.1868153,-0.13101
1.405661,-0.5586668,-0.1727188,0.5458946,-0.1892219,-0.1547285
1.255204,-0.4414102,-0.1035345,0.4107025,-0.3024066,-0.08653317
1.096208,-0.3626308,-0.1396674,0.1498878,-0.4619351,0.02082338
0.9439383,-0.3889652,-0.1927106,-0.1406602,-0.5479189,0.2258892
0.9316598,-0.4489479,-0.2608155,-0.3391827,-0.4562967,0.3452224
1.011318,-0.5205984,-0.3085737,-0.3617655,-0.3049916,0.2573788
1.046423,-0.5440084,-0.2560904,-0.2980588,-0.268308,0.2377821
1.069914,-0.5238159,-0.2215599,-0.1583648,-0.275598,0.1803079
1.033262,-0.5112802,-0.2004563,0.08235064,-0.315472,0.003997375
0.9571105,-0.4804431,-0.1678909,0.2626245,-0.3575764,-0.1130958
0.9007967,-0.3887638,-0.2082757,0.3250617,-0.3225736,-0.1834428
0.8213462,-0.2775356,-0.2346016,0.3468803,-0.3192055,-0.09168944
0.8134071,-0.2218619,-0.2252741,0.3346507,-0.3437406,0.07952732
0.8202834,-0.2181028,-0.2376435,0.2493638,-0.3331042,0.1013432
0.7618322,-0.231323,-0.2339928,0.08162858,-0.2755797,0.04840412
0.7641069,-0.2585899,-0.2169599,-0.02591858,-0.2013802,-0.04927395
0.7594704,-0.2835533,-0.1960363,0.04853301,-0.2422442,-0.1029108
0.7238998,-0.2925607,-0.1961811,0.2027843,-0.3101187,-0.04441578
0.7395076,-0.3244379,-0.2209238,0.3815731,-0.2873096,0.01968282
0.7559489,-0.3601256,-0.2211752,0.5472156,-0.213651,0.05376663
0.7888242,-0.343138,-0.199645,0.6000761,-0.146071,-0.02053429
0.8280253,-0.3220085,-0.1680024,0.7447375,-0.2498784,-0.1197223
0.8507594,-0.2872042,-0.1632579,1.045622,-0.4089988,-0.08584422
0.9152572,-0.1793475,-0.1963825,1.094612,-0.3714969,-0.06821919
0.9909852,-0.09490616,-0.2256957,0.8325229,-0.3084886,-0.1304989
1.048968,-0.1119528,-0.2559441,0.6281117,-0.3081771,-0.2080703
1.108532,-0.1687703,-0.2652729,0.666684,-0.2517793,-0.3420179
1.180375,-0.2284143,-0.2665464,0.7501459,-0.1449905,-0.4226135
1.255469,-0.3254208,-0.3214427,0.686499,0.03659595,-0.3235107
1.291474,-0.46793,-0.3881294,0.5864738,0.2470562,-0.1314078
1.331884,-0.5940289,-0.3784944,0.4116033,0.4592163,0.008848629
1.377061,-0.6943317,-0.2531006,0.2776695,0.5917071,-0.0752121
1.357642,-0.840005,-0.1133769,0.4826894,0.4111218,-0.2218834
1.293152,-0.9160725,-0.1073519,0.887495,0.2313261,-0.1052231
1.08476,-0.7749894,-0.1698156,1.255976,0.3015846,0.04090875
0.8384205,-0.5906583,-0.1733902,1.202051,0.2701093,0.07806559
0.9319107,-0.4651522,-0.1425303,0.7702508,0.2346498,0.1004878
1.089731,-0.3576576,-0.09046377,0.5367248,0.2782076,0.03081537
0.9970455,-0.3575731,-0.01396184,0.3998322,0.09009922,0.0609278
1.018657,-0.3921136,-0.002166652,0.3656576,-0.1215038,0.1116402
1.065525,-0.3847285,-0.04604598,0.4479414,-0.08691816,0.04318103
0.9209408,-0.3924613,-0.07514913,0.3256445,0.05210987,0.05587448
0.8405805,-0.3735294,-0.102032,0.2623403,0.12435,0.003305466
0.7567108,-0.3513746,-0.0911706,0.2178029,0.04776077,-0.02553721
0.6765368,-0.34365,-0.06392461,0.1613135,-0.05788896,0.06947594
0.707463,-0.344066,-0.07671773,0.2904904,-0.04016225,0.08614164
0.7033388,-0.3830076,-0.06879763,0.3468949,0.09427017,0.1309205
0.720255,-0.3935098,-0.05135498,0.4148812,0.3106252,0.1075038
0.7276531,-0.354745,-0.03345766,0.3996024,0.4295179,0.009634991
0.7074022,-0.2844999,0.01808171,0.224356,0.2970024,-0.005883992
0.7321196,-0.2227236,0.02968102,0.1426343,0.1431063,-0.01502531
0.722536,-0.2157818,0.02067023,-0.007523554,0.08034615,0.05831388
0.7418291,-0.2307606,0.04455755,-0.07306762,-0.02194072,0.1062248
0.7847834,-0.2761476,0.04510333,-0.02558533,-0.03392076,0.03671172
0.8414444,-0.3170636,0.04143696,-0.003846556,-0.002425982,-0.08395436
0.9159221,-0.3102069,0.05918363,0.1853703,-0.1171061,-0.3289344
0.8997672,-0.2750979,0.07982752,0.336264,-0.2222862,-0.535182
0.9223008,-0.2054189,0.097794,0.3699851,-0.3309986,-0.5692034
1.081273,-0.1528585,0.05332182,0.3349489,-0.4766914,-0.4972803
1.321683,-0.1630521,-0.02352465,0.2047084,-0.5132129,-0.4085889
1.449078,-0.2903533,-0.0590293,0.05082859,-0.598371,-0.3485313
1.281882,-0.6512187,-0.1092405,-0.2037068,-0.8057269,-0.2342204
1.151992,-1.138358,-0.1459714,-0.06362543,-0.9071058,-0.1540749
1.197722,-1.281556,-0.1052591,0.8116304,-0.8265123,-0.2182251
1.108916,-0.8568473,-0.1016841,1.49854,-0.7991417,-0.390862
0.9479434,-0.4001154,-0.2047189,1.1784,-0.9974923,-0.5378508
0.8923919,-0.3472814,-0.3155559,0.5601275,-1.114128,-0.4230218
0.9233337,-0.4681471,-0.3284708,0.5853424,-0.8783026,-0.1902473
1.016318,-0.5728737,-0.2588138,0.7951527,-0.5296448,-0.1484078
1.050265,-0.663468,-0.1951976,1.101143,-0.3700294,-0.2525152
0.9849306,-0.6317013,-0.1548068,1.700872,-0.3825904,-0.4270754
0.8962075,-0.4770449,-0.1564515,1.877354,-0.4520493,-0.604713
0.8229659,-0.366334,-0.1936214,1.866066,-0.5551197,-0.6420368
0.8135181,-0.2940722,-0.2064977,1.909157,-0.5770834,-0.579379
0.7794923,-0.2015983,-0.2428872,1.740525,-0.5179188,-0.5173191
0.7080648,-0.176779,-0.2703767,1.619233,-0.5178481,-0.4686575
0.7176214,-0.2274565,-0.2387808,1.384798,-0.5353234,-0.4598624
0.7220732,-0.3101687,-0.2315552,1.288871,-0.5460967,-0.4822429
0.7090352,-0.3856215,-0.2181849,1.516766,-0.538576,-0.4737814
0.7376053,-0.4036339,-0.2072746,1.644614,-0.4768705,-0.4155957
0.7617638,-0.3565361,-0.2272499,1.754303,-0.3910209,-0.3668625
0.8138784,-0.2502369,-0.212874,1.732089,-0.3268367,-0.3677764
0.8662115,-0.1516869,-0.2126211,1.561367,-0.3892196,-0.3481428
0.8855083,-0.1262736,-0.215932,1.342018,-0.4472615,-0.2467373
0.9234243,-0.1883207,-0.1950527,1.108451,-0.3373757,-0.1322914
0.9542324,-0.2504487,-0.1885443,1.115444,-0.2244756,-0.09577172
0.9631688,-0.2374846,-0.1634919,1.086667,-0.1485326,-0.1296117
0.9709969,-0.2281512,-0.1449998,0.9283896,-0.04005975,-0.1502688
0.9799651,-0.2200485,-0.1331996,0.799004,0.06058548,-0.1025438
0.9822445,-0.2096264,-0.1040635,0.6379148,0.1048639,-0.07330194
0.9655794,-0.200462,-0.07180222,0.621596,0.01234809,-0.1114811
0.9566237,-0.1370198,-0.01927103,0.7790393,-0.200273,-0.09781832
0.9767935,-0.1047298,-0.03301099,0.9664833,-0.363566,0.04125498
1.045516,-0.13714,-0.1153459,0.9828852,-0.3068663,0.2405041
1.150589,-0.1970376,-0.1571325,0.8677671,-0.1210128,0.2956567
1.179015,-0.2609943,-0.169859,0.8947339,-0.06060822,0.1785976
1.125369,-0.2900976,-0.1277034,0.966622,-0.1344617,0.129212
1.112964,-0.3560776,-0.05437989,1.030638,-0.2850097,0.1442289
1.136739,-0.4193098,-0.03594353,0.9995439,-0.5119578,0.1205635
1.166043,-0.3586151,-0.04117244,0.7443035,-0.795731,0.1194826
1.242126,-0.3181234,-0.0628313,0.5179276,-0.9926575,0.1924733
1.322221,-0.457298,-0.1235002,0.4720456,-0.7669802,0.3561148
1.369625,-0.7105689,-0.2519177,0.5255306,-0.1896148,0.4525914
1.373411,-0.9169248,-0.3314854,0.4797236,0.3002387,0.3226467
1.235292,-0.8912506,-0.1784504,0.3586356,0.3354763,0.1179703
1.036307,-0.7226611,0.001003066,0.3638216,-0.008323375,0.002129915
1.010526,-0.6167359,0.01140557,0.402426,-0.1232704,-0.02410229
1.069523,-0.4749499,-0.02032584,0.4514502,-0.1416568,0.0561652
1.025087,-0.3740079,-0.05512839,0.4532502,-0.4151873,0.184509
0.9538239,-0.4175609,-0.1185646,0.4364961,-0.5248571,0.2201636
0.8902467,-0.4719778,-0.1798919,0.6003869,-0.4172262,0.1650508
0.8197901,-0.5909059,-0.2177808,0.8026329,-0.3106352,0.0287629
0.7506428,-0.6393707,-0.2251206,1.077897,-0.3062379,-0.2239193
0.620604,-0.5182931,-0.2054872,1.3707,-0.3458913,-0.4521857
0.5655934,-0.4208338,-0.1858341,1.40456,-0.2577945,-0.4922941
0.646629,-0.315638,-0.1720057,1.371834,-0.1555817,-0.4311385
0.6978656,-0.2175583,-0.1071878,1.329416,-0.05636774,-0.4095621
0.7516291,-0.1397329,-0.02054969,1.180042,-0.1829435,-0.3423942
0.8040442,-0.07377407,0.02188947,1.019643,-0.4607453,-0.2245386
0.8333223,-0.1355267,0.03214103,0.8760118,-0.4112819,-0.2000283
0.898866,-0.2069265,0.02702941,0.7344392,-0.3653683,-0.2575886
0.9000964,-0.2402948,0.02867229,0.5249627,-0.3896073,-0.3095984
0.9055006,-0.2982357,0.02785127,0.2916448,-0.2258162,-0.2476453
0.9815642,-0.3348844,0.02473661,0.1609516,-0.03351493,-0.1754975
1.006294,-0.3639424,0.03748035,0.1306488,0.2383294,-0.2757495
1.012,-0.3520835,0.05999412,0.1181601,0.4994424,-0.4331937
0.9836909,-0.3054488,0.1278265,0.06921592,0.5536987,-0.6018605
0.9290539,-0.2587338,0.211472,0.05457684,0.2962324,-0.6444436
0.972344,-0.2170245,0.19342,0.0697881,-0.1279729,-0.3673096
1.148727,-0.2918372,0.02771733,0.09747601,-0.1923816,-0.03714622
1.421455,-0.453022,-0.1333506,0.1229914,0.02279353,0.0911967
1.54154,-0.5557745,-0.1087013,-0.10561,0.04422179,0.0552088
1.398979,-0.5679768,-0.06293251,-0.6758918,-0.24804,0.03591501
1.140079,-0.5372277,-0.1515952,-1.203227,-0.5669379,0.115679
0.8770364,-0.5528852,-0.2033005,-1.243757,-0.5126127,0.1790053
0.925892,-0.5708991,-0.2094388,-0.9286569,-0.399197,0.2322223
1.153877,-0.5484402,-0.2620023,-0.7222842,-0.4369186,0.2046259
1.137777,-0.5591579,-0.2986174,-0.6717363,-0.2575716,0.06860737
1.136842,-0.5392854,-0.3020015,-0.6880556,-0.1261146,-0.01625992
1.130508,-0.4441147,-0.2484617,-0.7192884,-0.2011118,-0.08083893
1.003531,-0.3463977,-0.1941539,-0.6799947,-0.1439557,-0.1411525
1.03318,-0.3185316,-0.2150011,-0.6810819,-0.0645769,-0.2050082
0.9807651,-0.3340385,-0.2058221,-0.6743485,0.01191339,-0.2420886
0.8159019,-0.2716863,-0.1654251,-0.6005961,0.1297492,-0.1691768
0.7517804,-0.23616,-0.1511593,-0.5848092,0.1323153,-0.1235309
0.6744945,-0.2518674,-0.1532232,-0.5875826,0.09831601,-0.08585258
0.5870389,-0.1711361,-0.166751,-0.6147111,0.03223536,-0.04047433
0.5009458,-0.1342065,-0.1595769,-0.6515519,-0.0496264,-0.04623892
0.5654615,-0.167801,-0.1731162,-0.6401388,-0.03516475,0.0473937
0.6927773,-0.1686796,-0.2178492,-0.5925459,0.03946932,0.1607623
0.7081293,-0.2196247,-0.2569588,-0.433927,0.1784262,0.194739
0.8072405,-0.3021521,-0.2735889,-0.2421795,0.3080284,0.1956551
0.8425353,-0.330501,-0.2351239,-0.1070568,0.3600074,0.1377276
0.856194,-0.2862489,-0.2029667,-0.008069279,0.3687215,0.06764062
0.9633386,-0.2085886,-0.1953877,0.01359054,0.3328864,0.001271988
0.9763914,-0.1209014,-0.1884398,-0.06029814,0.2899753,-0.0159876
1.052824,-0.04785791,-0.2034624,-0.2432214,0.2423489,0.007926624
1.104208,-0.06827845,-0.2047065,-0.4152747,0.2088884,0.02435828
1.044602,-0.1181416,-0.2037953,-0.4486877,0.1905356,0.1389226
1.071705,-0.1659268,-0.2111051,-0.3863634,0.2129147,0.2672715
1.143688,-0.2548326,-0.2064999,-0.3156975,0.4141386,0.2608865
1.242491,-0.3340058,-0.2126542,-0.3168481,0.5903804,0.1468266
1.266884,-0.4417719,-0.2235723,-0.3508625,0.4547171,0.06520802
1.2453,-0.5634618,-0.2479995,-0.4327248,0.2589264,0.1837565
1.342407,-0.6034117,-0.278149,-0.5593973,0.2609094,0.3226061
1.445763,-0.6139344,-0.2855052,-0.5541342,0.3013129,0.3126368
1.460605,-0.646845,-0.2768085,-0.3958944,0.3328294,0.3551235
1.293043,-0.6386301,-0.2436773,-0.2132925,0.41026,0.4810381
1.053591,-0.5764161,-0.1997895,-0.1967015,0.4188407,0.5825652
1.036835,-0.5280144,-0.1691577,-0.3930023,0.4660265,0.6272994
1.123909,-0.4635234,-0.1444809,-0.5677308,0.5553388,0.5453305
1.124092,-0.3940034,-0.1089737,-0.6025669,0.4059779,0.4557883
1.08234,-0.3832462,-0.08422758,-0.5884862,0.2057965,0.4578571
1.020141,-0.3854844,-0.1052052,-0.613348,0.2267118,0.4334061
0.9262959,-0.4087036,-0.1291953,-0.5894348,0.3254408,0.37918
0.7983052,-0.4310351,-0.1340451,-0.407405,0.4113193,0.2694197
0.6572162,-0.4093521,-0.1164917,-0.1529608,0.4638242,0.1402652
0.5709105,-0.3538632,-0.06866751,0.04550364,0.4355086,0.1421792
0.5586494,-0.2485975,-0.05317569,0.07541893,0.4135459,0.1687359
0.5533655,-0.1886539,-0.04264199,0.006451053,0.4236417,0.1494898
0.5401864,-0.1824762,0.001209475,-0.05198093,0.3813134,0.1146693
0.563197,-0.1409326,0.01512414,-0.1982576,0.3366465,0.05617806
0.5997109,-0.1229423,0.01365803,-0.4040137,0.296066,0.04989852
0.6260293,-0.1451627,0.02320216,-0.619386,0.1963138,0.05842587
0.6993871,-0.1790116,0.03141007,-0.82466,0.1415621,0.04219229
0.815699,-0.2560658,0.03611964,-0.8715095,0.1732683,0.02433264
0.8809881,-0.3383153,0.04945267,-0.7733805,0.18876,-0.09073914
0.9307467,-0.3296268,0.09817746,-0.6391947,0.1742862,-0.3402942
1.017796,-0.2529268,0.1247055,-0.5695949,0.1582334,-0.5899134
1.051007,-0.1915324,0.1022749,-0.6273579,0.03984175,-0.6447603
1.089272,-0.1605922,0.08061368,-0.6552491,-0.1683032,-0.4696121
1.233631,-0.1734217,0.04539261,-0.5405879,-0.2162618,-0.2405915
1.364355,-0.2474671,-0.0178079,-0.4384454,-0.1378529,-0.1043673
1.427917,-0.4608977,-0.1267085,-0.443946,-0.1411486,-0.0357194
1.428716,-0.7306995,-0.2280672,-0.3323092,-0.1426988,0.0686646
1.389782,-0.7568475,-0.1963578,0.07685955,-0.06312722,0.1425296
1.38644,-0.6243174,-0.1398046,0.3843921,-0.06410917,0.03191952
1.220989,-0.5145368,-0.1764337,-0.0417147,-0.344744,-0.06319472
0.9018142,-0.3893255,-0.2066977,-0.7914563,-0.6553041,0.09777273
0.848957,-0.4718682,-0.2404645,-0.8777821,-0.5512773,0.2126975
1.066529,-0.6899958,-0.2768148,-0.5767301,-0.3049554,0.06550496
1.264159,-0.6734101,-0.2686606,-0.4321642,-0.1622159,-0.06831866
1.287837,-0.5880793,-0.2817558,-0.2729749,0.03202493,-0.1274429
1.136516,-0.5339826,-0.2285492,-0.1583149,-0.05134986,-0.2740278
0.9570917,-0.4281009,-0.1385503,-0.02032027,-0.2814262,-0.441773
0.7984413,-0.364495,-0.1663617,0.1107172,-0.2646845,-0.4724576
0.6750688,-0.2747946,-0.1987497,0.01820727,-0.3293736,-0.2932358
0.6048064,-0.234224,-0.2166721,-0.005015141,-0.3079331,-0.03159611
0.5487818,-0.2819747,-0.2409635,0.01086721,-0.1283346,0.03961668
0.5170759,-0.271987,-0.2083408,-0.07420534,-0.1337874,-0.0742492
0.5057285,-0.2939481,-0.1897708,-0.07203094,-0.1020657,-0.1643239
0.5406925,-0.2957583,-0.1890117,0.01373356,-0.08327058,-0.2241126
0.6190115,-0.2371821,-0.1965603,0.1851501,-0.04188471,-0.2375124
0.687414,-0.1918863,-0.2132594,0.3293126,0.141558,-0.1495298
0.7457267,-0.1089861,-0.1923643,0.3219483,0.1812666,-0.05260901
0.8005759,-0.08412029,-0.1766694,0.2347711,0.2037465,0.04697583
0.8965489,-0.09566867,-0.183144,0.1236651,0.215788,0.1544462
1.000957,-0.07718507,-0.2031053,0.08230793,0.1675855,0.2332137
1.050679,-0.09009255,-0.2361743,0.04426946,0.2126363,0.2829676
1.086324,-0.08830236,-0.2354707,-0.09754273,0.2918566,0.2309889
1.122544,-0.1064299,-0.1832513,-0.2518557,0.3966837,0.1205885
1.166406,-0.1387719,-0.128014,-0.2990365,0.3147096,0.01825026
1.181149,-0.1582514,-0.1329715,-0.1948102,0.08780211,-0.06625651
1.176697,-0.2933478,-0.1647061,-0.05113956,0.05346385,-0.04801099
1.229071,-0.4653927,-0.167226,0.06814893,0.1485837,-0.02823046
1.246055,-0.4674705,-0.1653179,0.1063209,0.233693,-0.06895807
1.256204,-0.4345289,-0.1645603,-0.09361407,0.06926916,-0.07755872
1.38999,-0.5788783,-0.1594966,-0.2531384,-0.2954755,-0.07796058
1.480046,-0.700038,-0.1661676,0.01350049,-0.4118249,0.0220045
1.373252,-0.6945883,-0.1943545,0.3608383,-0.1559665,0.1950073
1.197638,-0.7431613,-0.2288555,0.3822652,0.2135666,0.2080963
1.127607,-0.7237067,-0.2001889,0.2858869,0.3084251,0.1424553
1.153958,-0.5435808,-0.0971681,0.1798094,0.2758112,0.1454437
1.152912,-0.4116613,-0.01991273,0.01025365,0.2868444,0.1711409
1.117443,-0.4144577,-0.03429562,0.006316793,0.0876981,0.1818101
1.084038,-0.4300002,-0.06284952,0.1190203,-0.08166011,0.1483472
1.020565,-0.4020162,-0.04061535,0.200663,-0.1074888,0.07753742
0.9271128,-0.4294133,-0.07680944,0.414212,-0.09431061,-0.002630428
0.8175415,-0.4375257,-0.1415808,0.5889246,0.02518437,-0.1309532
0.6513266,-0.3808414,-0.1132826,0.6666958,0.03365985,-0.2907347
0.4949285,-0.3666438,-0.1053848,0.8762081,-0.008951843,-0.3456083
0.4662072,-0.3037403,-0.1228105,0.985924,-0.03638941,-0.2420467
0.470712,-0.2295765,-0.1012389,0.978028,-0.1025525,-0.1042983
0.4926092,-0.2010712,-0.1047519,1.00625,-0.05676435,-0.02040151
0.6267941,-0.133856,-0.09495152,0.8816492,-0.04280032,0.04640827
0.7366025,-0.1253502,-0.07791322,0.6857904,-0.04502559,0.07795903
0.7835638,-0.160262,-0.0675294,0.5053529,-0.01054153,0.05283164
0.8549589,-0.1933468,-0.02241294,0.3441035,-0.03670645,0.03355202
0.9060239,-0.2537761,0.005440655,0.3177393,-0.01927051,-0.02055693
0.9392147,-0.2794531,0.02868521,0.313696,-0.03451064,-0.1500844
0.9463113,-0.2935217,0.05928397,0.3260658,-0.06212551,-0.2737354
0.9622347,-0.2806494,0.06661013,0.4067214,-0.03913812,-0.3732583
1.052729,-0.259358,0.08339899,0.4876849,-0.03882632,-0.4500749
1.10011,-0.2806538,0.1083349,0.5812613,0.005688097,-0.4719536
1.086069,-0.2722125,0.1322992,0.6541685,-0.00192281,-0.4578672
1.068406,-0.2497337,0.1342966,0.6947004,-0.1799234,-0.3548964
1.06071,-0.2437092,0.04720537,0.7200859,-0.4799212,0.03568523
1.171366,-0.2956188,-0.0817349,0.8420276,-0.645366,0.5325138
1.318248,-0.437611,-0.1113136,0.9884511,-0.489866,0.5656467
1.31623,-0.564847,-0.07358594,0.7528282,-0.4223404,0.3757462
1.218473,-0.621473,-0.08676141,0.386078,-0.6256983,0.4480461
1.100081,-0.6248805,-0.1078699,0.3911301,-0.7387653,0.364824
0.995169,-0.6373584,-0.1186244,0.5274289,-0.6904074,0.1482443
1.017743,-0.6528937,-0.1714206,0.5799396,-0.6361502,0.1318917
1.113381,-0.5758245,-0.2377229,0.5877951,-0.6229703,0.06734298
1.139581,-0.4848089,-0.2835016,0.5218631,-0.6322579,0.06178573
1.168354,-0.4697498,-0.2826073,0.4787727,-0.6302315,0.08464225
1.182551,-0.4716029,-0.265204,0.4828197,-0.5642621,-0.04870393
1.117761,-0.4633547,-0.2701872,0.4953437,-0.4172532,-0.1171598
1.044066,-0.446247,-0.2474813,0.5120643,-0.2944262,-0.213528
0.9318305,-0.3978397,-0.2277092,0.4468984,-0.2323936,-0.3112465
0.8027451,-0.3284071,-0.2230522,0.3153113,-0.1802297,-0.3532628
0.6760344,-0.277503,-0.1822307,0.1665017,-0.1723032,-0.4289999
0.5523716,-0.2365536,-0.1607279,0.0390447,-0.2156523,-0.385201
0.5107226,-0.1892832,-0.1578146,0.02673002,-0.2568086,-0.3661237
0.4891386,-0.1618747,-0.1496299,0.1188483,-0.2746165,-0.326709
0.4939034,-0.1648452,-0.1673257,0.2745429,-0.2800063,-0.1275414
0.5549772,-0.1999353,-0.1946573,0.4396207,-0.2668218,0.02463258
0.6389579,-0.2465066,-0.2315409,0.562392,-0.1579048,0.1453168
0.7602235,-0.2606598,-0.2358276,0.6641383,0.0465394,0.1692512
0.8266249,-0.2415034,-0.1848944,0.7021398,0.130919,0.1284416
0.8885421,-0.2155197,-0.1405958,0.6635733,0.02085082,0.1585942
1.025647,-0.1740471,-0.1091646,0.6145787,-0.05204553,0.1070383
1.148683,-0.1051955,-0.1053671,0.5234737,-0.07015382,-0.01090979
1.237687,-0.06751039,-0.1394187,0.3244705,-0.1786309,-0.1308944
1.261989,-0.1030725,-0.1904884,0.07365516,-0.2210141,-0.183646
1.278493,-0.2146122,-0.2469217,-0.1275271,-0.01971468,-0.1455381
1.336396,-0.4202561,-0.2746043,-0.2133203,0.3870393,-0.1405954
1.34822,-0.6103359,-0.3004652,-0.2099606,0.837076,-0.02479653
1.342284,-0.6580217,-0.305563,-0.3259613,1.084008,0.2069956
1.313988,-0.7150423,-0.1958685,-0.5784181,0.9676444,0.2432575
1.260061,-0.894474,-0.08518625,-0.5910613,0.4391515,0.005123142
1.234705,-0.9503924,-0.1317259,-0.08019393,-0.1047574,-0.1612025
1.140243,-0.7566626,-0.1889412,0.6291941,0.02086459,0.140404
1.024383,-0.5395745,-0.1392144,0.7712524,0.3492795,0.5574592
1.050158,-0.4589912,-0.1226799,0.4045398,0.1568506,0.5673038
1.073328,-0.4412614,-0.1260776,0.1972294,-0.1220195,0.4189982
0.9809453,-0.3665892,-0.09246381,0.04394734,-0.4924794,0.3534767
0.938294,-0.2869914,-0.09647902,-0.07187044,-0.801257,0.3059582
0.9524165,-0.3135423,-0.09775775,0.04085664,-0.3883291,0.3003344
0.8824721,-0.3701645,-0.1120116,0.06829048,0.06592615,0.2638936
0.7338128,-0.3751701,-0.1420434,0.09496858,0.2471862,0.1461694
0.6160993,-0.3638578,-0.1106874,0.2064701,0.3241032,0.05301334
0.5574182,-0.3276626,-0.06281122,0.2670231,0.06810982,0.08208939
0.4829856,-0.2737504,-0.00941432,0.4032554,0.03170004,0.1342908
0.5395482,-0.2514839,0.001179782,0.4040653,0.1522764,0.06252369
0.7438272,-0.1977927,-0.02275812,0.2558277,0.1394806,0.02049171
0.7724452,-0.1183889,0.01249739,0.09021596,0.2097088,0.05167593
0.7392921,-0.1362703,0.02193713,-0.2705354,0.1336981,0.07705467
0.8196047,-0.201053,0.01418901,-0.5102558,0.1316119,0.1442644
0.8688802,-0.2702703,0.03142077,-0.4525884,0.2376683,0.09860353
0.9235934,-0.3825157,0.0366068,-0.3699758,0.3119232,-0.08089322
0.9680052,-0.41188,0.08488656,-0.302614,0.4752143,-0.3078727
0.9965052,-0.3086639,0.1332359,-0.3208329,0.4061969,-0.5319477
1.07826,-0.1986241,0.1346778,-0.4062554,0.2111437,-0.4995177
1.172562,-0.1840434,0.08250128,-0.4525152,-0.0203698,-0.2977047
1.303676,-0.3518332,-0.06014684,-0.464345,-0.2529236,-0.06872964
1.363161,-0.6060101,-0.1619224,-0.3586711,-0.2004763,0.1741896
1.308183,-0.6604186,-0.124418,-0.2704412,-0.1840965,0.1585089
1.241237,-0.48413,-0.097073,-0.4579672,-0.2787138,0.05726605
1.091644,-0.3668888,-0.1808272,-0.8699632,-0.4241323,0.1290231
0.9403011,-0.4557774,-0.269543,-1.2531,-0.6226343,0.2665447
0.9494043,-0.5930061,-0.3333096,-1.32961,-0.4752718,0.4873406
1.060562,-0.6749239,-0.3876712,-1.186348,-0.1575854,0.5404437
1.138964,-0.6902684,-0.3635141,-1.151991,0.04448135,0.3437861
1.117148,-0.5946783,-0.3070787,-1.10631,0.1795975,0.2013161
1.0377,-0.4901268,-0.2392526,-0.9183525,0.06106543,0.01922275
0.9496046,-0.4171258,-0.1926393,-0.8062835,-0.1314188,-0.1399656
0.8990653,-0.3198577,-0.231228,-0.795423,-0.1542729,-0.105717
0.8921991,-0.265544,-0.2397726,-0.8434326,-0.1774917,-0.04751718
0.8656661,-0.2361029,-0.2407641,-0.9405285,-0.1002356,0.06984963
0.8120273,-0.236155,-0.2593854,-1.017439,0.07780383,0.2157944
0.7101297,-0.2978178,-0.2150813,-1.068322,0.1226294,0.1973899
0.5826574,-0.3367686,-0.1955333,-1.024999,0.1281214,0.06557059
0.5809791,-0.3441953,-0.1968925,-0.9563835,0.1255846,-0.02895716
0.6451117,-0.3277929,-0.1872312,-0.8758219,0.1104502,0.006487352
0.6311769,-0.3123365,-0.1840119,-0.6053012,0.1156937,0.07021257
0.6689283,-0.2901829,-0.1657357,-0.3311178,0.04465961,0.1010497
0.7316869,-0.2458357,-0.1860293,-0.1898722,-0.03148902,0.1847183
0.7534659,-0.2573063,-0.2143466,-0.05939398,-0.07991205,0.2468719
0.8903063,-0.2454065,-0.2318791,-0.01660793,-0.07289808,0.2695965
1.007237,-0.1932216,-0.2663752,-0.08604432,0.073874,0.2908098
1.039311,-0.1941309,-0.2585581,-0.2159514,0.2490301,0.2015016
1.120001,-0.2260392,-0.2269819,-0.3818308,0.3496269,0.01175676
1.1661,-0.3131895,-0.1983895,-0.4018994,0.3751719,-0.1966479
1.192594,-0.3970562,-0.1840482,-0.2240147,0.4371733,-0.3697992
1.209334,-0.4241793,-0.2367028,-0.09381163,0.50535,-0.3772259
1.218203,-0.4548589,-0.3485551,-0.1758873,0.4977094,-0.1973927
1.301516,-0.4931488,-0.4369915,-0.4434739,0.5518776,0.04696437
1.364337,-0.6179519,-0.4015647,-0.6560133,0.5948324,0.1826342
1.362717,-0.8321143,-0.32537,-0.4406086,0.6054825,0.1606546
1.258783,-0.9171867,-0.3152524,-0.03754754,0.642635,0.1916998
1.060697,-0.7815505,-0.2719018,0.03904374,0.5728767,0.3042715
0.981802,-0.598167,-0.2088072,-0.04765755,0.5320199,0.3379123
1.033957,-0.4601879,-0.1721742,-0.1638071,0.5438724,0.3028632
1.048022,-0.3424378,-0.1034792,-0.3908642,0.4122952,0.2531211
1.01254,-0.331919,-0.08337203,-0.5077844,0.2189303,0.2606878
1.003077,-0.3702045,-0.1379215,-0.5420782,0.1615769,0.2553326
0.9580716,-0.371926,-0.1841017,-0.6376919,0.3503277,0.1292613
0.8437291,-0.4021439,-0.1906129,-0.6634467,0.5616931,0.04348021
0.7036648,-0.3766505,-0.1265669,-0.5891621,0.5732538,0.04259195
0.536876,-0.3247504,-0.05664288,-0.4658832,0.5312008,0.07711237
0.5383458,-0.343346,-0.05422337,-0.3384805,0.5226324,0.1132512
0.6572136,-0.3307287,-0.05398068,-0.2882676,0.52734,0.03731871
0.6235759,-0.2837508,-0.01542805,-0.3154637,0.5125281,-0.05888089
0.626698,-0.2310109,-0.0001833622,-0.3823789,0.4396395,-0.07556535
0.6689228,-0.1823095,-0.01681664,-0.5171375,0.3264876,-0.003869666
0.6457865,-0.1926056,-0.0121663,-0.6971183,0.2457214,0.1235959
0.7273615,-0.2268795,-0.01244096,-0.8175152,0.2666439,0.1638155
0.786461,-0.2807703,-0.01573249,-0.8273694,0.2839,0.1317537
0.8373766,-0.3608267,0.002323981,-0.6530686,0.3100229,0.001841462
0.9404096,-0.3786819,0.01715131,-0.3989912,0.4012994,-0.2607439
0.9342876,-0.3110684,0.05797798,-0.3637512,0.3670682,-0.4377107
0.9882472,-0.2242781,0.07917585,-0.517584,0.1895404,-0.4360691
1.12289,-0.1939211,0.00166333,-0.6579132,-0.07465529,-0.2786836
1.256457,-0.3225669,-0.1318393,-0.6748141,-0.2522139,0.004285636
1.441126,-0.5826424,-0.2158675,-0.5128255,-0.04712276,0.1767851
1.454772,-0.707148,-0.1702026,-0.3615987,0.1125117,0.117373
1.299542,-0.5640873,-0.1191632,-0.4609853,-0.2013621,0.07857968
1.15062,-0.3923857,-0.1643031,-0.7750264,-0.5478307,0.1678557
1.007997,-0.4004268,-0.213166,-1.057706,-0.6072023,0.2593994
0.9998068,-0.5135303,-0.2884801,-1.043678,-0.4037302,0.3565796
1.099721,-0.6249014,-0.3422329,-0.8217844,-0.07700693,0.3212785
1.131584,-0.6432727,-0.2773222,-0.7247832,0.03740807,0.1517444
1.120436,-0.5389824,-0.2266768,-0.6641568,-0.0379644,0.0900146
1.059182,-0.4481402,-0.1907978,-0.4975627,-0.1262316,-0.02928253
0.937966,-0.3744484,-0.1418043,-0.4172469,-0.2510618,-0.2311745
0.8479325,-0.2803018,-0.1686328,-0.4382716,-0.3009417,-0.2923142
0.7926534,-0.2152352,-0.1869212,-0.5279036,-0.2436635,-0.2586797
0.7457272,-0.151371,-0.1878575,-0.6749488,-0.1504324,-0.1276122
0.6802551,-0.1455689,-0.2031564,-0.7729412,-0.005583816,-0.001996992
0.6042015,-0.1786751,-0.1842407,-0.821905,0.06463215,-0.00239962
0.5846229,-0.1763426,-0.193653,-0.8495331,-0.007098444,-0.01875421
0.6037543,-0.2053261,-0.219547,-0.8818263,-0.02273131,0.01803454
0.6403313,-0.2407995,-0.2416743,-0.828943,0.07585196,0.1106311
0.6892169,-0.2876408,-0.268958,-0.6910516,0.1901572,0.148294
0.7161117,-0.3548993,-0.2523559,-0.5726624,0.3280338,0.1201116
0.7502037,-0.3644845,-0.2448668,-0.3949356,0.4019547,0.09676864
0.8542019,-0.3179791,-0.2323131,-0.2575153,0.3945334,0.05203678
0.9842301,-0.2330591,-0.1935998,-0.1912523,0.4275921,0.03874557
0.9984518,-0.1730593,-0.2069992,-0.1488106,0.4268404,0.05739603
0.9764197,-0.1390221,-0.2260318,-0.3123193,0.3964986,0.07178753
1.070552,-0.08543308,-0.2424999,-0.5686583,0.4208292,0.03518356
1.145183,-0.1108529,-0.2791079,-0.7007662,0.4923144,-0.08928692
1.147835,-0.2077028,-0.2492451,-0.6692359,0.5736732,-0.2243737
1.161553,-0.2769665,-0.189159,-0.4882261,0.5187105,-0.2553492
1.164555,-0.3480019,-0.1968831,-0.3135926,0.431879,-0.08891871
1.187049,-0.4223818,-0.258439,-0.3104967,0.4625119,0.08632275
1.242254,-0.4822454,-0.3145711,-0.4990676,0.4339192,0.1042598
1.338377,-0.5974344,-0.3017685,-0.5772179,0.3686595,0.1000204
1.433871,-0.7261573,-0.2760662,-0.2662496,0.3243687,0.1047202
1.351974,-0.7528158,-0.3132367,0.1459375,0.2309727,0.1347515
1.197235,-0.710303,-0.3243863,0.2603345,0.2776734,0.2692035
1.157317,-0.6469051,-0.307345,0.1666724,0.5344886,0.4103759
1.168631,-0.5553491,-0.2858749,0.03530334,0.7307804,0.3664079
1.175544,-0.4717016,-0.1831354,-0.1991894,0.5806045,0.2420337
1.115335,-0.4189891,-0.0610209,-0.281521,0.1983966,0.2295645
1.046695,-0.3778668,-0.005006954,-0.1348594,0.02803588,0.1766883
1.041345,-0.3695117,-0.05505894,-0.1244599,0.09568077,0.09242756
0.933289,-0.3716493,-0.1466391,-0.1182921,0.2191948,0.07651115
0.7444662,-0.3141376,-0.1313567,-0.08024178,0.3323986,0.06018017
0.596584,-0.2572588,-0.08299156,-0.1401522,0.3207051,0.1240661
0.4718338,-0.2341015,-0.04740424,-0.08041259,0.2976969,0.2214992
0.4333626,-0.241883,-0.009819002,-0.003696184,0.3239345,0.2643092
0.4600944,-0.2771225,-0.01113484,0.03928372,0.337886,0.2484871
0.4784159,-0.2034208,0.02329024,0.0537988,0.3620406,0.164027
0.5670283,-0.08218983,0.02914141,-0.1497097,0.3139616,0.1332783
0.6691286,-0.05944706,-0.004116185,-0.437309,0.1991879,0.144038
0.677361,-0.1180075,0.02935653,-0.6883744,0.06239429,0.1667626
0.7238922,-0.2492817,0.03595354,-0.7672049,-0.03436201,0.1963122
0.8387111,-0.370811,0.03822649,-0.5880905,-0.01074205,0.1508906
0.9364883,-0.4736146,0.0644699,-0.2691682,0.07266072,0.01344522
1.01848,-0.5150738,0.06220847,0.1743134,0.1491313,-0.2933992
1.034869,-0.3952602,0.08304371,0.3599709,0.04110646,-0.5503132
1.057212,-0.2978627,0.04705303,0.1362139,-0.3002583,-0.4712941
1.171835,-0.3203991,-0.07511952,0.0828087,-0.5466261,-0.2218364
1.318857,-0.4211797,-0.1831914,0.294816,-0.3993276,0.004654579
1.45925,-0.52244,-0.2122141,0.3970741,0.02595312,0.03391986
1.457025,-0.4710968,-0.14304,0.2751019,0.2332763,-0.08066301
1.27023,-0.3915844,-0.09331526,-0.04749922,-0.03908906,-0.04242094
1.094553,-0.4210207,-0.08522726,-0.3459367,-0.4682747,0.07861439
1.074848,-0.5457178,-0.09174318,-0.2659848,-0.5946169,0.1369041
1.132827,-0.7086383,-0.1727285,0.02899843,-0.502464,0.09269861
1.106214,-0.6925639,-0.2635482,0.1182776,-0.4119308,-0.01748458
1.08647,-0.5779909,-0.2974921,0.06664903,-0.1914262,-0.003101048
1.109413,-0.5835093,-0.2440781,0.02011089,-0.1256881,-0.01891103
1.054812,-0.5786902,-0.166653,0.03443148,-0.3283515,-0.1772023
0.998241,-0.5503902,-0.173123,0.2267655,-0.4002799,-0.3024862
1.027838,-0.3919992,-0.1420701,0.09964092,0.07065135,0.1486957
0.9667947,-0.3946237,-0.1261763,0.06095006,0.1023256,0.1794202
0.8496123,-0.3841157,-0.1601336,0.06514412,0.153317,0.1626436
0.7133123,-0.3772758,-0.1551204,0.0787168,0.1327331,0.1648243
0.6265905,-0.3505248,-0.102725,0.2111799,0.1622113,0.1668191
0.6058886,-0.3332367,-0.1209659,0.3540091,0.2769566,0.1744095
0.5859486,-0.3268719,-0.09969604,0.404524,0.3437888,0.1939469
0.585609,-0.2921648,-0.05382846,0.3769327,0.382734,0.09235814
0.5891219,-0.2129394,-0.001595809,0.3065016,0.3519897,-0.03148928
0.5986887,-0.1676582,0.04470006,0.2040826,0.2789021,-0.04150969
0.6893213,-0.2056052,-0.004862925,-0.001498348,0.1479939,-0.0009803708
0.7937706,-0.2287315,-0.01364057,-0.2188799,0.04129676,0.0008179717
0.8160953,-0.2541019,0.01808735,-0.3345591,0.0851906,-0.06615287
0.8675651,-0.3241176,0.03571538,-0.2889947,0.1110751,-0.2328953
1.001036,-0.371942,0.09304284,-0.1366849,0.1879965,-0.5147395
1.026525,-0.3673339,0.08732978,-0.101129,0.2651924,-0.6616819
1.018738,-0.3415538,0.05808107,-0.1952103,0.1639883,-0.5523659
1.175464,-0.3562752,0.05048031,-0.2782037,0.0229029,-0.387757
1.277644,-0.3860077,-0.01057389,-0.1327512,-0.2037957,-0.1512728
1.28307,-0.4748414,-0.0812061,0.2341451,-0.3631563,0.06781426
1.397571,-0.6387301,-0.1535414,0.5041386,-0.3176114,0.0281996
1.437111,-0.6206221,-0.185393,0.4727016,-0.4119612,-0.03289174
1.222846,-0.4195538,-0.1971872,-0.142099,-0.6868314,0.06803168
0.9702093,-0.3440424,-0.312721,-0.8833642,-0.8430355,0.2332048
0.9215755,-0.54707,-0.3875857,-0.7939497,-0.5861115,0.4693687
0.9969797,-0.8109602,-0.3486191,-0.3121552,-0.1224014,0.4936402
1.012281,-0.774765,-0.3318579,-0.09859577,-0.03772178,0.2536529
1.021001,-0.6492375,-0.3026426,0.007981836,-0.1449957,0.09916036
1.041787,-0.6133827,-0.2727605,-0.02888972,-0.1501527,-0.07675358
1.004663,-0.4327018,-0.2639829,-0.0626081,-0.255262,-0.2195483
0.9447552,-0.332142,-0.2137954,0.03090416,-0.3035175,-0.2268747
0.8418564,-0.3365161,-0.1903992,0.001075752,-0.2626293,-0.284564
0.7253479,-0.2212723,-0.1848251,-0.0141828,-0.2855021,-0.2003288
0.66418,-0.2002382,-0.1839699,-0.04311495,-0.2107569,-0.06433516
0.6047485,-0.200101,-0.2131623,-0.2309894,-0.1437229,-0.04853875
0.5815886,-0.1629277,-0.2006894,-0.3408499,-0.1724163,-0.007465926
0.6054506,-0.2439693,-0.1951533,-0.3848128,-0.1809378,-0.04894462
0.6107815,-0.3187192,-0.2079773,-0.2944983,-0.1929421,-0.08410038
0.6641402,-0.3737604,-0.2073564,-0.02189695,-0.152142,-0.0458413
0.7523444,-0.3862985,-0.2378395,0.2175555,-0.08996036,-0.03363459
0.7997722,-0.3430172,-0.2454808,0.4512132,-0.08307692,0.01769756
0.8224236,-0.3314588,-0.2379596,0.5760651,-0.09787731,0.01390378
0.8558446,-0.2632167,-0.2424027,0.5607747,-0.1139649,-0.03983788
0.9759454,-0.1481166,-0.2271385,0.4527171,-0.1101718,-0.1215527
1.117804,-0.06887275,-0.2319561,0.1643614,-0.148801,-0.2780915
1.159565,-0.1241322,-0.2592,-0.0001366415,-0.1694001,-0.3293565
1.211758,-0.3333133,-0.3056669,0.06105545,0.001961398,-0.2614188
1.285152,-0.4976026,-0.3570205,0.1259587,0.3139183,-0.2082911
1.241671,-0.5636329,-0.3717976,0.1526211,0.5346478,-0.1840918
1.223078,-0.6076945,-0.37701,0.07955297,0.5401407,-0.1780837
1.344587,-0.7000231,-0.3670438,0.02555741,0.4862197,-0.1626993
1.399233,-0.7714849,-0.3394909,0.1926818,0.4840906,-0.1120233
1.275448,-0.7202419,-0.304196,0.458851,0.4761652,-0.03688883
1.066619,-0.6661078,-0.2099341,0.6037216,0.4598326,0.07278041
0.9542265,-0.5516742,-0.1088048,0.6109846,0.4368302,0.168044
1.000377,-0.3414507,-0.07421358,0.4602094,0.3762039,0.1092429
1.011007,-0.2227992,-0.04530077,0.1162261,0.1732871,0.05633965
0.9739541,-0.2156049,-0.0410415,-0.1771678,-0.09587005,0.1922666
0.988712,-0.2962192,-0.1175224,-0.3147856,-0.08577517,0.272028
0.9702704,-0.3687635,-0.1738773,-0.408742,0.09662771,0.2318238
0.9133944,-0.3571024,-0.1609971,-0.4211728,0.1223071,0.2393507
0.8286527,-0.3678278,-0.1521324,-0.3693359,0.1375201,0.287576
0.7129327,-0.4008912,-0.1597273,-0.2849453,0.2208195,0.3183165
0.6882284,-0.4013355,-0.1338534,-0.14704,0.2862931,0.2704001
0.7029114,-0.3961907,-0.07528584,-0.01635253,0.3359739,0.1659196
0.6442044,-0.3932897,-0.04483027,0.07403061,0.2848081,0.07175579
0.6405411,-0.3304843,-0.038407,0.1096511,0.2328473,0.01664622
0.674388,-0.2391038,-0.02490501,0.04609661,0.2309879,0.01999441
0.6765079,-0.2233177,-0.0227457,-0.07759701,0.1909517,0.04339254
0.7612381,-0.2341788,-0.02470588,-0.1667013,0.1947413,0.05519177
0.8293486,-0.2595143,-0.01815393,-0.1766542,0.2001688,-0.04052195
0.8385885,-0.322865,-0.0005428281,-0.05337857,0.2428047,-0.3007739
0.8904331,-0.331443,0.02671022,0.08930016,0.3398355,-0.5631007
0.9478848,-0.2885294,0.04966005,0.04973346,0.3035172,-0.6847694
1.055415,-0.2587538,0.05238093,-0.0429233,0.1291189,-0.6641588
1.16119,-0.2594352,0.001933683,-0.06828292,-0.14149,-0.5378645
1.215607,-0.3636836,-0.1081519,-0.03600804,-0.2726012,-0.3270955
1.284713,-0.564893,-0.204462,0.1464105,-0.1462712,-0.1715002
1.271439,-0.6458338,-0.193566,0.273329,-0.1552541,-0.1629439
1.176457,-0.5242424,-0.1610973,-0.006828182,-0.3971203,-0.08624881
1.063392,-0.4554983,-0.2266797,-0.4721403,-0.6086718,0.1351713
0.9922382,-0.5825623,-0.3100143,-0.5974041,-0.5865673,0.3492114
1.034758,-0.7003239,-0.3732127,-0.4279997,-0.3364622,0.4053032
1.068983,-0.6893951,-0.3805694,-0.3266693,-0.1293624,0.2144179
1.072118,-0.650196,-0.3087584,-0.2495119,-0.1034113,-0.004765262
1.062638,-0.5768022,-0.2673743,-0.1024675,-0.2008206,-0.08324452
1.000447,-0.45541,-0.2145981,0.008413405,-0.309147,-0.1228576
0.9723311,-0.3854594,-0.1727513,0.07089853,-0.3705164,-0.1634967
0.9162067,-0.3429473,-0.2052401,0.09452323,-0.3968934,-0.1588296
0.7976286,-0.2740664,-0.2032603,0.04987101,-0.3001324,-0.0233575
0.7299029,-0.2433034,-0.2131492,-0.06337685,-0.146269,0.1261498
0.652622,-0.2580301,-0.2134632,-0.2068771,-0.07171013,0.09057663
0.5624998,-0.2645373,-0.1561139,-0.2722826,-0.08704754,-0.04185463
0.553202,-0.2732313,-0.1477779,-0.1971062,-0.2132709,-0.135958
0.5934698,-0.2948747,-0.146939,-0.04643149,-0.32008,-0.1232642
0.6466493,-0.3096459,-0.1570305,0.1777704,-0.31963,-0.02189411
0.7275187,-0.3078967,-0.192366,0.4335795,-0.2828015,0.0528819
0.8014401,-0.2834641,-0.2131745,0.5244754,-0.260134,0.07537617
0.80868,-0.2579463,-0.243554,0.5093982,-0.2767786,0.0585085
0.8484601,-0.2211543,-0.2341893,0.4776787,-0.27998,-0.006890884
0.9815583,-0.1354849,-0.2360821,0.2789936,-0.2862375,-0.1643667
1.078736,-0.07562998,-0.2753702,0.03006016,-0.2641256,-0.3999058
1.160164,-0.1339247,-0.2822762,-0.05037118,-0.1245168,-0.5592052
1.256916,-0.2894529,-0.3160176,-0.01760162,0.1260984,-0.5467546
1.270451,-0.4777259,-0.3671524,-0.03071419,0.4642201,-0.3322231
1.260728,-0.5927476,-0.3840098,-0.1343285,0.6211769,-0.01329376
1.31585,-0.6240536,-0.3577642,-0.1915598,0.5247866,0.09336352
1.359151,-0.747292,-0.298514,-0.08024061,0.5131193,-0.03976134
1.271981,-0.8658148,-0.2659184,0.2218173,0.5571322,-0.06565995
1.090747,-0.7910192,-0.237109,0.5024055,0.4923648,0.07523632
0.9962251,-0.7306353,-0.2002607,0.4789355,0.48936,0.145302
1.025546,-0.686176,-0.1618023,0.2757434,0.6460341,0.08917366
1.030622,-0.5157888,-0.06553913,0.1023427,0.701864,0.03305089
0.9626925,-0.3921108,0.02274557,-0.0123658,0.3247649,0.06374509
0.9378347,-0.3620819,0.01142939,-0.0240967,-0.2069055,0.1645388
0.9515052,-0.3991793,-0.04378515,0.05513675,-0.2518184,0.2403931
0.8923885,-0.4471698,-0.09085853,0.1683395,-0.03277629,0.1626728
0.7629731,-0.415816,-0.122689,0.2488638,-0.04663442,-0.01263119
0.6216422,-0.4103,-0.1092496,0.2298959,-0.05065169,-0.06839269
0.5851605,-0.3936046,-0.08289903,0.2522705,-0.01827645,-0.04801544
0.6616758,-0.3423855,-0.07904059,0.4567863,-0.05426775,-0.05338058
0.6927934,-0.3474911,-0.06483997,0.6477386,0.02735652,-0.05320087
0.6758401,-0.3178689,-0.03990842,0.6779545,0.06088623,-0.1390329
0.6693761,-0.2454291,-0.005994888,0.6182384,-0.01674777,-0.2806862
0.657566,-0.1794701,0.00333828,0.4550324,-0.07239078,-0.3210832
0.6626007,-0.1542684,-0.01807601,0.185668,-0.1087982,-0.2105793
0.7553218,-0.2175856,-0.001242369,0.0008482052,-0.1146533,-0.0322025
0.9012493,-0.2943902,0.004816293,0.04912692,-0.1165966,0.02988141
0.9389911,-0.3440362,-0.005895557,0.1848624,-0.006235627,-0.05505399
0.9595551,-0.3725856,0.02352519,0.3226002,0.1737015,-0.3065161
1.06386,-0.3979882,0.05043158,0.4517065,0.1994764,-0.7032116
1.058496,-0.4107171,0.07036179,0.4596284,-0.02581798,-0.8795809
1.035767,-0.3943371,0.04105732,0.4639947,-0.5173425,-0.641413
1.178008,-0.4472641,-0.0742128,0.5415164,-0.7947162,-0.2979881
1.275007,-0.5191127,-0.1685294,0.7585332,-0.4857823,-0.1433396
1.223445,-0.5570884,-0.1382954,1.05663,-0.2330261,-0.1919732
1.157758,-0.6300156,-0.03827528,0.987362,-0.5548344,-0.275565
1.098092,-0.6270486,-0.02264174,0.8219999,-0.930656,-0.217922
0.965396,-0.5938416,-0.08963495,0.9279409,-1.010673,-0.1953067
0.8474269,-0.6618059,-0.1944246,0.9923916,-0.9826315,-0.2800768
0.9708925,-0.6848089,-0.2998515,1.155998,-0.7327481,-0.3103188
1.16677,-0.6265859,-0.310611,1.374567,-0.3863167,-0.4190856
1.123448,-0.5517187,-0.2755221,1.420105,-0.2999385,-0.4643648
1.006345,-0.4460169,-0.2222116,1.61829,-0.5188315,-0.4226498
0.9376279,-0.3544782,-0.1934233,1.833993,-0.8571095,-0.5066551
0.886778,-0.2856475,-0.2699291,1.860638,-0.9194385,-0.4173504
0.9388641,-0.2483812,-0.3373045,1.798301,-0.8232811,-0.2692205
0.9482457,-0.2644755,-0.33668,1.605092,-0.7486435,-0.2709852
0.8611303,-0.2754302,-0.2916801,1.459916,-0.5816266,-0.3255951
0.7869009,-0.2832317,-0.2368859,1.423534,-0.5847504,-0.4989441
0.6525783,-0.3078528,-0.2063111,1.484272,-0.7035955,-0.5247575
0.5614291,-0.3137598,-0.1849704,1.608351,-0.7174963,-0.4176361
0.6217266,-0.3088376,-0.2181455,1.588225,-0.6084697,-0.3306802
0.7233596,-0.2968345,-0.2457283,1.593403,-0.3788189,-0.1796162
0.8039871,-0.2532792,-0.2091864,1.623831,-0.3221185,-0.2003702
0.820883,-0.192779,-0.1725855,1.556154,-0.4806518,-0.2355924
0.8039749,-0.149496,-0.1391036,1.535227,-0.6157371,-0.07282483
0.8313046,-0.1301787,-0.1231635,1.456797,-0.6205966,0.07191067
0.909445,-0.1204939,-0.1194222,1.373112,-0.5493628,0.1404118
0.9936043,-0.1058207,-0.102038,1.351261,-0.5023001,0.06572909
1.040796,-0.06971269,-0.09561173,1.23759,-0.4498019,-0.0681469
1.066217,-0.04542489,-0.1248253,1.062543,-0.5322782,-0.1339678
1.122795,-0.1407511,-0.1636129,0.8672923,-0.6405074,-0.2044453
1.241148,-0.3449502,-0.142708,0.8095594,-0.4668939,-0.2556713
1.300247,-0.4755507,-0.09687077,0.8592366,-0.3419271,-0.3612813
1.258201,-0.4882852,-0.08465998,0.7181478,-0.4784336,-0.4347457
1.251064,-0.4970659,-0.1096162,0.4353081,-0.5436793,-0.1871731
1.255126,-0.5574297,-0.164165,0.2526643,-0.3727873,0.2514761
1.238183,-0.7255588,-0.2009303,0.3537562,-0.008072078,0.5317676
1.212822,-0.9025385,-0.229008,0.5046801,0.2901632,0.4893027
1.120207,-0.8137004,-0.2019527,0.4722936,0.1386444,0.3188236
1.045621,-0.6091272,-0.1159423,0.6048847,-0.1475435,0.2587534
1.060371,-0.5671849,-0.1296207,0.7733658,-0.103836,0.2341899
1.029202,-0.5121524,-0.1590864,0.7154715,-0.1101489,0.2837504
0.9120687,-0.4668008,-0.1397299,0.728311,-0.2185911,0.3624926
0.8342774,-0.5244928,-0.191535,0.7483732,-0.1627904,0.3040513
0.7956826,-0.4884035,-0.2170516,0.7424268,-0.1910629,0.2329173
0.7363161,-0.4506922,-0.1991075,0.8590707,-0.1809664,0.1144043
0.6863612,-0.4204436,-0.1894855,0.934152,-0.06270979,-0.04468454
0.6616972,-0.3223056,-0.1323316,0.9569605,-0.02772717,-0.09838057
0.6493486,-0.3099653,-0.07891056,0.9521912,0.007956761,-0.1417641
0.6277967,-0.2978031,-0.02705375,0.9494916,-0.07181793,-0.1535084
0.646508,-0.2431247,-0.004877216,0.9621718,-0.1501115,-0.1774791
0.7380615,-0.1745141,-0.0337871,0.7897386,-0.0943536,-0.2356894
0.8050199,-0.10773,-0.01343971,0.5263502,-0.09526151,-0.1461441
0.8241138,-0.1438704,-0.003682263,0.3329454,-0.06339112,-0.05474065
0.8271173,-0.1813092,-0.005356266,0.1282644,0.0003877108,-0.05954944
0.8658286,-0.2507256,0.03435353,-0.04958895,0.02821713,-0.09325922
0.9705795,-0.3553538,0.04610152,-0.1031822,0.1269028,-0.3175589
1.030532,-0.3514749,0.08554595,-0.09518451,0.3250543,-0.6855899
1.024693,-0.3382806,0.1645625,-0.12965,0.4360715,-0.7996101
1.030128,-0.3322906,0.1762384,-0.1511367,0.2494554,-0.5608913
1.100807,-0.3476899,0.08011724,-0.1517693,-0.006284872,-0.3170256
1.234834,-0.4587429,-0.06765486,-0.1299226,-0.08102137,-0.1485648
1.296842,-0.5649339,-0.1234243,0.01690487,0.007726426,0.007381243
1.242916,-0.5937718,-0.1007274,0.1049025,0.06431594,-4.971332e-05
1.145363,-0.5857109,-0.1178756,-0.1030055,-0.1987304,-0.01228315
1.005212,-0.5627692,-0.1314346,-0.4741078,-0.5208401,0.1339485
0.8608008,-0.4906026,-0.1259461,-0.664277,-0.5958892,0.2985729
0.8330085,-0.5145301,-0.1881843,-0.5561986,-0.6005846,0.347759
0.9582822,-0.6458219,-0.2922631,-0.3561758,-0.503842,0.1790283
1.12687,-0.6606818,-0.3451269,-0.1700186,-0.2828351,-0.004716289
1.193866,-0.5977041,-0.3303657,-0.07617903,-0.2142956,-0.0250749
1.14595,-0.4698419,-0.267736,-0.1161866,-0.2736722,-0.08144104
1.090557,-0.3481168,-0.1981284,-0.1524191,-0.2324512,-0.2038493
0.9984723,-0.329172,-0.1625673,-0.2127335,-0.1553958,-0.2320848
0.8485632,-0.2679872,-0.1513442,-0.2647675,-0.1170671,-0.1356662
0.7581316,-0.2415438,-0.1514496,-0.2384569,-0.05752358,-0.06313022
0.6721069,-0.230489,-0.148507,-0.3089862,-0.04595593,-0.1110253
0.5588254,-0.1687184,-0.1391212,-0.4494351,-0.1206077,-0.1717839
0.5008451,-0.1878818,-0.1501546,-0.5150092,-0.2333293,-0.1796539
0.4982871,-0.2151614,-0.1756166,-0.4488033,-0.2943496,-0.06046788
0.5897757,-0.2596183,-0.2026038,-0.2504282,-0.1949666,0.1629011
0.7193079,-0.3201445,-0.244035,-0.08515289,-0.03009465,0.225795
0.7792068,-0.3365547,-0.263792,0.04634531,0.06006943,0.1401116
0.8097095,-0.3537401,-0.2441035,0.165602,0.06014723,0.1257932
0.8598676,-0.2943283,-0.2473656,0.1739275,0.0368619,0.1123888
0.9395315,-0.211002,-0.2546066,0.07694303,0.04737301,-0.008045261
1.066322,-0.1538892,-0.2356737,-0.1455592,0.00957036,-0.1885609
1.270743,-0.06688066,-0.2365457,-0.3044552,-0.01117812,-0.3481351
1.430667,-0.0376988,-0.2516224,-0.3463587,0.1368148,-0.3537181
1.401366,-0.1051385,-0.2950647,-0.5776455,0.3817353,-0.183501
1.322842,-0.2621563,-0.3554888,-0.8611871,0.6710325,0.09443977
1.265787,-0.485584,-0.3551857,-0.908741,0.8778404,0.3778652
1.194937,-0.683628,-0.3033226,-0.8143269,0.7905431,0.4098176
1.212918,-0.800132,-0.2360025,-0.6439244,0.4919098,0.2434579
1.21852,-0.8401301,-0.1965432,-0.3018976,0.2476828,0.2296148
1.083961,-0.8013324,-0.2148281,0.03274443,0.2946108,0.3876196
0.9836309,-0.7065152,-0.2146133,0.06596805,0.5333366,0.52629
1.003441,-0.6148951,-0.1542273,-0.05258338,0.607416,0.5024461
1.0426,-0.4705475,-0.0921408,-0.1747992,0.496244,0.4228816
1.038305,-0.3463422,-0.06783402,-0.3097745,0.3136898,0.4527535
1.00404,-0.3702364,-0.07385267,-0.3546245,0.1283899,0.4168776
0.9388014,-0.4166849,-0.08722619,-0.3395466,0.07333207,0.2923462
0.8113147,-0.4562282,-0.09338986,-0.2777501,0.1316005,0.1440338
0.7105168,-0.4736612,-0.09372857,-0.1681977,0.2747273,-0.04461161
0.6850089,-0.4338944,-0.0869499,-0.0875074,0.4434539,-0.07262041
0.637362,-0.3996252,-0.06995351,0.007444209,0.4834967,0.005664246
0.5352821,-0.2874916,-0.03248627,0.1099677,0.3909035,0.0593029
0.4739109,-0.1899342,0.0009403409,0.1185135,0.2796671,0.1152567
0.5473033,-0.1990896,-0.001880761,0.03537944,0.2442823,0.1074034
0.6487465,-0.1471223,0.01904496,-0.09805185,0.2414401,0.1157877
0.6925129,-0.1188821,0.05477497,-0.3211535,0.1964549,0.1500461
0.7327343,-0.1974334,0.03754031,-0.5193169,0.121135,0.1604339
0.7746279,-0.2623566,0.02945183,-0.5221228,0.09723093,0.1272266
0.8506049,-0.3183873,0.04000973,-0.4217392,0.1769657,-0.05139002
0.9278709,-0.3550246,0.02909622,-0.2820485,0.2937165,-0.3039792
0.9994767,-0.3426238,0.03865347,-0.1976858,0.4080967,-0.5174922
1.067339,-0.3014429,0.05930275,-0.3421982,0.3398539,-0.5298371
1.080267,-0.1972072,0.07732958,-0.5087937,0.08826829,-0.3299844
1.177087,-0.1344809,0.08671865,-0.5039902,-0.04024353,-0.1422576
1.288413,-0.286755,0.009668075,-0.4719752,-0.0631841,0.03158255
1.309062,-0.5667606,-0.1240928,-0.3024837,0.008201799,0.103693
1.349589,-0.7096022,-0.1623485,0.02109275,0.05955943,-0.008814697
1.321013,-0.5594293,-0.08733923,-0.04422742,-0.1862024,-0.07654233
1.218973,-0.3536698,-0.06044924,-0.5968623,-0.5467333,0.05474297
1.045238,-0.3726889,-0.1737931,-1.176946,-0.7302211,0.3290175
0.9030479,-0.4763552,-0.2923562,-1.377002,-0.5353048,0.479971
1.018918,-0.6150713,-0.2893551,-1.064244,-0.1101029,0.3131883
1.113955,-0.769321,-0.2558739,-0.7794924,0.2504048,-0.01343043
1.091028,-0.7235956,-0.2465638,-0.6221465,0.4498031,-0.2799142
1.082126,-0.5927765,-0.1770442,-0.2205671,0.2026211,-0.4450174
0.9684294,-0.4600733,-0.1138235,0.006208633,-0.1753645,-0.4571944
0.8586239,-0.2923381,-0.1462577,-0.009325042,-0.2943267,-0.3285753
0.7736546,-0.2687233,-0.1731769,0.006160513,-0.3863157,-0.2346063
0.6601565,-0.2989535,-0.184306,-0.04264482,-0.2689848,-0.138793
0.6017217,-0.2754051,-0.2200756,-0.1005528,-0.09633673,-0.08234315
0.5575494,-0.2902954,-0.2121895,-0.2276768,-0.1362466,-0.1142933
0.5813588,-0.29281,-0.1955864,-0.25761,-0.09197642,-0.06824522
0.6367666,-0.2973314,-0.2015664,-0.05138248,-0.06089329,-0.06885493
0.6650796,-0.3081763,-0.1822934,0.1413277,-0.01408086,-0.05208721
0.7468799,-0.2658942,-0.168243,0.2958953,0.09580523,0.05033437
0.7811106,-0.2106951,-0.1534712,0.3155412,0.03312939,0.06008736
0.7911251,-0.1514934,-0.1330359,0.2727096,-0.06654451,0.1414872
0.8754916,-0.1220203,-0.1479751,0.2588023,-0.1170908,0.1881872
0.9901959,-0.1447247,-0.1555877,0.08977672,-0.03913617,0.03873515
1.146194,-0.1611408,-0.1497323,-0.05481426,0.1087236,-0.1549132
1.243827,-0.1636767,-0.1689089,-0.09622243,0.09935428,-0.3396344
1.242087,-0.1891094,-0.1866149,-0.112384,0.1817303,-0.3399423
1.254412,-0.2578185,-0.1843899,-0.1341916,0.3748464,-0.1853983
1.279196,-0.3499463,-0.1731608,-0.319356,0.388621,-0.1044942
1.303827,-0.4363281,-0.1649266,-0.554127,0.2328866,-0.1011355
1.331438,-0.5109997,-0.1712105,-0.6333611,0.04043936,-0.02669069
1.375757,-0.6285312,-0.2165423,-0.4530161,0.06978187,0.1795916
1.413252,-0.8051577,-0.2816638,-0.1715571,0.2995315,0.2515314
1.319034,-0.8647583,-0.2791998,-0.09087006,0.4720977,0.1930473
1.143286,-0.7365851,-0.19924,-0.08372358,0.5423916,0.1888613
1.059509,-0.6007067,-0.08120438,-0.03258256,0.374854,0.1380677
1.06,-0.5251013,0.01808989,0.0439342,0.09296184,0.1657678
1.047981,-0.4618491,0.004951332,0.1420162,-0.03557856,0.2502839
0.994022,-0.3993969,-0.03754567,0.1589694,-0.08744571,0.2146076
0.9260442,-0.3345647,-0.03419972,0.1778528,-0.03664738,0.2293418
0.8869327,-0.3455225,-0.09143381,0.2173386,0.07724962,0.2354278
0.8236285,-0.3900519,-0.1421592,0.2572612,0.209541,0.107434
0.6727538,-0.3604166,-0.1183152,0.3872698,0.3091022,-0.03536986
0.5343767,-0.3343766,-0.1124878,0.5112984,0.1601716,-0.1050828
0.4896548,-0.2749837,-0.09427873,0.555271,0.03894363,-0.04189881
0.5148464,-0.1945207,-0.06735484,0.5096096,0.06004494,0.0404314
0.5564038,-0.1849978,-0.06541459,0.4062046,-0.02447364,0.1120182
0.6001062,-0.157398,-0.04560938,0.2884427,-0.1323579,0.2041772
0.7171639,-0.1733478,-0.03727226,0.1885146,-0.2280492,0.1647389
0.8554755,-0.2376182,-0.03377826,0.2426034,-0.1811229,0.1144585
0.9430868,-0.2670078,-0.01859407,0.293762,-0.0001482476,0.08091605
0.9831378,-0.296547,-0.002260906,0.1981034,0.01164937,-0.08648456
0.9364168,-0.2690568,0.0322293,0.135466,-0.08652928,-0.1765374
0.920931,-0.2510567,0.04367166,0.07609228,-0.1609723,-0.1860966
1.026653,-0.280902,0.03723449,0.01284401,-0.1081022,-0.2868914
1.157403,-0.3282668,0.05636351,0.04552098,0.05996088,-0.3780718
1.212048,-0.4463013,0.09529492,0.2492388,0.06531,-0.4055177
1.130143,-0.4969473,0.1280363,0.7521931,-0.1742762,-0.3077099
1.094888,-0.4869972,0.08140824,1.216038,-0.4558751,-0.08498636
1.254471,-0.5177675,-0.03876888,1.248177,-0.4424911,0.04649555
1.362264,-0.509307,-0.1281379,1.064586,-0.3388007,0.04389404
1.222555,-0.5070642,-0.1538552,0.8746053,-0.5336953,0.0751855
1.008299,-0.5381177,-0.1601627,0.7052897,-0.6844579,0.1439737
0.9591163,-0.5982877,-0.2070794,0.660335,-0.7075432,0.1133186
1.039989,-0.6952573,-0.2866037,0.7065752,-0.6610199,-0.0009940943
1.111125,-0.6938079,-0.3130536,0.7407499,-0.4314577,-0.1493329
1.126054,-0.5891814,-0.2721588,0.8319508,-0.3664699,-0.2404625
1.079279,-0.4809617,-0.2198511,1.004237,-0.4423636,-0.1813594
1.037523,-0.401423,-0.1768486,1.159754,-0.4974955,-0.1825404
1.018895,-0.3663411,-0.160652,1.225438,-0.5686417,-0.2630369
0.9698194,-0.2811553,-0.1645465,1.091365,-0.4805231,-0.2776422
0.893366,-0.1443032,-0.1464063,0.8173223,-0.3511314,-0.3150872
0.8323527,-0.1335655,-0.1357546,0.5513378,-0.2382864,-0.345344
0.7334425,-0.2020576,-0.1356655,0.3570602,-0.169953,-0.445665
0.5400421,-0.2075107,-0.1001744,0.3654972,-0.3250316,-0.6242828
0.4832241,-0.2116703,-0.09067568,0.459213,-0.5465677,-0.6264742
0.5948422,-0.201956,-0.1315385,0.5139286,-0.6543076,-0.5043924
0.6565238,-0.140964,-0.1929345,0.5894134,-0.5570872,-0.3270131
0.7558812,-0.1325494,-0.2599734,0.6066555,-0.3227217,-0.1287695
0.8181317,-0.1632386,-0.241003,0.6274062,-0.08224365,-0.06657503
0.7924452,-0.1880145,-0.187765,0.634182,0.1105837,-0.1019089
0.8508989,-0.2058014,-0.1948132,0.5306531,0.1515671,-0.1244561
0.8610212,-0.1706617,-0.1832227,0.3939194,0.1838392,-0.1023535
0.9133507,-0.1390369,-0.1736448,0.2303378,0.2078158,-0.09714417
1.071788,-0.1444249,-0.1853772,0.1858122,0.1516561,-0.07977226
1.124556,-0.1419379,-0.1751766,0.2135106,0.2066318,-0.01448704
1.17089,-0.1472625,-0.1796249,0.1166039,0.2327597,-0.01726177
1.141281,-0.1591777,-0.1648003,0.07586443,0.1837292,-0.0001920762
1.051557,-0.1637044,-0.1342009,0.1209225,0.2120297,0.08797207
1.099296,-0.1852784,-0.1273278,0.1915312,0.2496542,0.1507573
1.129526,-0.2656631,-0.1070218,0.2706987,0.3592332,0.2059192
1.165948,-0.3675578,-0.09396287,0.1238147,0.401165,0.2316491
1.225288,-0.3992853,-0.1019565,-0.2301164,0.1634521,0.2923235
1.284385,-0.4300948,-0.118443,-0.4242045,-0.04625295,0.4335091
1.453322,-0.5826078,-0.1532843,-0.2074453,0.03414202,0.5018936
1.499283,-0.7638396,-0.1942603,0.1752929,0.1801524,0.4648223
1.322048,-0.7841648,-0.200204,0.3729908,0.1794424,0.4177995
1.095732,-0.6606658,-0.1488904,0.4587321,0.1402082,0.3913269
0.9794445,-0.5262242,-0.0971101,0.4228172,0.05285792,0.3811592
1.017333,-0.4151934,-0.06909974,0.2679488,-0.02563539,0.3632169
1.018997,-0.3712456,-0.06001585,0.1859133,0.07167665,0.2386518
0.9972395,-0.3860756,-0.05923058,0.1378899,0.114178,0.04140936
0.9870756,-0.367972,-0.03036357,0.1998897,0.07541647,-0.0247916
0.9151809,-0.3425586,-0.02866482,0.3312887,0.1088151,0.0209945
0.8661593,-0.3165279,-0.05698425,0.3250066,0.1474189,0.01846054
0.7911466,-0.2516598,-0.06284515,0.2813401,0.2104958,-0.00649258
0.6981862,-0.1967616,-0.05623148,0.1459952,0.2261273,0.003170645
0.6774467,-0.1594,-0.03154672,-0.04490339,0.1862607,0.008725275
0.6660357,-0.1531956,-0.01848276,-0.1437852,0.1667082,0.06903504
0.6693258,-0.2051779,-0.002435095,-0.2533665,0.143098,0.185819
0.6987858,-0.2679918,0.03350991,-0.3130317,0.1545027,0.19481
0.7468499,-0.3205485,0.04199477,-0.3169499,0.1661653,0.1606356
0.8081648,-0.3361117,0.05394234,-0.3060407,0.1786972,0.1770119
0.8376703,-0.3101906,0.06676506,-0.2893674,0.1951627,0.160193
0.8550536,-0.2898577,0.06886225,-0.3453321,0.155498,0.1556049
0.8605553,-0.2679433,0.08128336,-0.40674,0.1135047,0.1548017
0.8495843,-0.252948,0.0775403,-0.5168739,0.06458509,0.08022629
0.8577055,-0.2568851,0.07228537,-0.6595853,-0.001659977,0.0003719023
0.8626776,-0.2532876,0.06999321,-0.72378,-0.02295783,-0.02514819
0.8591686,-0.2512465,0.06989099,-0.7330092,-0.02659647,-0.05564296
0.8769653,-0.2560063,0.07801899,-0.6894363,-0.08962713,-0.1839689
0.905866,-0.2544162,0.06570977,-0.6579494,-0.1616573,-0.2844785
0.94814,-0.2592698,0.05510384,-0.6250535,-0.1357895,-0.1742044
1.050445,-0.2902436,0.04673933,-0.591102,-0.07556325,0.03120806
1.195153,-0.3281698,0.02774711,-0.5785674,-0.06727732,0.175081
1.24972,-0.3645197,0.007254315,-0.5229103,-0.09470018,0.2343821
1.272185,-0.5019263,-0.08421196,-0.4963227,-0.1387473,0.290764
1.458432,-0.7448693,-0.2191621,-0.2741688,-0.1106475,0.4597541
1.58265,-0.7979805,-0.2251343,0.291296,0.1562471,0.5424515
1.427812,-0.5242067,-0.1288859,0.5968415,0.4219801,0.364308
1.245293,-0.2093099,-0.0895029,0.2466302,0.1385241,0.2717974
1.129314,-0.09864024,-0.09015354,-0.4085902,-0.3868642,0.5290955
0.9886212,-0.2243184,-0.1161238,-0.8611755,-0.5468991,0.8872693
0.8843807,-0.5122449,-0.181524,-0.8380491,-0.5100402,0.987526
0.9411527,-0.7667659,-0.2093652,-0.5820616,-0.3148131,0.7682992
1.086622,-0.7481316,-0.2141265,-0.5787625,-0.05842683,0.4447889
1.081691,-0.4947577,-0.2296861,-0.6926648,-0.1304159,0.1613797
1.086627,-0.3684981,-0.2443407,-0.7287482,-0.2399643,-0.02686861
1.142398,-0.3827588,-0.2468866,-0.8887887,-0.2179476,-0.1284246
1.00673,-0.3356239,-0.2218134,-1.030532,-0.2433022,-0.2725932
0.9253418,-0.2958932,-0.2188442,-1.099466,-0.1287147,-0.4051153
0.8976554,-0.2769048,-0.2217812,-1.137212,0.06341997,-0.4206371
0.7828726,-0.2700575,-0.21256,-1.124681,0.1755878,-0.3794898
0.7584066,-0.2488103,-0.2217039,-1.217183,0.3495188,-0.2981915
0.6971746,-0.2351724,-0.2167753,-1.226249,0.566346,-0.2438669
0.6082434,-0.2730037,-0.2160719,-1.203092,0.6337439,-0.2479587
0.5458574,-0.2227314,-0.2018688,-1.261458,0.4733384,-0.2110954
0.4691984,-0.1929979,-0.1767318,-1.21524,0.2634176,-0.09553859
0.5342758,-0.2163523,-0.2189097,-1.207055,0.2023883,0.1474243
0.6520965,-0.2163112,-0.2830832,-1.137015,0.3555767,0.3852783
0.7882893,-0.3119397,-0.3173369,-0.9722702,0.6457349,0.3858591
0.9338096,-0.3765244,-0.30815,-0.8487061,0.7511662,0.2730775
0.9723349,-0.3672511,-0.2720789,-0.6445805,0.5904027,0.2187265
1.011067,-0.332329,-0.2613878,-0.5670026,0.4721784,0.2037736
1.039181,-0.2760418,-0.2597717,-0.6910388,0.5057205,0.1593473
1.029195,-0.2908008,-0.247454,-0.7730515,0.4970924,0.02335841
1.033799,-0.2842833,-0.2064079,-0.7081284,0.3916024,-0.08017264
1.02577,-0.2456551,-0.1555745,-0.5422267,0.3255245,-0.04269087
1.011717,-0.1828619,-0.1478092,-0.4147357,0.2446482,-0.002735559
0.9665273,-0.08562542,-0.1740957,-0.3908186,0.1349085,-0.01939506
0.9180143,-0.08434523,-0.2228655,-0.433373,0.1004227,-0.03216776
0.9257106,-0.1430195,-0.2581897,-0.3415599,0.09662098,-0.04759422
1.000437,-0.2453637,-0.2678231,-0.1602821,0.2169272,0.0002354663
1.147034,-0.3934163,-0.2826941,-0.1323515,0.4932503,0.1318364
1.278055,-0.4614526,-0.2664087,-0.2759549,0.6708567,0.1745732
1.333981,-0.462379,-0.1907412,-0.5793467,0.5762767,0.06106714
1.406525,-0.5340651,-0.1233326,-0.69207,0.3499383,-0.0657541
1.510499,-0.6415263,-0.1854837,-0.4261539,0.2408832,-0.00957766
1.502583,-0.6317245,-0.3021677,-0.2097973,0.2970211,0.3091187
1.413378,-0.6355272,-0.3205791,-0.2246056,0.5839426,0.6817752
1.327076,-0.7197812,-0.3057776,-0.304819,0.8907037,0.7407478
1.13682,-0.7234256,-0.1765976,-0.2561898,0.8205732,0.5116585
0.9575198,-0.6997141,0.06311173,-0.05752998,0.4584149,0.4095586
0.9926737,-0.6422824,0.08464769,0.1533103,0.02066941,0.4289083
1.084474,-0.5116782,-0.01715089,0.1948433,-0.121743,0.3922329
1.068576,-0.4023844,-0.02497642,0.08543311,0.02772249,0.3944056
0.9880731,-0.33115,-0.06611703,0.05623324,0.03227243,0.3461465
0.8393545,-0.3329891,-0.1096126,-0.06664127,0.1568592,0.2418494
0.6603466,-0.3443589,-0.09758319,-0.1931659,0.3653978,0.1600161
0.5498342,-0.3180406,-0.06937052,-0.07476685,0.312741,0.04368908
0.4548401,-0.2945833,-0.0009647767,0.01658587,0.2536528,0.01964706
0.4095784,-0.2244814,0.02453329,0.1554871,0.1975018,0.0932386
0.4515355,-0.201882,-0.001369552,0.2419888,0.1386132,0.1489354
0.4698464,-0.223604,0.009226899,0.1437621,0.1169659,0.159787
0.5952676,-0.1647943,0.02199807,0.08936623,0.06162323,0.1254756
0.8348701,-0.1226942,0.02522417,-0.20715,0.1390047,0.1115165
0.9107865,-0.1481265,0.03307577,-0.544247,0.1699479,0.09243132
0.8919642,-0.2198405,0.053424,-0.5888895,0.0312186,0.0736431
0.9833025,-0.3480198,0.1083786,-0.6340665,-0.03628401,0.05649318
1.076945,-0.4582,0.1363517,-0.5497064,0.02734633,-0.02760304
1.072755,-0.4466302,0.1175632,-0.3578798,0.1927401,-0.1824666
1.050454,-0.346676,0.1213137,-0.3263276,0.2823915,-0.4241042
0.9632422,-0.2380445,0.14873,-0.4131274,0.2192588,-0.5492639
0.8564306,-0.12765,0.1622671,-0.571645,0.1067851,-0.4439376
0.9067105,-0.1277027,0.1575715,-0.6963706,-0.05230416,-0.3379104
0.9769858,-0.1719372,0.1382401,-0.7926625,-0.1838555,-0.196632
1.020364,-0.1964653,0.07579682,-0.8101754,-0.2347635,-0.02178277
1.210902,-0.4509667,-0.05165343,-0.5184665,-0.1856397,-0.03234998
1.462414,-0.7002053,-0.1341729,-0.01449888,-0.07601222,-0.1273947
1.525599,-0.6201866,-0.09075294,0.1990101,-0.09169849,-0.2356587
1.308081,-0.4203373,-0.0734556,-0.2164843,-0.3550008,-0.2575855
1.073814,-0.303306,-0.1402124,-0.7612474,-0.6451695,0.145239
1.064039,-0.4473571,-0.172508,-0.8179608,-0.558776,0.6541063
1.107149,-0.6941615,-0.1859589,-0.5140542,-0.3877172,0.6493292
1.076367,-0.7242081,-0.2144832,-0.2939716,-0.4147661,0.3855824
1.072844,-0.7124595,-0.2606185,-0.4406641,-0.2398424,0.2998668
1.112722,-0.6524178,-0.3204247,-0.6491374,-0.06259479,0.2388225
1.12848,-0.4493251,-0.3057005,-0.6521233,-0.1162659,0.1266984
1.081714,-0.3684794,-0.2535182,-0.7221448,-0.1811938,0.04736989
0.9679216,-0.3706194,-0.2153423,-0.7373725,-0.3411617,-0.05288613
0.8425519,-0.3289929,-0.1662531,-0.6206239,-0.3911313,-0.0853691
0.7724834,-0.3122523,-0.16748,-0.6172967,-0.2777968,-0.05706605
0.7302795,-0.2398902,-0.192569,-0.6635458,-0.2117945,-0.03291624
0.6576595,-0.1694657,-0.2053736,-0.8059198,-0.01363553,0.04668413
0.580952,-0.1856937,-0.2189898,-0.9609862,0.1608197,0.05538684
0.5343851,-0.1942948,-0.1957468,-0.9608577,0.1572671,0.02797269
0.5167562,-0.2099556,-0.187108,-0.9438905,0.09919521,0.09509514
0.5714276,-0.2231132,-0.212501,-0.9022293,0.03165957,0.2070878
0.7047434,-0.2538429,-0.2446568,-0.8374071,0.1361857,0.3433558
0.8493254,-0.3576049,-0.2760151,-0.7025579,0.3227802,0.3576903
0.9419791,-0.4251283,-0.2553366,-0.4593701,0.3838601,0.244718
0.953487,-0.4243644,-0.2270167,-0.2546467,0.3150408,0.1801639
0.9655378,-0.3835122,-0.2282665,-0.0793524,0.2192894,0.1597289
1.015024,-0.3161529,-0.2238709,-0.01254002,0.2628172,0.1596982
1.022779,-0.2758194,-0.2255186,-0.06467728,0.2703755,0.1077469
1.013387,-0.2336109,-0.2186282,-0.1004053,0.1785607,-0.001513766
1.024702,-0.1822263,-0.2037833,-0.1335375,0.1442828,-0.0430603
1.029452,-0.1626711,-0.2082367,-0.1274297,0.09409289,-0.08522387
1.018377,-0.1406073,-0.2253434,-0.11045,0.1171329,-0.1778539
1.007941,-0.1245709,-0.2502495,-0.1267211,0.2478614,-0.2205897
1.038418,-0.2033619,-0.2663872,-0.1552486,0.4024978,-0.1965034
1.075625,-0.3320311,-0.2754829,-0.2793999,0.577417,-0.08714433
1.089738,-0.4068511,-0.2878972,-0.5594699,0.5875434,0.116746
1.167458,-0.502298,-0.2803497,-0.8716234,0.4625174,0.2483579
1.340364,-0.6775932,-0.2600528,-0.8743602,0.3679532,0.2129951
1.449597,-0.8434088,-0.2511097,-0.3882125,0.3316191,0.1833541
1.352001,-0.8719725,-0.2533777,0.2213503,0.3759809,0.2480198
1.166275,-0.7395394,-0.2596796,0.3582893,0.3818605,0.3612922
1.055513,-0.627733,-0.2495423,0.04620408,0.3905382,0.4755647
1.072961,-0.6120473,-0.2152175,-0.1532452,0.4664488,0.3824656
1.156215,-0.590113,-0.1417553,-0.1745236,0.4685741,0.1851076
1.148812,-0.5322985,-0.04029264,-0.160835,0.3607886,0.1779464
1.106209,-0.4477303,-0.01995993,-0.09943923,0.1695657,0.1197703
1.054906,-0.3939461,-0.07247634,-0.1311592,0.09059665,0.0009586674
0.9157842,-0.3825326,-0.09821797,-0.1850333,0.1624079,0.04485144
0.8109879,-0.3703602,-0.1469407,-0.2301553,0.2309308,0.00189424
0.7020253,-0.3792812,-0.1738433,-0.3146857,0.379259,-0.1256507
0.5405342,-0.367639,-0.09049942,-0.2554237,0.4447114,-0.1780926
0.4387817,-0.3256599,-0.01900315,-0.122402,0.3329344,-0.1987338
0.408656,-0.2910205,-0.008084031,0.03307724,0.2449608,-0.1249371
0.4685568,-0.2525455,-0.01416877,0.1536259,0.1590879,-0.00269535
0.5134292,-0.2354232,-0.02221163,0.05322185,0.1768973,0.1079218
0.5658444,-0.2343635,-0.006750114,-0.06937071,0.2463851,0.1469279
0.725728,-0.2407878,-5.200783e-05,-0.2068229,0.1509366,0.07458882
0.8150688,-0.2576334,0.009957904,-0.3998781,0.1090895,0.03386391
0.8700184,-0.2784444,0.02157457,-0.4273125,0.145685,0.01283158
0.9556102,-0.308658,0.008858886,-0.4379673,0.09962157,0.007716937
0.982414,-0.3210688,0.0199055,-0.4655803,0.08284947,0.007843421
0.9930533,-0.3414482,0.02108617,-0.4015495,0.1109506,-0.1479563
0.9869381,-0.3523012,0.01850923,-0.3457377,0.1333358,-0.3374578
0.979499,-0.3201733,0.05757347,-0.2551945,0.1285111,-0.4269619
0.9646095,-0.3001936,0.09038881,-0.1702686,0.08672809,-0.4831653
0.9351432,-0.2587097,0.09663337,-0.1525422,-0.0140362,-0.4117668
0.9645546,-0.2357909,0.04835436,-0.08344053,-0.2676168,-0.1653853
1.070817,-0.3276351,-0.04023541,0.109876,-0.4168495,0.03857798
1.303127,-0.4878883,-0.1284135,0.4034527,-0.1893561,0.05833839
1.49811,-0.6153429,-0.1911425,0.6480909,0.005024391,-0.03540936
1.411651,-0.5724219,-0.1673206,0.6763697,-0.1280898,-0.1087534
1.27078,-0.4568969,-0.1148139,0.4318424,-0.2663612,-0.06568483
1.236238,-0.4603453,-0.09228009,0.1177813,-0.4016185,-0.006974671
1.120687,-0.5421962,-0.08761155,0.09192952,-0.6805265,0.006062381
1.027912,-0.6873946,-0.1170431,0.4545015,-0.7676291,0.04510927
1.0525,-0.7499961,-0.1494467,0.8683228,-0.7208916,0.04616147
1.061125,-0.6504292,-0.2069554,0.8758268,-0.8310919,0.01083783
1.119339,-0.6076226,-0.2792918,0.6634592,-0.8610975,-0.09697557
1.154631,-0.5803855,-0.2836315,0.5602978,-0.7588746,-0.3218259
1.080903,-0.5277096,-0.2607248,0.4610739,-0.622688,-0.4792451
1.005596,-0.5242766,-0.2222223,0.5746616,-0.4496243,-0.5743599
0.8876706,-0.4648748,-0.1578983,0.879191,-0.3897138,-0.6654137
0.7753101,-0.38136,-0.1435337,1.003614,-0.4142295,-0.6623133
0.6971986,-0.3123107,-0.1734435,1.038643,-0.3860782,-0.5849513
0.6008314,-0.2383127,-0.1830709,0.9521849,-0.3031041,-0.4909312
0.5315313,-0.1909623,-0.1717405,0.7608985,-0.2883171,-0.4397633
0.4766633,-0.142003,-0.1725619,0.6524106,-0.3895593,-0.419045
0.4930669,-0.1383517,-0.1833306,0.5194115,-0.473186,-0.3341904
0.5785765,-0.182539,-0.199996,0.4738659,-0.4816083,-0.1752733
0.6655974,-0.2072947,-0.231107,0.5441103,-0.3289114,-0.03033033
0.7954021,-0.2090435,-0.2620057,0.5455828,-0.08117403,0.01045183
0.9161396,-0.2061116,-0.2911332,0.5287326,0.01432354,-0.007236575
0.9284994,-0.2329697,-0.285937,0.4750803,0.004303921,0.009123699
0.9114408,-0.2640149,-0.2492631,0.4098808,0.01661835,0.02941982
0.9980963,-0.2930449,-0.2458417,0.4261121,0.05051039,0.01460503
1.025206,-0.2987974,-0.239899,0.5185509,0.051853,0.0182384
0.9633522,-0.2490466,-0.2285315,0.6306283,-0.0007756256,0.05005455
1.001153,-0.2375379,-0.2488669,0.6377621,-0.08150062,0.100532
0.9928854,-0.2587646,-0.2579919,0.6099588,-0.1828356,0.1881738
0.9665407,-0.2684163,-0.2685005,0.6464834,-0.2150108,0.2299421
0.9982741,-0.2934794,-0.2723988,0.7125066,-0.1886855,0.2172163
0.9585976,-0.3180457,-0.252998,0.844167,-0.156216,0.2064627
0.953708,-0.3323684,-0.2472028,0.9977365,-0.1126994,0.1128152
0.9426402,-0.2978154,-0.2356346,1.071034,-0.1966417,-0.0608149
0.9182633,-0.2615171,-0.2593196,1.10885,-0.3671576,-0.1765044
0.9933308,-0.2919855,-0.3237864,1.218559,-0.4171957,-0.1750508
1.087897,-0.3531145,-0.3480997,1.363816,-0.3180189,-0.0689267
1.214387,-0.4636709,-0.3572991,1.382949,-0.157232,0.08608272
1.267374,-0.5340882,-0.337322,1.243331,-0.1424955,0.1087982
1.221036,-0.5263949,-0.2415188,1.157737,-0.4229217,-0.09025338
1.239274,-0.6296008,-0.1376321,1.348674,-0.6879877,-0.2524114
1.242036,-0.7593103,-0.1164125,1.718006,-0.5391486,-0.1809857
1.208132,-0.7070448,-0.1461851,1.907416,-0.2956387,-0.002330496
1.191425,-0.5875476,-0.1240442,1.695783,-0.2236536,0.1725986
1.165688,-0.4767923,-0.09099784,1.325878,-0.06352617,0.2926636
1.144456,-0.3826745,-0.04978399,1.136307,-0.1669226,0.2500484
1.130181,-0.4759332,0.0375591,1.098027,-0.5494059,0.04929378
1.129763,-0.5986448,0.05147944,1.136357,-0.5704047,-0.1844439
1.114877,-0.5474244,-0.0005879048,1.155846,-0.4902538,-0.316149
1.072148,-0.5352373,-0.03397121,1.089678,-0.4740638,-0.3266508
0.9798483,-0.5081076,-0.03896797,1.105918,-0.389376,-0.3977547
0.8028071,-0.3826774,-0.02680724,1.199206,-0.4482013,-0.5174831
0.6697855,-0.3495427,-0.0244598,1.321134,-0.4779199,-0.5904052
0.6034391,-0.3303746,0.02568865,1.449868,-0.4929464,-0.6825109
0.4995603,-0.2764516,0.06267045,1.508072,-0.5777023,-0.66099
0.4380781,-0.2695465,0.03023661,1.58986,-0.5992784,-0.4965233
0.4447805,-0.2872466,0.02713417,1.609568,-0.6367477,-0.3092102
1.404612,-0.2497357,-0.3233875,-0.3472956,0.3210857,0.05156107
1.33193,-0.4727087,-0.3363806,-0.538532,0.4055999,0.3276244
1.311215,-0.6804053,-0.2970521,-0.6002066,0.3802769,0.4447861
1.309528,-0.8391024,-0.2332083,-0.4796556,0.2303872,0.1282385
1.302935,-0.8739262,-0.2247531,-0.1652296,0.1514291,-0.2121667
1.204243,-0.7649113,-0.2367888,0.313986,0.1184765,-0.2200189
1.096417,-0.6242523,-0.2295044,0.5479282,0.08608002,0.01787084
1.13392,-0.4863557,-0.2177204,0.4020823,0.1576115,0.3008482
1.214843,-0.3710346,-0.2068537,0.1477802,0.372318,0.3547067
1.239538,-0.361103,-0.1924518,-0.1590527,0.5545267,0.2246354
1.182542,-0.3988748,-0.1362961,-0.3275924,0.3296815,0.1562718
1.047702,-0.4191796,-0.07284682,-0.1664451,-0.1247437,0.1431096
0.9287509,-0.4474868,-0.09533455,-0.04887799,-0.2235111,0.1179147
0.8089667,-0.430284,-0.1401682,0.007652785,-0.006050482,0.1020907
0.6203233,-0.3468987,-0.1199288,0.1765636,0.2275838,0.09220675
0.4662756,-0.2565423,-0.08208053,0.1873099,0.3038923,0.08479589
0.4323892,-0.1726071,-0.03597535,0.2146712,0.1979792,0.1200512
0.4384823,-0.1370287,-0.003477606,0.2758705,0.1270173,0.1961872
0.4317099,-0.1545214,-0.02036198,0.1369951,0.05343588,0.2719673
0.4685775,-0.1560259,-0.01092314,0.009947247,-0.04943445,0.2941855
0.5757838,-0.1724431,0.00130407,-0.1722453,0.01486134,0.2438237
0.665184,-0.2090663,-0.01427658,-0.3162754,0.140782,0.2130705
0.7018684,-0.2399873,-0.001984443,-0.2794168,0.2158567,0.2207564
0.8156278,-0.3233069,-0.00122702,-0.2860914,0.3161598,0.1883236
0.9581346,-0.388701,0.0008629014,-0.1698894,0.3941235,0.07712921
0.9946436,-0.3575651,0.02612525,0.1086447,0.4732667,-0.1664909
1.099987,-0.3311993,0.07062401,0.3015205,0.5278123,-0.4285948
1.239959,-0.2916076,0.1454942,0.305763,0.1910483,-0.4451736
1.24682,-0.149512,0.1432844,0.1800056,-0.294702,-0.2284017
1.326399,-0.1046769,0.05471508,-0.00271242,-0.2566974,0.0427726
1.383246,-0.3866165,-0.04739337,-0.1844284,-0.07922972,0.3024933
1.290035,-0.846277,-0.1171021,0.146568,-0.07007788,0.3767108
1.291475,-1.029243,-0.08666725,0.6170127,0.03120256,0.1270047
1.224621,-0.6782371,-0.08213107,0.2408321,-0.299689,-0.09289156
0.9535177,-0.2749312,-0.1782255,-0.36906,-0.9009709,0.03254147
0.7692844,-0.315386,-0.2361892,-0.7001643,-0.8712847,0.2116942
0.8696212,-0.5511572,-0.2565846,-0.8114959,-0.6095324,0.2258913
1.100156,-0.7621004,-0.2955793,-0.3868112,-0.4232035,0.1463857
1.141033,-0.8535116,-0.3038214,0.0188484,-0.1130623,-0.07802056
1.090175,-0.685009,-0.2356674,0.2070443,-0.1550108,-0.2923306
1.031825,-0.5040959,-0.1461982,0.4530197,-0.4495332,-0.3320698
0.9079077,-0.3968659,-0.1333087,0.391865,-0.5147973,-0.3076488
0.8734943,-0.2758598,-0.1840703,0.2512642,-0.4261361,-0.2163376
0.7964169,-0.2646469,-0.2359172,0.1451761,-0.1935432,-0.1278282
0.6569874,-0.2743789,-0.2333757,-0.04538262,-0.03966179,-0.1094747
0.5582066,-0.2704334,-0.1606687,-0.02398667,-0.1315513,-0.1409468
0.4290647,-0.3106676,-0.09177536,0.09970694,-0.2559688,-0.2267536
0.4351102,-0.2944302,-0.08172456,0.31611,-0.4268947,-0.2056475
0.5331038,-0.267746,-0.1121808,0.5380931,-0.5242878,-0.08807994
0.5839836,-0.2311155,-0.1277728,0.5366612,-0.4782994,0.05471834
0.652929,-0.1781373,-0.1410848,0.4957533,-0.4846769,0.1562898
0.7312265,-0.2091677,-0.1603577,0.4378956,-0.45229,0.1018384
0.8876497,-0.2262227,-0.1394612,0.3562517,-0.3294862,0.01830671
1.121866,-0.1808978,-0.1365441,0.1775097,-0.2043015,-0.191581
1.292732,-0.1815717,-0.1552215,-0.02755375,-0.07704228,-0.4629114
1.349009,-0.2778388,-0.1595597,0.01939478,0.06318425,-0.4765762
1.369785,-0.4458599,-0.1900741,0.03866599,0.1971608,-0.4397626
1.39003,-0.5574603,-0.2307015,-0.04272706,0.2230687,-0.4468878
1.375175,-0.5674048,-0.28875,-0.01264611,0.2215459,-0.324525
1.382111,-0.604104,-0.330183,0.02641352,0.315521,-0.1253559
1.297752,-0.6607908,-0.3052767,0.1396231,0.3524086,0.003097809
1.094036,-0.6165198,-0.2741413,0.2562991,0.2756444,0.02820379
1.043308,-0.5268115,-0.2393771,0.1552211,0.2235181,0.03917651
1.115916,-0.4698222,-0.2012089,-0.03089205,0.2373643,-0.02249763
1.128861,-0.4139912,-0.1721195,-0.1727123,0.1871605,-0.09850776
1.077084,-0.3893146,-0.1409638,-0.221459,0.01514612,-0.0435784
1.029858,-0.3925235,-0.1562836,-0.1544157,-0.06097611,-0.005625946
1.026275,-0.3713497,-0.1972492,-0.1487564,0.09607314,-0.02528086
0.9448657,-0.3595753,-0.2167005,-0.2251354,0.3190289,-0.03717067
0.7726325,-0.3514697,-0.2128472,-0.2202572,0.4440736,-0.05107647
0.6324326,-0.321198,-0.155139,-0.115988,0.4986626,0.001122048
0.5630119,-0.2897356,-0.08907967,-0.008509887,0.5757004,0.09204343
0.5710085,-0.269761,-0.06583812,-0.06304493,0.6851466,0.1107055
0.5819443,-0.2822569,-0.02298128,-0.1523418,0.7387753,0.06156625
0.558501,-0.286606,0.04724216,-0.08963025,0.6100527,-0.02975673
0.5585444,-0.2441736,0.06635507,-0.1067763,0.3892422,-0.1492307
0.606846,-0.1968192,0.02552365,-0.1586643,0.2764606,-0.1664136
0.7231891,-0.1757897,-0.02377322,-0.1075108,0.1552764,-0.0563773
0.8786169,-0.2198185,-0.06161813,-0.0709487,0.04856764,-0.007806578
1.011745,-0.3035151,-0.04944546,0.07741268,0.2538076,-0.08484654
1.089085,-0.3263566,0.03123891,0.2033038,0.4895504,-0.2441255
1.091872,-0.2598986,0.1054768,0.08028001,0.2863561,-0.374771
1.106946,-0.2102113,0.1032193,-0.018293,-0.1339942,-0.2888735
1.275698,-0.3357135,-0.01928781,0.06837106,-0.4218958,-0.04460439
1.494191,-0.5256463,-0.1526356,0.2793253,-0.4589756,0.1617305
1.489951,-0.5421878,-0.1346235,0.4233315,-0.3480735,0.2195325
1.292222,-0.439519,-0.1103686,0.1256075,-0.4570433,0.1634389
1.135317,-0.3759776,-0.1743019,-0.3736146,-0.6025226,0.2351537
1.08376,-0.4084204,-0.190989,-0.4260393,-0.5438733,0.4201383
1.08033,-0.4763074,-0.2067583,-0.2930087,-0.5266253,0.5006448
1.047675,-0.5186842,-0.2722144,-0.3717678,-0.4047131,0.5053709
1.027733,-0.5547704,-0.288192,-0.3783032,-0.2344168,0.4290234
1.054779,-0.5190355,-0.2536632,-0.3545669,-0.1971376,0.2930078
0.9956366,-0.4530881,-0.1971664,-0.3371411,-0.1804018,0.1643982
0.923639,-0.4475639,-0.1363919,-0.1619241,-0.3598255,0.006477964
0.8977777,-0.4274297,-0.150233,-0.03069792,-0.5332682,-0.03975971
0.7974676,-0.3997021,-0.1945858,0.02532828,-0.4828293,0.005884013
0.7410112,-0.3709418,-0.189812,0.04100611,-0.3948943,-0.04319557
0.7169338,-0.3325687,-0.2047008,-0.02083343,-0.3109252,-0.1241154
0.6186097,-0.2998067,-0.2168145,-0.08416159,-0.327133,-0.1568144
0.5918169,-0.2406041,-0.1987157,-0.1448425,-0.3334128,-0.1053779
0.611505,-0.2424572,-0.2196574,-0.132381,-0.2388959,-0.02187862
0.6110625,-0.2982389,-0.2117914,-0.02751276,-0.1639356,-0.001177725
0.6461321,-0.3299251,-0.1740039,0.1625351,-0.1500329,0.01776056
0.6586426,-0.3479552,-0.1675563,0.4145694,-0.2623356,0.08439329
0.6760254,-0.3101899,-0.1666002,0.5895885,-0.3216667,0.1723282
0.7876742,-0.2503943,-0.2105568,0.6454895,-0.2041918,0.1915672
0.9208969,-0.1760841,-0.2518735,0.4681036,-0.07520728,0.08135814
1.015545,-0.100332,-0.2401852,0.1140029,-0.05451206,-0.08665865
1.133252,-0.1017903,-0.2399964,-0.07379253,-0.09484109,-0.252253
1.244936,-0.144783,-0.2456835,-0.06210324,-0.04011778,-0.3707241
1.258349,-0.2577663,-0.2683338,-0.09603249,0.1092481,-0.3863264
1.251488,-0.403175,-0.3235549,-0.3388494,0.316469,-0.3227595
1.286229,-0.5192308,-0.3599018,-0.6470529,0.4056635,-0.2322361
1.336731,-0.7369178,-0.3319789,-0.6365009,0.2647113,-0.1087297
1.425033,-1.005262,-0.2857538,-0.1364024,0.2566655,-0.02454776
1.409281,-1.085226,-0.2740481,0.3656246,0.4680879,-0.06948667
1.20972,-0.8987154,-0.2104973,0.2775851,0.5655546,-0.09331843
1.051355,-0.6399314,-0.1109806,0.02137586,0.3252668,-0.02366099
1.051618,-0.4858919,-0.06637393,-0.0005864294,0.02096306,0.0252228
1.104203,-0.4173747,-0.05399425,-0.1038387,0.05445167,0.07994512
1.078191,-0.4228922,-0.06049881,-0.0789636,-0.003958414,0.1203947
1.01542,-0.4180585,-0.06709311,0.09767139,-0.2190139,0.09607838
0.9508151,-0.3994626,-0.09995573,0.1068239,-0.06026092,0.02478068
0.7790098,-0.4281452,-0.1542569,0.2089968,0.1018131,-0.1647762
0.5892967,-0.3752758,-0.148096,0.2836215,0.08387397,-0.3595279
0.473748,-0.2895664,-0.1230132,0.2434176,0.09035131,-0.3809843
0.4564851,-0.2666146,-0.1067246,0.3509045,-0.001619966,-0.2941302
0.5069088,-0.2589496,-0.08125802,0.3886221,0.04491034,-0.1882665
0.4941364,-0.2706454,-0.05972897,0.3837332,0.1453423,-0.1309285
0.5528169,-0.240443,-0.03047413,0.4003569,0.09994717,-0.1345795
0.6863218,-0.1987488,-0.02757488,0.2955186,0.1294746,-0.1398511
0.7522406,-0.2076419,-0.0452748,0.1992875,0.03529671,-0.1288561
0.820245,-0.2345031,-0.05231787,0.1367659,-0.172227,-0.07108304
0.889528,-0.3237265,-0.0799287,0.1659131,-0.2540051,0.04066623
1.016423,-0.4440987,-0.09638386,0.3656982,-0.2323882,0.07134114
1.138951,-0.5070031,-0.07845894,0.7532689,-0.05449275,-0.2077137
1.130312,-0.4636834,-0.05428983,1.145541,0.06387025,-0.6753749
1.110766,-0.3490614,-0.01666171,1.168687,-0.09402153,-0.8863466
1.124627,-0.2808049,-0.01453835,1.115907,-0.4499349,-0.7838442
1.228361,-0.2984858,-0.1053075,1.250911,-0.7149352,-0.487009
1.3367,-0.4205429,-0.2122067,1.282751,-0.62107,-0.08173897
1.224232,-0.5742266,-0.2176643,1.194728,-0.5257221,0.03832913
1.035424,-0.6547019,-0.1273636,1.086451,-0.6033127,-0.1420174
0.9180253,-0.6963021,-0.06066719,1.059625,-0.6043606,-0.3633645
0.851982,-0.7068261,-0.07441837,1.206594,-0.72116,-0.7706383
0.9196009,-0.6178656,-0.1354287,1.44547,-0.9358016,-0.9951819
1.034359,-0.456449,-0.2160076,1.66121,-0.9460483,-0.7212462
1.039072,-0.4361419,-0.2667124,1.72076,-0.8998926,-0.4958999
1.071617,-0.511324,-0.2709027,1.753213,-0.8978697,-0.3310892
1.147684,-0.4959073,-0.2861402,1.952963,-0.930416,-0.228792
1.110093,-0.5290479,-0.3029158,2.137221,-1.04896,-0.4454382
1.049588,-0.5193725,-0.3056314,2.180688,-1.099716,-0.4957612
1.004224,-0.3765109,-0.3544349,2.185649,-1.117782,-0.3850079
0.9428048,-0.2989657,-0.3803473,2.117475,-1.182116,-0.4141414
0.8822204,-0.2468387,-0.3088809,1.913797,-1.236218,-0.4799958
0.7715569,-0.1985894,-0.2463532,1.700571,-1.262572,-0.6499217
0.7401333,-0.1916701,-0.2238968,1.554163,-0.9974944,-0.7019892
0.7883827,-0.2007062,-0.2050944,1.418647,-0.5087607,-0.6170562
0.7431597,-0.1875403,-0.1825247,1.277701,-0.2380233,-0.5864694
0.7113371,-0.1171765,-0.1316484,1.147132,-0.2210649,-0.4764157
0.6770294,-0.0861913,-0.09083611,1.044596,-0.3539431,-0.4245918
0.5564566,-0.07225188,-0.08708925,0.9678107,-0.5414013,-0.3933383
0.5432783,-0.109288,-0.1318385,0.9108596,-0.5849501,-0.2647262
0.6604198,-0.2049356,-0.2176017,0.8899248,-0.4647415,-0.2582937
0.7828058,-0.1913213,-0.2674177,0.9194081,-0.3618631,-0.3586936
0.8772843,-0.1778991,-0.2750598,0.9969389,-0.3077353,-0.4139084
0.9680594,-0.1658422,-0.2687331,1.016748,-0.148545,-0.3632269
1.102197,-0.07293569,-0.2543306,0.8394474,0.1152835,-0.321484
1.157605,-0.04812111,-0.2211917,0.5677763,0.2665798,-0.3991137
1.122436,-0.1202519,-0.1400039,0.5308348,0.1568017,-0.4399653
1.150248,-0.2522959,-0.07746259,0.7641338,-0.002101197,-0.3538676
1.205271,-0.3537914,-0.1114955,0.9003012,-0.03555207,-0.1387155
1.297756,-0.390515,-0.2121618,0.7103631,-0.07288529,0.1584972
1.422964,-0.4646374,-0.287299,0.2672248,-0.1123401,0.2452797
1.448551,-0.6271901,-0.2581727,0.01602342,-0.2407743,0.006925559
1.39235,-0.8694838,-0.212486,0.4994179,-0.4173231,-0.1432067
1.299833,-0.9614252,-0.2523206,1.247782,-0.1984995,0.01466213
1.201346,-0.7517958,-0.2773853,1.328021,0.1739677,0.1659585
1.167729,-0.4853728,-0.2719933,1.015263,0.2397184,0.2361045
1.155718,-0.386622,-0.2747987,0.7784872,0.257028,0.3836479
1.075438,-0.4318221,-0.1864843,0.4640324,0.2366046,0.4515939
0.9677323,-0.4900269,-0.06513992,0.4532741,0.007442997,0.3264028
0.9060244,-0.497879,-0.04333048,0.7837874,-0.2454083,0.2307171
0.8720812,-0.4427804,-0.1300299,0.9621911,-0.3288558,0.2736824
0.8479048,-0.3294982,-0.236336,1.051406,-0.1503325,0.2744836
0.7864194,-0.2480682,-0.2237703,0.9195375,0.03223058,0.1559791
0.6741055,-0.2120638,-0.1631584,0.7064906,0.03773872,0.02636502
0.626137,-0.183745,-0.1287245,0.736244,0.0429774,-0.02021806
0.6404537,-0.2034672,-0.07414744,0.6731898,0.06184437,0.05300165
0.6327585,-0.2184252,-0.04027585,0.6259667,0.1499104,0.1108922
0.6520097,-0.1799412,-0.006753295,0.6481167,0.2637773,0.06045979
0.7376746,-0.1494117,0.02077734,0.5218397,0.2624691,0.06520174
0.8208767,-0.1257302,0.02050563,0.4159564,0.2564656,0.1563229
0.8608418,-0.13783,0.0316143,0.1975815,0.2394388,0.2211854
0.8991289,-0.2388232,0.04302484,-0.02077538,0.2104295,0.203626
0.9645871,-0.3732669,0.09298415,0.02852348,0.2306631,0.04311615
1.005183,-0.4334381,0.1396695,0.1574739,0.3091551,-0.2129231
0.9987904,-0.3656604,0.1511561,0.245349,0.3943366,-0.4543313
