accx,accy,accz,gyrox,gyroy,gyroz
1.141482,-0.4456242,-0.2519887,0.9161125,0.5150366,0.1839201
1.128473,-0.3674054,-0.2131414,0.9070301,0.5363883,0.3769053
1.102985,-0.2076743,-0.1983051,0.6582108,0.6196678,0.4415311
1.025684,-0.1246996,-0.1675369,0.3917395,0.5706505,0.370201
0.9374242,-0.03547285,-0.1509164,0.3416457,0.2456048,0.3787218
0.8727694,0.02577972,-0.05987883,0.3715011,-0.2143025,0.4603041
0.8408311,-0.1309054,0.01626891,0.374876,-0.4017066,0.5520218
0.8405053,-0.20535,-0.05335009,0.5501074,-0.1974727,0.6436426
0.8079987,-0.2369725,-0.07048871,0.6685169,-0.1305007,0.5773572
0.7715669,-0.2670879,-0.04116459,0.6802263,-0.2258912,0.4444115
0.8007976,-0.1762668,-0.06574441,0.7496685,-0.1592307,0.4027062
0.8534722,-0.1931174,-0.06450942,0.7259195,-0.01225885,0.3480535
0.8925786,-0.1724828,-0.06685714,0.6608433,0.1667751,0.315523
0.9038181,-0.1118954,-0.05899068,0.5862049,0.2664798,0.3105763
0.886462,-0.1554825,-0.03378671,0.4967567,0.1987696,0.2934042
0.8484058,-0.15254,-0.03454536,0.4895582,0.1506778,0.3186942
0.8110384,-0.2260029,-0.0172467,0.4415397,0.1172243,0.3045374
0.8231946,-0.3136174,0.01012598,0.4385515,0.1023346,0.2807655
0.8702403,-0.3100205,0.05043928,0.4945801,0.1748683,0.2484034
0.9028313,-0.3043239,0.09293306,0.4271208,0.1823029,0.1171477
0.9102192,-0.2689287,0.1091899,0.4046988,0.1419468,-0.002364535
0.923055,-0.290624,0.1478471,0.4325332,-0.02594158,-0.08892563
1.024169,-0.307187,0.1758028,0.4383491,-0.4008778,-0.1211756
1.229672,-0.2998347,0.1137224,0.5077138,-0.7180315,-0.0596078
1.396832,-0.3595797,-0.02191143,0.5556961,-1.026984,0.00377032
1.466227,-0.4010019,-0.1564661,0.5927881,-1.13123,0.07350822
1.492095,-0.4781142,-0.2748533,0.5992029,-0.6663325,0.06099743
1.432131,-0.5258067,-0.3720164,0.4661601,-0.2939016,-0.08824124
1.280898,-0.4264576,-0.361688,0.2832626,-0.4343675,-0.1960203
1.052882,-0.3054069,-0.3160092,0.1609851,-0.4509539,-0.2058556
0.8317133,-0.2621327,-0.3448849,0.1195744,-0.2626753,-0.215558
0.8518087,-0.3353974,-0.3204377,0.1604731,-0.347272,-0.3047296
0.9926508,-0.4035724,-0.2632006,0.3328503,-0.3962873,-0.4022645
0.9985618,-0.3592631,-0.2709041,0.5654179,-0.119968,-0.478732
0.9501952,-0.2897928,-0.2075426,0.6627413,0.1229693,-0.6002979
0.8513734,-0.1833478,-0.1166936,0.6609964,0.2290734,-0.6472353
0.7281117,-0.05623083,-0.1134023,0.6535768,0.1587857,-0.6255088
0.7085779,-0.03176163,-0.1191075,0.5521708,0.02137738,-0.6233657
0.6932964,-0.04656023,-0.1289195,0.3831155,-0.01720182,-0.5943786
0.6572471,-0.02247667,-0.1460102,0.2802475,-0.1733774,-0.600759
0.6740975,-0.04159133,-0.1559244,0.2205217,-0.2401474,-0.5965399
0.7257996,-0.0749271,-0.1545239,0.2132042,-0.1818243,-0.5143905
0.7801922,-0.06455203,-0.1382159,0.2941381,-0.249585,-0.4456653
0.7867708,-0.0928653,-0.1566189,0.3752776,-0.2230212,-0.4129087
0.7912502,-0.1468094,-0.1660355,0.4897964,-0.1661056,-0.4043366
0.8374625,-0.1399623,-0.156681,0.6104654,-0.1602683,-0.3651688
0.8786382,-0.08850466,-0.1648739,0.6003477,-0.1936771,-0.3005484
0.9006809,-0.02551059,-0.1579285,0.5216524,-0.3137367,-0.2605671
0.921911,0.04632185,-0.1532478,0.4157244,-0.2890343,-0.2202227
0.9702293,0.09614734,-0.1439847,0.2837095,-0.2167665,-0.2058597
1.025051,0.09762874,-0.1323971,0.1736047,-0.1444018,-0.2081306
1.099453,0.06889436,-0.1386754,0.08159601,0.03270176,-0.2361204
1.229145,0.0242325,-0.1426993,0.05817351,0.1677362,-0.2910141
1.359705,-0.0560596,-0.1602374,0.1442626,0.3289567,-0.2825705
1.433776,-0.1689271,-0.1772756,0.2895306,0.3680579,-0.2142604
1.446703,-0.2073732,-0.2068499,0.3241564,0.1094338,-0.07335876
1.473917,-0.1276889,-0.3083304,0.06813774,-0.1295026,0.04147916
1.530731,-0.1044274,-0.4276049,-0.2280316,-0.1468376,-0.07139219
1.5029,-0.2499474,-0.433585,-0.1806391,0.0806094,-0.1686443
1.32144,-0.4190465,-0.3443519,0.0108615,0.3562893,0.04712642
1.082084,-0.4398127,-0.2865523,0.1359161,0.3846376,0.3296885
1.019926,-0.3852266,-0.2521016,0.3477322,0.316936,0.4517642
1.09515,-0.3723754,-0.2425209,0.4599855,0.3180407,0.4621534
1.073057,-0.2985731,-0.2204764,0.3751328,0.2653448,0.3668526
1.042312,-0.1690456,-0.1087605,0.3343764,0.1346812,0.3153506
1.02371,-0.1105903,-0.08046255,0.267911,0.01751898,0.4458797
0.8874182,-0.09193298,-0.1402812,0.1807151,-0.01033258,0.5543312
0.7584502,-0.1100866,-0.1339376,0.161055,0.003956942,0.4986415
0.6827893,-0.1593897,-0.1186843,0.1289065,-0.02551596,0.4322052
0.6348223,-0.1954571,-0.08919239,0.1764693,0.0001638801,0.4440803
0.6614836,-0.2429023,-0.06074133,0.3042997,0.1081466,0.4298523
0.6663146,-0.2460404,-0.06734241,0.3814676,0.1774602,0.3799776
0.6611267,-0.1886739,-0.05150188,0.377525,0.2030611,0.3013906
0.7127464,-0.1327138,-0.05174561,0.3011659,0.1936688,0.2096894
0.7549917,-0.1052158,-0.07372337,0.2041459,0.1810434,0.2313748
0.7919228,-0.1614726,-0.08191999,0.1216065,0.1936855,0.2517032
0.815858,-0.2643655,-0.05694789,0.1166976,0.1743004,0.2155947
0.8577533,-0.3382682,0.0009426387,0.1915539,0.1723643,0.2216988
0.9742525,-0.3544787,0.03206268,0.2268918,0.1835228,0.1495152
1.053896,-0.3054582,0.04364643,0.1946351,0.1626598,0.02955824
1.06393,-0.28746,0.05805545,0.1421456,0.1382268,-0.02817774
1.087163,-0.3089521,0.07488468,0.1192112,0.05389898,-0.03997116
1.153717,-0.3053559,0.08454464,0.1252176,-0.08655126,-0.04878068
1.269881,-0.3047829,0.05337271,0.1148298,-0.3098497,-0.09782411
1.372235,-0.3251493,-0.02112075,0.1265464,-0.5196538,-0.07839661
1.427706,-0.4111482,-0.1465963,0.2256907,-0.4180673,-0.04497764
1.454384,-0.5130435,-0.2383166,0.3294172,-0.1856187,-0.1063438
1.344576,-0.4685046,-0.2310159,0.2675456,-0.1375998,-0.1600244
1.105135,-0.3206414,-0.2439076,0.1081218,-0.2470601,-0.2190487
0.9630425,-0.2337515,-0.2941576,-0.02489066,-0.4004172,-0.2559816
0.9450579,-0.2711738,-0.3249882,-0.1500999,-0.3843916,-0.253174
0.9272722,-0.3651157,-0.336259,-0.108365,-0.3045046,-0.306199
0.9475936,-0.397118,-0.2828148,0.1110895,-0.2751265,-0.3977594
1.001229,-0.3825575,-0.2118343,0.3409256,-0.06733211,-0.5550389
0.9692782,-0.3547341,-0.198188,0.5510862,0.0525991,-0.6926625
0.873449,-0.2394595,-0.1878099,0.6051851,0.01339449,-0.6628658
0.7896157,-0.09449505,-0.1499933,0.596857,0.09213978,-0.5769266
0.7434744,-0.07857218,-0.1314247,0.6232724,0.03488966,-0.4872609
0.7526963,-0.1136327,-0.140206,0.5372662,-0.1087239,-0.3954106
0.7355958,-0.05105468,-0.1253179,0.484645,-0.1775671,-0.4022722
0.7170605,-0.02063687,-0.1085871,0.4198994,-0.2604637,-0.4408196
0.7705297,-0.0618509,-0.1241441,0.271466,-0.2912893,-0.4282397
0.7802221,-0.0469533,-0.1191337,0.2423475,-0.3648373,-0.4259203
0.7758487,-0.07290547,-0.1001999,0.2802159,-0.3697577,-0.4207371
0.7949402,-0.1166249,-0.09630493,0.3707479,-0.3246443,-0.3923518
0.7967479,-0.06843416,-0.1082392,0.4459268,-0.4019921,-0.3425756
0.8655255,-0.02742278,-0.132401,0.4169927,-0.3492645,-0.2318881
0.9225914,0.02034087,-0.1273949,0.3786572,-0.3020177,-0.155381
0.9324094,0.08664836,-0.1256853,0.2558874,-0.3430312,-0.1619466
0.9876603,0.1006958,-0.1343563,0.1010652,-0.2512673,-0.1709793
1.076458,0.06616859,-0.09058598,0.06435554,-0.1772851,-0.2422609
1.19152,0.01919702,-0.0578267,0.1131307,-0.0876793,-0.3616015
1.285361,-0.002778049,-0.09561343,0.1382422,0.139649,-0.3715118
1.357312,-0.07512527,-0.1564941,0.1214878,0.3049302,-0.2863184
1.399332,-0.1813423,-0.2276374,0.1002287,0.1156538,-0.1502039
1.398984,-0.2038521,-0.3625156,-0.05466017,-0.2304477,0.04669844
1.458451,-0.2405493,-0.5019863,-0.1677157,-0.2063186,0.1248419
1.485394,-0.3628264,-0.4740453,0.04590975,0.05916677,0.06141388
1.328155,-0.427027,-0.3540942,0.3437615,0.3112383,0.1426154
1.106747,-0.3930907,-0.2960918,0.4576189,0.4162986,0.337207
1.066834,-0.359881,-0.2533829,0.4465529,0.3140416,0.4118101
1.173427,-0.284932,-0.2447174,0.4064325,0.3878771,0.3415789
1.173834,-0.1643017,-0.2157692,0.3061702,0.4262011,0.2621606
1.092802,-0.113367,-0.09382957,0.2437561,0.09540347,0.3457723
0.9873198,-0.1087697,-0.05728666,0.2441999,-0.1693471,0.4789031
0.8480895,-0.1312365,-0.1021729,0.1927808,-0.1624663,0.5497304
0.7644009,-0.1685659,-0.09891183,0.2152283,-0.10879,0.5840017
0.7074437,-0.1686408,-0.07994424,0.2716994,-0.180205,0.4955116
0.7003883,-0.1837751,-0.05964525,0.3241384,-0.1567751,0.421127
0.7433818,-0.2199097,-0.06510482,0.4426009,0.08411825,0.4186107
0.7469663,-0.2308051,-0.08651463,0.4913822,0.3526888,0.3974584
0.7490578,-0.2094749,-0.08744428,0.5108035,0.5627425,0.3861383
0.7376219,-0.1592432,-0.07067103,0.4671785,0.4856448,0.2751899
0.7265825,-0.129348,-0.03259102,0.3401468,0.3018568,0.1959207
0.7567842,-0.1549335,-0.01516316,0.2784036,0.2304124,0.2678229
0.7935808,-0.2046114,0.01011154,0.1967869,0.1130637,0.2745446
0.8780463,-0.2269514,0.04260974,0.1311012,0.1192244,0.1982453
0.9899608,-0.2281082,0.04461105,0.1091747,0.1236606,0.06584722
1.027231,-0.2629052,0.0811537,0.07501706,0.05534373,-0.06859725
0.9998787,-0.3162781,0.1056659,0.1451584,-0.04564236,-0.09914183
1.045827,-0.3146818,0.09780177,0.2370693,-0.3614628,-0.1054605
1.234635,-0.2640741,0.09767424,0.249587,-0.5382876,-0.1521088
1.434378,-0.2482834,0.0452131,0.2219659,-0.571115,-0.1809505
1.468188,-0.3119247,-0.05899006,0.1611913,-0.6757457,-0.1194423
1.340199,-0.4816463,-0.248335,0.1774107,-0.6743911,-0.08932271
1.268988,-0.67599,-0.4159945,0.3901645,-0.5826865,-0.2270356
1.269946,-0.6841373,-0.3515226,0.6455086,-0.4320796,-0.425046
1.150928,-0.5368941,-0.2864182,0.6170351,-0.40909,-0.5709391
0.946848,-0.4355664,-0.343483,0.456493,-0.5193806,-0.6719574
0.8209408,-0.4180385,-0.2965012,0.5237728,-0.5579839,-0.7437909
0.9056392,-0.4363592,-0.2498899,0.7585325,-0.578871,-0.7490894
1.02978,-0.4150832,-0.261156,1.104723,-0.5047799,-0.7887792
0.9758865,-0.3470822,-0.2260445,1.336237,-0.3567565,-0.9117998
0.9532453,-0.3113109,-0.2436986,1.354805,-0.1786362,-0.9124269
0.914001,-0.2787049,-0.2444126,1.507294,-0.03314115,-0.7952813
0.7278488,-0.2098124,-0.2035427,1.592335,-0.1359311,-0.6571269
0.6385843,-0.1550799,-0.2224059,1.540493,-0.3104899,-0.5431803
0.6307893,-0.1399166,-0.2257788,1.589287,-0.3527694,-0.5731618
0.6457361,-0.1355741,-0.2494259,1.556469,-0.1815514,-0.6727982
0.7175705,-0.1158698,-0.2682093,1.594958,0.08835833,-0.777496
0.7523297,-0.0980492,-0.2273209,1.737272,0.05662379,-0.8540724
0.803163,-0.09664106,-0.2076848,1.818285,-0.06432379,-0.8295837
0.8720676,-0.1004895,-0.1713151,1.959963,-0.01283955,-0.8376022
0.9055818,-0.07984135,-0.1691447,2.032489,-0.07130136,-0.8535592
0.9201927,-0.01141375,-0.2057845,2.023939,-0.2435629,-0.7683724
0.9084799,0.05726135,-0.1968303,1.965552,-0.4400999,-0.6654002
0.9473032,0.06421458,-0.1903043,1.869883,-0.5195034,-0.5556982
1.002415,0.03775155,-0.1338741,1.873759,-0.3980237,-0.5179788
1.001088,0.05177655,-0.03121703,1.817975,-0.4107855,-0.5893967
1.00029,0.1013051,0.03417291,1.706506,-0.4546045,-0.6422207
1.016978,0.1716972,0.06070881,1.565581,-0.3926586,-0.7067006
1.119987,0.2075068,0.03849572,1.380438,-0.3969395,-0.7518784
1.315417,0.06655281,-0.02763847,1.370891,-0.2165411,-0.6034757
1.443365,-0.1283984,-0.1495553,1.365636,0.09945891,-0.2645856
1.456677,-0.1759581,-0.2746408,1.112823,0.204198,0.04130399
1.467329,-0.1897293,-0.3682978,0.6911212,0.06569552,0.08867225
1.4552,-0.2492485,-0.4178648,0.4450266,-0.07698266,0.02718834
1.299528,-0.2697075,-0.3583117,0.6371062,-0.01459334,0.1455221
1.169552,-0.2480977,-0.3369585,0.7894166,-0.09058856,0.3293641
1.192673,-0.2370538,-0.3870723,0.6851432,-0.2096567,0.3744739
1.184184,-0.1961225,-0.3660046,0.6957319,0.08299613,0.3204416
1.093899,-0.1023297,-0.312838,0.6600595,0.2897115,0.2255291
1.001603,-0.06327291,-0.222707,0.5298088,0.04208875,0.1595951
0.9611708,-0.09800999,-0.1743484,0.5836269,-0.1471091,0.2380886
0.9525209,-0.1507307,-0.230623,0.6753314,0.03684389,0.4262682
0.9003791,-0.2043812,-0.2316847,0.7212651,0.2299164,0.5651201
0.8502156,-0.2093706,-0.1916044,0.7291197,0.29768,0.5751742
0.8269022,-0.1981837,-0.1424012,0.6852066,0.4502546,0.4999487
0.8186439,-0.2121711,-0.07764267,0.7064079,0.4691395,0.4089254
0.8316779,-0.1797016,-0.07373416,0.6399214,0.3899963,0.358093
0.8027695,-0.1132036,-0.06067008,0.4551392,0.3942933,0.3822951
0.7710292,-0.06477083,-0.02864186,0.3168295,0.3282787,0.4467627
0.7874951,-0.0436803,-0.03631713,0.171845,0.3019679,0.486002
0.7817961,-0.08927323,-0.03332109,0.05554115,0.2690497,0.4882309
0.7908269,-0.1559014,-0.03513736,-0.03091639,0.2363179,0.4768561
0.8478694,-0.2098922,-0.05367284,-0.1102465,0.45386,0.4499244
0.8726142,-0.2791888,-0.04157407,-0.1215469,0.6183262,0.3746078
0.8525616,-0.2951362,0.01302379,-0.1175939,0.468872,0.2696596
0.8370192,-0.265035,0.08505333,-0.105746,0.2929643,0.2163451
0.8856948,-0.2451624,0.09026733,-0.1387961,0.2593612,0.1750792
0.9877409,-0.2186865,0.05192509,-0.2238058,0.119876,0.08947022
1.11442,-0.2157886,0.06153849,-0.2859343,-0.1587909,0.04958568
1.280574,-0.2326356,0.03791493,-0.3336539,-0.4188141,0.06282842
1.398014,-0.2929302,-0.06605173,-0.2794395,-0.8006409,0.112918
1.439077,-0.4728867,-0.1938567,-0.1844961,-0.944953,0.1743968
1.494251,-0.6073775,-0.2830581,-0.1159042,-0.4264642,0.09109691
1.499723,-0.4979719,-0.2784658,-0.04693082,0.1039239,-0.08947374
1.286994,-0.3078959,-0.2680666,-0.2222884,0.04868477,-0.1871561
0.9643748,-0.2300673,-0.2863886,-0.509338,-0.1970186,-0.1778229
0.8327664,-0.2373238,-0.2915012,-0.5131688,-0.2683648,-0.1259468
0.8350611,-0.3037073,-0.3069397,-0.4148259,-0.3402331,-0.1371463
0.87613,-0.3632204,-0.2769101,-0.3404576,-0.2243407,-0.2451328
1.025122,-0.3682419,-0.2190619,-0.1529594,0.1243165,-0.4448511
1.053249,-0.3331145,-0.1869633,-0.02531942,0.2790909,-0.6322806
0.9143186,-0.241619,-0.1455225,-0.008021698,0.3811874,-0.6220445
0.7937389,-0.1845462,-0.106248,0.05052468,0.4048939,-0.5351251
0.681749,-0.1452524,-0.05468802,0.05931241,0.1490125,-0.5069844
0.6621069,-0.04919291,-0.03607843,-0.0182728,-0.1127114,-0.4688625
0.703441,-0.002059714,-0.1036569,-0.1354408,-0.2249421,-0.4309735
0.7102361,-0.003125745,-0.1458505,-0.2472687,-0.1799478,-0.3598513
0.7489943,-0.01462047,-0.1150796,-0.2477875,-0.2362434,-0.2889606
0.7505919,-0.04170901,-0.08461746,-0.2191563,-0.4038368,-0.280997
0.7558758,-0.06133992,-0.08497306,-0.1676806,-0.464347,-0.2124593
0.8659514,-0.07182913,-0.09569647,-0.004117879,-0.5220517,-0.07992895
0.999779,-0.02264062,-0.1332228,0.08767131,-0.4213604,0.007545201
1.081641,0.05867569,-0.1814385,-0.02287608,-0.3239577,0.01687412
1.087252,0.1152974,-0.1618674,-0.2242406,-0.3656189,-0.0006066974
1.137177,0.140986,-0.1274491,-0.4326718,-0.1832952,-0.05765049
1.246086,0.1262867,-0.1308406,-0.6273551,0.07272993,-0.2003885
1.260097,0.117402,-0.1219622,-0.7244853,0.2582995,-0.2250257
1.219532,0.07379278,-0.1240255,-0.7002035,0.3440188,-0.1368008
1.203163,-0.08974858,-0.1415459,-0.5316438,0.2883326,-0.01857794
1.24217,-0.289743,-0.1909987,-0.2562424,0.2803677,0.3549171
1.342329,-0.3362644,-0.3457565,-0.2496716,0.2420956,0.6165709
1.385092,-0.2783845,-0.4643907,-0.4929677,0.1426074,0.3687506
1.276372,-0.3138891,-0.371262,-0.5628814,0.05559556,0.1646045
1.152421,-0.3310055,-0.2482626,-0.4377129,0.01453782,0.2928055
1.206793,-0.2989558,-0.2700645,-0.1907421,0.1798949,0.44094
1.250225,-0.2851326,-0.2754094,-0.05965072,0.540882,0.5514519
1.14253,-0.1539277,-0.200646,-0.2643824,0.7550383,0.5617923
1.082183,-0.03947454,-0.1197486,-0.5015229,0.4971578,0.4198263
1.03159,-0.04879937,-0.05056674,-0.5973949,0.120897,0.3905594
0.9428251,-0.09051498,-0.07833339,-0.614341,-0.003829586,0.453645
0.8652762,-0.184039,-0.1186592,-0.5365671,-0.06909577,0.4995717
0.7963561,-0.227997,-0.09267656,-0.4265847,-0.02807044,0.5757715
0.8075106,-0.2298761,-0.1099095,-0.3868072,0.1177902,0.514917
0.7710324,-0.2650581,-0.09496432,-0.3435042,0.2077735,0.4476427
0.7266305,-0.253554,-0.0494492,-0.2093903,0.3290288,0.5018705
0.7736078,-0.2157606,-0.04865346,-0.1587413,0.3794057,0.4714234
0.7293307,-0.1723448,-0.04079306,-0.2071976,0.3019294,0.4107419
0.7264847,-0.1330371,-0.05739332,-0.2185106,0.2658647,0.3574514
0.771838,-0.1308978,-0.05971889,-0.2377638,0.2793592,0.3325794
0.7414081,-0.1419452,-0.04068509,-0.2858078,0.2783906,0.3658855
0.7874116,-0.1579914,-0.02661107,-0.3390454,0.2320628,0.3453154
0.8208662,-0.1902614,0.01710615,-0.3359096,0.2019734,0.337154
0.849511,-0.2307736,0.007825271,-0.3435983,0.2140473,0.3146625
0.9295223,-0.2349344,0.004120235,-0.4251615,0.1986194,0.2105615
0.9594446,-0.2261109,0.06298568,-0.4249614,0.1514676,0.1327844
1.023108,-0.2358043,0.07885608,-0.4008928,0.005356313,0.1052214
1.088716,-0.2449533,0.07447973,-0.4061881,-0.1847786,0.1034995
1.205161,-0.274849,0.07418448,-0.3485252,-0.3006172,0.064834
1.411841,-0.2971691,0.04985038,-0.293681,-0.4874678,0.03197202
1.479455,-0.3081499,-0.05298507,-0.2538483,-0.6580257,0.1473709
1.451585,-0.3653294,-0.2144793,-0.2055081,-0.5046554,0.2778168
1.424251,-0.4462245,-0.2689077,-0.1921963,-0.2576927,0.2324326
1.350045,-0.4583594,-0.2542244,-0.2530235,-0.2375059,0.07703485
1.237065,-0.375553,-0.2633982,-0.3685049,-0.2202757,-0.08568697
1.054823,-0.304723,-0.2509632,-0.4650997,-0.2162226,-0.202318
0.8780735,-0.2964621,-0.287385,-0.496389,-0.3455019,-0.2582859
0.8538562,-0.3361389,-0.3365101,-0.3966589,-0.3255338,-0.3665649
0.9607991,-0.3941231,-0.2648301,-0.2037774,-0.2079636,-0.5107786
1.026468,-0.3853014,-0.1920449,0.01412238,-0.03175697,-0.5697621
0.9882405,-0.3112616,-0.194953,0.2026151,0.1876893,-0.5973064
0.8954345,-0.2092617,-0.177946,0.2339425,0.1200718,-0.5764013
0.7621105,-0.1334827,-0.146326,0.2246845,0.03238659,-0.4979746
0.7151552,-0.1192548,-0.1464916,0.2376839,0.08264978,-0.4743061
0.757148,-0.1035183,-0.1713217,0.1769431,0.01882169,-0.48405
0.7513227,-0.1150113,-0.1799282,0.171928,0.02264247,-0.5299409
0.7511003,-0.1332019,-0.1414469,0.2454006,0.04293635,-0.6167007
0.7399262,-0.08140887,-0.1053414,0.310851,-0.07159846,-0.6573033
0.701215,-0.04816465,-0.1198898,0.3343205,-0.1791083,-0.623425
0.7402842,-0.06162327,-0.1363851,0.3524618,-0.2537614,-0.5370493
0.7915365,-0.05868646,-0.1244386,0.4104517,-0.2467536,-0.467277
0.8106973,-0.01913604,-0.1369723,0.3819889,-0.2399154,-0.3933699
0.8674401,0.03954986,-0.1519718,0.3461858,-0.3144305,-0.2487653
0.9507246,0.07701932,-0.1355816,0.332579,-0.3114056,-0.1396459
1.033261,0.101933,-0.1210122,0.2028467,-0.2207725,-0.1662493
1.072696,0.1280974,-0.08948437,0.08780863,-0.1196341,-0.2224342
1.059253,0.1559773,-0.06657436,-0.03000659,-0.09815133,-0.2177557
1.098338,0.1574123,-0.08227397,-0.1561007,-0.1203739,-0.2322638
1.216697,0.07551484,-0.09860514,-0.1452405,0.02425565,-0.2579952
1.318479,-0.05214642,-0.1183902,-0.05331594,0.285854,-0.2779277
1.357302,-0.1390096,-0.1235278,0.1022408,0.4529262,-0.2893562
1.377446,-0.1561014,-0.1544762,0.1386795,0.3013631,-0.151564
1.416175,-0.1671885,-0.3066182,-0.1580746,-0.1162563,0.04386048
1.410611,-0.2801776,-0.4572636,-0.4145096,-0.2906072,0.1227737
1.314599,-0.4513603,-0.4159728,-0.2171075,0.01655027,0.1656836
1.176871,-0.4907275,-0.2973126,0.1344875,0.3684975,0.2957299
1.095876,-0.4056244,-0.2640416,0.2987622,0.2919856,0.4572596
1.117653,-0.3301914,-0.2252409,0.4045234,0.2404463,0.4399348
1.084049,-0.1928325,-0.179607,0.3582817,0.4303531,0.3373418
0.977428,-0.06299425,-0.1454462,0.1987461,0.2432136,0.3494496
0.9569374,-0.09032043,-0.07725356,0.1746734,0.04248295,0.401618
0.8938586,-0.1203846,-0.09938641,0.1372286,0.002237287,0.5230482
0.7519282,-0.1399884,-0.1300056,0.1734411,-0.2555482,0.6379626
0.7261227,-0.19559,-0.09178724,0.275794,-0.2802794,0.558447
0.7758305,-0.2059868,-0.1087564,0.30382,-0.2508409,0.4457043
0.7987153,-0.2450409,-0.09660101,0.4642987,-0.3351577,0.4082158
0.8147478,-0.265577,-0.08395374,0.5997981,-0.1195497,0.381072
0.8361833,-0.2097981,-0.1054175,0.6775653,0.1443945,0.3707659
0.8458633,-0.1517972,-0.06701576,0.7674199,0.2725991,0.2953502
0.8419635,-0.07555124,-0.05500333,0.6810183,0.2361699,0.1723562
0.8313303,-0.05311358,-0.04395471,0.5765812,0.1639325,0.1487162
0.8193104,-0.06428704,0.007902287,0.4725561,0.2021379,0.1968789
0.8245812,-0.04692362,0.03297178,0.3611161,0.1372257,0.2251544
0.8200963,-0.1277916,0.03486539,0.3444786,0.1132104,0.2067729
0.8108176,-0.2215793,0.03269044,0.3055824,0.1302106,0.1808101
0.8425406,-0.2260873,0.05954024,0.3023807,0.08376931,0.1260866
0.9088243,-0.2311877,0.08103495,0.298466,0.1189981,-0.01535998
0.9715952,-0.2254155,0.09512421,0.2409011,0.09972034,-0.119178
0.979533,-0.2204754,0.1140912,0.2446622,0.08201738,-0.1323409
1.027055,-0.2350748,0.1149942,0.2658368,0.07518732,-0.1188387
1.204785,-0.2540362,0.1579512,0.2885051,-0.146583,-0.06416463
1.3834,-0.2852606,0.1562833,0.2551403,-0.419136,0.0555387
1.464905,-0.2783286,0.04929304,0.1146364,-0.535678,0.2644518
1.453218,-0.2951624,-0.1010621,0.02093901,-0.5408851,0.3736455
1.452275,-0.4031784,-0.2472229,0.09595566,-0.5524053,0.2255095
1.495428,-0.4882219,-0.2455605,0.1864983,-0.5268635,0.04925589
1.392609,-0.4814067,-0.2368094,0.06528524,-0.4875845,-0.03096848
1.134311,-0.4702811,-0.3348698,-0.01900703,-0.5536969,-0.05165272
0.8930104,-0.5037348,-0.3186875,0.1337429,-0.5677881,-0.09890795
0.8338699,-0.4885418,-0.3027252,0.2699106,-0.5728217,-0.2857835
0.9532623,-0.4250213,-0.3627216,0.386996,-0.5746896,-0.3989349
0.9933766,-0.3514915,-0.349218,0.5478284,-0.4207748,-0.3831113
0.9891991,-0.2676086,-0.3414501,0.6662285,-0.2970908,-0.4474611
0.9881392,-0.2507371,-0.322567,0.7480486,-0.1908556,-0.5390535
0.8701964,-0.2320119,-0.2749075,0.7757497,-0.07178985,-0.6183898
0.8325496,-0.176219,-0.2489334,0.8063636,-0.0392805,-0.6330906
0.8420929,-0.1632147,-0.1951673,0.8738601,-0.06383898,-0.5841691
0.7908727,-0.1428477,-0.1923453,0.9330044,-0.123219,-0.6073123
0.7929137,-0.1349812,-0.2188408,0.9713952,-0.07602364,-0.5771399
0.7734246,-0.1334584,-0.1996419,0.976499,-0.02206697,-0.5290605
0.7667578,-0.09682124,-0.2024975,0.9873169,-0.01620046,-0.5743332
0.7656769,-0.07513109,-0.1803631,0.9553402,0.02214423,-0.5874481
0.7330789,-0.04682877,-0.1245986,0.8931537,-0.05533037,-0.6188536
0.7642537,-0.02277762,-0.106479,0.9110023,-0.1922882,-0.6393306
0.7652708,0.02035039,-0.1216229,0.892299,-0.4328128,-0.5479555
0.7661743,0.09332698,-0.1430005,0.7674745,-0.6481573,-0.4303468
0.8346494,0.09457505,-0.1365025,0.5989365,-0.5452327,-0.3610449
0.915083,0.09099918,-0.1349309,0.3897882,-0.3050926,-0.3473456
0.9947718,0.1172335,-0.141152,0.2280891,-3.331714e-05,-0.2864036
1.014874,0.09676683,-0.1186304,0.1477118,0.1141022,-0.1832485
1.02115,0.08308129,-0.08845523,0.06132199,-0.06147181,-0.1467221
1.077537,0.06017363,-0.06581054,-0.009776338,0.001206244,-0.1585264
1.239471,-0.0421835,-0.1324155,-0.04497492,0.2924914,-0.1599106
1.425218,-0.1699773,-0.2494569,-0.09390785,0.4862675,-0.05488922
1.380842,-0.2179851,-0.2635132,-0.1639091,0.3500256,0.1587301
1.312768,-0.1837567,-0.2967747,-0.2934906,-0.01039873,0.3010884
1.399372,-0.2353468,-0.419033,-0.4163175,-0.04083365,0.2375765
1.382423,-0.3758807,-0.4601806,-0.3293749,0.1867672,0.1729604
1.314836,-0.4452687,-0.4238958,-0.06503234,0.3929382,0.3292733
1.278906,-0.4392356,-0.3654347,0.1647945,0.4730315,0.4709095
1.179941,-0.3355622,-0.2790152,0.1876457,0.3556593,0.4912574
1.13185,-0.1620423,-0.2605345,-0.03353349,0.3544599,0.4829882
1.11819,-0.06372879,-0.2593262,-0.2389891,0.3267691,0.4414779
1.084518,-0.05798143,-0.1683706,-0.2617232,0.1330646,0.4976583
1.062432,-0.1116974,-0.1284907,-0.232976,0.1122068,0.5848477
0.9494006,-0.1828409,-0.1585441,-0.2004804,0.1881027,0.6230679
0.8117233,-0.234571,-0.137984,-0.1599528,0.2523336,0.653464
0.7376456,-0.2416422,-0.1100025,-0.1342207,0.2081243,0.6101572
0.7062428,-0.1907216,-0.07951192,-0.1222389,0.07352206,0.6100064
0.7397492,-0.1560745,-0.05222304,-0.1188916,0.07901077,0.5974285
0.7650671,-0.1464294,-0.07119143,-0.1104015,0.1878932,0.5097523
0.7832913,-0.1315003,-0.07504864,-0.1466967,0.3394159,0.4924536
0.7883548,-0.1223319,-0.06743866,-0.2474507,0.3284734,0.4441891
0.7659667,-0.1187504,-0.06396366,-0.3811563,0.2757886,0.3912432
0.8222973,-0.140514,-0.03374174,-0.4662022,0.4220933,0.3982929
0.8701015,-0.1760028,-0.01756301,-0.449249,0.4203601,0.3935874
0.8545636,-0.2207169,-0.01181433,-0.4583526,0.3566455,0.3863869
0.8608062,-0.2566224,0.03122175,-0.5044981,0.3665822,0.3233937
0.8812658,-0.2435944,0.07467288,-0.5224322,0.3050874,0.2592263
0.9257765,-0.2299902,0.07177649,-0.5437452,0.2748483,0.2332686
0.9815796,-0.2362687,0.0710969,-0.5533491,0.1566344,0.1801945
1.059946,-0.2374022,0.08933773,-0.5773741,-0.03054819,0.1347015
1.19867,-0.2629041,0.0442496,-0.6030931,-0.2819587,0.1498642
1.341369,-0.3578619,-0.08679935,-0.5876608,-0.5274403,0.2503764
1.470492,-0.4906218,-0.2373793,-0.5528867,-0.2380852,0.2990531
1.531662,-0.5195398,-0.307129,-0.561021,0.1264221,0.1597664
1.37543,-0.4069443,-0.310873,-0.7420643,-0.1020887,-0.002092253
1.112754,-0.308776,-0.3350692,-0.972208,-0.2357916,0.009615381
1.01153,-0.3080954,-0.317739,-1.000597,-0.07280689,0.028615
1.011478,-0.3577876,-0.2944457,-0.9124484,-0.1477773,-0.1212501
1.00603,-0.4174834,-0.306559,-0.8170569,-0.163076,-0.2902629
1.039374,-0.4317155,-0.2543948,-0.6242457,0.007902108,-0.4357188
1.035751,-0.363909,-0.2152234,-0.4089619,0.1222823,-0.5001167
0.9701425,-0.2468672,-0.1845793,-0.326078,0.2824917,-0.4563088
0.8611606,-0.1314421,-0.125944,-0.3020759,0.2825748,-0.4703215
0.7447483,-0.06116799,-0.1365131,-0.3469979,0.1902838,-0.4452351
0.7059559,-0.04628854,-0.1449399,-0.4794814,0.2117773,-0.4249611
0.6784568,-0.07504541,-0.1438436,-0.5493795,0.1321205,-0.468562
0.6661248,-0.1179168,-0.1452491,-0.5709679,0.0997149,-0.4276563
0.6979556,-0.1344613,-0.1065746,-0.5098188,0.08458962,-0.4225327
0.7090359,-0.1092937,-0.0972734,-0.3920733,-0.06290802,-0.3759438
0.7357244,-0.06445533,-0.1020424,-0.3819725,-0.174747,-0.2400728
0.7696213,-0.05121888,-0.1287025,-0.3667654,-0.2322991,-0.1895585
0.8003182,-0.05372029,-0.1638349,-0.3437676,-0.188873,-0.1456335
0.8383188,-0.0364679,-0.1455809,-0.3751005,-0.179275,-0.1091501
0.8616979,-0.01673751,-0.1377652,-0.3823649,-0.2771557,-0.08529669
0.9151197,0.01098655,-0.134735,-0.4239425,-0.32004,-0.05125177
0.9575373,0.02474692,-0.1208044,-0.4582357,-0.3306703,-0.0520686
0.9872901,0.0192893,-0.1235639,-0.4896806,-0.2087499,-0.03535159
1.11427,0.02384325,-0.1237988,-0.629185,0.04653623,-0.0354842
1.261261,0.007648599,-0.1240252,-0.7101171,0.2494156,-0.02923305
1.292253,-0.05388151,-0.1251224,-0.5806833,0.3309057,0.0135608
1.311439,-0.171749,-0.1391397,-0.3764658,0.38714,0.03990891
1.397563,-0.2571905,-0.1795581,-0.3108523,0.4863022,0.0944568
1.393014,-0.208145,-0.2680943,-0.4792821,0.3198388,0.1291215
1.348253,-0.1833729,-0.4108422,-0.7804745,0.09537083,0.1120679
1.339277,-0.2844436,-0.481647,-0.9053551,0.2451103,0.1287047
1.211249,-0.3873259,-0.3804482,-0.6612012,0.327942,0.2143677
1.124077,-0.4218217,-0.254922,-0.3468926,0.2786074,0.3583493
1.177069,-0.3303812,-0.2574862,-0.3024721,0.442351,0.4566667
1.170684,-0.1627252,-0.2697066,-0.4392356,0.6135754,0.4491273
1.134873,-0.08046392,-0.2070364,-0.5985976,0.6420803,0.421277
1.090684,-0.06703796,-0.139443,-0.7434953,0.5184066,0.426415
0.9918738,-0.08704853,-0.08486623,-0.7940697,0.293618,0.473801
0.8912001,-0.1381395,-0.07394967,-0.785315,0.1412367,0.5319742
0.8196465,-0.1663455,-0.1036393,-0.8180714,0.09375461,0.5191611
0.8019837,-0.1912939,-0.1209769,-0.8100971,0.1547733,0.4702997
0.8154309,-0.199441,-0.1104497,-0.7580869,0.2868022,0.4486828
0.8171617,-0.1970299,-0.09101595,-0.7432075,0.4489393,0.4291255
0.7905204,-0.2239777,-0.1040026,-0.7075547,0.5678761,0.4445694
0.7658751,-0.2226086,-0.09375557,-0.6488716,0.5385598,0.46269
0.7639782,-0.1847816,-0.032165,-0.6139421,0.4977745,0.4102371
0.7495712,-0.1411428,0.01219889,-0.6255759,0.3870401,0.3680294
0.7545741,-0.1342947,0.007299939,-0.6837592,0.1832259,0.3671262
0.7877102,-0.1741793,-0.04065837,-0.7399095,0.2399339,0.3806808
0.8067644,-0.2055229,-0.05589779,-0.7785497,0.329739,0.4132978
0.8093759,-0.2403472,-0.03797028,-0.7534964,0.2278844,0.4316634
0.8157216,-0.2520812,-0.02410314,-0.7065414,0.2587524,0.4223662
0.8545292,-0.2445226,0.008572611,-0.7194063,0.2837453,0.3999173
0.9131344,-0.2541401,0.0218206,-0.7190307,0.2192537,0.3749692
0.9734573,-0.2395541,0.04927978,-0.7199171,0.2206345,0.3084645
1.014333,-0.267985,0.1004957,-0.7196987,0.1234613,0.2248682
1.111589,-0.3102619,0.115735,-0.6666773,-0.00727141,0.1974298
1.352176,-0.2685378,0.09714912,-0.6412748,-0.1077576,0.143681
1.500889,-0.2743668,0.001804929,-0.6247287,-0.302077,0.1011454
1.472524,-0.4018121,-0.1185682,-0.5310742,-0.5518596,0.1888229
1.485898,-0.5342765,-0.1892041,-0.3525674,-0.6454098,0.2331178
1.445626,-0.5247935,-0.255568,-0.2463636,-0.3142398,0.08440293
1.251776,-0.415843,-0.2794881,-0.3331644,-0.0117893,-0.06130929
1.075806,-0.3664958,-0.2563455,-0.418122,-0.1522872,-0.03565637
0.973074,-0.3279077,-0.2821118,-0.4588084,-0.1977556,-0.05727506
0.9141822,-0.2866695,-0.3159735,-0.5326085,-0.1106067,-0.2230542
0.9186873,-0.3015744,-0.280889,-0.5263168,-0.1695008,-0.3364456
0.9822063,-0.3141295,-0.2500978,-0.4267863,-0.1129892,-0.4470576
1.013908,-0.317586,-0.2396283,-0.2781314,0.07031176,-0.5387877
0.9608379,-0.2857807,-0.1816887,-0.1266505,0.2523032,-0.5046113
0.8653174,-0.2050677,-0.1055479,0.02430965,0.3548863,-0.4911788
0.7615731,-0.1378342,-0.07044073,0.1469052,0.2625495,-0.4641007
0.7188836,-0.08589525,-0.1065705,0.06664619,0.1704159,-0.3766662
0.707937,-0.0427591,-0.1431802,-0.06958609,0.1487462,-0.320213
0.6714421,-0.02594785,-0.128498,-0.1191356,0.07468186,-0.2785759
0.6832385,-0.04858693,-0.1229139,-0.2176132,-0.00818215,-0.3199741
0.7041136,-0.05955967,-0.09901263,-0.2426218,-0.1240787,-0.3552853
0.713155,-0.05340627,-0.07261643,-0.1861515,-0.1965085,-0.2491875
0.7676405,-0.09631759,-0.08046616,-0.1058633,-0.2034351,-0.172761
0.8322712,-0.1198852,-0.07533295,0.08467632,-0.2812682,-0.1758716
0.8955541,-0.07435658,-0.1094928,0.1285988,-0.2851725,-0.1253309
0.9236352,-0.01117668,-0.1656418,-0.04404435,-0.2393369,0.01007069
0.9222893,0.01480371,-0.1548942,-0.1469422,-0.2484791,0.09697727
0.9578133,0.001794235,-0.1189949,-0.1509333,-0.2167287,0.04190921
1.0133,0.01864413,-0.09525139,-0.2088372,-0.1955802,-0.01098135
1.059249,0.03347386,-0.07771432,-0.3254566,-0.143421,0.00696122
1.064889,0.0264612,-0.07149804,-0.3341925,-0.1046959,0.02089456
1.091915,0.02437072,-0.0633816,-0.2956565,-0.1234273,0.01685085
1.224508,-0.03619883,-0.05989376,-0.3008401,-0.01606621,-0.04030318
1.386065,-0.1369588,-0.09875752,-0.2515846,0.1766053,-0.1131893
1.469672,-0.1831059,-0.1590582,-0.2615193,0.3109938,-0.07203358
1.455073,-0.152485,-0.2074962,-0.3950103,0.1819452,0.0007891149
1.460975,-0.1419626,-0.2905908,-0.6374399,-0.09727032,-0.0082916
1.485015,-0.2188442,-0.3826596,-0.9053758,-0.07833259,0.004023715
1.372634,-0.3260216,-0.3626878,-0.879173,0.1589876,0.1025137
1.213215,-0.4260095,-0.2708843,-0.5855861,0.3490219,0.3456763
1.147455,-0.4309862,-0.2391113,-0.2751413,0.3476192,0.6444217
1.164099,-0.3157592,-0.2360773,-0.151254,0.2962067,0.6739072
1.170275,-0.1941255,-0.2116454,-0.3271093,0.4558363,0.5022651
1.07949,-0.1084251,-0.1650999,-0.479289,0.4867389,0.3953493
0.9525112,-0.1109729,-0.09399697,-0.4862123,0.3098775,0.3724224
0.826617,-0.1709356,-0.07348134,-0.5016551,0.1283336,0.4489517
0.7353259,-0.2052822,-0.08281,-0.4094385,-0.05595185,0.5493999
0.715483,-0.2424123,-0.06834644,-0.2744391,-0.04046503,0.5606589
0.7030185,-0.2334113,-0.08458395,-0.2238046,0.02001866,0.5128303
0.7055096,-0.1951755,-0.09530412,-0.2040239,0.09136147,0.454875
0.6969416,-0.1894971,-0.06805269,-0.2142531,0.2709799,0.4413506
0.6683234,-0.1764124,-0.04679366,-0.206836,0.2042385,0.4532886
0.6929124,-0.1691789,-0.04027412,-0.2105511,0.1161662,0.4283397
0.7271155,-0.1472079,-0.03437948,-0.2514788,0.191308,0.3828993
0.7555664,-0.138308,-0.02070575,-0.2698603,0.1731177,0.3519791
0.7849325,-0.1808828,-0.02734854,-0.3063254,0.1892225,0.3561628
0.8143702,-0.2256805,-0.03542553,-0.3511535,0.2001054,0.3424884
0.8774995,-0.3016376,-0.01093799,-0.3644593,0.1585448,0.2785399
0.9458507,-0.3318896,0.015097,-0.3248795,0.2039723,0.2379296
1.013025,-0.2846766,0.03471178,-0.2774032,0.2143655,0.2070525
1.03,-0.2812042,0.040767,-0.3045619,0.1637157,0.1530181
0.9985875,-0.2768682,0.04068038,-0.3205866,0.1249611,0.1315288
1.019283,-0.2443465,0.07213035,-0.3173589,0.06390262,0.133079
1.037131,-0.2207602,0.1034762,-0.3389711,-0.02272096,0.1066423
1.068799,-0.2149604,0.07985045,-0.3574981,-0.1096678,0.03672661
1.229619,-0.2756142,0.004804573,-0.398925,-0.2410246,-0.01365692
1.458255,-0.4080363,-0.0735811,-0.3669361,-0.4684885,0.06758555
1.586526,-0.5670878,-0.1125288,-0.2154839,-0.5250058,0.187235
1.150583,0.02974279,-0.1531256,-0.9253481,0.2159413,-0.106046
1.186735,-0.04168481,-0.1567632,-0.8028418,0.2960983,-0.1747528
1.283969,-0.134653,-0.1721442,-0.5893818,0.4907033,-0.1606209
1.35398,-0.1718605,-0.1854483,-0.4519487,0.623337,-0.06395299
1.393823,-0.1448073,-0.2603438,-0.5978256,0.4669806,0.1518524
1.47321,-0.1504823,-0.3965611,-0.7940516,0.2435459,0.2571388
1.513687,-0.231034,-0.4616932,-0.9275851,0.2645218,0.1901858
1.40795,-0.3420213,-0.397277,-0.9055408,0.4629334,0.220168
1.213316,-0.4121954,-0.2968215,-0.7135895,0.6001457,0.3429857
1.090155,-0.3927145,-0.248383,-0.6249694,0.5828607,0.5169938
1.075037,-0.3269985,-0.2770939,-0.5887488,0.5314896,0.6793008
1.092422,-0.2857211,-0.3282839,-0.5762432,0.5713086,0.6244924
1.066031,-0.2757816,-0.2804962,-0.6021814,0.4969322,0.4719211
0.996375,-0.2316741,-0.1682973,-0.5581679,0.3086446,0.4219971
0.9113165,-0.1432079,-0.08589214,-0.5779017,0.2270191,0.4870832
0.816907,-0.1529127,-0.07392391,-0.5816228,0.1687092,0.6057239
0.7358577,-0.2057798,-0.1193313,-0.5351789,0.1740413,0.6013922
0.6750235,-0.176152,-0.08966718,-0.5428604,0.2061314,0.5313964
0.678853,-0.1948775,-0.05205335,-0.4511739,0.1869429,0.52883
0.6903382,-0.2206662,-0.07035583,-0.3503926,0.2608063,0.4948046
0.6620213,-0.1885573,-0.04381424,-0.3177029,0.3358619,0.4761152
0.7018101,-0.1748012,-0.05602145,-0.3052181,0.3822785,0.4378123
0.7471463,-0.1245605,-0.06516528,-0.3641984,0.3946167,0.3163906
0.7804238,-0.1209944,-0.04082605,-0.4347021,0.395993,0.2794976
0.8295807,-0.1936591,-0.06209339,-0.5258568,0.4955442,0.2837598
0.8382211,-0.2574248,-0.03335375,-0.5452932,0.4957479,0.2934779
0.8970533,-0.3479188,-0.01585226,-0.4567125,0.4964517,0.323433
0.9360657,-0.3615676,-0.008556523,-0.4339461,0.572517,0.2489265
0.9306769,-0.3064302,0.07948861,-0.4599468,0.456151,0.1169236
0.9987051,-0.2918589,0.1467773,-0.4946553,0.3162321,0.005487312
1.024266,-0.2742041,0.1463857,-0.5195979,0.2291449,-0.04092553
1.059105,-0.281627,0.09606627,-0.5598927,0.06040361,-0.04108553
1.236912,-0.2903507,0.06572928,-0.6193503,-0.05832711,-0.06131112
1.396591,-0.2921052,0.02231909,-0.6042225,-0.1642523,-0.004150961
1.437126,-0.3789247,-0.08827294,-0.5921096,-0.2957628,0.09606519
1.482321,-0.4956381,-0.192941,-0.5515356,-0.2159543,0.1053125
1.491108,-0.5222614,-0.2873349,-0.4815112,-0.05209497,0.02819318
1.314516,-0.4214845,-0.315723,-0.5586359,-0.07625295,-0.06720651
1.10683,-0.3035586,-0.3196144,-0.6856904,-0.08364264,-0.08296782
0.9575761,-0.2738591,-0.3372896,-0.7625858,-0.06595332,-0.0837945
0.8830834,-0.2976508,-0.30918,-0.7826772,-0.1586981,-0.1609078
0.9565368,-0.3334778,-0.3144484,-0.6863567,-0.1531286,-0.2421818
0.9984622,-0.3413723,-0.2900273,-0.5333144,0.006690349,-0.3177671
1.006551,-0.307662,-0.2301257,-0.4015665,0.1999662,-0.410741
0.9718972,-0.252807,-0.1992573,-0.3287072,0.2334383,-0.5054841
0.8062944,-0.2032343,-0.147664,-0.2695936,0.1801663,-0.5521627
0.7488462,-0.1625493,-0.1336144,-0.1949854,0.2466819,-0.5060262
0.7417821,-0.1128195,-0.1202141,-0.2065071,0.2061422,-0.4802628
0.7003496,-0.1064729,-0.1151396,-0.2515733,0.1542293,-0.5151554
0.7285381,-0.1113461,-0.1365803,-0.2504183,0.1917134,-0.5133757
0.7090045,-0.07663044,-0.1112254,-0.2676328,0.09114769,-0.4964562
0.7023923,-0.04378361,-0.1101241,-0.2910233,-0.04504341,-0.4578341
0.725271,-0.00635623,-0.1021666,-0.328436,-0.2456061,-0.348799
0.7470354,-0.01641252,-0.1010591,-0.3522904,-0.3472485,-0.2371011
0.8670838,-0.04449664,-0.1500374,-0.2733616,-0.2035789,-0.1645848
0.942245,-0.02411286,-0.1579674,-0.2132975,-0.1797216,-0.1042378
0.9272605,-0.03537444,-0.1620493,-0.2410943,-0.1791035,-0.06169724
0.9248387,-0.0328877,-0.1527163,-0.2478635,-0.1294137,-0.06354156
0.9576354,0.008278857,-0.126263,-0.2408224,-0.1354972,-0.07695544
1.035959,0.04535165,-0.1281137,-0.3029193,0.02088954,-0.07356896
1.085972,0.09479236,-0.1158266,-0.424808,0.1933876,-0.08181554
1.086862,0.0850021,-0.1117499,-0.4781288,0.2021505,-0.07964183
1.113132,0.0230303,-0.1104116,-0.4197552,0.1911715,-0.05937575
1.216464,-0.05897304,-0.1261261,-0.3803743,0.2563894,-0.02630836
1.340914,-0.1337227,-0.1887898,-0.4296136,0.292953,0.05021502
1.400832,-0.1098286,-0.2339641,-0.5433399,0.08938147,0.1163626
1.432534,-0.1168003,-0.2744328,-0.6527362,-0.09956446,0.136762
1.462117,-0.2182299,-0.331495,-0.6268143,0.02412769,0.1563213
1.41379,-0.2725041,-0.3752221,-0.53467,0.157969,0.2183473
1.242866,-0.3002157,-0.3869283,-0.5308356,0.1475685,0.3226769
1.138317,-0.3096087,-0.368326,-0.4808723,0.2400954,0.3910197
1.206298,-0.2905323,-0.351343,-0.4038149,0.4761485,0.4051662
1.22923,-0.2976439,-0.3220884,-0.4399295,0.7470726,0.3941975
1.164619,-0.2672733,-0.2526154,-0.430265,0.8962886,0.3747263
1.092319,-0.1992955,-0.1443298,-0.3788776,0.6322359,0.4054014
0.9932037,-0.1455442,-0.05765402,-0.3680303,0.2155113,0.4863516
0.9282669,-0.1087043,-0.06335131,-0.3732667,0.1554562,0.5712108
0.9010764,-0.1267825,-0.110892,-0.4532312,0.2426713,0.5828926
0.8497264,-0.1496689,-0.1315645,-0.5196764,0.2444778,0.5059548
0.8008355,-0.1613844,-0.1084395,-0.5050324,0.2441143,0.4814924
0.7783837,-0.2021596,-0.07561379,-0.4571309,0.2548772,0.5243179
0.7650701,-0.223809,-0.08232089,-0.390871,0.3292148,0.5531168
0.7600748,-0.2277073,-0.08514963,-0.3335505,0.4282965,0.5503031
0.7300576,-0.1979149,-0.0667435,-0.3184346,0.4353826,0.4734424
0.6962116,-0.149662,-0.05982213,-0.3929957,0.3113819,0.3599605
0.7315363,-0.1621981,-0.04988996,-0.4633936,0.2005561,0.3084881
0.7622148,-0.1765388,-0.03800902,-0.4512535,0.2414243,0.3377208
0.7644377,-0.2050919,-0.02824738,-0.4323784,0.267214,0.3512419
0.8154189,-0.2809959,-0.001814521,-0.4178753,0.2380996,0.2890264
0.8933751,-0.2842835,0.04014842,-0.4084892,0.2421697,0.2194776
0.9480444,-0.2562766,0.05951084,-0.4032462,0.1986119,0.1418052
0.9847491,-0.2787451,0.04776683,-0.3904038,0.1179398,0.1035557
1.054728,-0.2820621,0.05743212,-0.3443208,0.01658179,0.1284126
1.113515,-0.2752519,0.07071169,-0.2547941,-0.1663215,0.08242874
1.17134,-0.2619854,0.05235905,-0.2103612,-0.3854803,0.03514664
1.33744,-0.245763,-0.003793218,-0.2005382,-0.546992,0.0673655
1.485152,-0.3493801,-0.1401195,-0.1184503,-0.5404548,0.1151214
1.514065,-0.5004908,-0.2583016,0.03537566,-0.3445987,0.1358985
1.427299,-0.5036646,-0.2631174,0.07744015,-0.2084577,0.01454211
1.220652,-0.4093583,-0.2769675,-0.1185076,-0.298131,-0.1297589
1.077417,-0.341866,-0.3345768,-0.3531699,-0.3751396,-0.07915183
1.015588,-0.3170778,-0.3571933,-0.4291521,-0.3060849,-0.04847978
0.9481756,-0.3268715,-0.3579104,-0.3880677,-0.2550646,-0.193404
0.9560149,-0.3683387,-0.3505117,-0.2893059,-0.1616823,-0.3622173
1.00106,-0.4123903,-0.3067318,-0.09592391,0.05686963,-0.5360172
1.020871,-0.395216,-0.231605,0.1190097,0.2184372,-0.6534619
0.9817476,-0.3127805,-0.1711137,0.2167579,0.3269026,-0.6388443
0.8740081,-0.212121,-0.1412004,0.2546537,0.3806624,-0.589715
0.7717622,-0.1043049,-0.1214842,0.2081466,0.2537619,-0.4849527
0.6872466,-0.02612695,-0.1215308,0.02972052,0.1416938,-0.3942834
0.6615779,-0.004562404,-0.1286181,-0.1180219,0.1146308,-0.4039219
0.6819534,-0.01333636,-0.1171801,-0.190727,-0.05170055,-0.4049137
0.6814887,-0.03138304,-0.1196573,-0.2212316,-0.2947842,-0.4128246
0.7089322,-0.04599621,-0.147632,-0.2192735,-0.3659284,-0.3854485
0.7590603,-0.09490668,-0.179456,-0.1692056,-0.2845739,-0.3276943
0.8002411,-0.1778695,-0.1909481,0.002480954,-0.1879308,-0.3402254
0.8375292,-0.2083331,-0.1779702,0.2128081,-0.06284742,-0.3274368
0.8474011,-0.1520412,-0.1823063,0.3140684,-0.06868674,-0.2805141
0.8564409,-0.05161,-0.1883124,0.2898477,-0.2238225,-0.2041032
0.9299955,0.01985501,-0.1708179,0.2252012,-0.2297883,-0.136422
1.045961,0.06829241,-0.1509777,0.1298665,-0.1440672,-0.1886801
1.10336,0.1096591,-0.1165293,-0.007500583,-0.03142111,-0.2290041
1.10777,0.1013666,-0.08942324,-0.101795,0.07410833,-0.2230774
1.154484,0.06428199,-0.08907972,-0.1598974,0.09030771,-0.270217
1.262065,-0.029099,-0.1007719,-0.1001476,0.2756426,-0.3152699
1.382097,-0.2134275,-0.1389683,0.09617706,0.5311168,-0.2847749
1.45034,-0.3499384,-0.1860656,0.1590601,0.5334461,-0.1216082
1.43286,-0.2828364,-0.2514678,-0.01088901,0.2333442,0.07027411
1.404162,-0.1889678,-0.3586879,-0.1957442,-0.07534634,0.09785709
1.415129,-0.3119073,-0.4182087,-0.1133829,0.1414615,0.1276989
1.341258,-0.4116456,-0.3777794,0.03187218,0.4776705,0.3231301
1.19592,-0.3843109,-0.3140202,0.04173942,0.4319443,0.4445186
1.136702,-0.3915596,-0.2529391,0.19527,0.3777163,0.4314514
1.110121,-0.3281686,-0.1920418,0.2784332,0.2998887,0.378649
1.056039,-0.2468771,-0.154865,0.1944317,0.1560608,0.3032546
0.9951636,-0.1900605,-0.08720051,0.2225744,0.04182027,0.3611397
0.9230794,-0.1005544,-0.03482724,0.1835131,-0.1690057,0.4606703
0.8590898,-0.0879366,-0.06235686,0.1106178,-0.2366263,0.4776604
0.7940822,-0.09199085,-0.07537158,0.07820687,-0.1717841,0.5118618
0.7617696,-0.1188088,-0.09326979,0.01452037,-0.125214,0.5006821
0.751628,-0.1805123,-0.1018544,0.0487136,-0.02104654,0.4910854
0.7167342,-0.1757299,-0.05905721,0.1004967,-0.009523677,0.4888333
0.7264667,-0.1653011,-0.06417585,0.1767793,0.03553037,0.3860505
0.7616178,-0.1522018,-0.067708,0.2747609,0.1751821,0.3186607
0.7685298,-0.1606863,-0.05484734,0.2282246,0.2055684,0.310869
0.7747984,-0.2018108,-0.04848662,0.1643546,0.2627442,0.266309
0.7693762,-0.221565,0.005085905,0.1644545,0.3154997,0.1819816
0.7785226,-0.2443806,0.01743547,0.1666675,0.2373722,0.1304753
0.8348102,-0.2436963,-0.003329817,0.1849917,0.1551174,0.1430562
0.8820328,-0.2569578,-0.009000749,0.1796866,0.07376209,0.1079102
0.8804153,-0.2669993,-0.01775263,0.1218709,-0.04089718,0.02891808
0.909452,-0.2377782,0.0259108,0.07268579,-0.08181354,-0.05637896
1.027044,-0.2488331,0.08526229,0.07957981,-0.04116037,-0.1190365
1.109202,-0.2609787,0.1013391,0.1211386,-0.07465669,-0.1106522
1.151363,-0.3072715,0.07657934,0.1797618,-0.2064528,-0.102395
1.266996,-0.391351,0.04005538,0.3027084,-0.5247352,-0.02986238
1.350342,-0.409621,-0.003794195,0.5128287,-1.047724,0.1474873
1.418444,-0.4321105,-0.09866112,0.7142262,-1.213529,0.2259784
1.508615,-0.4493144,-0.2099597,0.7333315,-0.9045255,0.06087466
1.36225,-0.431758,-0.309299,0.4668699,-0.7192293,-0.1588582
1.101486,-0.4680379,-0.3365725,0.2203307,-0.7009133,-0.2097469
1.012017,-0.5117453,-0.2617965,0.3478345,-0.6677766,-0.3544478
0.9639941,-0.5110925,-0.2075606,0.5297363,-0.7505369,-0.5970432
0.96018,-0.4783507,-0.1949062,0.5907104,-0.800617,-0.5954083
1.030676,-0.4128761,-0.2355758,0.8016332,-0.5997736,-0.5724228
1.031055,-0.3665308,-0.3010499,0.959659,-0.3520169,-0.6737954
0.9833051,-0.3457918,-0.2498776,1.00455,-0.294587,-0.7691151
0.8927572,-0.3276422,-0.1775492,1.187833,-0.3036723,-0.8414134
0.817209,-0.3178707,-0.1715166,1.321783,-0.2637926,-0.7999599
0.8270369,-0.2812808,-0.1792949,1.350693,-0.2267658,-0.760334
0.8033059,-0.2410212,-0.2157609,1.370651,-0.08484069,-0.7809222
0.7520151,-0.2238266,-0.2187444,1.344731,0.1074744,-0.7873467
0.6987605,-0.1896172,-0.2085855,1.351896,0.1221941,-0.8640778
0.611996,-0.1651342,-0.2477613,1.321813,0.01353772,-0.8955168
0.5753738,-0.1537036,-0.2616201,1.282157,-0.0679119,-0.8549709
0.6619599,-0.1245661,-0.2571199,1.363704,0.00506851,-0.8591832
0.8212181,-0.1089008,-0.2515316,1.46976,0.1256619,-0.834098
0.8925702,-0.1206264,-0.2437926,1.604802,0.1188112,-0.7780037
0.8949701,-0.130995,-0.2486098,1.713151,0.1154574,-0.7065316
0.9426702,-0.1014771,-0.2386598,1.684612,0.07091903,-0.6268098
0.9709745,-0.0502222,-0.2350316,1.615161,-0.005953524,-0.5759744
0.9669756,-0.02276644,-0.2207383,1.526799,-0.01046343,-0.5235848
0.9644947,-0.01745477,-0.1808628,1.405594,-0.1047172,-0.4675628
0.9597559,-0.01573941,-0.13426,1.350637,-0.1639584,-0.3938722
0.9601732,0.01608171,-0.07255766,1.345798,-0.145707,-0.3366979
0.9702124,0.065908,-0.05240331,1.27994,-0.164725,-0.3359431
0.9983781,0.09249552,-0.04395993,1.20762,-0.0331733,-0.3553526
1.01066,0.09930746,0.03025857,1.139699,0.08418159,-0.3875436
1.045961,0.091508,0.1018569,1.053004,-0.01888339,-0.3890547
1.162865,0.07591737,0.09632679,1.041242,-0.09300574,-0.3984234
1.306588,0.02998346,0.01444065,0.9797089,-0.04071844,-0.428992
1.440957,-0.04295367,-0.1050349,0.7853502,-0.02273017,-0.3193615
1.52743,-0.08801436,-0.2131388,0.4943766,-0.09902251,-0.1073168
1.493811,-0.1655549,-0.2750855,0.1484698,-0.2325127,0.03652223
1.337664,-0.3039598,-0.3310642,0.06648542,-0.3900449,0.09055196
1.17875,-0.3507696,-0.4080165,0.1663399,-0.4236663,0.1921037
1.162405,-0.2942708,-0.4242171,0.1298685,-0.4753734,0.4040014
1.255376,-0.2873407,-0.4332745,0.158464,-0.6222948,0.4712677
1.294952,-0.3001241,-0.4970193,0.218333,-0.3100311,0.3578011
1.254465,-0.2777426,-0.4862117,0.1907035,0.2028561,0.2993157
1.179643,-0.2899228,-0.3928088,0.3015439,0.2206808,0.2689388
1.014598,-0.2880965,-0.27132,0.4829894,0.04230181,0.3209402
0.851067,-0.2258285,-0.1699116,0.61868,-0.05489337,0.4922272
0.833334,-0.1543104,-0.1858768,0.6553218,-0.05941787,0.5564511
0.8387352,-0.1130933,-0.1985163,0.5643219,0.01959946,0.5483545
0.7997011,-0.1296482,-0.1549595,0.5551899,0.1076339,0.5561424
0.778958,-0.1441561,-0.1644707,0.5311311,0.375532,0.5313686
0.7496155,-0.1381578,-0.1298869,0.4453986,0.6379828,0.5087879
0.7161195,-0.1288539,-0.0615374,0.4625079,0.6068302,0.4396994
0.7078245,-0.06863995,-0.04983592,0.3896085,0.4585803,0.3586121
0.7235858,-0.0347857,-0.03248151,0.248012,0.3496876,0.3423202
0.7764983,-0.09265857,-0.03814139,0.152744,0.3222284,0.32186
0.8287012,-0.1769418,-0.0531133,0.03421926,0.3240954,0.3041119
0.8242501,-0.2271988,-0.03612983,0.01689377,0.3079366,0.2849575
0.8223147,-0.2331368,-0.02403618,0.05217234,0.3307933,0.24247
0.8951144,-0.2554678,0.01070746,0.02503519,0.3770041,0.214214
0.9576853,-0.2728862,0.03855308,0.009262611,0.4303407,0.1801455
0.9525796,-0.2500739,0.04371704,-0.005160782,0.4518353,0.1142467
0.9615603,-0.2569151,0.08527819,-0.03521517,0.3065618,0.02982107
0.9893376,-0.2710265,0.125378,-0.06257311,7.539875e-05,-0.03388294
1.054593,-0.2675759,0.1238688,-0.09399559,-0.248106,-0.05561976
1.243707,-0.2824451,0.09843064,-0.1178975,-0.3993099,-0.009781118
1.408372,-0.3173636,0.004289857,-0.09713362,-0.611879,0.1259044
1.422968,-0.4358871,-0.1841642,0.01400104,-0.7238805,0.2606223
1.445737,-0.6013992,-0.3303868,0.1626294,-0.5117867,0.2721272
1.457076,-0.6067423,-0.349085,0.1689446,-0.2080797,0.1307734
1.311739,-0.4140624,-0.3319628,-0.0162131,-0.02678397,-0.05564527
1.074638,-0.2114218,-0.3346374,-0.2727902,-0.03810993,-0.1665845
0.8356274,-0.1722018,-0.3430309,-0.4915593,-0.4189478,-0.1968201
0.7696554,-0.2780124,-0.3314784,-0.4932058,-0.7345852,-0.1998165
0.9357992,-0.3787563,-0.3035488,-0.2600004,-0.3823576,-0.297173
1.023748,-0.4102461,-0.2686207,-0.002622933,0.1563436,-0.4958461
0.9654089,-0.3507431,-0.1948805,0.1860463,0.3296479,-0.6061962
0.890609,-0.2233518,-0.150931,0.2280817,0.3970779,-0.5837413
0.7553416,-0.1362733,-0.1599646,0.1709061,0.4602244,-0.5354249
0.6471793,-0.06540872,-0.1221816,0.1295858,0.3176047,-0.4896491
0.6325863,-0.01826397,-0.09565253,0.01844374,0.03224609,-0.4489064
0.6555299,-0.05445894,-0.118825,-0.07125656,-0.1850358,-0.4361552
0.7101964,-0.05313528,-0.1116012,-0.04736843,-0.2071763,-0.4267562
0.7474099,-0.03310985,-0.1122776,-0.06824662,-0.2305061,-0.3953663
0.7742653,-0.06020289,-0.1477515,-0.1206183,-0.3737948,-0.3415241
0.8219007,-0.06594586,-0.1749719,-0.09265013,-0.2944416,-0.2419655
0.8624251,-0.08126481,-0.1805667,-0.02542525,-0.1086474,-0.131357
0.8932676,-0.06408231,-0.1635035,0.01282378,-0.1089915,-0.06461757
0.8955997,-0.005788228,-0.15513,-0.020533,-0.1420814,0.007211427
0.8908824,0.01515373,-0.1522584,-0.1472029,-0.2337024,0.08991514
0.9377345,0.06088963,-0.1363231,-0.2718591,-0.2779147,0.1210968
1.027437,0.08945496,-0.1359576,-0.3497809,-0.1694219,0.133229
1.110453,0.05279694,-0.1365609,-0.441368,-0.02500075,0.1095178
1.155374,0.01746232,-0.1200408,-0.4586041,0.196756,0.008114126
1.207169,-0.04105156,-0.09760217,-0.3453709,0.2811414,-0.08192358
1.308365,-0.1067559,-0.08731366,-0.2119601,0.3007659,-0.1435643
1.403981,-0.1544514,-0.1213635,-0.1331037,0.5046952,-0.1360375
1.445486,-0.2023804,-0.1868911,-0.121769,0.5235507,-0.0209249
1.438665,-0.210963,-0.2934493,-0.2466122,0.2590805,0.07108951
1.427715,-0.2096262,-0.4419331,-0.53973,0.0197759,0.1188515
1.407835,-0.2471943,-0.4844698,-0.6791085,0.04338085,0.1500984
1.248745,-0.3394555,-0.3447376,-0.3895945,0.2662969,0.3178291
1.043722,-0.4394556,-0.208585,-0.08259845,0.3773544,0.654157
1.04716,-0.3523942,-0.2171697,-0.169374,0.4295063,0.7195296
1.107291,-0.1777534,-0.2273957,-0.3319412,0.4534414,0.5649555
1.052321,-0.1796654,-0.1272779,-0.3371674,0.3983229,0.4984968
1.028921,-0.2091218,-0.04017713,-0.3428264,0.2301415,0.396876
0.9850828,-0.1930921,-0.03131867,-0.2851138,-0.1086003,0.4043742
0.8715325,-0.2198733,-0.02358169,-0.2127714,-0.152468,0.5438662
0.8393845,-0.20807,-0.03483606,-0.2159957,0.01858473,0.5579591
0.7846171,-0.200818,-0.09144878,-0.1941725,-0.04331263,0.5206995
0.6976615,-0.2155519,-0.08646072,-0.196706,-0.02617902,0.4711053
0.7436557,-0.211041,-0.05666525,-0.1359224,0.04896236,0.4390526
0.7592614,-0.2235581,-0.08397496,-0.05496,0.1139221,0.4426403
0.7196279,-0.2005943,-0.07283222,-0.09467634,0.2798006,0.3459823
0.7549472,-0.1633311,-0.05741576,-0.1041318,0.275148,0.2609042
0.7635506,-0.1524986,-0.06770204,-0.1387914,0.2424449,0.263391
0.7835265,-0.1652291,-0.03746214,-0.1894579,0.2917437,0.2769516
0.8280107,-0.2298886,-0.02374192,-0.1602395,0.2595366,0.29694
0.8198092,-0.2928205,-0.007139762,-0.1457505,0.2460265,0.2716227
0.8518722,-0.3179714,0.01969869,-0.1026918,0.2550477,0.2345469
0.9059475,-0.3015443,0.03260987,-0.06542349,0.2362564,0.1751268
0.9410693,-0.27376,0.07055717,-0.1082447,0.1634479,0.05127572
0.9873366,-0.2713024,0.08501686,-0.1509554,0.08232713,-0.0481405
1.036149,-0.2673138,0.105435,-0.1309655,0.05244157,-0.136779
1.13302,-0.2761557,0.1398804,-0.1017397,-0.02641234,-0.1865887
1.279839,-0.2662834,0.119322,-0.1187202,-0.1772464,-0.1521955
1.414435,-0.2579666,0.06445294,-0.1131161,-0.477749,-0.08205073
1.464123,-0.3435802,-0.05198805,-0.1077977,-0.7567077,0.03838057
1.459348,-0.453077,-0.1997265,-0.08639315,-0.5981588,0.07424075
1.461103,-0.4900162,-0.2887669,-0.04072588,-0.3300471,-0.06277002
1.346128,-0.4405976,-0.3147178,-0.1191359,-0.3142268,-0.1515692
1.102297,-0.3782033,-0.2917603,-0.2393823,-0.2004049,-0.1406506
0.8763576,-0.3589635,-0.2693247,-0.3005158,-0.1303964,-0.2192784
0.7917926,-0.3587994,-0.2708145,-0.2906988,-0.4621043,-0.367632
0.8864121,-0.3813517,-0.2646687,-0.1004175,-0.7026477,-0.403447
1.002083,-0.3687173,-0.2508946,0.197309,-0.4477729,-0.3760636
1.048584,-0.3119849,-0.2424252,0.4026017,-0.059065,-0.4431505
0.9975971,-0.2449275,-0.2285552,0.482673,0.06215187,-0.525894
0.8549995,-0.1645747,-0.1973241,0.5268781,0.05423647,-0.5207419
0.7873651,-0.1369654,-0.1620606,0.5349807,0.0938095,-0.4638204
0.76206,-0.1131954,-0.1507492,0.513889,0.0406507,-0.4255334
0.7301585,-0.08619729,-0.169036,0.4959262,-0.01478529,-0.476852
0.7757795,-0.1061897,-0.1820536,0.437899,0.004152296,-0.5640721
0.7905537,-0.08347636,-0.174801,0.4215465,-0.007683499,-0.6107296
0.7375139,-0.0582615,-0.1524843,0.4422218,-0.06793493,-0.6456774
0.7135106,-0.06709086,-0.1324096,0.4342381,-0.208401,-0.6797534
0.7608025,-0.08743004,-0.161524,0.5021992,-0.2656601,-0.6882803
0.8386505,-0.1278246,-0.1945805,0.6148486,-0.1433109,-0.6230983
0.8428729,-0.09914144,-0.1690823,0.7154306,-0.06851939,-0.4891955
0.8359114,-0.02138227,-0.1479785,0.7712088,-0.2035735,-0.3617229
0.8792515,0.05487772,-0.1553689,0.7313347,-0.3382485,-0.2838552
0.9357573,0.1309744,-0.1429979,0.6214247,-0.2403748,-0.2601446
1.021778,0.1658899,-0.1062478,0.4277155,-0.1483067,-0.2471949
1.055781,0.1792406,-0.06363851,0.3320626,-0.1434765,-0.2425566
1.039937,0.1448711,-0.04509397,0.3849793,-0.1183925,-0.2684184
1.097458,0.08973466,-0.04377203,0.3998117,-0.101517,-0.2813712
1.187624,0.07699616,-0.04366828,0.4637176,0.09801038,-0.2799096
1.288923,0.01858027,-0.09746398,0.4771005,0.2840441,-0.2272469
1.408728,-0.04952058,-0.192068,0.2871476,0.06989089,-0.07235702
1.414081,-0.0516357,-0.3023657,-0.03941827,-0.1515477,0.05609782
1.343132,-0.125222,-0.4064698,-0.406626,-0.04867908,0.08828951
1.311335,-0.2981469,-0.3796735,-0.4330033,0.03815239,0.1943477
1.20962,-0.3714125,-0.3057277,-0.2570641,0.06508163,0.3843091
1.152593,-0.3347107,-0.3194067,-0.2818548,0.2114646,0.444243
1.21876,-0.3147387,-0.3082882,-0.2488699,0.2560861,0.4745995
1.158725,-0.2656892,-0.2729309,-0.2233845,0.2094861,0.5652723
1.088992,-0.2456936,-0.2453455,-0.2691681,0.04203973,0.5216675
1.051814,-0.2848668,-0.1817115,-0.1026792,-0.267404,0.50998
0.9111162,-0.2625626,-0.1445975,0.06327267,-0.1696886,0.6120663
0.8925154,-0.2540447,-0.1435509,0.1168489,-0.001962857,0.6353837
0.8944124,-0.2245335,-0.146272,0.1544933,-0.1657162,0.6345391
0.7502296,-0.12257,-0.1255515,0.1722213,-0.08982522,0.5002029
0.68716,-0.1006112,-0.1067619,0.1915322,-0.03149488,0.2788982
0.7042873,-0.1306123,-0.1322204,0.1654983,-0.1683676,0.2611242
0.6863958,-0.1660177,-0.1262535,0.2155744,-0.07794362,0.3417409
0.6790887,-0.2004789,-0.121893,0.3198691,0.1474885,0.3702254
0.7266411,-0.1748982,-0.1181178,0.3625362,0.3989182,0.3085294
0.7850851,-0.1409281,-0.05710485,0.4227983,0.3604527,0.2125385
0.8327872,-0.1415523,-0.04345189,0.4287427,0.1657596,0.1522897
0.8766684,-0.1505458,-0.0510086,0.4136513,0.2141829,0.06866153
0.8816342,-0.1565792,-0.03278798,0.4231358,0.1132072,0.0439789
0.9071576,-0.1840551,-0.02235355,0.4245227,0.09161736,0.09607951
0.9434044,-0.2055968,-0.007605113,0.4555787,0.2378764,0.1309424
0.949156,-0.1889585,-0.001167855,0.4093029,0.1266761,0.1325067
0.9745334,-0.1791585,0.03369724,0.3312067,0.139462,0.09906268
0.9488565,-0.1568306,0.07609422,0.2600668,0.1497236,0.05634916
0.9070255,-0.1287141,0.09895215,0.1536848,0.01592494,0.01382511
0.9418116,-0.1456768,0.1128805,0.1438497,0.0753111,0.039364
0.9798639,-0.1800488,0.09931939,0.1866137,0.04942431,0.08352661
1.03309,-0.2215322,0.1170033,0.220919,-0.06766343,0.02678449
1.148346,-0.2606617,0.1212641,0.2580497,-0.2004703,-0.01304387
1.315126,-0.2869259,0.08597906,0.235974,-0.4232961,0.01140118
1.473392,-0.3359865,0.03271555,0.2087854,-0.5446216,0.09817908
1.497994,-0.4016876,-0.1190332,0.2104197,-0.6349645,0.2190531
1.443888,-0.4600939,-0.2624156,0.1996558,-0.679895,0.1902419
1.415764,-0.5299967,-0.324002,0.1936228,-0.5657227,0.08830146
1.328159,-0.5575221,-0.3415727,0.2050526,-0.3977593,0.02485097
1.130773,-0.500171,-0.3038156,0.218349,-0.3808341,-0.08769532
0.8893216,-0.4659048,-0.3087312,0.2932613,-0.5201093,-0.195604
0.803993,-0.4596355,-0.3191487,0.4512844,-0.601652,-0.2994726
0.9632548,-0.4067068,-0.2998196,0.5950865,-0.6502529,-0.3940427
1.080892,-0.3455606,-0.3200498,0.7361839,-0.4246129,-0.391052
1.070565,-0.2929346,-0.2888569,0.8678122,-0.007463435,-0.4598351
1.009425,-0.251477,-0.2442587,0.8801556,-0.01174429,-0.6234435
0.8451752,-0.2067683,-0.2458983,0.809423,-0.09238184,-0.6692538
0.7654479,-0.1402566,-0.2300124,0.7436439,0.03205891,-0.6166347
0.781996,-0.100569,-0.2151434,0.692663,0.07009915,-0.5750414
0.738536,-0.08149705,-0.1917805,0.6408434,0.08319928,-0.5807523
0.7190458,-0.07542278,-0.1727586,0.5965853,0.04032751,-0.5851579
0.6973554,-0.09615604,-0.1612095,0.5934842,-0.06921215,-0.5825248
0.6919875,-0.1072163,-0.1480073,0.6116707,-0.1639473,-0.6122172
0.737482,-0.1007726,-0.1672644,0.6476722,-0.2285916,-0.5876336
0.7583095,-0.08518689,-0.1623844,0.7290704,-0.2597997,-0.5415003
0.7875286,-0.05575074,-0.1577587,0.7574485,-0.3654336,-0.504879
0.7959578,-0.01069223,-0.1838604,0.6505985,-0.4010811,-0.4135453
0.8167189,0.04271518,-0.1854889,0.4914882,-0.2988048,-0.3527049
0.8913826,0.1049181,-0.1790938,0.3335787,-0.2533545,-0.3384581
0.9596842,0.1385261,-0.1334675,0.1901183,-0.2301686,-0.3470967
1.045019,0.1041778,-0.07257939,0.1172915,-0.1516728,-0.3684646
1.08872,0.09844002,-0.07300275,0.0634878,-0.01058815,-0.3383072
1.101918,0.1136457,-0.09095488,-0.05989126,0.117363,-0.3124717
1.204693,0.04834753,-0.1026241,-0.1571095,0.2109132,-0.2824495
1.336445,-0.05278821,-0.1274557,-0.167367,0.4172419,-0.1332333
1.381725,-0.1695162,-0.1831594,-0.2158637,0.511489,0.1339266
1.355648,-0.2360373,-0.2740876,-0.3151208,0.320232,0.346508
1.351007,-0.2335043,-0.3733877,-0.44942,0.158823,0.3373728
1.3352,-0.2983868,-0.4260825,-0.5836275,0.1125004,0.2726324
1.279953,-0.3693311,-0.3969359,-0.4921218,0.2190125,0.3162106
1.255334,-0.3564363,-0.3457961,-0.2863687,0.5140465,0.3969475
1.219623,-0.2955806,-0.2872441,-0.2116817,0.6285934,0.5301558
1.163414,-0.2000189,-0.2051462,-0.2108427,0.4809591,0.6009371
1.130475,-0.1227049,-0.1506842,-0.3597165,0.3441737,0.5180864
1.111161,-0.08079338,-0.1212165,-0.5527243,0.291218,0.5097989
1.075362,-0.06335567,-0.1151492,-0.5766403,0.2087141,0.6054687
0.9666434,-0.08212807,-0.1398294,-0.5813989,0.1069852,0.6834204
0.8371472,-0.1229954,-0.1460717,-0.5824702,0.1627481,0.7142369
0.7441326,-0.1696221,-0.1276963,-0.5584069,0.203998,0.6579287
0.6828228,-0.1898364,-0.112701,-0.5606578,0.1291799,0.6302559
0.6846286,-0.1878278,-0.1171642,-0.4989841,0.1818606,0.6848391
0.6952847,-0.2038878,-0.1289897,-0.4004852,0.3350315,0.6956229
0.6849073,-0.2137297,-0.1168763,-0.3476857,0.474571,0.6236871
0.6909293,-0.1855303,-0.07804852,-0.3559424,0.4442149,0.5063706
0.7022623,-0.163713,-0.03598247,-0.3809935,0.3214172,0.4545208
0.7485821,-0.1781167,-0.04400408,-0.420131,0.3279002,0.4831668
0.8219485,-0.2024582,-0.07535729,-0.4955862,0.2313746,0.4721299
0.8521877,-0.2378617,-0.06241519,-0.5174066,0.1581669,0.4333368
0.884969,-0.2791787,-0.04650644,-0.5347328,0.2100078,0.3863659
0.9886642,-0.2924422,-0.01392671,-0.5707975,0.1214755,0.2945675
1.06597,-0.2860233,0.03620954,-0.5438157,0.1373968,0.2223608
1.04493,-0.2947335,0.03786444,-0.5442969,0.1796205,0.2154836
1.036989,-0.3130016,0.05281851,-0.5358648,0.06569928,0.2072016
1.099505,-0.3004531,0.08821078,-0.4426318,-0.007994072,0.1513427
1.207799,-0.2484831,0.07533789,-0.4020065,-0.2188492,0.09827708
1.360951,-0.2212312,-0.02054345,-0.4713415,-0.4456906,0.1130469
1.458538,-0.3158751,-0.1827619,-0.5458899,-0.4199255,0.1483862
1.419327,-0.4676489,-0.2728286,-0.5280348,-0.2956332,0.1153099
1.31886,-0.4882144,-0.2934689,-0.5121067,-0.1782494,0.03106247
1.185772,-0.4218983,-0.3015303,-0.5520973,-0.1378417,-0.04771098
1.039239,-0.3995185,-0.2731673,-0.5346342,-0.09709084,-0.05492067
0.9662312,-0.380509,-0.3091867,-0.5304358,-0.05427025,-0.06727869
0.9417374,-0.3621939,-0.3445712,-0.5438909,-0.08528436,-0.2115746
0.9460179,-0.3549909,-0.2847083,-0.4799,-0.0168546,-0.3155838
0.9649379,-0.3148148,-0.2495104,-0.3892239,0.1196464,-0.3860449
0.9010465,-0.2551057,-0.2093536,-0.260768,0.2764805,-0.5550781
0.8026486,-0.1752407,-0.1432668,-0.184072,0.4728969,-0.6352479
0.7220222,-0.08704696,-0.1251059,-0.2097134,0.4921426,-0.6194814
0.6515882,-0.03394161,-0.1331366,-0.2572637,0.3569913,-0.5676784
0.6405436,-0.019772,-0.1380291,-0.3952472,0.2484799,-0.4822363
0.6479896,-0.03141711,-0.1194795,-0.5213126,0.1327169,-0.451252
0.6672518,-0.04519106,-0.1110715,-0.5113073,0.01493037,-0.3680065
0.6977696,-0.05892052,-0.1155908,-0.4690364,-0.08857598,-0.2415016
0.7050307,-0.06018023,-0.1147617,-0.4473886,-0.2020008,-0.1738242
0.7669308,-0.04559269,-0.1311749,-0.4505702,-0.2123635,-0.1145825
0.848732,-0.05169695,-0.1208268,-0.4397967,-0.1534019,-0.04386948
0.8730389,-0.0546605,-0.1148252,-0.4135786,-0.1523686,0.04088561
0.8969025,-0.04795573,-0.1426562,-0.4260301,-0.1417486,0.077565
0.9203376,-0.04195236,-0.1600642,-0.4713807,-0.1711629,0.1098059
0.9279899,-0.02202039,-0.1716207,-0.5194895,-0.2696049,0.2350229
1.000551,-0.02178073,-0.1551934,-0.5106265,-0.2866425,0.3060718
1.104255,-0.01046405,-0.1405389,-0.5070831,-0.1992217,0.2226091
1.096081,0.02804236,-0.1476732,-0.5991266,-0.05390916,0.1081312
1.066752,0.03985839,-0.1232521,-0.6713974,0.05169924,0.02825574
1.134692,0.04988645,-0.08024405,-0.6544393,0.08467229,-0.09174884
1.237577,0.01299307,-0.0606053,-0.6061757,0.1837915,-0.1659602
1.376616,-0.1201397,-0.1096404,-0.5426102,0.3887212,-0.1160809
1.464524,-0.20433,-0.1762087,-0.4958999,0.4716878,-0.06713795
1.442562,-0.1712912,-0.1979566,-0.5642991,0.1754427,-0.001147057
1.458263,-0.158211,-0.2763344,-0.7243189,-0.1208741,0.04477347
1.472416,-0.2344042,-0.3920256,-0.7824988,0.05222946,0.03533147
1.40291,-0.3304662,-0.3962445,-0.6695783,0.3326219,0.1840245
1.280672,-0.3932824,-0.3224363,-0.5188224,0.4571611,0.4234132
1.125329,-0.3806808,-0.280981,-0.4804776,0.5273732,0.4945291
1.101514,-0.3155564,-0.2716764,-0.5467683,0.537093,0.4139021
1.160383,-0.2696033,-0.2351998,-0.5822032,0.5664866,0.3496973
1.073145,-0.2034612,-0.1494872,-0.5804869,0.405122,0.3567725
0.9546684,-0.1532826,-0.07449542,-0.5888496,0.04932557,0.4137437
0.8679988,-0.1585892,-0.07245146,-0.5731504,-0.06422238,0.5506467
0.7812782,-0.1500603,-0.09697846,-0.5188888,-0.02730293,0.6353256
0.7522389,-0.1750566,-0.09481011,-0.4635612,0.04891416,0.5984778
0.6891478,-0.1997961,-0.09946659,-0.4626878,0.189482,0.5713903
0.6422981,-0.1826724,-0.09480746,-0.4572568,0.2391074,0.5312948
0.6636277,-0.1951224,-0.0615368,-0.3976476,0.2919282,0.5143228
0.6535388,-0.1879632,-0.06012675,-0.3481996,0.3424002,0.5252252
0.6685172,-0.1607471,-0.05203542,-0.3204814,0.292682,0.4613508
0.6910456,-0.1363583,-0.02365564,-0.3818463,0.2339273,0.4166496
0.713169,-0.1193373,-0.04979175,-0.536936,0.2431284,0.4005085
0.7676179,-0.1509463,-0.06503382,-0.6041128,0.2490513,0.3827852
0.7984144,-0.2078207,-0.04647425,-0.5601163,0.1853306,0.3936609
0.8902124,-0.3107717,-0.04767974,-0.4946165,0.2034996,0.3638696
0.9937766,-0.3800292,-0.03414434,-0.4305289,0.2119348,0.3016175
1.016912,-0.3402611,0.001040223,-0.3916326,0.125793,0.227468
1.09831,-0.3097055,0.04523258,-0.3609774,0.1090744,0.1439923
1.189811,-0.2810617,0.06594017,-0.332267,0.09215915,0.09034397
1.183071,-0.2481616,0.05508231,-0.3371836,0.09358807,0.06218438
1.208048,-0.2599432,0.0663065,-0.3817609,0.08262511,0.04017631
1.29218,-0.2243676,0.06547807,-0.486185,-0.13065,0.003921583
1.313197,-0.1873922,-0.002759516,-0.5873803,-0.5560719,0.02546939
1.308413,-0.3066051,-0.1805017,-0.5602225,-0.8851261,0.1293143
1.37076,-0.5248857,-0.4016554,-0.4697423,-0.6184814,0.1742522
1.41177,-0.617744,-0.4263396,-0.4387093,-0.1011659,0.08768664
1.26593,-0.4674083,-0.3091465,-0.4577067,0.1382859,-0.06354698
0.9862444,-0.280038,-0.278381,-0.5106905,0.2039402,-0.1687592
0.824582,-0.2785759,-0.2634166,-0.5803561,-0.07251455,-0.2593864
0.8327732,-0.3444947,-0.2502404,-0.6053237,-0.3511167,-0.3371218
0.9191063,-0.3707789,-0.2655557,-0.4454368,-0.1414194,-0.3197263
1.002504,-0.3772369,-0.2097878,-0.1197436,0.07781986,-0.375246
0.9606974,-0.3077795,-0.1774068,0.05533013,0.1931291,-0.513717
0.8746922,-0.2114776,-0.1952143,0.06414877,0.2895388,-0.559958
0.8293819,-0.1620567,-0.1816691,0.06910398,0.2449599,-0.5413052
0.7453796,-0.09847842,-0.1770577,-0.0155114,0.2271806,-0.4657838
0.6797411,-0.02675552,-0.1627563,-0.1574542,0.08226076,-0.4010915
0.6923241,-0.0567926,-0.1580963,-0.2587592,-0.09763173,-0.4001626
0.7359233,-0.126141,-0.1574367,-0.2629298,-0.001411344,-0.4147509
0.7577758,-0.06810215,-0.1225752,-0.1973788,0.02626087,-0.4323398
0.7745036,-0.02109555,-0.1198283,-0.1969913,-0.1139137,-0.3777288
0.8268592,-0.05762572,-0.115948,-0.1917321,-0.1687865,-0.2793469
0.8558974,-0.03590749,-0.1107885,-0.1488606,-0.1548244,-0.1807882
0.864463,-0.03745903,-0.1435505,-0.1349507,-0.1605755,-0.09856702
0.8744898,-0.04259751,-0.1567149,-0.1642321,-0.2210128,-0.06561202
0.8929795,-0.008479397,-0.1550217,-0.2471182,-0.2761818,0.003210886
0.967522,-0.0229309,-0.1455742,-0.2818357,-0.2817668,0.0528408
1.035577,0.0004722381,-0.1306965,-0.3101615,-0.1877216,0.05389883
1.064133,0.02819271,-0.1227192,-0.3684078,0.004420352,0.0576847
1.088516,0.003624581,-0.09985957,-0.3665323,0.08540193,0.02116502
1.15403,-0.01437268,-0.07284552,-0.3667047,0.05223076,-0.01438994
1.257315,-0.06853688,-0.06452445,-0.3140516,0.07883423,-0.1130286
1.344847,-0.1862582,-0.0975054,-0.2003624,0.1753289,-0.237213
1.455627,-0.3099515,-0.1281747,-0.1684439,0.2317255,-0.1869718
1.462917,-0.2902805,-0.1438216,-0.2715008,0.01996362,-0.04043254
1.39475,-0.2159202,-0.2815211,-0.5688265,-0.3852892,0.07720979
1.487584,-0.2588132,-0.4803961,-0.7968033,-0.4677042,0.1381449
1.495022,-0.2692633,-0.4905895,-0.6164868,-0.05536094,0.253889
1.302668,-0.3116378,-0.3752238,-0.3502516,0.3601872,0.5113585
1.158679,-0.4193097,-0.3379436,-0.3286271,0.3765903,0.6411832
1.137067,-0.3688607,-0.3295604,-0.3148869,0.3727736,0.5670651
1.185622,-0.2932769,-0.3103529,-0.300665,0.5608034,0.4722373
1.110495,-0.2518562,-0.2632795,-0.3834455,0.4357631,0.400958
0.9750917,-0.1692507,-0.1295063,-0.3257822,0.1285191,0.4457771
0.8992254,-0.1625851,-0.07715065,-0.2749248,0.04704696,0.5495907
0.7796409,-0.1580803,-0.130062,-0.3187239,0.03143628,0.5738582
0.7448473,-0.1424803,-0.117925,-0.2623451,0.07119139,0.5876379
0.7266106,-0.1804506,-0.09375125,-0.2612635,0.08540723,0.5465431
0.6651675,-0.1760851,-0.08854269,-0.2500529,0.05644069,0.4708143
0.7032114,-0.1840176,-0.08149236,-0.1595689,0.1487337,0.4958972
0.7031708,-0.2186485,-0.08783957,-0.1239181,0.2159807,0.4878641
0.7088137,-0.2154176,-0.07007005,-0.05572922,0.3163763,0.3993934
0.7608797,-0.2086764,-0.04928683,-0.01237933,0.3887508,0.3432061
0.7688258,-0.1889726,-0.04385647,-0.04025304,0.3108473,0.2764692
0.805589,-0.1946993,-0.05147723,-0.08814168,0.3005566,0.1944777
0.8172384,-0.2417309,-0.06072396,-0.1228768,0.2524149,0.1282851
0.8472219,-0.2845062,-0.04338978,-0.1041671,0.1636579,0.08105045
0.94113,-0.3113913,-0.02918873,-0.09346067,0.1546902,0.07178247
0.9827543,-0.2991419,-0.01913085,-0.0465891,0.1362591,0.0555209
0.9871126,-0.2967976,0.009712324,0.007736873,0.1271212,0.05226592
0.9744388,-0.3025496,0.05317378,0.02231841,0.06825917,0.0532285
0.9788584,-0.2692994,0.09681523,0.06644076,-0.03299292,-0.01789185
1.05662,-0.2356742,0.09627647,0.07481684,-0.1756634,-0.09216014
1.205904,-0.2178673,0.02344305,0.03773957,-0.4096189,-0.09608518
1.406719,-0.2760799,-0.09914091,0.007975657,-0.5712939,-0.01769829
1.56864,-0.3963373,-0.1978807,0.04313533,-0.5308098,0.05578936
1.577129,-0.4754804,-0.2594547,0.1329127,-0.3725198,0.004846811
1.417021,-0.5312879,-0.3329479,0.1672991,-0.3618949,-0.08981474
1.242907,-0.5358737,-0.3382471,0.1680807,-0.4198567,-0.1460773
1.144422,-0.4627982,-0.2900415,0.140809,-0.3393161,-0.1528875
1.041245,-0.379885,-0.3181337,0.08311634,-0.314929,-0.1637842
0.9450149,-0.3235515,-0.3107544,0.02276735,-0.3280075,-0.2836994
0.918748,-0.323188,-0.2589604,-0.006331037,-0.2942064,-0.4164139
0.9279649,-0.326042,-0.2709385,0.06112953,-0.2206565,-0.5081383
0.902802,-0.2692715,-0.2355127,0.1318114,-0.01626478,-0.6112829
0.8457967,-0.1895713,-0.1962065,0.1834025,0.1087873,-0.6738937
0.7879431,-0.1222397,-0.2082161,0.2167366,0.06492628,-0.6998879
0.7415879,-0.1178758,-0.1830475,0.1883624,0.03384357,-0.6569132
0.7421834,-0.1592072,-0.1743389,0.234121,0.02863767,-0.5817893
0.747856,-0.175771,-0.1714561,0.3070729,0.02790353,-0.6013318
0.7275224,-0.1817815,-0.1639697,0.3286252,0.02928559,-0.6334345
0.7250379,-0.1686839,-0.1711164,0.3513662,0.01824148,-0.6697079
0.7449845,-0.1154005,-0.1465862,0.338306,-0.01663852,-0.7029882
0.7954704,-0.04892865,-0.142902,0.3450673,-0.05330729,-0.6148352
0.8401667,-0.02126898,-0.1564135,0.3545961,-0.05445731,-0.5132586
0.8449361,-0.04058354,-0.1654015,0.3435851,-0.05467902,-0.4525846
0.8355313,-0.02271039,-0.1888792,0.365115,-0.09124532,-0.3183215
0.8279903,0.01158845,-0.2020012,0.3378539,-0.1709973,-0.1317627
0.8544071,0.01252908,-0.2207855,0.275282,-0.2544703,-0.02628709
0.9021638,0.02167045,-0.2220793,0.1849535,-0.299134,0.02073323
0.951134,0.01676901,-0.202495,0.07761458,-0.2945022,0.1313145
0.9992103,-0.002031753,-0.1926667,0.04864476,-0.2384832,0.1713837
1.013525,-0.02268229,-0.165151,0.03775367,-0.1318887,0.08136938
1.007851,-0.03537411,-0.1254206,0.06007011,0.00687926,0.03168654
1.010471,0.01060651,-0.09927455,0.123878,0.0432222,0.02981888
1.049371,0.05470742,-0.1106793,0.1162438,0.002929803,0.028949
1.13614,0.03973917,-0.1347834,0.09767446,0.08161256,-0.007089039
1.248226,-0.03959497,-0.1487838,0.1068009,0.1815723,-0.06188832
1.392949,-0.1848198,-0.204808,0.09807891,0.2020005,-0.05249137
1.534998,-0.2812488,-0.2877796,0.05546939,0.2339676,-0.05479824
1.560736,-0.3007184,-0.339199,-0.09795185,0.2051275,-0.1147698
1.387172,-0.377043,-0.296288,-0.2238925,0.02300468,-0.1249088
1.147723,-0.4520428,-0.2173376,-0.05701545,-0.1187026,-0.001545015
1.084982,-0.3971607,-0.2523639,0.1387508,-0.04476722,0.1956151
1.162702,-0.3101653,-0.2782428,0.03008202,0.03372773,0.3467833
1.381618,-0.05278534,-0.1774343,-0.8159084,0.7646294,-0.1625828
1.378797,-0.03971605,-0.1906338,-0.830016,0.987787,-0.1737201
1.362636,-0.02736082,-0.300327,-1.051036,0.4278674,-0.03753093
1.441042,-0.1514706,-0.5222339,-1.414709,-0.1973169,0.2010276
1.480857,-0.3748788,-0.5890471,-1.48801,0.1027898,0.2763162
1.369626,-0.5671586,-0.4751491,-1.125185,0.4921729,0.293638
1.246658,-0.5619794,-0.4196993,-0.7471037,0.4581599,0.3662728
1.23415,-0.4256259,-0.410381,-0.5690224,0.5203523,0.425811
1.204226,-0.3505663,-0.3546427,-0.5392797,0.4961699,0.5749753
1.154197,-0.28188,-0.3267435,-0.6359406,0.7187382,0.656928
1.106468,-0.1773992,-0.244155,-0.7741997,1.043578,0.5486534
0.949943,-0.07898859,-0.06163626,-0.8099947,0.5439065,0.5430629
0.8756868,-0.08028036,-0.03943544,-0.7579652,0.06477701,0.6696555
0.8991287,-0.1824935,-0.1117702,-0.6878619,0.1765353,0.7456209
0.7654236,-0.1902925,-0.06148483,-0.5766191,0.2049081,0.7193118
0.701509,-0.1882651,-0.06394836,-0.5377549,0.1294099,0.6438804
0.7838568,-0.2091646,-0.1184592,-0.5503284,0.1382187,0.642394
0.7702452,-0.1623805,-0.1132691,-0.4756014,0.3045105,0.664493
0.747057,-0.2116863,-0.1149786,-0.4199735,0.5068514,0.6614865
0.7323199,-0.2355775,-0.06940697,-0.3875999,0.5229425,0.6207792
0.7091735,-0.1652441,-0.02118001,-0.4203903,0.4076238,0.504256
0.7642674,-0.1483463,-0.02941464,-0.5564268,0.3471048,0.4422473
0.8082277,-0.138654,-0.03913513,-0.615035,0.4589179,0.3941379
0.8029198,-0.200172,-0.05849351,-0.6807622,0.5216726,0.306179
0.7984223,-0.2763852,-0.0234579,-0.7539603,0.4628625,0.2811885
0.8356874,-0.283575,0.02407712,-0.7397691,0.432006,0.2433014
0.9131934,-0.2895422,0.01961272,-0.7801607,0.4216862,0.1716098
0.9817081,-0.2848059,0.03949097,-0.798899,0.3819817,0.103956
1.049015,-0.3271383,0.05907097,-0.7491538,0.2569004,0.05662587
1.15072,-0.3553433,0.05938455,-0.7193964,0.1358194,0.01794873
1.302022,-0.337806,0.01954535,-0.7115525,0.0009716739,-0.0603997
1.399719,-0.3644491,-0.08799513,-0.7367822,-0.1492612,-0.05044285
1.414425,-0.4210981,-0.1913082,-0.748317,-0.114727,0.003050651
1.42394,-0.475595,-0.2643296,-0.7909655,-0.02098218,-0.03954539
1.328278,-0.4198251,-0.3123298,-0.8886431,-0.0223323,-0.1355805
1.148214,-0.3517267,-0.3517099,-1.012454,-0.01627031,-0.2496174
1.054599,-0.4030909,-0.3968393,-1.113568,0.02915657,-0.2141626
1.033814,-0.4070534,-0.397992,-1.056509,0.0689129,-0.1382842
0.9882318,-0.364768,-0.3331146,-0.9961419,0.07282268,-0.2607906
0.9215825,-0.3530567,-0.2743089,-0.9411886,0.0612492,-0.3348711
0.9247626,-0.3346531,-0.2736014,-0.7368558,0.09304962,-0.3296859
0.9288708,-0.3095372,-0.2580499,-0.6248201,0.1616437,-0.3859443
0.8722461,-0.2566943,-0.1965242,-0.5649697,0.2149092,-0.431222
0.837855,-0.1948778,-0.1571908,-0.4343292,0.2326319,-0.4906235
0.7780211,-0.1474296,-0.1544109,-0.4377604,0.2271137,-0.4753746
0.7266138,-0.09615728,-0.1524457,-0.4675448,0.2325421,-0.3893905
0.7250351,-0.07254429,-0.1444137,-0.432074,0.1823553,-0.3641751
0.6891238,-0.08623927,-0.1446347,-0.4428246,0.06187669,-0.356371
0.6804288,-0.07827765,-0.1339541,-0.4417614,-0.01106275,-0.376084
0.704954,-0.04624147,-0.1197349,-0.4276741,-0.0553087,-0.3593876
0.7307368,-0.04298038,-0.1222861,-0.4008905,-0.1305768,-0.279186
0.7661996,-0.0541413,-0.120553,-0.3043734,-0.2591931,-0.2159362
0.7804743,-0.05434641,-0.1335434,-0.2417764,-0.3522736,-0.1473147
0.822744,-0.03711486,-0.1638317,-0.2933642,-0.3535193,-0.0912523
0.884257,0.01541523,-0.1826513,-0.3866013,-0.3593226,-0.02877242
0.9762521,0.07073884,-0.1851571,-0.491283,-0.2604927,-0.02587067
1.095136,0.08343369,-0.174683,-0.6410794,-0.03814637,-0.09693344
1.143415,0.05574975,-0.1592975,-0.7274693,0.2035016,-0.1063193
1.198127,0.01451674,-0.1371691,-0.6784302,0.4050363,-0.1289223
1.287704,-0.06627036,-0.1612893,-0.6210423,0.4821413,-0.1428791
1.348948,-0.2113277,-0.2217139,-0.5327655,0.6012175,-0.1119112
1.378598,-0.2930689,-0.242067,-0.4518664,0.6122854,-0.05179161
1.369761,-0.2598193,-0.3097993,-0.602321,0.3024153,0.1058595
1.392219,-0.2780259,-0.4240944,-0.7406617,0.1368544,0.1578722
1.394973,-0.3590804,-0.438836,-0.5607329,0.3532795,0.1275546
1.278193,-0.3565758,-0.3905461,-0.377541,0.5819045,0.2550252
1.133066,-0.3096523,-0.3510186,-0.3774843,0.5107184,0.4273036
1.067654,-0.279215,-0.2981398,-0.3495037,0.4021579,0.4946758
1.094102,-0.2153107,-0.2655134,-0.3508258,0.432198,0.442902
1.104871,-0.1663516,-0.2496384,-0.4511751,0.3487579,0.3963351
1.075003,-0.179231,-0.1879058,-0.4895627,0.3305909,0.4071534
1.045772,-0.2045615,-0.1457926,-0.4786545,0.342704,0.4481462
0.9596995,-0.2186425,-0.1516311,-0.4416318,0.2274306,0.5608017
0.8776422,-0.2305293,-0.1397293,-0.3680157,0.2605713,0.5856834
0.8247831,-0.2361076,-0.1298572,-0.3371944,0.2301768,0.5329785
0.771483,-0.2078336,-0.1015394,-0.3026201,0.1136566,0.5438304
0.7842225,-0.178209,-0.06924073,-0.2550748,0.1562486,0.5100109
0.7786563,-0.1757741,-0.07528082,-0.2412127,0.1779235,0.4664885
0.7330415,-0.1608037,-0.05569423,-0.2373647,0.2139818,0.4207441
0.7319002,-0.1536153,-0.04314785,-0.2770176,0.2649288,0.3254044
0.7317824,-0.1650228,-0.05868012,-0.3486022,0.2480079,0.2893755
0.7360841,-0.1678332,-0.05629827,-0.404962,0.2464984,0.2627611
0.7404285,-0.1777096,-0.05856057,-0.4549666,0.2475977,0.2397597
0.7604199,-0.2051888,-0.05631178,-0.4705159,0.2717046,0.2606618
0.874916,-0.2446736,-0.04172991,-0.4389907,0.3140387,0.2349685
1.000331,-0.2702119,-0.0301976,-0.4288337,0.3737205,0.1935327
1.021871,-0.2646045,-0.01979687,-0.4442427,0.4388333,0.1226163
1.031993,-0.2644529,0.02200054,-0.4457153,0.4129234,-0.02141722
1.167707,-0.2775427,0.09680958,-0.4675115,0.2246612,-0.1485041
1.285679,-0.2771617,0.08899143,-0.4642822,-0.1372106,-0.2021111
1.327446,-0.3128683,-0.04948313,-0.4045356,-0.3929916,-0.1320747
1.492505,-0.4197059,-0.2300039,-0.3538273,-0.3280236,-0.0155658
1.578939,-0.4918637,-0.3234515,-0.3402267,-0.1713586,0.0004919943
1.378358,-0.4464851,-0.3011436,-0.446406,-0.1103609,-0.01255464
1.1531,-0.3814907,-0.3170618,-0.6250483,-0.1302043,0.01142338
1.029838,-0.387012,-0.3515526,-0.7060348,-0.182412,0.0189304
0.9639541,-0.3956921,-0.3087253,-0.719178,-0.1925332,-0.06073594
0.9343442,-0.3943442,-0.3161127,-0.7088788,-0.1720009,-0.2253091
0.9319422,-0.4036067,-0.327611,-0.5890989,-0.1289539,-0.3214009
0.9861805,-0.3757407,-0.2758175,-0.3525104,0.002691987,-0.3424157
1.001344,-0.337821,-0.260308,-0.1718972,0.0954868,-0.4031173
0.9388052,-0.2814813,-0.2165335,-0.1071536,0.05526413,-0.4419146
0.8731408,-0.1991775,-0.1639513,-0.04343083,0.04339175,-0.4199318
0.8083722,-0.1590986,-0.1666789,-0.0174141,0.07311777,-0.4051044
0.7607597,-0.1391257,-0.1742956,-0.04139657,0.06971816,-0.405582
0.7092301,-0.1274834,-0.1911722,-0.03644919,0.08460311,-0.4192474
0.68239,-0.1208684,-0.1634752,-0.03632514,0.09358366,-0.4692454
0.7078202,-0.08220926,-0.1242103,-0.05069081,0.01646217,-0.4955779
0.6962263,-0.02186645,-0.1253326,-0.07432061,-0.1413175,-0.4394109
0.7029652,0.01769463,-0.104592,-0.09544612,-0.2874931,-0.3501868
0.7515313,-0.01870693,-0.09554073,-0.05570576,-0.3265498,-0.2583421
0.7866803,-0.05152455,-0.1122435,-0.01586776,-0.3355997,-0.1735726
0.829475,-0.01183252,-0.1607485,-0.07160177,-0.3714443,-0.1142934
0.8424832,-0.002578811,-0.2113465,-0.148498,-0.3362534,-0.07133964
0.8819255,-0.02436882,-0.1737204,-0.1448304,-0.3196055,-0.04898049
0.989761,-0.0232832,-0.1228206,-0.09483852,-0.3042852,-0.05434441
1.098804,-0.01756574,-0.122324,-0.0604412,-0.1374873,-0.1037202
1.210192,-0.004503214,-0.1271546,-0.07490432,0.06870741,-0.2043891
1.317065,-0.02470146,-0.1427246,-0.1002994,0.2902649,-0.3202904
1.42028,-0.1304953,-0.1956828,-0.08060066,0.4548676,-0.3633159
1.450899,-0.2318957,-0.2688046,-0.1295079,0.4133027,-0.2437894
1.38606,-0.1916625,-0.3601385,-0.347718,0.1288034,-0.02635305
1.368489,-0.1617048,-0.4772671,-0.5494838,-0.1864407,0.1292951
1.364361,-0.3461198,-0.5040034,-0.4454489,0.1015893,0.1633436
1.263103,-0.4927465,-0.4041064,-0.1921517,0.6071528,0.1976062
1.127725,-0.4179314,-0.3265749,-0.1418237,0.5719651,0.3449138
1.096348,-0.3265756,-0.2931561,-0.1656852,0.5366893,0.4587682
1.145959,-0.2456741,-0.2550489,-0.2029451,0.6261125,0.4372272
1.107653,-0.1365541,-0.2209519,-0.3320672,0.5489754,0.3819936
1.009509,-0.1282275,-0.1520446,-0.3809429,0.3981814,0.3475508
0.9034191,-0.1810274,-0.08789749,-0.3664462,0.05931049,0.3877215
0.8048962,-0.205033,-0.1091311,-0.3187996,-0.1127047,0.4666747
0.8016354,-0.2540891,-0.1363495,-0.2168191,0.00104189,0.4677655
0.801577,-0.2784177,-0.1191502,-0.1181003,0.02206575,0.4341512
0.7887796,-0.2538771,-0.1226605,-0.01248488,0.1433381,0.3768389
0.8047358,-0.2542935,-0.1234253,0.05291276,0.3318726,0.2821591
0.764918,-0.2026403,-0.09173092,0.09738676,0.3438609,0.2279108
0.73084,-0.1116618,-0.07083499,0.07667165,0.3572459,0.1844808
0.7254783,-0.08989898,-0.05615471,0.005507975,0.3775943,0.1126116
0.7313388,-0.09972413,-0.05219997,-0.03685655,0.2944478,0.07438253
0.7500217,-0.1094289,-0.05451462,-0.1407142,0.2730072,0.09188555
0.7130346,-0.1410615,-0.03309771,-0.1385665,0.2923422,0.114172
0.6935273,-0.22382,-0.01407553,-0.004386624,0.1716059,0.1087576
0.73001,-0.2818199,0.01181532,0.0830433,0.05559836,0.07502823
0.7972148,-0.2497795,0.0263238,0.1047494,-0.006969662,0.01035296
0.8953311,-0.2198094,0.005107032,0.02300226,-0.05246663,-0.03030707
0.938504,-0.2013591,0.008023126,0.006547519,-0.06429043,-0.04774627
0.9707454,-0.206967,0.01664394,0.06463808,-0.1776368,-0.1085815
1.092512,-0.2480697,0.01402271,0.1255097,-0.3125429,-0.16437
1.272932,-0.2474929,0.006106416,0.2320867,-0.4065219,-0.1758399
1.438736,-0.2589597,-0.05520011,0.2130903,-0.4846575,-0.1422003
1.542732,-0.3270486,-0.1427578,0.2528563,-0.5063921,-0.04689454
1.613396,-0.4125495,-0.1996608,0.4930978,-0.4785664,0.04566899
1.616824,-0.4581112,-0.235391,0.5770202,-0.3165236,0.0504002
1.414017,-0.4342953,-0.2791261,0.3534226,-0.2283344,-0.01753121
1.022981,-0.4484124,-0.2576826,0.1419462,-0.4009858,-0.1035656
0.7523252,-0.4960388,-0.174399,0.3293804,-0.6937837,-0.2910056
0.8031673,-0.4936124,-0.1925147,0.5801077,-1.046372,-0.5556353
0.9411837,-0.4644533,-0.2577499,0.5982717,-1.103801,-0.6920517
0.9880304,-0.4202705,-0.2977004,0.7546498,-0.5156205,-0.742358
0.9902926,-0.4184114,-0.3315032,0.972289,0.09700497,-0.7868765
0.8949514,-0.4249067,-0.274839,1.151524,-0.09906708,-0.7779216
0.7867043,-0.3514686,-0.2383572,1.496724,-0.5219167,-0.7127412
0.8029283,-0.2798716,-0.2813985,1.738137,-0.4893277,-0.5597244
0.8332658,-0.2211555,-0.2904516,1.710713,-0.4310835,-0.4383105
0.8310946,-0.1799761,-0.2985417,1.676942,-0.3097605,-0.4822513
0.8279876,-0.1960167,-0.2905835,1.708081,-0.2317259,-0.5966085
0.807834,-0.192915,-0.2727825,1.686668,-0.3402641,-0.6944885
0.7943412,-0.1873044,-0.2819755,1.698783,-0.1247558,-0.7472289
0.7761419,-0.1963014,-0.2546497,1.813608,-0.005485532,-0.834683
0.7528311,-0.1808431,-0.2099481,1.902628,-0.09923396,-0.9883974
0.7488944,-0.1466787,-0.178609,1.988131,-0.04152393,-1.004009
0.7512296,-0.0433163,-0.1759085,2.112699,-0.1239827,-0.8816239
0.7623418,0.08518684,-0.2156036,2.143125,-0.3408462,-0.7501695
0.8218,0.1153812,-0.2626272,1.926999,-0.6558274,-0.6131947
0.9280559,0.06048312,-0.2756207,1.625321,-0.6948236,-0.5966128
0.9693218,0.02086417,-0.2066653,1.562952,-0.3133587,-0.6104002
0.9352847,0.03151138,-0.1023772,1.567694,-0.1711269,-0.4763178
0.9387908,0.03328247,-0.05707509,1.476791,-0.2666659,-0.3714361
0.9703251,0.02041357,-0.07385068,1.420309,-0.3797856,-0.3239768
1.012066,0.001420004,-0.0826191,1.373784,-0.3632934,-0.3086687
1.089618,-0.04778577,-0.06322689,1.412343,-0.1814179,-0.3641272
1.195698,-0.1139129,-0.08366156,1.535862,-0.02040821,-0.3948245
1.34985,-0.1921002,-0.1270973,1.55352,0.1892476,-0.473599
1.43613,-0.1911672,-0.1623534,1.309771,0.2255867,-0.4887001
1.386418,-0.07075498,-0.231698,0.7594822,-0.006349061,-0.2763723
1.421111,0.004085233,-0.373979,0.2756657,-0.2967535,0.03121855
1.47362,-0.06246783,-0.5267011,0.1292128,-0.3563648,0.3988323
1.352154,-0.2807456,-0.5279386,0.09995437,-0.01707256,0.6505165
1.257002,-0.4906105,-0.4866279,0.113826,0.1698576,0.6872011
1.187668,-0.4334486,-0.4394267,0.2547499,0.07990961,0.6485025
1.04305,-0.3171646,-0.2482016,0.4319229,0.04024937,0.501949
0.997962,-0.3160933,-0.2140617,0.5047142,-0.008433859,0.3204282
1.006171,-0.205542,-0.2951441,0.4618859,-0.09431174,0.2256049
0.9555384,-0.1382113,-0.2152543,0.437024,-0.1151878,0.2535528
0.9504633,-0.2200606,-0.2193571,0.4676693,0.01120243,0.3360331
0.9663136,-0.2135847,-0.2333819,0.4883546,0.08656224,0.3866755
0.9198436,-0.2189238,-0.1832032,0.5295774,0.1803757,0.457351
0.8853882,-0.2398842,-0.1949937,0.5408628,0.3307172,0.3933278
0.8743052,-0.1904667,-0.125005,0.5077247,0.2274404,0.2901127
0.8551192,-0.1989985,-0.1025419,0.531288,0.2253609,0.3493864
0.8310894,-0.1693134,-0.1171154,0.513462,0.374991,0.3306141
0.7653464,-0.1195323,-0.04771836,0.4476701,0.3858278,0.2955226
0.7419162,-0.143923,-0.05791892,0.4020353,0.387531,0.3244683
0.7657978,-0.149789,-0.05687821,0.2914863,0.3522834,0.2927281
0.770943,-0.1776287,-0.03202028,0.1589721,0.4386311,0.280193
0.8075053,-0.2266138,-0.04343044,0.04112111,0.5441584,0.2482084
0.7862846,-0.2738197,-0.0109719,-0.004303809,0.4335023,0.215736
0.7581257,-0.3109578,0.001579212,0.03478015,0.399563,0.1907616
0.8473861,-0.296495,0.02631708,0.009557128,0.4318411,0.09072726
0.9203196,-0.3028529,0.08159075,-0.004379034,0.3946569,0.006368694
0.9896151,-0.2985186,0.09201177,-0.02480335,0.2496698,-0.08728562
1.154706,-0.2559373,0.06024165,-0.1771155,-0.02467655,-0.1485398
1.335336,-0.2696749,-0.0250497,-0.3308974,-0.2529676,-0.0894022
1.44795,-0.3725549,-0.1605075,-0.3882576,-0.4530842,-0.01890716
1.535788,-0.5378827,-0.3136162,-0.371466,-0.5115395,0.0872906
1.58248,-0.624898,-0.4016391,-0.4189279,-0.1302012,0.1542562
1.488548,-0.5617338,-0.3911162,-0.5399861,0.2716782,0.0466723
1.284717,-0.4219795,-0.3352898,-0.665451,0.1171459,-0.03246126
1.002398,-0.2710651,-0.2841109,-0.916524,-0.1242454,-0.01548989
0.7916212,-0.2539674,-0.2926365,-1.080314,-0.1391502,-0.04457428
0.7603717,-0.3363863,-0.3062048,-0.9734953,-0.2801321,-0.0984722
0.8134074,-0.3584231,-0.2869334,-0.7910492,-0.1875941,-0.1869674
0.9849108,-0.4102633,-0.2659132,-0.5142051,0.1309137,-0.3751203
1.035176,-0.4041825,-0.2010152,-0.2838594,0.2097985,-0.5685842
0.8860312,-0.2643588,-0.1339591,-0.238421,0.2956768,-0.6082047
0.820788,-0.1963495,-0.1283965,-0.1705329,0.3125059,-0.5086501
0.7146086,-0.1211333,-0.138157,-0.201008,0.2399182,-0.4458017
0.6524758,-0.06468067,-0.1383009,-0.3115565,0.2199721,-0.472319
0.6928872,-0.1155266,-0.144236,-0.2998596,0.08690138,-0.5169823
0.6474252,-0.08079298,-0.1437895,-0.3409885,-0.007271571,-0.5367099
0.670925,-0.0463875,-0.1249336,-0.3670179,-0.1790222,-0.4695866
0.712681,-0.04764225,-0.1146845,-0.3134977,-0.344419,-0.346163
0.7614486,-0.04800987,-0.1199923,-0.2489967,-0.2282844,-0.2898354
0.8469253,-0.1108778,-0.1321236,-0.07233317,-0.1730836,-0.2613025
0.8277012,-0.08026542,-0.1543291,-0.03196711,-0.1845422,-0.1887259
0.8383559,-0.01239583,-0.1649636,-0.200489,-0.1739456,-0.1183824
0.8723357,0.04166014,-0.1518618,-0.3496947,-0.2299173,-0.0487405
0.911797,0.1167386,-0.1411848,-0.489473,-0.2500978,0.001208847
0.9989159,0.07813912,-0.1569827,-0.5563525,-0.2217778,-0.007539902
1.066703,0.04827249,-0.1790224,-0.573874,-0.1253019,-0.02953717
1.18375,0.03765947,-0.1839845,-0.571215,0.0116823,-0.111891
1.276875,-0.05096876,-0.1682961,-0.4684064,0.1934925,-0.2795931
1.326349,-0.09333186,-0.1294863,-0.3631027,0.3219785,-0.3045797
1.363119,-0.1052876,-0.1269733,-0.3216108,0.213504,-0.003437267
1.361304,-0.09120657,-0.2393772,-0.4698958,0.06891023,0.3656055
1.46467,-0.1086328,-0.4224346,-0.7480815,0.06078572,0.4147346
1.521117,-0.3241754,-0.4881387,-0.7754042,0.1743718,0.3122948
1.316606,-0.556397,-0.3630698,-0.5106821,0.3118966,0.3778613
1.062928,-0.5344099,-0.2508379,-0.168066,0.2844291,0.4764904
1.014229,-0.3827501,-0.2556421,0.01895475,0.2170728,0.5487603
1.106208,-0.290424,-0.2582523,-0.02909638,0.262281,0.5943904
1.116273,-0.1660439,-0.212368,-0.1250084,0.3146599,0.4753058
1.083742,-0.0944064,-0.1549598,-0.231776,0.3463365,0.3934969
1.025573,-0.1645804,-0.1282961,-0.2917254,0.2489026,0.4566832
0.8791669,-0.1651762,-0.1238287,-0.2500317,0.03797139,0.5062477
0.8000402,-0.1789056,-0.1075854,-0.2458322,0.01025697,0.554092
0.7611128,-0.2330333,-0.100143,-0.2172185,0.04521384,0.5373727
0.7198485,-0.1853046,-0.09005831,-0.1716217,0.01161292,0.4842725
0.7485514,-0.1841705,-0.09340402,-0.1912456,0.08399937,0.5066316
0.7328137,-0.2070023,-0.117401,-0.1474934,0.1804635,0.498628
0.7072901,-0.2044063,-0.08880211,-0.0687773,0.2395845,0.4523882
0.7389082,-0.2268267,-0.04900137,-0.03014287,0.211354,0.3844406
0.7708201,-0.1971861,-0.0426933,-0.03243613,0.1436803,0.3024718
0.8391474,-0.1710082,-0.04242839,-0.09560471,0.2446235,0.2869592
0.8632689,-0.1733532,-0.05431838,-0.1644234,0.2893602,0.2773022
0.837791,-0.1820917,-0.04566383,-0.2048118,0.1783055,0.2813102
0.8834214,-0.230067,-0.02505321,-0.1737349,0.142093,0.3240399
0.9325844,-0.2683817,-0.004605052,-0.1258078,0.2057025,0.2855196
0.9677226,-0.2631904,0.0299269,-0.1529761,0.2644738,0.1956502
1.027165,-0.2474447,0.04933623,-0.1649836,0.152248,0.1179437
1.121757,-0.2701227,0.08443904,-0.1906166,-0.03628426,0.0381714
1.237023,-0.281029,0.09560272,-0.2581316,-0.16329,-0.01798498
1.296152,-0.2658226,0.02920322,-0.2720133,-0.371729,-0.04323701
1.386186,-0.3198462,-0.07815389,-0.2359748,-0.5226169,0.06524233
1.439257,-0.4605923,-0.222384,-0.05903848,-0.365084,0.2093171
1.342091,-0.5767131,-0.2908878,0.1459432,-0.1656863,0.09255588
1.261048,-0.4410376,-0.2995117,0.02623189,-0.2465729,-0.09199479
1.109231,-0.2312903,-0.3824591,-0.2520601,-0.2862072,-0.1473014
0.9371507,-0.2882913,-0.3951244,-0.3691085,-0.1972858,-0.2123263
0.9299327,-0.3516456,-0.3331699,-0.3476113,-0.3504363,-0.2816773
0.92303,-0.368199,-0.3165615,-0.142846,-0.4303061,-0.3986252
1.001039,-0.4863053,-0.2802838,0.2366091,-0.2195051,-0.5382108
1.096914,-0.4448324,-0.2508492,0.5974702,0.02177692,-0.5905015
0.995145,-0.3116244,-0.2232894,0.7695796,0.218206,-0.6018013
0.8945541,-0.2041571,-0.1907936,0.7037691,0.2034073,-0.5273928
0.7958565,-0.04648845,-0.2056561,0.5337604,0.0833712,-0.4307618
0.7094656,-0.03600119,-0.1896433,0.2935167,0.02802312,-0.3946991
0.7166259,-0.09604523,-0.1720134,0.1434858,-0.03296136,-0.3816486
0.6900565,-0.08810214,-0.1714877,0.2338615,-0.1036339,-0.4800254
0.6753063,-0.1188755,-0.1362828,0.2470226,-0.2939819,-0.5830425
0.692683,-0.1129012,-0.1414615,0.2776989,-0.4053034,-0.5430754
0.715765,-0.1008171,-0.1564885,0.5092478,-0.3296313,-0.4660336
0.747416,-0.1161003,-0.1469047,0.6430968,-0.3451332,-0.407135
0.7441124,-0.05280933,-0.1589916,0.7008371,-0.3847481,-0.3555647
0.7603014,0.01917477,-0.173892,0.7035494,-0.4419211,-0.2960235
0.7995917,0.04575799,-0.2023205,0.5954566,-0.5364051,-0.2100791
0.8501378,0.03586744,-0.2097135,0.4986114,-0.4584777,-0.1757377
0.9428767,0.02551862,-0.1585328,0.4403325,-0.2583933,-0.2581431
1.045884,0.03941184,-0.1114178,0.4738535,-0.01201409,-0.3368906
1.086652,0.02641843,-0.08883212,0.5122553,0.1730556,-0.3489599
1.091447,0.01853362,-0.07901359,0.5428371,0.04739967,-0.3556211
1.193274,-0.01651389,-0.1186714,0.6065366,-0.08244957,-0.2987813
1.344908,-0.1286082,-0.2181118,0.5082107,0.1367095,-0.1880417
1.443742,-0.2008826,-0.3092598,0.2839487,0.2695571,-0.06121214
1.474933,-0.1833022,-0.399752,-0.05082142,0.1983601,0.06949393
1.443236,-0.1933516,-0.4792438,-0.3829354,0.2451302,0.1155109
1.3372,-0.2883842,-0.3920736,-0.3359191,0.2667658,0.2091995
1.131078,-0.3262412,-0.2506027,-0.1943827,0.2625799,0.4063666
1.081482,-0.2945049,-0.2509547,-0.2169298,0.3242652,0.5156789
1.183746,-0.3061965,-0.2289932,-0.128617,0.2703547,0.5895433
1.143586,-0.2991078,-0.1393,-0.1159972,0.09493846,0.6457571
1.151763,-0.2753234,-0.1067963,-0.2015133,-0.0946644,0.5595716
1.177809,-0.2560187,-0.09307451,-0.1068305,-0.1511045,0.4933919
1.072891,-0.2029679,-0.1013295,-0.09111681,-0.1352327,0.5427613
0.9765404,-0.177019,-0.1364045,-0.15676,-0.2196933,0.5551263
0.8198572,-0.1699491,-0.1433801,-0.1549624,-0.2186191,0.5178645
0.7607759,-0.1678665,-0.121753,-0.2031252,-0.1553966,0.4834067
0.8055283,-0.1878136,-0.08062581,-0.1362747,-0.1842246,0.4540472
0.7431438,-0.1897703,-0.07258063,0.01294123,-0.1017552,0.4461556
0.7490107,-0.1822535,-0.08639724,0.1431692,0.09695291,0.4028496
0.756887,-0.1684611,-0.06989127,0.2837513,0.2709771,0.2897151
0.7227876,-0.1450769,-0.0701005,0.2642779,0.3563003,0.2320448
0.747603,-0.1283812,-0.07176577,0.1852595,0.3167751,0.2401645
0.7143529,-0.1111625,-0.0492562,0.1144112,0.3262647,0.1751181
0.7112857,-0.1214525,-0.03453579,0.03414239,0.373099,0.1049462
0.7534809,-0.1884715,-0.01998834,0.1156673,0.3956406,0.1138597
0.7770206,-0.2740657,-0.002518481,0.1984968,0.4615948,0.1094418
0.8470834,-0.3097074,0.01959341,0.158793,0.4373025,0.04535555
0.8984384,-0.2841665,0.04040363,0.1521256,0.3854791,-0.06200291
0.9171942,-0.2571806,0.07581568,0.1659138,0.3308027,-0.1453002
0.9221765,-0.2462775,0.1236859,0.1651108,0.1578746,-0.1416203
0.9460033,-0.2354995,0.1139475,0.194009,0.02001567,-0.09578524
1.046664,-0.238718,0.08320238,0.2128066,-0.1190689,-0.07094239
1.192261,-0.244853,0.07610072,0.1986172,-0.2997541,-0.0333529
1.391652,-0.2909136,0.04101291,0.2273507,-0.4649852,0.09703256
1.538346,-0.4268984,-0.03546199,0.3377281,-0.6896387,0.2501356
1.549387,-0.5487933,-0.158285,0.4647812,-0.7005506,0.2570635
1.543174,-0.5531929,-0.2610571,0.4427535,-0.3527214,0.09843575
1.447075,-0.4733202,-0.2692883,0.232716,-0.1231551,-0.1172211
1.145177,-0.4104736,-0.2596105,0.05643116,-0.3057346,-0.2789005
0.8172667,-0.4193401,-0.2758841,0.05639285,-0.5867792,-0.3001986
0.7607099,-0.45532,-0.3223448,0.1946926,-0.656269,-0.2584841
0.9581351,-0.4850813,-0.3833457,0.395422,-0.5958695,-0.2923061
1.077524,-0.4897685,-0.3670206,0.6378119,-0.426854,-0.376066
1.059563,-0.4548585,-0.3171197,0.8815961,-0.18862,-0.5311152
0.9740702,-0.3806667,-0.2929903,1.006729,-0.1491066,-0.6852312
0.8213135,-0.2652827,-0.2556932,1.047763,-0.2213429,-0.6352656
0.7693553,-0.1722437,-0.2367506,1.049966,-0.2163913,-0.5240644
0.7791233,-0.1176656,-0.2333789,0.9868582,-0.2104328,-0.5027215
0.7427631,-0.06953087,-0.2307532,0.895384,-0.1479001,-0.5336977
0.7460622,-0.07404076,-0.2314492,0.8098774,-0.06624012,-0.6510713
0.7226236,-0.08709676,-0.1987359,0.8094523,-0.1209297,-0.7533907
0.6668048,-0.04985045,-0.1678024,0.8275942,-0.209171,-0.7634812
0.672734,-0.04843755,-0.1400956,0.8172712,-0.2541692,-0.7046224
0.6951423,-0.06569773,-0.0878326,0.8814577,-0.3632508,-0.5651813
0.7178862,-0.04329033,-0.0770286,0.9050054,-0.5356122,-0.4371718
0.7686323,-0.0162611,-0.1301449,0.8449955,-0.5923199,-0.3584833
0.8347955,0.056682,-0.1781237,0.7108651,-0.4694039,-0.3458146
0.9141598,0.1237079,-0.1695608,0.4524849,-0.3527045,-0.3694969
1.026067,0.09830643,-0.1329886,0.2762818,-0.2941962,-0.3191951
1.112765,0.07529447,-0.102028,0.2284334,-0.1298501,-0.3048465
1.127166,0.05929255,-0.07687244,0.194796,0.05085367,-0.3441814
1.176182,0.006577124,-0.07380825,0.2627886,0.1041551,-0.3659578
1.301984,-0.0548181,-0.1064601,0.3544759,0.2559635,-0.4029108
1.374131,-0.1236535,-0.1556599,0.3021542,0.4899724,-0.2983945
1.329405,-0.1377726,-0.1840067,0.1539447,0.4089429,-0.04837526
1.303753,-0.1137698,-0.2631192,-0.0981791,0.07654348,0.1452935
1.36828,-0.1653253,-0.4237978,-0.3520649,-0.1194502,0.2292667
1.3923,-0.274175,-0.4773026,-0.3495169,0.008266427,0.2583303
1.339774,-0.3905213,-0.4088639,-0.2514815,0.3061318,0.3390597
1.254274,-0.4599687,-0.3473392,-0.1421314,0.3817309,0.4210909
1.142734,-0.4267342,-0.2684295,0.1114686,0.3342056,0.4359437
1.09034,-0.3424571,-0.2266702,0.1537095,0.3593055,0.4235596
1.101112,-0.2232712,-0.2224002,-0.02242969,0.3006558,0.3762511
1.066326,-0.1241474,-0.1482785,-0.04998146,0.253847,0.3841168
0.9745048,-0.1363415,-0.108773,-0.08871224,0.1354944,0.4816543
0.8603345,-0.1618019,-0.125249,-0.1313757,-0.0402197,0.6011938
0.7469363,-0.1615996,-0.09403054,-0.08662831,0.02309046,0.6715757
0.6869161,-0.1665582,-0.07714785,-0.113239,0.08694945,0.6272045
0.6853643,-0.1476587,-0.07797622,-0.1160278,0.06554651,0.6170673
0.6921867,-0.153854,-0.06989792,-0.09735766,0.1297909,0.6480453
0.7050966,-0.1682116,-0.07684952,-0.08877348,0.2251511,0.5959453
0.733388,-0.1726285,-0.06519261,-0.0276864,0.3497207,0.5681323
0.754241,-0.1907607,-0.0607396,-0.03432163,0.4510353,0.5519918
0.7633662,-0.1814008,-0.05674566,-0.06841078,0.4730774,0.5008699
0.7673605,-0.186389,-0.03344277,-0.1132567,0.3968318,0.4547635
0.7886134,-0.22,-0.03114762,-0.2182048,0.2527903,0.418405
0.8384754,-0.2512137,-0.01460987,-0.2434045,0.1980471,0.4357729
0.9039635,-0.2797585,0.02745143,-0.2244669,0.2722917,0.4106636
0.9918106,-0.2779603,0.07892005,-0.2570193,0.3472952,0.2969991
1.03539,-0.2714575,0.1173311,-0.2815554,0.3379913,0.1871452
0.996903,-0.2505073,0.1181827,-0.3021495,0.2809773,0.1256751
0.9930582,-0.2155137,0.1369795,-0.3627371,0.1135912,0.1504127
1.043793,-0.223201,0.1496285,-0.4587371,-0.1997459,0.1387033
1.185874,-0.2473255,0.09116438,-0.594454,-0.4045544,0.08863395
1.500078,-0.3092096,-0.02226828,-0.7239517,-0.3804666,0.1457707
1.6757,-0.4114803,-0.1369472,-0.7220669,-0.3240054,0.1704756
1.558056,-0.4854916,-0.2025764,-0.6151334,-0.2797043,0.106484
1.491578,-0.5440088,-0.2908059,-0.5621027,-0.1846882,0.06631514
1.410604,-0.5111284,-0.366939,-0.6216863,-0.1905753,0.04494095
1.101443,-0.3612604,-0.3183086,-0.7200737,-0.3019067,0.01046804
0.8828545,-0.2838248,-0.3107943,-0.7510907,-0.374506,-0.06543455
0.8736403,-0.2900972,-0.349412,-0.7232522,-0.4184208,-0.14005
0.8973015,-0.3223826,-0.3127044,-0.6291395,-0.343998,-0.1892373
0.9800268,-0.3805029,-0.318709,-0.4229101,-0.1066108,-0.2542639
1.044019,-0.3290538,-0.2822002,-0.2380619,0.1434201,-0.3116954
0.9737912,-0.2324072,-0.176448,-0.1730628,0.2223674,-0.337862
0.8626686,-0.1803694,-0.1700733,-0.1761563,0.1526362,-0.3250751
0.7832374,-0.09704835,-0.1847097,-0.2554583,0.1714833,-0.3174447
0.7330881,-0.07198223,-0.1831791,-0.400299,0.1221405,-0.3332269
0.7080978,-0.08706217,-0.1774398,-0.4804954,-0.01160959,-0.3299034
0.7278301,-0.09017317,-0.1513555,-0.458175,0.01575277,-0.3428461
0.7536442,-0.1161567,-0.1363152,-0.4335351,-0.03742812,-0.345112
0.7537035,-0.08431025,-0.1060266,-0.4119857,-0.131871,-0.3044639
0.7746633,-0.05530414,-0.1095783,-0.3702313,-0.1457348,-0.2540191
0.7756677,-0.07056363,-0.1300654,-0.3501348,-0.2129226,-0.1920684
0.7587,-0.0579807,-0.1279304,-0.3507061,-0.2199514,-0.1720206
0.7801625,-0.01984681,-0.1497794,-0.3827122,-0.2474037,-0.1484947
0.8528649,0.0585847,-0.1600855,-0.4669603,-0.2752985,-0.08427891
0.9866811,0.1008597,-0.1746445,-0.6014989,-0.2149545,-0.1094428
1.091071,0.03609495,-0.1856528,-0.7321469,-0.1228921,-0.147943
1.181986,-0.05541175,-0.1648877,-0.7449961,0.1634752,-0.1112925
1.328813,-0.1227774,-0.163474,-0.6449109,0.4886902,-0.1156171
1.40536,-0.1699527,-0.1637737,-0.5130078,0.6806462,-0.1217289
1.394218,-0.167539,-0.1835993,-0.4152591,0.757352,-0.04225377
1.392085,-0.1218263,-0.2682105,-0.4449371,0.4561257,0.1486676
1.398188,-0.1420381,-0.3673505,-0.6141684,0.01667818,0.420355
1.392338,-0.2983865,-0.4291943,-0.7801578,-0.003539735,0.4931506
1.371042,-0.475182,-0.4774083,-0.7440856,0.1056384,0.3139125
1.339371,-0.4699724,-0.4765325,-0.5079904,0.07758721,0.2532844
1.259911,-0.3818264,-0.3591665,-0.2522272,0.2998403,0.423724
1.126367,-0.3784847,-0.2666572,-0.1352418,0.53754,0.5884376
1.067285,-0.2811914,-0.2528086,-0.2644914,0.4276889,0.5869277
1.116931,-0.1328157,-0.2004387,-0.4526973,0.3563803,0.5181228
1.099782,-0.0731524,-0.1286012,-0.540717,0.344407,0.5035503
0.9454388,-0.0587585,-0.07166312,-0.6509316,0.1628977,0.4932174
0.814223,-0.137416,-0.05419363,-0.6561355,-0.006622687,0.5322103
0.7852221,-0.1664063,-0.07008078,-0.5714191,-0.01200255,0.6236293
0.7521823,-0.1985964,-0.087281,-0.5461066,0.1130208,0.6442611
0.7063137,-0.2825472,-0.1041481,-0.4358144,0.23053,0.6461625
0.7288241,-0.1988795,-0.09613554,-0.3708348,0.3065646,0.6387052
0.7279717,-0.1875568,-0.1010598,-0.4026334,0.4254154,0.5456358
0.6870489,-0.2223565,-0.08475726,-0.4033871,0.4778576,0.3898643
0.7160021,-0.1548923,-0.04606169,-0.4805155,0.3749126,0.2642367
0.7407114,-0.1810759,-0.05508434,-0.5450846,0.3098559,0.274114
0.7707882,-0.1632947,-0.05607279,-0.5783451,0.3383838,0.3282597
0.8196544,-0.1728438,-0.06224322,-0.6405375,0.3167486,0.3404132
0.8313417,-0.2757881,-0.05397262,-0.6286334,0.314423,0.3540068
0.9220255,-0.306531,-0.01475149,-0.5921871,0.3779885,0.2960639
1.018239,-0.3228122,0.009390495,-0.5276682,0.4107809,0.1834157
1.077033,-0.2941573,0.06058217,-0.4195488,0.4110206,0.07569344
1.188315,-0.3005295,0.08597757,-0.3526035,0.3917047,-0.05808702
1.257847,-0.3216194,0.09377596,-0.3642869,0.3124879,-0.1149214
1.299496,-0.2805613,0.07790026,-0.4290365,0.06154673,-0.07648101
1.305102,-0.3247369,-0.09344717,-0.4504907,-0.2788288,-0.07574985
1.280796,-0.3972275,-0.2920087,-0.4755647,-0.4480266,-0.0837717
1.30206,-0.4657719,-0.3329172,-0.5469767,-0.4442568,-0.03163549
1.257585,-0.4267835,-0.3113538,-0.6415923,-0.2381804,0.01460889
1.153367,-0.2930859,-0.3536927,-0.8012754,0.05438142,-0.004535004
1.043432,-0.3120753,-0.3689128,-0.929241,0.009072336,-0.1064664
0.9723718,-0.3393999,-0.3352067,-0.9503456,-0.1101551,-0.2654978
1.001535,-0.3851044,-0.3130541,-0.7826395,-0.003811531,-0.3461253
1.014336,-0.4926455,-0.2259816,-0.3907481,-0.02048289,-0.3516662
1.006774,-0.4275993,-0.1703387,-0.06770204,-0.01038615,-0.4556883
0.975602,-0.2984777,-0.1770928,0.03591927,0.1036268,-0.5556935
0.8696986,-0.1623667,-0.1404613,0.001337268,0.04158789,-0.485406
0.7994034,-0.02795479,-0.1500128,-0.1105317,0.0151894,-0.4118136
0.7432599,-0.04731711,-0.150942,-0.19968,-0.003904557,-0.3909991
0.6855785,-0.09593828,-0.1206061,-0.2286962,-0.0843658,-0.3474847
0.6870287,-0.1000547,-0.1324487,-0.1968725,-0.06485575,-0.3866134
0.6992681,-0.09653068,-0.107485,-0.1780256,-0.1143758,-0.4241752
0.7180277,-0.03346031,-0.09596982,-0.2099808,-0.2717268,-0.3402194
0.7318752,0.01209348,-0.1109774,-0.2223201,-0.4673195,-0.2437427
0.7646734,-0.02408702,-0.1168333,-0.2520389,-0.5302065,-0.143867
0.8383581,-0.0675923,-0.154427,-0.2232889,-0.4229487,-0.08709544
0.8587342,-0.06475452,-0.1660583,-0.1509777,-0.457111,-0.1108063
0.8911808,-0.02724923,-0.1460903,-0.1913679,-0.4889353,-0.1125095
1.004883,0.02206791,-0.1212599,-0.2165304,-0.4346729,-0.1300048
1.078898,0.05681381,-0.1076679,-0.2707965,-0.376868,-0.1686927
1.127268,0.05098397,-0.121746,-0.4614826,-0.1314745,-0.1653526
1.248866,0.02108696,-0.126819,-0.5815761,0.08024576,-0.1742786
1.367929,-0.08658784,-0.1393347,-0.5449429,0.2115086,-0.2334435
1.392009,-0.2194322,-0.1499146,-0.3750911,0.5520402,-0.2893733
1.333088,-0.1247112,-0.1509842,-0.199014,0.7684211,-0.2236875
1.242332,0.04157585,-0.1874852,-0.2566823,0.4403459,0.01683536
1.236205,-0.01759711,-0.2537179,-0.5335525,0.02573023,0.3246184
1.293677,-0.1923984,-0.3637595,-0.7382081,0.08619466,0.439019
1.289203,-0.3902291,-0.4752959,-0.6544924,0.238508,0.2648805
1.274859,-0.4531815,-0.4425843,-0.4564446,0.2848271,0.1699293
1.224201,-0.3420435,-0.3057167,-0.2973334,0.4625223,0.2957596
1.126927,-0.3159755,-0.2465552,-0.1415858,0.5108076,0.372036
1.115852,-0.2422714,-0.2500016,-0.2036627,0.4767899,0.4146528
1.128563,-0.1071393,-0.2471221,-0.3909242,0.5514542,0.4686132
1.101268,-0.1055504,-0.2088957,-0.4028298,0.5130759,0.471606
1.026735,-0.07955391,-0.1078956,-0.4313025,0.2562568,0.5154682
0.8955962,-0.09956162,-0.07420984,-0.4543221,-0.04006516,0.5825738
0.8383653,-0.1818955,-0.1151331,-0.416988,0.0375073,0.6300107
0.861564,-0.1942536,-0.1261296,-0.46268,0.2502571,0.6361989
0.8392743,-0.2330097,-0.1313863,-0.4095426,0.2325995,0.5793551
0.7801032,-0.2217944,-0.1091717,-0.3572301,0.3239355,0.5327468
0.7531084,-0.2005334,-0.07638517,-0.3584827,0.363852,0.4500317
0.7395831,-0.207202,-0.06237839,-0.3025232,0.2797684,0.3637169
0.7238603,-0.1350047,-0.05274465,-0.3996352,0.2753284,0.3698994
0.7363391,-0.1187527,-0.05416989,-0.4932415,0.1527004,0.4034884
0.7560172,-0.1516349,-0.04281082,-0.4836177,0.1605197,0.4490326
0.7694528,-0.1928829,-0.04441177,-0.5020129,0.2405176,0.4529248
0.7857972,-0.2541853,-0.03471105,-0.4808184,0.1584386,0.4198682
0.8498663,-0.2491813,0.01635568,-0.4720606,0.209509,0.4019376
0.9598606,-0.244284,0.05953787,-0.4290684,0.2025941,0.3010107
0.9906307,-0.247837,0.08300203,-0.3679862,0.0824089,0.1773398
1.02044,-0.2345774,0.07552357,-0.3589438,0.004447487,0.112156
1.288759,-0.08299593,-0.4527244,-0.5572985,0.6419598,0.2996979
1.362761,-0.1001785,-0.453804,-0.6473443,0.7395415,0.2630488
1.321814,-0.1317735,-0.4949937,-0.6554751,0.8090012,0.2389482
1.276922,-0.1498608,-0.5142455,-0.6984168,0.5263218,0.2772654
1.306933,-0.1606144,-0.5230444,-0.6940483,-0.1626594,0.419745
1.320404,-0.1900793,-0.5930888,-0.6603978,-0.599618,0.4475062
1.280206,-0.2725439,-0.6662388,-0.6509439,-0.4651159,0.4101097
1.198006,-0.3750166,-0.6255181,-0.4262781,0.04176238,0.516778
1.00346,-0.458547,-0.5147079,-0.06972484,0.4408864,0.7302332
0.8788742,-0.4078625,-0.4668736,0.08020034,0.5583766,0.9561719
0.9226615,-0.247773,-0.4943048,-0.1160001,0.5059417,0.9518856
0.9213602,-0.2076185,-0.5062589,-0.4245271,0.5086652,0.7075504
0.9041314,-0.1950072,-0.4083809,-0.5867085,0.5297795,0.5614129
0.8830692,-0.1477455,-0.2766218,-0.5766212,0.3015872,0.5890609
0.8139234,-0.2122941,-0.2698387,-0.4868953,0.1386167,0.6854836
0.785145,-0.2568224,-0.2959105,-0.4665699,0.1813733,0.7298425
0.7386397,-0.2536605,-0.2774301,-0.4083676,0.272545,0.7067237
0.6941638,-0.275685,-0.2795649,-0.3865253,0.4305191,0.6577933
0.7172499,-0.2699852,-0.2596263,-0.4911943,0.5049982,0.5390304
0.7208117,-0.2793796,-0.2195348,-0.4154597,0.5121784,0.4690482
0.7074936,-0.259914,-0.2138854,-0.3808456,0.4668992,0.4700036
0.7208556,-0.2006424,-0.2405201,-0.4950414,0.4359956,0.4628916
0.7245476,-0.1776908,-0.2670971,-0.546413,0.5125482,0.4884416
0.7200508,-0.1836899,-0.2560489,-0.6877369,0.520939,0.5116175
0.7382748,-0.2228175,-0.2270172,-0.6986959,0.5006596,0.5247034
0.7707401,-0.27831,-0.2012409,-0.5784462,0.4659345,0.5041912
0.8203205,-0.3533148,-0.1993024,-0.5804812,0.4416215,0.4536996
0.8721605,-0.3824466,-0.2104043,-0.566551,0.4577594,0.4138389
0.9052821,-0.3401606,-0.1908507,-0.5935739,0.4163152,0.3312331
0.9486476,-0.3442506,-0.1672425,-0.6107299,0.3962459,0.2730835
0.9833979,-0.34146,-0.142015,-0.5798167,0.2897598,0.2418646
0.99274,-0.306951,-0.1224625,-0.5826381,0.07790531,0.2050817
1.054841,-0.3026725,-0.1748816,-0.5504174,-0.1176499,0.2533039
1.236513,-0.2963961,-0.2956704,-0.5748183,-0.2115681,0.2995319
1.413547,-0.3058126,-0.4130908,-0.5680809,-0.06538129,0.2898236
1.405856,-0.3583684,-0.4576575,-0.4884288,0.09491528,0.3135123
1.344478,-0.5257908,-0.4887326,-0.4492317,0.1779685,0.316444
1.333453,-0.7062266,-0.5728725,-0.4288306,0.1783987,0.209559
1.200627,-0.5955851,-0.5780877,-0.5284194,0.04184763,0.08966468
1.006404,-0.3734655,-0.5320104,-0.6919365,0.01091434,0.09466864
0.8825174,-0.3370058,-0.5605546,-0.826509,-0.05457806,0.1245328
0.7777405,-0.3336826,-0.5395998,-0.8987251,-0.2104827,0.07125967
0.7618642,-0.3679432,-0.4855701,-0.8366092,-0.242429,-0.01496385
0.849135,-0.4760055,-0.4702386,-0.7403081,-0.174336,-0.2013632
0.9220269,-0.4677469,-0.4160898,-0.5990372,0.09875167,-0.4799896
0.9215992,-0.3985484,-0.3899326,-0.5098706,0.3978907,-0.6457752
0.8419248,-0.3180738,-0.3634248,-0.5191964,0.5218745,-0.6460163
0.7440317,-0.2089429,-0.2882345,-0.4150773,0.6179932,-0.5693973
0.6236023,-0.135069,-0.2521002,-0.3616334,0.5786863,-0.5066862
0.5056864,-0.06797685,-0.2217129,-0.4386479,0.2083569,-0.4938192
0.4947976,-0.07019226,-0.2212662,-0.5054615,-0.3024675,-0.5007448
0.5694586,-0.09388205,-0.2528616,-0.5771689,-0.3775482,-0.5076891
0.6866995,-0.06499366,-0.2644298,-0.5565066,-0.1489702,-0.4715243
0.7848661,-0.08103701,-0.2988287,-0.4849977,-0.1204404,-0.406004
0.8153422,-0.07851755,-0.3142171,-0.4288013,0.02762455,-0.3502745
0.8170809,-0.06624698,-0.3131876,-0.3395612,0.1581696,-0.2914531
0.8094693,-0.07361072,-0.3192924,-0.3417518,-0.05016292,-0.2068902
0.8222291,-0.03792855,-0.3089222,-0.3831416,-0.2120846,-0.03466064
0.873796,0.004602086,-0.3220364,-0.4004414,-0.2742504,0.0940129
0.9825265,0.07287981,-0.350261,-0.5395963,-0.2164356,0.05176466
1.071895,0.08904034,-0.3782233,-0.6966047,-0.002604262,0.02571564
1.029472,0.02402163,-0.3719225,-0.7395427,0.06146389,0.03902562
1.00529,-0.02156609,-0.3443973,-0.7191436,-0.1190848,-0.009567953
1.083781,-0.1039487,-0.3799793,-0.6339191,-0.2817373,-0.0228001
1.196456,-0.1833331,-0.4531558,-0.5142254,-0.0334212,0.01373818
1.363628,-0.1974744,-0.5436158,-0.4327164,0.2352679,0.07190546
1.442164,-0.1900288,-0.5956417,-0.4407805,0.0136444,0.2589634
1.387498,-0.1904691,-0.6349585,-0.4613398,-0.1533421,0.5322123
1.385241,-0.3053283,-0.7889542,-0.3862348,-0.08467847,0.6536556
1.303679,-0.4555898,-0.8412512,-0.3031217,0.03383447,0.5999553
1.065629,-0.4601203,-0.6696811,-0.1436083,0.2372499,0.5792341
0.9480838,-0.4149201,-0.5278583,0.1489576,0.1739343,0.6090527
0.971609,-0.386869,-0.5043318,0.3120614,0.09023779,0.5920555
0.9926505,-0.2894477,-0.5144721,0.3055298,0.3953925,0.5919089
0.9917348,-0.1747829,-0.4608253,0.2649747,0.6607786,0.5914662
0.9112533,-0.1203892,-0.3634065,0.1387933,0.6983432,0.5240952
0.7591095,-0.08598288,-0.3145858,-0.0847521,0.5162054,0.4900323
0.6453312,-0.09278808,-0.2682919,-0.1821179,0.2416105,0.5205057
0.6191151,-0.1436859,-0.241614,-0.09046539,0.2153549,0.5513775
0.6260542,-0.179383,-0.2617567,-0.07663437,0.2794542,0.5404983
0.6267627,-0.227123,-0.2623301,-0.1224319,0.3436107,0.4957224
0.653793,-0.2463935,-0.2537548,-0.1228447,0.501124,0.4425909
0.6904059,-0.2202665,-0.252997,-0.1858604,0.6136998,0.3529069
0.706366,-0.2127212,-0.2537778,-0.2321897,0.6526131,0.2876767
0.7104266,-0.1957764,-0.2501078,-0.3110435,0.5763087,0.2830342
0.7091157,-0.2189035,-0.2356906,-0.4483991,0.4252802,0.3049013
0.7238312,-0.2977201,-0.2182704,-0.3782374,0.3471445,0.3671789
0.7736589,-0.3571203,-0.2011226,-0.2338842,0.3148097,0.3956795
0.8557687,-0.4025112,-0.1947314,-0.2063154,0.2727987,0.3583737
0.9465556,-0.3938901,-0.1882651,-0.17265,0.2050029,0.284794
1.035434,-0.335395,-0.1800695,-0.2185217,0.1666988,0.1935411
1.09425,-0.2919468,-0.1757294,-0.2969226,0.1395924,0.1637932
1.095582,-0.2795145,-0.1742267,-0.2711318,0.0665459,0.1741028
1.130195,-0.2856655,-0.1839252,-0.3469112,-0.04143487,0.1490479
1.217017,-0.2909153,-0.208168,-0.4388045,-0.2945272,0.123066
1.27335,-0.4098311,-0.3223331,-0.280578,-0.4866671,0.1641537
1.326105,-0.5995067,-0.5134451,-0.003186866,-0.280322,0.1967216
1.30525,-0.6106277,-0.591047,0.143056,0.007457684,0.1040865
1.138389,-0.5292779,-0.5529083,0.04203321,0.02186007,-0.01550299
0.9725792,-0.4661692,-0.5579006,-0.09371759,-0.1860545,-0.04796878
0.8533796,-0.3303882,-0.5854565,-0.1239629,-0.4053002,-0.03022613
0.7897153,-0.2745447,-0.5735857,-0.2832105,-0.3596946,-0.03910963
0.8203127,-0.3551533,-0.5427454,-0.401075,-0.3163105,-0.1126303
0.8656538,-0.3899536,-0.4862759,-0.2749947,-0.4626819,-0.2577743
0.9325417,-0.4223909,-0.4604819,-0.2040171,-0.3250993,-0.4663038
0.9648898,-0.4308012,-0.4688737,-0.1556894,-0.01248051,-0.6108036
0.8775895,-0.2852595,-0.4007708,-0.03512534,0.2474456,-0.632114
0.7862176,-0.1350972,-0.3181875,-0.02642862,0.5222268,-0.6137861
0.7293666,-0.09868132,-0.3079589,-0.05777009,0.5104384,-0.5667378
0.6632164,-0.08559382,-0.3006633,-0.1402631,0.309038,-0.5166894
0.5915979,-0.03303376,-0.2647695,-0.3122575,0.05510352,-0.481724
0.5944901,-0.02350521,-0.2598284,-0.3854516,-0.2229655,-0.4631554
0.6810374,-0.07339357,-0.2972195,-0.4045012,-0.2158498,-0.4558011
0.7233926,-0.06380779,-0.3142756,-0.4210621,-0.1868491,-0.3723807
0.7611539,-0.07792923,-0.3250267,-0.3204242,-0.219803,-0.2732197
0.7791372,-0.1333265,-0.3327897,-0.2028596,-0.07909981,-0.2598421
0.7479229,-0.1419319,-0.3200974,-0.1827128,0.03416132,-0.2677833
0.7732504,-0.1601193,-0.3311697,-0.1147909,0.06197424,-0.2056411
0.761061,-0.09869212,-0.3282816,-0.02787701,-0.08285808,-0.06682223
0.7612461,0.006528766,-0.3232783,-0.1118623,-0.3516388,0.006050833
0.8579448,0.03957179,-0.3501358,-0.2078406,-0.4389477,-0.01491514
0.9327471,0.05781133,-0.3799714,-0.2513194,-0.3610286,0.008718458
1.017749,0.03594073,-0.4254192,-0.3661487,-0.1181801,0.03676723
1.09519,0.02964863,-0.4163301,-0.4284378,0.1522672,-0.0312213
1.192316,0.02693428,-0.3816161,-0.4403402,0.1753517,-0.1367334
1.310481,-0.03514452,-0.4107441,-0.4624996,0.2258293,-0.1686848
1.309368,-0.09025652,-0.4490639,-0.4504247,0.5575195,-0.05483827
1.290416,-0.1509818,-0.519259,-0.4781043,0.6370996,0.1752674
1.286118,-0.1602111,-0.5802713,-0.5591266,0.02781074,0.3413689
1.272557,-0.1965692,-0.589987,-0.6090794,-0.6316361,0.3778756
1.236675,-0.3755813,-0.6389368,-0.4428767,-0.6225082,0.4290665
1.033215,-0.5236735,-0.6518503,-0.03862183,-0.308659,0.5242041
0.8333857,-0.5538099,-0.6059718,0.2782238,-0.2712496,0.5858658
0.8521239,-0.4795221,-0.5939344,0.3586942,-0.3066679,0.5410795
0.9656472,-0.3711525,-0.5898637,0.2871395,-0.1329071,0.3942437
1.031288,-0.2770155,-0.5853732,0.1726376,0.2072078,0.3140917
1.039324,-0.1845315,-0.5429069,0.107738,0.5155625,0.3511733
0.9594563,-0.1926184,-0.4322979,0.1366769,0.400525,0.400266
0.792572,-0.2241205,-0.3420614,0.2224348,0.1204188,0.4275539
0.7142627,-0.2273591,-0.3112173,0.2185592,0.04714272,0.4354303
0.7132492,-0.2804912,-0.3057326,0.248481,-0.02856092,0.4217736
0.7092323,-0.2886599,-0.2901216,0.3955933,0.03128874,0.3809309
0.7567529,-0.2786474,-0.2826822,0.4623982,0.2142727,0.2928518
0.7684532,-0.2807573,-0.3036939,0.4899077,0.4255557,0.1781428
0.7434657,-0.2197919,-0.3075759,0.4075832,0.6172169,0.1023854
0.7277506,-0.1601489,-0.2812055,0.215667,0.4660924,0.05976039
0.7194549,-0.1468818,-0.2444627,0.1716351,0.3889229,0.03958837
0.7374503,-0.1735022,-0.2287455,0.1610034,0.4683776,0.09001811
0.7299783,-0.2125808,-0.2337302,0.1086163,0.3128656,0.1402635
0.7490382,-0.2691485,-0.2197918,0.07818411,0.2642583,0.1302037
0.7882929,-0.3405471,-0.1925293,0.06920914,0.2947248,0.07042325
0.8177648,-0.3204125,-0.1506034,0.09867693,0.2253833,-0.07192481
0.8823953,-0.2560585,-0.1248293,0.06188227,0.1507345,-0.1885537
0.907007,-0.2484212,-0.1501303,0.04561423,0.05420627,-0.1744721
0.9347377,-0.3048203,-0.1821948,0.1256253,-0.0566067,-0.1176654
1.026628,-0.4133739,-0.2088632,0.2486148,-0.3203916,-0.1006953
1.111081,-0.4403688,-0.2273952,0.4214558,-0.5181991,-0.1244422
1.18552,-0.3820457,-0.2862991,0.4791078,-0.6030239,-0.124237
1.286315,-0.3858502,-0.4251746,0.513629,-0.8775407,-0.04061592
1.367957,-0.4468101,-0.5185661,0.6905578,-0.8888339,0.01962991
1.365839,-0.507582,-0.5644823,0.758122,-0.5083368,-0.1273262
1.310989,-0.5241322,-0.6082284,0.5955004,-0.3388219,-0.3624914
1.104489,-0.5317296,-0.545913,0.4499237,-0.5555332,-0.4658043
0.8064034,-0.5854317,-0.4538254,0.5980507,-0.8737197,-0.6124791
0.754719,-0.6351803,-0.4299017,0.8232828,-0.9956618,-0.9004631
0.853113,-0.6658989,-0.4335788,0.913532,-0.9998777,-1.069524
0.8997103,-0.5945599,-0.4793372,1.104375,-0.8586421,-1.081642
0.9319571,-0.4235199,-0.5280569,1.168846,-0.4710308,-1.105789
0.8950769,-0.3220519,-0.5513164,1.020807,-0.2849443,-1.125722
0.8062529,-0.2575146,-0.5144267,1.035733,-0.3415829,-1.070311
0.7390896,-0.2143094,-0.4135644,1.038835,-0.4125332,-0.9893774
0.6819673,-0.2122704,-0.4006252,0.9624426,-0.6118007,-0.93832
0.6374985,-0.1847778,-0.426635,0.9282529,-0.6970742,-0.9295011
0.6344321,-0.1938751,-0.4157564,0.8628975,-0.5525427,-0.980924
0.6403464,-0.211226,-0.433714,0.8808873,-0.3976211,-1.094402
0.6286357,-0.2189236,-0.4262618,0.9080059,-0.319212,-1.240934
0.6368539,-0.2762608,-0.4157209,0.9455764,-0.3218771,-1.386617
0.6471248,-0.2836254,-0.4282675,1.154851,-0.1787142,-1.515429
0.6681526,-0.2235721,-0.4370187,1.377521,0.08944935,-1.5618
0.7088893,-0.1289175,-0.4682805,1.476761,0.1489814,-1.450102
0.7593549,-0.01346014,-0.4667458,1.42625,0.03073428,-1.277797
0.8389937,0.03485273,-0.4417101,1.37104,-0.05000774,-1.177036
0.8800914,0.01964987,-0.4237663,1.391351,-0.09105731,-1.082227
0.8810736,0.01007986,-0.3925631,1.339393,-0.1550739,-0.8979215
0.8966049,0.02815539,-0.3781829,1.253329,-0.1893416,-0.7372236
0.9120965,0.03501003,-0.3474128,1.157632,-0.2024009,-0.6871084
0.9202742,0.03148103,-0.2984261,1.136788,-0.193931,-0.6020544
0.9166941,0.0439696,-0.2784256,1.178443,-0.1364238,-0.5192252
0.9250775,0.03571296,-0.2576799,1.070983,-0.09616484,-0.5710603
0.9721982,0.02555857,-0.2465249,0.9909883,-0.06794025,-0.6158728
1.085077,-0.004739949,-0.2787447,0.9849576,-0.08839678,-0.6466712
1.22443,-0.08233872,-0.3457487,0.9415128,-0.05134131,-0.6970954
1.29661,-0.1287007,-0.4870192,0.8692304,0.2658076,-0.6210066
1.332386,-0.1501076,-0.6512344,0.5919728,0.4762308,-0.38823
1.323482,-0.1908729,-0.669324,0.2610244,-0.0185507,-0.04794953
1.229249,-0.2643671,-0.62818,0.1147284,-0.7497767,0.1194616
1.094741,-0.3833142,-0.681396,0.1499692,-0.793888,0.07431094
0.9462247,-0.4540747,-0.7077202,0.3458175,-0.561548,0.2532422
0.9043326,-0.3884544,-0.6861146,0.5563442,-0.616116,0.4198914
0.9805736,-0.3201838,-0.7047359,0.7049613,-0.4808062,0.2519482
0.9893615,-0.3475438,-0.7038098,0.6839196,-0.1295042,0.1373119
0.9553996,-0.3359632,-0.6479176,0.6876349,0.192959,0.1281154
0.908668,-0.2992851,-0.5622596,0.8801459,0.3628573,0.1048718
0.8046713,-0.2818308,-0.4830013,0.8573968,0.2378723,0.1498141
0.7696605,-0.2203178,-0.4232453,0.8551446,0.1633482,0.2015097
0.7862871,-0.2142473,-0.391656,1.020612,0.1484869,0.3176783
0.7722558,-0.2299956,-0.4116493,0.9577431,0.1950424,0.4521595
0.7774949,-0.2036104,-0.3993598,0.8995615,0.4849062,0.4380256
0.7644475,-0.2121283,-0.3326227,0.8100026,0.597088,0.3537891
0.7358063,-0.1872391,-0.2602529,0.6354516,0.5198637,0.26462
0.734197,-0.139781,-0.2014539,0.6657426,0.3818157,0.2422181
0.7236284,-0.1256082,-0.2385744,0.6024958,0.1961123,0.2840581
0.7249535,-0.1252623,-0.2834388,0.3694126,0.3271361,0.2669521
0.7584806,-0.1784757,-0.2567852,0.1815834,0.4972827,0.2684
0.7929032,-0.2566593,-0.2552693,0.07950516,0.4547936,0.295381
0.8021707,-0.3140232,-0.2273813,0.133511,0.4865009,0.265356
0.7841993,-0.3438538,-0.1745694,0.1524002,0.5003686,0.1967134
0.7787678,-0.3604993,-0.1349655,0.07397567,0.4071784,0.0771048
0.8064392,-0.3783514,-0.09474295,0.06084479,0.2329465,0.01086345
0.8966247,-0.363204,-0.1546342,0.03487886,-0.02350035,0.0202126
1.089772,-0.3209102,-0.2504408,-0.07933585,-0.1800749,-0.02383942
1.25811,-0.3009959,-0.3216018,-0.2293101,-0.2951461,-0.04239254
1.281509,-0.4081492,-0.4619503,-0.2721343,-0.4491434,0.0109176
1.299495,-0.6104695,-0.5842951,-0.1225462,-0.360619,0.04770364
1.336342,-0.6639893,-0.5966334,-0.02119991,-0.05510739,0.02683744
1.237287,-0.5380792,-0.5677021,-0.1521302,0.1328969,-0.08283399
1.061813,-0.3669722,-0.5439255,-0.3495674,0.07107678,-0.1623039
0.8770769,-0.2163082,-0.5065598,-0.5257322,-0.105663,-0.04333777
0.7091053,-0.1876521,-0.4999887,-0.726905,-0.1541649,0.1382245
0.6876321,-0.2782439,-0.5245682,-0.8272765,-0.279096,0.1450953
0.7704663,-0.3634894,-0.4927002,-0.777325,-0.4734722,0.02723467
0.8771382,-0.4028781,-0.4818842,-0.7291178,-0.2556642,-0.1400305
0.9549435,-0.3720457,-0.4909931,-0.6668613,0.1428917,-0.3662123
0.9093389,-0.2750587,-0.4427413,-0.5213811,0.439124,-0.4505214
0.8348798,-0.2054767,-0.4166882,-0.4159396,0.5969305,-0.3774822
0.7820482,-0.1832072,-0.3825559,-0.4198808,0.4262181,-0.3677174
0.698952,-0.1683504,-0.3366202,-0.4599226,0.2070822,-0.3652855
0.6382549,-0.1440261,-0.314857,-0.4650478,0.08618085,-0.3256359
0.6453105,-0.130872,-0.3062268,-0.4528937,0.006294958,-0.347852
0.694068,-0.1356117,-0.3528356,-0.4695505,0.05557975,-0.3894713
0.6951307,-0.09395045,-0.3624065,-0.5043251,0.04426316,-0.3864704
0.6778443,-0.06819729,-0.338789,-0.5283857,-0.000626821,-0.3158477
0.6984979,-0.0895986,-0.3357809,-0.4453196,-0.006598528,-0.1972547
0.7156241,-0.07719094,-0.3028681,-0.2689881,-0.0527184,-0.1386712
0.765553,-0.08208738,-0.3199367,-0.178679,0.03490486,-0.1106356
0.7860689,-0.05591592,-0.3552206,-0.1746673,0.09993682,-0.01779731
0.7604871,0.01845815,-0.3599633,-0.1846529,-0.1110421,0.05447088
0.8104033,0.03856839,-0.3711326,-0.1982319,-0.3534343,0.127168
0.9179777,0.05472667,-0.3645029,-0.2199153,-0.348679,0.215087
1.057689,0.05605882,-0.4007653,-0.3263017,-0.08915151,0.1531224
1.137039,0.04326285,-0.4330169,-0.4462165,0.10961,0.06142707
1.143505,0.03785041,-0.4133843,-0.4315877,0.04037748,0.04444658
1.225683,-0.06533266,-0.4369628,-0.3602232,-0.009753807,0.007141827
1.272159,-0.2125575,-0.4965433,-0.307303,0.07404344,0.1330896
1.232719,-0.2554219,-0.5768011,-0.2724328,-0.05041206,0.4255375
1.241255,-0.2220053,-0.6588067,-0.4046788,-0.5604691,0.5367537
1.25396,-0.2640793,-0.7149402,-0.5914556,-1.000791,0.4415666
1.233921,-0.3542405,-0.7412412,-0.4901862,-0.6817303,0.3997902
1.154771,-0.3554202,-0.7010611,-0.2311719,0.0191096,0.5173035
0.9635952,-0.3290422,-0.6084729,0.01868204,0.1588418,0.7067464
0.8250127,-0.2991802,-0.5199741,0.1728198,0.02109918,0.8384994
0.8790047,-0.2361696,-0.5288664,0.01890748,0.08603314,0.7670187
0.9480056,-0.211818,-0.5664487,-0.1337822,0.2557902,0.5532228
0.924772,-0.2355358,-0.4906061,-0.1237151,0.4622292,0.4668802
0.8881679,-0.2726093,-0.4276279,-0.09755551,0.3573357,0.4992852
0.8032489,-0.2888931,-0.4006691,0.1067799,0.1899192,0.559008
