accx,accy,accz,gyrox,gyroy,gyroz
0.7816301,-0.2894812,-0.1838872,0.1907255,-0.2230289,0.03510163
0.8212168,-0.3308242,-0.1906134,0.3903597,-0.1403679,0.005106328
0.8892425,-0.3128848,-0.1731091,0.5714341,-0.1219048,-0.0437093
1.011193,-0.2628799,-0.1708229,0.7957851,-0.124508,-0.08179238
1.030869,-0.1645246,-0.1650745,0.7789243,-0.06082794,-0.005051313
1.032385,-0.01930247,-0.163363,0.5829947,-0.03004282,0.1465957
1.016912,0.09792022,-0.1407819,0.3035961,-0.1108796,0.2711607
1.005855,0.1163016,-0.1125361,-0.0282637,-0.2301916,0.3484741
1.029977,0.07693756,-0.1039949,-0.1132889,-0.2780493,0.3569303
1.051773,0.03980931,-0.09050843,-0.04449163,-0.2447376,0.3062139
1.082221,-0.09062749,-0.09422846,0.04240803,-0.2306739,0.2526954
1.115903,-0.2471486,-0.09180942,0.3311278,-0.2371568,0.2344724
1.217215,-0.3369064,-0.1139423,0.8518484,-0.2121838,0.2849402
1.395937,-0.4647811,-0.1937342,1.326259,-0.1320148,0.3435676
1.59132,-0.5215049,-0.2432722,1.299058,0.1694953,0.2753411
1.673177,-0.4885997,-0.2285556,0.7308119,0.6767933,0.1145166
1.512763,-0.5385298,-0.1460932,0.1652627,0.8490981,-0.1112005
1.238089,-0.6065306,-0.07376276,0.1352376,0.3259484,-0.3072601
1.022544,-0.6069232,-0.1091685,0.6941902,-0.1294095,-0.2056724
1.001971,-0.5211462,-0.1628443,1.236144,0.2133685,-0.00142023
1.11823,-0.3945851,-0.1580186,1.184848,0.6266183,-0.01313281
1.11062,-0.2983416,-0.106091,0.7321472,0.6056816,-0.24655
1.024119,-0.1872379,-0.004915704,0.3167574,0.4762894,-0.6566238
0.9447107,-0.1177756,0.05863809,0.1783333,0.2024275,-0.7899773
0.8474118,-0.1507774,0.01092616,0.28054,0.0643517,-0.5150825
0.8062615,-0.1877665,-0.04350399,0.3448052,0.2016021,-0.3405875
0.7674904,-0.211942,-0.05289367,0.4115339,0.2459726,-0.2431919
0.7304676,-0.2644068,-0.04697532,0.5781186,0.3409657,-0.152601
0.7133279,-0.2889634,-0.01436774,0.708509,0.3681173,-0.1879521
0.6421975,-0.2757242,-0.005167941,0.8599861,0.2573409,-0.2352246
0.5904875,-0.2781109,0.01058585,0.9627069,0.2834821,-0.3641864
0.5905036,-0.2560447,0.04787329,0.9433851,0.2073366,-0.442918
0.6474149,-0.1471008,0.02567954,0.9089684,0.1347664,-0.3122427
0.7304822,-0.01031933,0.02393458,0.7225579,0.1832182,-0.1346678
0.7609978,0.003237667,0.04479459,0.4615243,0.1601601,0.0747987
0.8153441,-0.06120073,0.04580296,0.3096213,0.1981176,0.2066146
0.890638,-0.07262775,0.09404239,0.183427,0.1584597,0.2001088
0.915786,-0.1212228,0.1200078,0.1422744,0.03674143,0.202234
0.9025442,-0.1641459,0.1229367,0.238521,-0.01866397,0.1865643
0.9293735,-0.1480305,0.1575728,0.4097216,-0.1258259,0.1176379
0.9961681,-0.1667499,0.1556598,0.578852,-0.137758,0.001967626
0.9957166,-0.1207303,0.1377577,0.6789776,-0.03479619,-0.1597572
1.031662,-0.04928772,0.1442012,0.706191,0.06343622,-0.2865189
1.122715,-0.03168406,0.1582616,0.6644136,0.07361243,-0.2932339
1.213835,0.01481014,0.1709701,0.5796342,-0.2234637,-0.09009596
1.403231,0.002223062,0.1498438,0.3225635,-0.6264653,0.3868604
1.573769,-0.1057311,0.09033646,0.008849985,-0.7155773,0.8281379
1.64168,-0.2724216,0.04003167,0.01889869,-0.5504963,0.7047211
1.59353,-0.4132052,0.03130193,0.1291487,-0.3915969,0.1871752
1.351768,-0.4175918,0.03175706,0.05943659,-0.171856,-0.1086375
1.009268,-0.3926127,0.02124792,-0.05331665,0.01541086,-0.01381517
0.7415465,-0.3871699,0.04154689,-0.1919489,-0.1653771,0.2566576
0.7479153,-0.4158996,0.06545206,-0.2237416,-0.5184995,0.3384597
0.9328953,-0.4621223,0.0202003,-0.01457061,-0.8522444,0.1329759
1.060447,-0.4120111,-0.06147063,0.2488103,-1.021602,-0.2731259
1.108854,-0.3420294,-0.1220044,0.4708267,-0.7346148,-0.7822809
1.006336,-0.2620098,-0.1420068,0.5701202,-0.4150145,-0.946081
0.8849899,-0.1512334,-0.1088317,0.5065575,-0.3604846,-0.7516052
0.8193956,-0.0777296,-0.06813952,0.3507502,-0.4116588,-0.5813353
0.6599803,0.01885513,-0.0445516,0.04872889,-0.5774917,-0.3426019
0.589321,0.06966866,-0.0317459,-0.1833494,-0.6087422,-0.05086742
0.6363422,0.007498973,-0.05315178,-0.2809265,-0.5173976,0.08810327
0.6603605,-0.07182436,-0.08305438,-0.4435466,-0.4695853,0.09060389
0.7342701,-0.1861118,-0.1208643,-0.4402336,-0.3775327,0.01618133
0.821489,-0.3097174,-0.1749726,-0.2811587,-0.3545952,-0.05552751
0.8751227,-0.34022,-0.1963841,-0.108799,-0.2858158,-0.02659736
0.9305291,-0.3196908,-0.2016631,0.07783925,-0.09479046,0.02007653
0.9936426,-0.2802871,-0.2073486,0.06923514,0.04060556,-0.01021088
1.02233,-0.1935326,-0.1923973,0.001321515,0.06969443,0.0111704
1.007114,-0.1152034,-0.1670893,-0.07447065,-0.03499689,0.05909306
0.9943539,-0.05705313,-0.1407302,-0.2665288,-0.1084111,0.1107925
0.9717978,0.003753723,-0.1323364,-0.3605088,-0.1199775,0.2311171
0.9960639,0.02246785,-0.1336936,-0.3718933,-0.132632,0.2312471
1.064468,0.02181281,-0.1206251,-0.3352311,-0.1019106,0.1312301
1.099579,0.02345039,-0.1132045,-0.2607613,-0.1030518,0.1148792
1.150155,-0.01818784,-0.1154516,-0.2525316,-0.03693902,0.2686525
1.228882,-0.1406945,-0.1194111,-0.1187373,0.03308973,0.540418
1.355595,-0.3571779,-0.150511,0.221568,0.0131593,0.6059992
1.495917,-0.5336071,-0.2178047,0.5121652,0.1472028,0.4590752
1.532283,-0.5377406,-0.2587125,0.4968146,0.3984107,0.2699972
1.519475,-0.497243,-0.2362916,0.2335042,0.4867745,-0.06722022
1.512196,-0.5328995,-0.2187216,0.0834603,0.2937326,-0.4287499
1.443265,-0.5793672,-0.2236001,0.2977285,0.1704892,-0.4919236
1.266712,-0.5936928,-0.2109953,0.7514166,0.4860556,-0.2176658
1.073692,-0.5330321,-0.1938627,0.9740403,0.884273,0.1126421
1.031225,-0.4111733,-0.1477616,0.7384382,0.9685183,0.1493084
1.070439,-0.3767146,-0.04666213,0.4213855,0.7696519,-0.2436649
1.025789,-0.3722811,0.0565661,0.3842213,0.3678391,-0.7421057
0.947365,-0.2880846,0.08693194,0.5327534,-0.08740077,-0.847877
0.8992339,-0.2125059,0.005628646,0.6733537,-0.1811535,-0.6897882
0.8580137,-0.1524397,-0.08199833,0.7707774,0.1911214,-0.5839088
0.8144132,-0.1265622,-0.07826458,0.8084948,0.4712482,-0.3726669
0.7433161,-0.1604643,-0.04802913,0.8133634,0.462426,-0.1783046
0.6709693,-0.1882273,-0.02030461,0.8045802,0.3753982,-0.2035149
0.6270495,-0.2451343,0.01071808,0.80907,0.2618824,-0.21709
0.5818595,-0.2854149,0.02986738,0.8841567,0.2540586,-0.2411103
0.5889804,-0.2200274,0.04378838,0.910174,0.2858801,-0.2805054
0.6386741,-0.1202807,0.04744568,0.8020487,0.2749751,-0.143887
0.6674853,-0.04688862,0.05998925,0.5934969,0.3106401,0.05425077
0.7332802,-0.01572852,0.07643439,0.3480196,0.3063876,0.2273124
0.7979317,-0.01221163,0.09162777,0.1193004,0.2632747,0.3230993
0.8188847,-0.03446374,0.1260191,-0.0603585,0.1876059,0.3255266
0.8596575,-0.1066391,0.1495217,-0.04735418,0.08188562,0.3399001
0.9107252,-0.1598941,0.1705512,0.08054062,0.03137656,0.2971847
0.9773165,-0.1567733,0.1896952,0.2249189,0.004304511,0.1820426
1.048835,-0.1417143,0.1876833,0.4329349,0.01409585,0.01193356
1.088028,-0.1028786,0.1977969,0.5007822,0.009366084,-0.1624367
1.134514,-0.03151875,0.1995683,0.4466202,-0.08371216,-0.1719087
1.204845,0.01884678,0.1775901,0.3568673,-0.2561731,0.01182776
1.318963,-0.009402066,0.1379215,0.09218056,-0.4874073,0.4143029
1.498443,-0.1528693,0.09373847,-0.08077313,-0.5766034,0.7677334
1.647423,-0.3546741,0.113809,0.09597385,-0.4862002,0.613482
1.615512,-0.429448,0.1431483,0.2658135,-0.4352803,0.1347213
1.352023,-0.3530914,0.1150062,0.1405607,-0.4363875,-0.2057209
0.9725806,-0.3184691,0.0971663,-0.07052399,-0.3699737,-0.1859985
0.7353514,-0.3291706,0.07243542,-0.2431767,-0.3057278,0.09002105
0.7877539,-0.36331,0.03530571,-0.2941695,-0.3997909,0.2258636
0.9417292,-0.4655231,0.02337977,-0.1231569,-0.6570761,0.1501914
1.069257,-0.4552115,-0.03717887,0.04555755,-0.9110253,-0.1079093
1.144058,-0.3586488,-0.1137259,0.2383009,-0.8422744,-0.5584276
1.024107,-0.3134506,-0.1147566,0.3939276,-0.5205815,-0.7470532
0.8647938,-0.2174548,-0.0820978,0.3000477,-0.3860357,-0.6627743
0.7842425,-0.1312763,-0.04556681,0.2641202,-0.4294914,-0.6231979
0.6735243,-0.09005451,-0.02986097,0.1913824,-0.572888,-0.46395
0.6480802,-0.0441528,-0.05588872,-0.01385255,-0.7613547,-0.2796976
0.6669326,-0.04601058,-0.0893249,-0.09168325,-0.7679588,-0.1498831
0.6850604,-0.08908473,-0.1266202,-0.2131985,-0.6471185,-0.007128333
0.7855394,-0.1914978,-0.155505,-0.2478835,-0.4297126,-0.02311183
0.8115897,-0.2567473,-0.1552113,-0.1169623,-0.1941064,-0.06321553
0.8002927,-0.2539441,-0.1479034,-0.02784959,-0.1218369,-0.04077038
0.8470228,-0.2872611,-0.1418868,0.1499461,-0.1802184,-0.04132024
0.8898911,-0.2613942,-0.1349138,0.3186154,-0.2683057,-0.004784044
0.9825904,-0.19477,-0.1467951,0.371701,-0.2278299,0.004933347
1.054066,-0.1332587,-0.1675285,0.332732,-0.1412723,-0.003712015
1.02881,-0.03815341,-0.1599282,0.1412189,-0.09776066,0.05163179
1.009184,0.02776745,-0.141145,-0.1226953,-0.06175256,0.1727681
1.03154,0.06030667,-0.1211236,-0.3334099,-0.08683397,0.3269532
1.058816,0.01572119,-0.08201091,-0.3149679,-0.01915949,0.359509
1.081789,-0.0550387,-0.05554339,-0.2191032,0.01391785,0.2473334
1.092394,-0.06724735,-0.05240769,-0.207942,-0.1287925,0.1573995
1.105068,-0.1036553,-0.05964133,-0.05604688,-0.2206619,0.184961
1.207138,-0.1527869,-0.08785161,0.1766049,-0.2477304,0.3616576
1.357774,-0.2599774,-0.1554122,0.449122,-0.2380235,0.6031751
1.457243,-0.4211561,-0.2606691,0.6509605,-0.1699196,0.696421
1.533797,-0.4913566,-0.313959,0.4328492,0.1985547,0.6292419
1.560431,-0.552183,-0.2609313,0.06357464,0.804466,0.4959602
1.539862,-0.7033895,-0.1756069,-0.06454342,0.8807481,0.1307885
1.470167,-0.8042361,-0.1231183,0.1938831,0.4171979,-0.353848
1.202568,-0.6718422,-0.1185429,0.7847265,0.1989559,-0.4334853
0.8843783,-0.4735941,-0.1216651,1.103014,0.5133698,-0.1591435
0.9114993,-0.4223226,-0.08344218,0.9242309,0.7818353,-0.07730277
1.087986,-0.3053195,-0.009577109,0.6117372,0.518046,-0.3651972
1.039186,-0.129491,0.07306921,0.3099574,0.1815784,-0.6678039
1.026546,-0.1343469,0.07034283,0.201087,0.05272039,-0.6158199
1.043654,-0.1983911,-0.01308768,0.3872598,0.05950995,-0.4147981
0.9027156,-0.2050304,-0.05389147,0.5274566,0.281432,-0.2998476
0.8564497,-0.2455708,-0.08308875,0.5324443,0.4109669,-0.2012502
0.8098986,-0.2908292,-0.06435425,0.6696961,0.3720364,-0.2306341
0.6958572,-0.296846,0.01283871,0.8729909,0.3780751,-0.3346059
0.6646368,-0.3287903,2.751309e-05,0.9985837,0.3704257,-0.42295
0.6261924,-0.2867057,0.0002273576,1.064508,0.3820437,-0.5633452
0.5982125,-0.1664443,0.04263429,1.022682,0.3791903,-0.5528385
0.5842229,-0.1225415,0.03994937,0.9023268,0.3580899,-0.4088576
0.6014319,-0.08369458,0.079223,0.684924,0.3506763,-0.2249994
0.6403165,-0.02456262,0.1141793,0.4183971,0.2490585,0.0353323
0.6737537,0.03110893,0.126194,0.2564917,0.1541356,0.1272086
0.7662441,0.01938821,0.1451282,0.1225322,0.07239002,0.1109405
0.7770202,-0.08737856,0.1443192,0.05722279,-0.01901991,0.1367857
0.7653118,-0.09774148,0.1650872,0.1333962,-0.05306589,0.07760422
0.8226036,-0.101664,0.1750678,0.1918758,-0.1056581,0.0002268262
0.8686874,-0.1092952,0.177323,0.193393,-0.1255186,-0.06595079
0.9536575,0.01486314,0.1747496,0.1613014,-0.1217638,-0.09544376
0.9930708,0.08855901,0.1542367,0.07431685,-0.1644161,-0.02307984
1.036914,0.08955118,0.1655032,-0.02483016,-0.2498296,0.1080437
1.173727,0.0620986,0.1564247,-0.05559135,-0.3905435,0.3215605
1.306265,0.02420099,0.1228614,0.009123552,-0.4280968,0.4812
1.439486,-0.002988163,0.08848381,0.04425155,-0.3379153,0.5116299
1.508639,-0.08078123,0.05180898,-0.0542243,-0.3811977,0.6982454
1.524391,-0.1724246,0.06784446,-0.1122253,-0.7244565,1.127784
1.574221,-0.3472276,0.1041943,0.1075065,-1.05331,1.355197
1.56724,-0.4861529,0.1202597,0.5327051,-0.8415933,1.014597
1.382082,-0.4961058,0.1033986,0.8474541,-0.3049892,0.4946136
1.00128,-0.5496909,0.08370527,0.8412567,0.06491112,0.2156613
0.648999,-0.5139959,0.144471,0.64879,0.1598554,0.06453773
0.5906395,-0.4742857,0.1933892,0.4745258,-0.2421611,0.04759858
0.7633082,-0.5808985,0.1222033,0.388061,-0.8831667,0.02279943
1.003663,-0.637959,0.006916019,0.6164966,-1.061529,-0.3214146
1.270636,-0.6362528,-0.09777478,1.15899,-0.734531,-0.7469138
1.322852,-0.5256081,-0.1631187,1.540494,-0.3061857,-0.9759515
1.089198,-0.3150397,-0.1299088,1.524411,-0.2207366,-0.9738745
0.937125,-0.1428992,-0.06139105,1.240803,-0.4135471,-0.8470775
0.8614603,-0.004752099,-0.03003367,0.76349,-0.5759016,-0.7528006
0.7756331,0.02261045,-0.01067238,0.2048808,-0.8086292,-0.5547289
0.7703029,-0.04079703,-0.02847482,0.04331648,-0.8767565,-0.348696
0.7177082,-0.1122446,-0.06519951,0.3103612,-0.7007558,-0.2715592
0.6807358,-0.2270869,-0.08671197,0.473092,-0.5898156,-0.2200723
0.6379383,-0.3650767,-0.1197498,0.7119207,-0.5550312,-0.3144635
0.5542898,-0.4225121,-0.1317321,0.9839823,-0.6677298,-0.4222753
0.6403652,-0.3303754,-0.1563521,0.9569475,-0.7607032,-0.4673059
0.7491847,-0.2123527,-0.1898176,1.025201,-0.6513546,-0.5373553
0.8227765,-0.1369185,-0.1770906,1.026044,-0.5191533,-0.3732802
0.947259,-0.07556249,-0.1922939,0.8830873,-0.3411192,-0.1190283
0.9993034,-0.07310991,-0.2027396,0.8474148,-0.09794193,-0.0475786
1.005658,-0.05866271,-0.1682712,0.6177565,0.02534021,-0.01293298
0.9694691,-0.02740313,-0.1267868,0.449065,-0.04839854,0.04721891
0.9307311,-0.04149597,-0.0658786,0.4385078,-0.1843775,0.1155338
0.9982988,-0.03355344,-0.04692966,0.400768,-0.290494,0.176123
1.085813,-0.006546244,-0.05962139,0.4548749,-0.2547399,0.1791127
1.133743,0.01676581,-0.04595536,0.3971945,-0.05368468,0.1253053
1.143124,0.02096023,-0.03708506,0.3797526,0.03239522,0.07022327
1.161164,-0.05395443,-0.02667734,0.4940967,0.04050863,0.0432826
1.263099,-0.170515,-0.02625999,0.6988895,0.07404579,0.05326818
1.442164,-0.2444733,-0.07018633,1.136118,0.146357,0.09948364
1.664273,-0.2507736,-0.1295222,1.213971,0.4871581,0.1406783
1.767065,-0.2629806,-0.1406701,0.6400454,0.8849182,0.2544855
1.616788,-0.4113196,-0.1120878,0.04209099,0.8844215,0.363152
1.375535,-0.6713903,-0.1115518,-0.006845975,0.4299888,0.2331086
1.204631,-0.7848349,-0.1292008,0.2649819,0.04289499,0.04900658
1.122562,-0.6317068,-0.1376775,0.3427719,0.1702672,0.009451232
1.137037,-0.4510959,-0.1321585,0.3924129,0.3841179,-0.09582585
1.149078,-0.3524798,-0.1124909,0.2266151,0.4132043,-0.3064235
1.103049,-0.2666285,-0.1018975,-0.2511546,0.4212918,-0.3900475
1.018043,-0.2375281,-0.09082225,-0.4384014,0.3140987,-0.3498296
0.8677246,-0.1977358,-0.07768612,-0.4560871,0.224675,-0.2856253
0.7967385,-0.1880111,-0.07452836,-0.3805838,0.3491288,-0.1718055
0.7585844,-0.3186773,-0.05090406,-0.08006041,0.465303,-0.07287194
0.5898134,-0.399713,-0.006941286,0.1928164,0.4403389,-0.0666056
0.557337,-0.4000965,0.005096491,0.4753821,0.3826411,-0.1425125
0.6176201,-0.3823099,-0.01265429,0.6545817,0.3323036,-0.2684098
0.5419476,-0.3008868,-0.01259032,0.7294165,0.3191124,-0.3878937
0.5623495,-0.2366092,-0.01284461,0.8534826,0.3683397,-0.3894564
0.6616889,-0.1707079,-0.02010067,0.8118295,0.4595937,-0.228343
0.7388081,-0.06293189,-0.01098321,0.6447907,0.5804576,-0.01080666
0.8497457,0.007586787,-0.003789462,0.3546935,0.6195666,0.2133297
0.8724531,-0.02067521,0.03815366,0.009640371,0.5451087,0.3590714
0.8978653,-0.06867189,0.1120478,-0.0800685,0.4425766,0.3802363
0.9256001,-0.07442006,0.1415037,-0.03914719,0.2779947,0.3837768
0.8557987,-0.1889432,0.1615195,0.03556511,0.1536181,0.3239201
0.8932411,-0.2868491,0.1904269,0.1540336,0.1994191,0.1776438
0.9599446,-0.2289661,0.1729744,0.2202073,0.2556213,0.002888131
0.9793682,-0.1565845,0.1514673,0.2509271,0.2819371,-0.1152052
1.038801,-0.03249489,0.1721893,0.2478606,0.2956447,-0.08567161
1.022181,0.04495898,0.2090822,0.2742514,0.1461111,-0.04085237
1.054417,0.004538064,0.2619107,0.3182457,-0.1042873,-0.004427527
1.180048,-0.001312146,0.2789366,0.2513336,-0.3181234,0.1296398
1.309695,-0.04979232,0.2086289,0.009144284,-0.4590415,0.4231627
1.519821,-0.2182043,0.1606549,-0.2237637,-0.5252638,0.7157918
1.638763,-0.405278,0.1801775,-0.04129333,-0.6297129,0.5026253
1.585379,-0.4746299,0.1674356,0.3029704,-0.682482,-0.05296062
1.397784,-0.4274277,0.09132641,0.274916,-0.4803831,-0.3086241
1.070778,-0.3583441,0.01258176,-0.02266325,-0.2456596,-0.1808662
0.8551638,-0.2934008,0.006183785,-0.4331691,-0.2743724,0.1005049
0.8537386,-0.3118699,0.03692274,-0.7180502,-0.389714,0.1896381
0.9443107,-0.3691996,0.02666862,-0.6838629,-0.5005948,0.07814063
1.036474,-0.3582577,0.003358889,-0.5901112,-0.7459299,-0.11287
1.047588,-0.3535464,-0.02838204,-0.3989483,-0.7936358,-0.5025127
0.9561823,-0.3379611,-0.06914805,-0.116725,-0.5541418,-0.6892558
0.814018,-0.2500104,-0.06487003,-0.07111728,-0.4801992,-0.5309179
0.7151999,-0.1381561,-0.04551445,-0.2457918,-0.5809094,-0.4415068
0.6570916,-0.03032736,-0.05153599,-0.5277017,-0.695881,-0.3406039
0.6318245,0.02085828,-0.0747711,-0.7816566,-0.7239282,-0.1184368
0.6671296,-0.0005974885,-0.1216639,-0.9778801,-0.5594209,0.04706257
0.6952762,-0.05004796,-0.1497469,-1.155465,-0.3466928,0.1202389
0.7205151,-0.1438144,-0.1459265,-1.132642,-0.1822234,0.1878697
0.7741216,-0.284531,-0.1542336,-0.9412692,-0.1052017,0.2247871
0.8306241,-0.4232638,-0.1584914,-0.6487834,-0.07738696,0.2256645
0.8906265,-0.4403357,-0.1536142,-0.3466528,-0.05241021,0.193701
0.9452478,-0.3209794,-0.1542638,-0.2033524,-0.09283045,0.0173932
0.9886262,-0.238459,-0.1603835,-0.1533886,-0.09696566,-0.1015287
1.007583,-0.1531672,-0.1748063,-0.2499606,-0.06933639,-0.04879899
1.011379,0.02303821,-0.1752674,-0.4400307,-0.06775466,0.05683951
1.03033,0.1321363,-0.1684614,-0.6237977,-0.04887865,0.2627185
1.057916,0.1058896,-0.1628117,-0.8280265,-0.02942713,0.3682973
1.100416,0.03770207,-0.1432426,-0.8455316,0.00762338,0.2858192
1.12037,-0.02861052,-0.125419,-0.7338122,-0.03127129,0.220011
1.103296,-0.1219421,-0.1128863,-0.5603151,-0.1012922,0.21052
1.152253,-0.1995429,-0.1083255,-0.1437655,-0.06912752,0.2862659
1.297137,-0.2605314,-0.1347287,0.3291079,-0.06200199,0.3764313
1.498768,-0.3786005,-0.2085387,0.6632338,0.009050413,0.330043
1.670661,-0.4238168,-0.3113215,0.6893629,0.4285297,0.2738241
1.669767,-0.3487903,-0.3391876,0.1349251,1.137827,0.3497918
1.503978,-0.3520128,-0.203856,-0.6121226,1.483489,0.3479043
1.269887,-0.5528148,-0.01978697,-0.6978086,0.9978732,0.1535186
1.082679,-0.7722796,0.01596954,0.02262364,0.3310466,-0.06368171
1.036581,-0.7041406,-0.06154489,0.7827875,0.1438149,-0.1668963
1.060271,-0.5013037,-0.1074817,0.8804356,0.3792146,-0.1856789
1.054392,-0.3546049,-0.1082052,0.399432,0.6863337,-0.3935418
0.9579997,-0.1602165,-0.0438467,-0.03179429,0.5995717,-0.6646963
0.8216473,-0.08010497,0.03693322,-0.1100384,0.3106227,-0.6075037
0.7876278,-0.1063324,0.003778174,-0.08155971,0.1826336,-0.3630705
0.8276537,-0.114575,-0.05554648,-0.03468089,0.1915614,-0.07995265
0.8359548,-0.2260547,-0.06358138,0.05809798,0.4779374,0.07032071
0.7932609,-0.308353,-0.08747373,0.08121491,0.7530884,-0.07043838
0.7427088,-0.3101166,-0.06696745,0.1258024,0.7672789,-0.1606886
0.6556124,-0.3153975,0.01002514,0.3096628,0.6839548,-0.1615132
0.5269635,-0.2742495,0.06601085,0.5154302,0.4858816,-0.2814826
0.5358068,-0.229575,0.08061432,0.5886381,0.3475934,-0.3213975
0.6522384,-0.1372617,0.05497085,0.5110926,0.2518987,-0.2240393
0.7371415,-0.04482053,0.06960109,0.353058,0.2240295,-0.1387671
0.8407703,-0.02880377,0.1060505,0.1234617,0.327486,-0.03552685
0.8954121,0.001925583,0.1173263,-0.08172732,0.2922173,0.08861417
0.8848182,-0.01405024,0.1561675,-0.1864714,0.2857802,0.191785
0.9193035,-0.06433957,0.1744704,-0.2861741,0.2148896,0.3013546
0.9523651,-0.101444,0.2022762,-0.2890844,-0.0006696132,0.3960669
0.9621758,-0.1252987,0.2227373,-0.1958288,-0.03021318,0.4030167
0.9798557,-0.07845489,0.1634335,-0.1829539,-0.03917094,0.290273
0.9959648,-0.05683542,0.1504283,-0.1621709,-0.0129288,0.1589495
1.00268,-0.05645832,0.1647681,-0.1245403,0.08250005,0.1287608
1.017045,-0.03598805,0.1779168,-0.06837418,0.07663899,0.1633332
1.114124,-0.04397793,0.2269875,0.05549032,-0.007366652,0.1722568
1.228733,-0.03264569,0.2192516,0.05231487,-0.2300542,0.1686248
1.293844,-0.0284059,0.1788774,-0.09449461,-0.4709279,0.3084178
1.406381,-0.05563,0.1336503,-0.2457407,-0.6700978,0.711522
1.498152,-0.1853534,0.1093316,-0.2146694,-0.7741452,1.033694
1.534149,-0.4218924,0.1355316,0.07836713,-0.5844715,0.6639412
1.516067,-0.4915277,0.1273646,0.3392657,-0.293755,-0.02944854
1.214278,-0.4175782,0.1071511,0.3626905,-0.1666077,-0.1592955
0.8376392,-0.400494,0.09676982,0.1695532,-0.2546362,0.02456641
0.8172264,-0.3829066,0.08170041,-0.01581963,-0.4093253,0.1055503
0.903184,-0.3994745,0.0729734,-0.02444765,-0.596598,0.1223918
0.9429247,-0.4591515,0.02509055,0.1115146,-0.9162245,-0.1460261
1.144444,-0.4290223,-0.03627431,0.4387971,-0.9339167,-0.5121998
1.20936,-0.3669203,-0.09758078,0.6765255,-0.5143168,-0.6077706
1.026982,-0.2952486,-0.1430733,0.6171937,-0.2602331,-0.5529387
0.9421112,-0.1788973,-0.1015548,0.515629,-0.3451333,-0.5002927
0.8644482,-0.1349289,-0.04795587,0.3987794,-0.5201191,-0.4276365
0.7217299,-0.1056227,-0.03984119,0.2021035,-0.6342742,-0.3438521
0.6654111,-0.05893199,-0.032343,0.04086548,-0.676551,-0.3091618
0.6576601,-0.1054565,-0.05352008,-0.03447145,-0.6710434,-0.2501527
0.6818876,-0.14239,-0.09866237,-0.07200018,-0.5779439,-0.2419008
0.7066665,-0.1861762,-0.1222436,-0.005732135,-0.4552036,-0.2688785
0.731113,-0.2721557,-0.1389379,0.1740588,-0.3238252,-0.1819472
0.7667164,-0.26731,-0.1525393,0.3541712,-0.2448805,-0.1826738
0.7789125,-0.2395197,-0.1598192,0.52665,-0.2713823,-0.2004705
0.8294374,-0.2121877,-0.1626807,0.5398022,-0.263455,-0.157837
0.8729239,-0.1476654,-0.1625985,0.4505643,-0.2556911,-0.1552233
0.9202995,-0.08746718,-0.1722716,0.4147568,-0.2194605,-0.02109258
0.9977817,-0.02657495,-0.1725551,0.2351365,-0.100978,0.1384415
1.00039,-0.02657833,-0.1628362,0.03628457,-0.04407503,0.2416389
1.009526,-0.04951401,-0.1444723,-0.01172268,-0.0306592,0.3192627
1.038684,-0.04160515,-0.1039292,0.0411241,-0.03729986,0.287694
1.042021,-0.05952812,-0.08247431,0.1985885,-0.04650079,0.2103687
1.071504,-0.0545759,-0.07823635,0.3249797,-0.06783873,0.03492384
1.069233,-0.03428443,-0.07472338,0.4336095,-0.1166271,-0.1127041
1.088825,-0.02198432,-0.100161,0.5577574,-0.0466749,-0.01969259
1.207954,0.01042533,-0.1162346,0.6787845,0.1226394,0.2401044
1.365496,0.0002141135,-0.09393968,0.809167,0.238501,0.5592222
1.511246,-0.07622308,-0.08433025,0.7596226,0.1385294,0.6948901
1.547788,-0.1987773,-0.1228102,0.5181152,0.0513589,0.6922211
1.477388,-0.3187202,-0.1566267,0.1654168,0.4191626,0.874499
1.399437,-0.4401756,-0.1172443,-0.09575939,0.7504254,0.9951493
1.280449,-0.6383802,-0.05544131,-0.01927543,0.5255881,0.7061929
1.132402,-0.7288073,-0.0389324,0.04005564,0.1682269,0.1947566
1.082728,-0.5620502,-0.05470749,-0.03770585,0.0702043,-0.1876408
1.123521,-0.3905191,-0.07067121,-0.09751605,0.4003998,-0.2853912
1.115469,-0.3317166,-0.04904803,-0.4408735,0.8329994,-0.2803984
1.015954,-0.2802329,0.009138877,-0.8844053,0.644838,-0.343362
0.9056648,-0.293388,0.06167668,-0.9243781,0.1642907,-0.3251405
0.8831502,-0.3563748,0.04895526,-0.6579966,-0.103298,-0.1867881
0.9706714,-0.3861374,-0.0462185,-0.3325276,-0.2389226,-0.04282943
1.024098,-0.4447716,-0.1330732,0.002607387,0.02946838,0.005768414
0.9427625,-0.4783649,-0.15199,0.2568549,0.3247865,-0.1438819
0.8257984,-0.4491866,-0.1133535,0.3153313,0.2765796,-0.3704497
0.7315463,-0.4459895,-0.0614017,0.3862234,0.3383777,-0.5831056
0.6614714,-0.4115021,-0.04385253,0.6251116,0.3025091,-0.7515437
0.6450276,-0.3328264,-0.03908216,0.8009535,0.2554918,-0.722076
0.6489228,-0.2579378,-0.04447524,0.8747026,0.4543248,-0.6162894
0.6446835,-0.1754116,-0.03366255,0.8762939,0.5346776,-0.545624
0.6472315,-0.1345703,0.01673746,0.7495896,0.5228888,-0.441447
0.6694188,-0.1010504,0.0538568,0.6272878,0.3834113,-0.3577217
0.7320604,-0.04944824,0.07747515,0.5478579,0.2570114,-0.1979027
0.822857,-0.0500546,0.08369696,0.4302699,0.308112,0.03396519
0.8952611,-0.08246659,0.1037882,0.2319042,0.2775079,0.1460854
0.9319208,-0.1191957,0.1597773,0.07070535,0.2063845,0.1934592
0.956882,-0.1384845,0.1811669,0.1018549,0.07699755,0.2003333
0.9761835,-0.1188968,0.1836644,0.1646038,0.01303444,0.1275062
0.9763887,-0.07785358,0.1868262,0.1937952,0.08687263,0.03929677
0.9814988,-0.02663554,0.1943975,0.2694677,0.1117083,-0.03606246
1.004532,-0.01362256,0.2103134,0.2938431,0.1817325,-0.08101627
1.063471,-0.01229946,0.2160269,0.2557527,0.1635126,-0.1436938
1.206228,0.03298458,0.2449294,0.1864103,-0.01537563,-0.1916713
1.376588,0.02588637,0.2380229,0.06668543,-0.3621002,-0.00443927
1.471564,-0.06700109,0.1663573,-0.1191155,-0.8303936,0.5333857
1.489972,-0.1757669,0.1198769,-0.2080611,-0.8943318,1.099016
1.521397,-0.3440847,0.1177674,0.0983001,-0.6478525,0.9969768
1.57656,-0.5375921,0.1027313,0.4044776,-0.4904805,0.2286158
1.444817,-0.5326821,0.02079894,0.1579054,-0.2894479,-0.3662206
1.117451,-0.377917,-0.0344257,-0.2366879,-0.1808398,-0.3545416
0.9012705,-0.326456,-0.01390851,-0.4615262,-0.277026,0.05204115
0.8840982,-0.3255608,-0.007283101,-0.6185381,-0.372562,0.320731
0.9883885,-0.3667282,-0.004715539,-0.4506106,-0.5870488,0.240491
1.101365,-0.4872908,-0.03261268,-0.07766312,-0.7882172,-0.004960539
1.10146,-0.4819176,-0.102852,0.1790723,-0.5845138,-0.4498583
1.022744,-0.4110169,-0.1312698,0.3842408,-0.3244757,-0.7252426
0.8841779,-0.3295632,-0.1183178,0.3735379,-0.336348,-0.6056938
0.7380947,-0.1532746,-0.09016704,0.1928503,-0.4097493,-0.5614159
0.6398497,-0.05075036,-0.07094001,0.01881621,-0.5026543,-0.508079
0.5724116,-0.002246885,-0.06805692,-0.1984743,-0.5676254,-0.2371484
0.5871359,0.0237061,-0.07681236,-0.3189458,-0.5678388,-0.002247624
0.6348891,-0.07189773,-0.1099755,-0.3693427,-0.5635545,0.09364235
0.7019452,-0.1945822,-0.1534339,-0.2811815,-0.4280004,0.08530134
0.8133848,-0.2971199,-0.1928342,-0.07498086,-0.2136314,-0.02433113
0.8776259,-0.3257316,-0.1963194,0.04786777,-0.08126085,-0.1198363
0.9348704,-0.2672225,-0.1768154,0.2573481,-0.007952263,-0.05501797
0.9944711,-0.1988289,-0.1682945,0.3056565,0.03918393,0.02482725
0.9976693,-0.1045466,-0.1531598,0.1472093,0.09013323,0.06169564
0.9860338,-0.02038175,-0.1363308,0.06319365,0.096592,0.1700964
0.9796498,0.02684149,-0.1068074,-0.1999817,0.02446882,0.2404693
1.00601,0.04287252,-0.07755944,-0.4179919,-0.05149929,0.2657011
1.084401,0.012149,-0.06919199,-0.4083777,-0.08293623,0.277302
1.178501,-0.02645477,-0.05996734,-0.4322818,-0.06170202,0.1980697
1.216527,-0.06240022,-0.06055936,-0.3722805,-0.06230891,0.1173404
1.220359,-0.1128303,-0.06005765,-0.160744,-0.09243454,0.1395506
1.29827,-0.1762097,-0.07662119,0.1943867,-0.09190161,0.2603921
1.436427,-0.26841,-0.1584445,0.4614636,0.008765594,0.4429232
1.616467,-0.3703962,-0.2831278,0.3098435,0.4426386,0.5681986
1.699526,-0.3942749,-0.3360485,-0.1357721,1.052,0.5004446
1.499985,-0.4159047,-0.1898257,-0.6362338,1.1001,0.2167313
1.181403,-0.5610288,0.008633355,-0.6643675,0.4481802,-0.1926984
0.9512062,-0.6377758,0.0266373,-0.1017272,-0.1032955,-0.376064
0.9501426,-0.5224009,-0.08842021,0.1679943,-0.01488941,-0.1595789
1.123406,-0.3631333,-0.205382,-0.1584197,0.5136513,-0.06273866
1.159275,-0.2464489,-0.2277077,-0.6170524,1.056737,-0.2903304
1.07058,-0.1989872,-0.1221436,-0.8670396,1.153612,-0.5266573
0.9185364,-0.2058556,0.005472522,-0.8088889,0.660654,-0.6730819
0.743966,-0.2153263,0.03984685,-0.5741769,0.1452037,-0.510138
0.768115,-0.2209633,-0.03236859,-0.2036664,0.1571709,-0.1563457
0.8308629,-0.2572209,-0.11291,0.08675261,0.5074345,-0.0618245
0.7869979,-0.3229019,-0.1208459,0.106006,0.7767322,-0.08227922
0.7202792,-0.3518142,-0.06864853,0.1844989,0.7647528,-0.1644932
0.5908627,-0.3375035,0.007764229,0.3915263,0.5423407,-0.3362031
0.5412118,-0.2815354,0.0380218,0.4850802,0.3569869,-0.3522977
0.61675,-0.172598,0.01015359,0.4413442,0.2458883,-0.2943878
0.687893,-0.07168103,-6.905503e-05,0.3202486,0.2721404,-0.1759667
0.8069077,-0.02840128,0.0132,0.1309037,0.4993211,0.0780737
0.8904091,-0.04530493,0.04358833,-0.08997189,0.6408531,0.2860271
0.8553249,-0.08491019,0.09856895,-0.3170033,0.533967,0.3207809
0.8549962,-0.1118238,0.1240481,-0.547104,0.3672202,0.2465681
0.897825,-0.1075639,0.1401279,-0.5568101,0.3617618,0.2396586
0.9573348,-0.08142271,0.1858715,-0.4006885,0.3624696,0.2433573
1.086878,-0.059854,0.1846578,-0.344441,0.2475186,0.203632
1.169706,-0.01650701,0.1647869,-0.2377973,0.2586101,0.2207788
1.182243,0.00404439,0.2026205,-0.1836668,0.3431489,0.1948739
1.214362,-0.01995019,0.2319809,-0.2604717,0.3678323,0.1425601
1.247702,-0.01901298,0.2469536,-0.2467381,0.1630479,0.1516517
1.364564,-0.05529231,0.2350015,-0.3375196,-0.3097851,0.2578754
1.581318,-0.1337069,0.1656897,-0.5378017,-0.5340471,0.562277
1.673315,-0.1692453,0.1417014,-0.6090909,-0.4755828,0.8062368
1.509011,-0.2419188,0.117888,-0.5525221,-0.4621371,0.6047183
1.213898,-0.3841492,0.03895488,-0.4796693,-0.4885531,0.1374447
1.007531,-0.4347578,0.01438251,-0.5924063,-0.4838233,-0.1504322
0.958302,-0.3640262,0.002871101,-0.7956775,-0.3583943,-0.1387389
0.9248442,-0.3486752,-0.04581355,-0.9596501,-0.20498,0.03122616
0.8798503,-0.3842872,-0.0572497,-1.030508,-0.1845541,0.08083283
0.9619002,-0.3695148,-0.03459066,-0.8237323,-0.3587452,-0.1079653
1.029283,-0.3584738,-0.0430989,-0.5442756,-0.5226512,-0.3519481
0.994222,-0.3367999,-0.08223776,-0.3258032,-0.3926955,-0.5049445
0.980029,-0.2808837,-0.1022139,-0.1626794,-0.1844406,-0.4423148
0.8604274,-0.211296,-0.08921511,-0.2061889,-0.09907292,-0.333209
0.7162649,-0.117916,-0.057848,-0.2905855,-0.1849969,-0.3189571
0.6560288,-0.07166187,-0.05150989,-0.4232848,-0.3717863,-0.185584
0.5940975,-0.07225933,-0.06124449,-0.6812801,-0.370131,-0.08160164
0.6504254,-0.08836693,-0.06386504,-0.8244929,-0.3195311,0.009577722
0.7139795,-0.1429286,-0.1027172,-0.8379718,-0.3003455,0.1874165
0.7399425,-0.1984889,-0.1340505,-0.7685449,-0.1280674,0.2066158
0.8307215,-0.260574,-0.1429843,-0.5900766,0.02641935,0.2072707
0.8853792,-0.3183741,-0.1594347,-0.3379802,0.08471912,0.1933783
0.9507583,-0.3126637,-0.14131,-0.1409441,0.08146636,0.09238253
0.9810264,-0.23404,-0.1129809,-0.1374527,0.00111963,0.08474339
0.9885526,-0.1168923,-0.09939597,-0.2304839,-0.03728404,0.110239
1.039982,-0.02254841,-0.09601023,-0.4044175,-0.03369158,0.1982476
1.032911,0.04975484,-0.0941226,-0.6508671,-0.007318943,0.3085606
1.090437,0.07364992,-0.07305293,-0.800231,0.09060868,0.3122803
1.190278,0.02375401,-0.06418059,-0.8786141,0.2276579,0.2611955
1.232797,-0.01617879,-0.05655127,-0.888811,0.2897754,0.1815542
1.289476,-0.07037248,-0.04575586,-0.7243753,0.2182025,0.1762906
1.333535,-0.1942697,-0.0797275,-0.3684157,0.1513577,0.2314414
1.435253,-0.3250381,-0.149971,0.01180173,0.2052962,0.2759214
1.577299,-0.3922055,-0.2259035,-0.01526904,0.568383,0.2608968
1.612203,-0.3749849,-0.2464923,-0.5882383,1.026849,0.0003482371
1.484061,-0.4008821,-0.1473572,-1.173942,0.8485995,-0.4064313
1.241075,-0.5326577,-0.02054132,-1.10107,0.3726213,-0.5538837
1.105429,-0.5914275,-0.02386704,-0.4120281,0.3227791,-0.3111883
1.120984,-0.5074693,-0.1166888,0.0359711,0.6261964,-0.1269881
1.132371,-0.4059058,-0.1443811,-0.2169258,1.009478,-0.2801556
1.062506,-0.3494172,-0.05511091,-0.6147358,0.8539329,-0.5324106
0.9105373,-0.244156,0.06782654,-0.6733192,0.372706,-0.7407782
0.794951,-0.1013853,0.08244027,-0.5962033,0.2282944,-0.6333775
0.7912637,-0.08880832,0.03207344,-0.5246946,0.1057831,-0.2818719
0.8127647,-0.1325883,0.00619457,-0.4480963,0.2158691,-0.157727
0.7501084,-0.1564724,-0.04229975,-0.4629521,0.3938506,-0.06853835
0.6600384,-0.2391285,-0.02754119,-0.4277722,0.2284933,-0.006204869
0.630935,-0.2715515,0.03542367,-0.3000576,0.3104658,-0.1292917
0.6104411,-0.2288171,0.0171801,-0.1611307,0.3635011,-0.1364402
0.6057524,-0.1972613,0.02274506,-0.01427404,0.3335618,-0.1066482
0.6260547,-0.1523559,0.04979762,-0.0298,0.4588993,-0.05750296
0.687063,-0.108351,0.05267118,-0.1888434,0.3240862,0.08657277
0.7861941,-0.06886233,0.09984105,-0.4203662,0.2258888,0.1274439
0.8105144,-0.05134488,0.1129703,-0.6095162,0.1215983,0.1426041
0.8434563,-0.07539086,0.104448,-0.6051036,-0.02203131,0.210718
0.9462196,-0.0886548,0.1295258,-0.6067174,0.02329667,0.3622753
1.004117,-0.1202352,0.122735,-0.5667032,-0.05659944,0.5150314
1.03281,-0.160854,0.1154705,-0.422004,-0.02509258,0.5066498
1.064824,-0.1399977,0.1188447,-0.3135899,0.096658,0.4523746
1.107025,-0.1031799,0.1052169,-0.200963,0.1334781,0.3366144
1.175725,-0.05388709,0.1107558,-0.1673506,0.252492,0.1649997
1.236586,0.005795436,0.1388879,-0.1424361,0.2311194,0.04384201
1.27248,0.007530133,0.1690598,-0.04048031,0.1717272,-0.01924448
1.299548,-0.005871578,0.1605781,-0.03280397,0.0804217,0.03868815
1.370176,-0.0471391,0.0896883,-0.2011385,-0.2261168,0.2409247
1.47135,-0.1481431,0.0274308,-0.4575846,-0.4348115,0.6000291
1.482959,-0.2175975,0.03783983,-0.4906278,-0.3635254,0.7531581
1.405198,-0.3058355,0.05685143,-0.344325,-0.2315406,0.3363505
1.278627,-0.4276565,0.02866355,-0.3480487,-0.2308808,-0.1911971
1.096139,-0.4140165,0.02065198,-0.4804853,-0.1477154,-0.3088586
0.9968509,-0.3639207,0.04057073,-0.6695044,-0.03760663,-0.02468788
0.9606442,-0.4454526,0.05766682,-0.7179177,-0.1939065,0.1882057
0.9288423,-0.4794636,0.08432116,-0.503421,-0.4732501,-0.03933732
1.046064,-0.4345238,0.05067776,-0.2681285,-0.7101243,-0.3070607
1.100295,-0.4257753,-0.03296741,-0.09328814,-0.5439146,-0.3810037
0.9997661,-0.3458542,-0.0640298,0.03976029,-0.1582797,-0.4353091
0.9296996,-0.2475565,-0.05347996,0.07963282,-0.2120502,-0.3823294
0.7855442,-0.1958813,-0.02666978,0.009023968,-0.3580311,-0.3263605
0.6893083,-0.09821136,-0.01456962,-0.1513864,-0.4305865,-0.325131
0.6932575,-0.01752328,-0.04990458,-0.3236781,-0.5080687,-0.1750336
0.6566552,0.001693806,-0.08951969,-0.4853332,-0.324494,-0.02590723
0.680501,-0.04917086,-0.1025427,-0.5991298,-0.1954666,0.009541662
0.690972,-0.1494248,-0.1020548,-0.6079823,-0.1799172,0.05777561
0.717436,-0.2249962,-0.1154269,-0.4721981,-0.09340183,0.1497891
0.8323211,-0.2752836,-0.134191,-0.2435454,-0.002953422,0.2366791
0.9077131,-0.2673356,-0.1363476,-0.1300951,0.0921881,0.2449358
0.9596302,-0.2341305,-0.1169839,-0.1070089,-0.02715746,0.1993071
0.9817638,-0.2092765,-0.08486814,-0.0758239,-0.1762694,0.1591566
1.013628,-0.138961,-0.08497227,-0.1190962,-0.1310856,0.2232567
1.041193,-0.06099418,-0.08320418,-0.2283264,-0.1375253,0.3745982
1.01071,-0.006050537,-0.05088027,-0.4011982,-0.1456928,0.4449645
1.032828,0.007948689,-0.03857112,-0.5611954,-0.1566256,0.4646136
1.073072,-0.02231004,-0.02818938,-0.566438,-0.1861069,0.3972951
1.129988,-0.04857414,-0.02115241,-0.5112237,-0.1030146,0.2551001
1.195465,-0.08291099,-0.01643921,-0.4894166,-0.004780998,0.2209831
1.182217,-0.1330752,0.002762128,-0.4090002,0.03141393,0.2706961
1.23278,-0.2274495,-0.03969426,-0.2004117,0.05889312,0.4031397
1.43008,-0.4063881,-0.1471157,-0.04124409,0.3051178,0.5045103
1.644603,-0.5356124,-0.2138884,-0.1546444,0.7165503,0.3229686
1.669241,-0.4873347,-0.1646867,-0.4279711,0.719424,-0.07903425
1.495156,-0.4330026,-0.07205294,-0.5851897,0.1918076,-0.4634291
1.307693,-0.4843685,-0.06415686,-0.4104345,-0.189344,-0.5629849
1.112403,-0.4521093,-0.108099,0.002098496,0.1124514,-0.2419688
1.046282,-0.3532907,-0.1599306,0.09545122,0.6525381,0.156598
1.164387,-0.3102644,-0.1835586,-0.3865608,0.8549743,0.1375263
1.15549,-0.2840007,-0.1097906,-0.9365698,0.8118477,-0.2581911
1.002093,-0.300006,-0.005948325,-0.9665525,0.5101009,-0.6625685
0.8181414,-0.2680782,0.04811633,-0.6435751,0.08180802,-0.758067
0.7083872,-0.1986703,0.02154195,-0.4840879,0.01509333,-0.474043
0.7760665,-0.229216,-0.0400821,-0.3461675,0.2536592,-0.198224
0.7750516,-0.2437396,-0.04849315,-0.1023486,0.4701899,-0.0486384
0.7035834,-0.2745817,-0.0449603,0.04673465,0.51698,0.04038726
0.7039372,-0.3603419,-0.02660428,0.1795196,0.4753988,-0.08865517
0.6541785,-0.3590047,0.006906023,0.2437853,0.4897637,-0.2423122
0.6496498,-0.2986325,0.01049895,0.2461741,0.4445362,-0.3305985
0.7082115,-0.2018907,0.02468187,0.2412617,0.4000794,-0.3587647
0.7334798,-0.1010191,0.03212542,0.152928,0.4483589,-0.1749019
0.7772987,-0.06955258,0.0515537,0.09103134,0.4495944,0.03352122
0.7813334,-0.08585234,0.0981868,-0.05787969,0.3860554,0.1763392
0.7885431,-0.1058764,0.1215162,-0.2483655,0.2552873,0.2503756
0.8510396,-0.1093522,0.1381608,-0.276906,0.09114834,0.2524542
0.9050299,-0.1282714,0.1246995,-0.2642998,-0.02509768,0.3433469
0.9822181,-0.1400697,0.1060817,-0.2145258,-0.03459074,0.4389498
1.034617,-0.1353746,0.1136283,-0.1494037,0.08133422,0.4555704
1.042532,-0.1357193,0.1183572,-0.1055379,0.175323,0.3558607
1.048888,-0.09871198,0.1538204,-0.06024962,0.1650676,0.1220591
1.040345,-0.05721888,0.1858833,-0.01798494,0.1012044,-0.04081779
1.08201,-0.03130054,0.189845,0.06451868,0.008316889,-0.06739003
1.187158,-0.03952748,0.1762976,0.07956439,-0.1643281,0.05390154
1.364492,-0.1481571,0.1111458,0.02607892,-0.417743,0.4231291
1.624671,-0.2947603,0.04857066,0.01194617,-0.5441635,0.8636243
0.9672772,-0.2065896,0.1416268,0.4621088,0.03475051,0.2085301
0.9980011,-0.2276775,0.2257182,0.8305497,0.04145751,0.02727089
1.13032,-0.2088763,0.253011,1.131407,0.005924462,-0.2064959
1.204674,-0.1036594,0.2574634,1.330437,-0.03449883,-0.356523
1.293014,0.0001776412,0.2680086,1.3586,-0.1418537,-0.3917072
1.375553,0.1053174,0.2436886,1.224222,-0.3822218,-0.3185727
1.44638,0.1511724,0.1840496,0.9386242,-0.5633387,0.01383874
1.592748,0.05112632,0.1215302,0.3588637,-0.6708221,0.5782962
1.575204,-0.18149,0.1542921,0.06200113,-0.7496047,0.9364424
1.489504,-0.3956749,0.1782205,0.3389157,-0.7737625,0.5424846
1.330777,-0.3960796,0.09716334,0.5032203,-0.7344858,-0.04403907
0.9303484,-0.2943811,-0.0002693509,0.3022472,-0.5857841,-0.1380338
0.6658177,-0.2799839,-0.05671997,0.04504954,-0.439048,0.01414621
0.7566791,-0.3246266,-0.02989563,-0.2964244,-0.5061753,0.2914498
0.9629687,-0.3852514,-0.004139525,-0.4339737,-0.7262657,0.3258396
1.129419,-0.4275518,-0.05987068,-0.006814215,-0.8745554,-0.0277225
1.213135,-0.401573,-0.1131297,0.4499392,-0.8105662,-0.4000418
1.102049,-0.3428195,-0.1521362,0.7109822,-0.5312913,-0.6705102
0.9503846,-0.2828445,-0.1557707,0.7922142,-0.2685525,-0.5784268
0.8831764,-0.1858128,-0.08133404,0.547774,-0.2663995,-0.4023757
0.703617,-0.09526607,-0.03603371,0.3233891,-0.461164,-0.3336059
0.6203014,-0.09291196,-0.060092,0.1278276,-0.6165689,-0.09119584
0.6485299,-0.08041238,-0.08921608,-0.04910085,-0.6407614,0.02095616
0.571782,-0.001674816,-0.1046096,-0.07920262,-0.5984879,0.11671
0.6619461,-0.05787372,-0.1113704,-0.1341984,-0.4824018,0.2357479
0.7633742,-0.2011437,-0.1380045,-0.01795518,-0.2835445,0.1383255
0.769735,-0.2323339,-0.1701071,0.2000011,-0.1354051,0.1115189
0.8805173,-0.2748665,-0.1779905,0.337642,-0.1285753,0.02521589
0.8861525,-0.2907523,-0.1809507,0.4693387,-0.1724588,-0.07796696
0.9000866,-0.207935,-0.1809541,0.4384993,-0.160954,-0.01627829
0.9791287,-0.1446864,-0.1722615,0.3508288,-0.09767212,-0.0371274
1.001727,-0.02568038,-0.1552457,0.1954672,-0.03704894,-0.03570127
1.087813,0.0755977,-0.1400792,-0.05191051,-0.0696058,-0.003283801
1.121226,0.08208718,-0.1335627,-0.1387066,-0.116727,0.04112057
1.186526,0.07530909,-0.130002,-0.1338741,-0.05069472,0.2390067
1.338085,-0.03801187,-0.1396059,0.08565541,-0.01586923,0.3834551
1.43464,-0.233467,-0.1795066,0.5745133,0.04747573,0.3516421
1.584878,-0.3864673,-0.2679527,0.761644,0.5086188,0.3032889
1.67358,-0.4077662,-0.3450522,0.2985975,1.401067,0.3123205
1.60422,-0.3885885,-0.2858771,-0.2285677,1.838256,0.1975529
1.40849,-0.5665385,-0.122175,-0.06905099,0.925055,-0.03807206
1.084587,-0.803308,-0.03200925,0.5706046,-0.1511154,-0.1444922
0.9121932,-0.8515622,-0.06604691,1.251586,0.01609198,-0.1305325
0.9820317,-0.6930692,-0.1091381,1.506725,0.4868249,-0.2204252
1.033719,-0.4567431,-0.07823522,1.04744,0.5786612,-0.6445239
0.9936671,-0.2653553,0.007008683,0.7392086,0.5706415,-1.133113
0.9266542,-0.1165668,0.09517464,0.8292492,0.1849821,-1.180084
0.8158996,-0.05929291,0.0998476,0.8077036,-0.1394897,-0.8229881
0.7912115,-0.02869657,-0.003317729,0.8523338,0.07269841,-0.3361766
0.847865,0.001553237,-0.07238261,0.8060429,0.3408459,-0.05752204
0.7568927,-0.07542568,-0.07186294,0.6295741,0.5195198,-0.09261138
0.6561468,-0.1409308,-0.05336163,0.5550958,0.5477997,-0.2016563
0.6146806,-0.1590656,-0.0015097,0.4599191,0.3665862,-0.314442
0.5563116,-0.1609087,0.03517592,0.5423358,0.2307753,-0.3524174
0.5787384,-0.1212404,0.07205553,0.6352925,0.1983375,-0.2118809
0.6165627,-0.09924316,0.09186854,0.5224982,0.2329532,-0.0279964
0.7074957,-0.06540404,0.07427212,0.4384983,0.2511575,0.02932854
0.8329109,-0.03835908,0.1053336,0.2563665,0.2197427,0.06125976
0.8793546,-0.02982494,0.1132652,0.06514746,0.2213737,0.2030939
0.9389933,-0.01608332,0.1122229,0.04405271,0.2223176,0.3143113
0.9530783,-0.05104136,0.1546482,0.08076599,0.200756,0.3272054
0.9790387,-0.08147702,0.1734883,0.1885497,0.177396,0.2142178
1.097609,-0.0892059,0.2119342,0.3532764,0.1446554,-0.002007703
1.169572,-0.06117776,0.2420439,0.5723335,0.06460127,-0.1279748
1.219115,0.03022911,0.2448631,0.7419565,-0.11325,-0.1628956
1.281858,0.0979674,0.2299646,0.67397,-0.3406808,-0.04105784
1.373929,0.09146308,0.1510977,0.365984,-0.437777,0.4179969
1.498497,-0.07036771,0.1077562,0.06750829,-0.3384026,0.8736005
1.567349,-0.2934799,0.1525972,0.09597862,-0.3407131,0.7162504
1.495255,-0.3420684,0.1868862,0.1484847,-0.6660065,0.1573805
1.234026,-0.3233799,0.1154,-0.05212918,-0.9742107,-0.1775869
0.9437136,-0.3291477,-0.003768829,-0.1982741,-0.8827365,-0.2397526
0.8428199,-0.2917026,-0.07250277,-0.355548,-0.5952252,0.07181875
0.9571462,-0.3235511,-0.1278556,-0.4915218,-0.4559401,0.494727
1.096634,-0.4032284,-0.1314501,-0.3951017,-0.4541434,0.4362924
1.155926,-0.4157111,-0.1050039,-0.2868357,-0.4842067,0.1004921
1.174332,-0.4326606,-0.1231831,0.005263641,-0.4231327,-0.3664929
1.028293,-0.4049779,-0.1105059,0.4059222,-0.2857431,-0.6583568
0.8228358,-0.2987426,-0.08049361,0.4247221,-0.2683048,-0.5256281
0.7038097,-0.2115662,-0.05256229,0.3689437,-0.354091,-0.4807742
0.5951633,-0.09777476,-0.03337904,0.3770432,-0.4798686,-0.3786058
0.5826522,0.007287639,-0.06126455,0.1916944,-0.5502157,-0.1291703
0.5902415,0.03181782,-0.07161857,-0.03823974,-0.5001003,0.008393067
0.5952329,0.02209766,-0.08928064,-0.2276837,-0.4668032,0.2033453
0.6976629,-0.05053612,-0.1438212,-0.3886945,-0.3501013,0.2863963
0.7748569,-0.1772409,-0.1795796,-0.4271148,-0.1429117,0.2916129
0.817616,-0.2798623,-0.1891197,-0.235913,-0.04179904,0.3523166
0.8394632,-0.3239492,-0.1674554,0.1128363,-0.02263019,0.3025063
0.8858424,-0.3300966,-0.1512203,0.339476,-0.07147648,0.2444207
0.9768115,-0.2758793,-0.1409725,0.3463912,-0.09879356,0.1663043
1.040642,-0.1253078,-0.1127189,0.1994009,-0.03302248,0.0846449
1.113846,-0.01328536,-0.09853642,-0.008497994,0.005963614,0.09670926
1.112193,0.0242838,-0.08063896,-0.1892069,-0.042955,0.101074
1.099154,0.07520869,-0.07177675,-0.3079536,-0.163658,0.1159223
1.15554,0.07945789,-0.08611037,-0.3223584,-0.2272332,0.176204
1.195319,-0.002829532,-0.09675212,-0.2530037,-0.1318133,0.2847342
1.337737,-0.160726,-0.1187453,-0.02788963,-0.02130227,0.4096532
1.481219,-0.3754916,-0.1707094,0.4269156,-0.01986958,0.3939165
1.521087,-0.531942,-0.2718772,0.6469827,0.1896024,0.2551652
1.581182,-0.542843,-0.3297643,0.1959001,0.8180292,0.1359708
1.551882,-0.5353902,-0.2424753,-0.3243696,1.13607,-0.0354886
1.382086,-0.6491465,-0.1064268,-0.1838835,0.5412414,-0.4004448
1.143982,-0.7338107,-0.0396458,0.4222145,-0.04192109,-0.6922819
1.00936,-0.6425937,-0.0840835,1.042297,0.2994481,-0.5241822
1.083642,-0.4781459,-0.1569843,1.131906,0.7124648,-0.3312146
1.095651,-0.3584634,-0.1546688,0.5325089,0.665427,-0.5626725
1.026241,-0.2269272,-0.1204992,0.04264631,0.5663683,-0.7811003
0.9846896,-0.04006919,-0.02120643,-0.05049712,0.1482062,-0.8426401
0.8431408,-0.007306626,0.09446137,0.005234075,-0.1108547,-0.6852699
0.7480889,-0.1259426,0.02074416,0.209323,0.2148401,-0.2100221
0.75929,-0.1640501,-0.08374812,0.4012209,0.3754591,-0.02214471
0.7171845,-0.2380864,-0.03622075,0.5501706,0.4915805,-0.05273371
0.6888015,-0.3462792,-0.008502784,0.5889998,0.584322,-0.05913379
0.6546788,-0.3123541,-0.0008970113,0.5756798,0.4224611,-0.2871979
0.5959611,-0.2501582,0.03878439,0.640222,0.3374603,-0.3466579
0.6182107,-0.14679,0.02951913,0.483325,0.2435468,-0.2203959
0.6690094,-0.01477949,0.04389572,0.2575253,0.2340299,-0.09612977
0.7375352,-0.001511405,0.0824447,0.09814536,0.2723603,0.1146558
0.8117878,-0.01124636,0.1027104,-0.1112856,0.1558414,0.1913722
0.8222688,-0.0392834,0.1352226,-0.1618189,0.0888224,0.2786206
0.8253577,-0.1023973,0.1285575,-0.1248886,0.04685483,0.39597
0.8315819,-0.1267817,0.1297618,-0.04073135,0.06437812,0.3738431
0.8505138,-0.1504825,0.1571486,0.1128117,0.07857002,0.2984665
0.9407023,-0.1527975,0.1520265,0.2360982,0.02005724,0.147049
1.046489,-0.1431317,0.1579336,0.3947383,0.0403565,0.06297522
1.138913,-0.1264378,0.1600096,0.5828569,0.02420398,-0.03218078
1.270962,-0.06629971,0.1584023,0.7129082,-0.04474642,-0.2668262
1.375191,-0.004521126,0.1589816,0.6025286,-0.2168111,-0.3035096
1.368461,0.03169654,0.1227922,0.256888,-0.4697257,0.1071927
1.426391,-0.007898642,0.1125133,-0.1089146,-0.5499696,0.765379
1.618481,-0.1470045,0.1641925,-0.2046463,-0.6304286,0.9237953
1.641327,-0.3714169,0.2071058,0.09678525,-0.7544241,0.296141
1.347216,-0.5159224,0.1444108,0.2931657,-0.5966588,-0.3230492
0.9522935,-0.4473538,0.04262953,0.2482426,-0.3718844,-0.3063095
0.8190823,-0.4374204,0.01431532,0.1611835,-0.4570972,0.08163205
1.015948,-0.5033533,-0.02816059,0.05304124,-0.5828693,0.2501648
1.184713,-0.462948,-0.07080095,0.3063335,-0.6391797,0.02931873
1.210312,-0.4634713,-0.08038887,0.7845058,-0.7513069,-0.3673523
1.129004,-0.4260853,-0.1095781,1.063397,-0.5881612,-0.7115747
0.9387525,-0.2870015,-0.06807002,1.218702,-0.3891541,-0.8384728
0.8602642,-0.2197394,-0.02212482,1.231834,-0.5590295,-0.7537102
0.7861586,-0.1258834,-0.05806901,1.097507,-0.7253016,-0.6229709
0.6043894,0.01040677,-0.07520331,0.8644948,-0.8225891,-0.4847925
0.6149647,0.01988218,-0.1069004,0.6602759,-0.8386087,-0.2267288
0.6905222,-0.0516473,-0.1419779,0.5549006,-0.6407447,-0.04726697
0.6572564,-0.1229483,-0.1256051,0.4732848,-0.4933197,-0.04856056
0.6985408,-0.2278662,-0.1313827,0.5706842,-0.4040613,-0.01578158
0.7221986,-0.2968965,-0.141046,0.7656327,-0.3537225,-0.08375713
0.7076748,-0.2931333,-0.1376126,0.9696246,-0.4240717,-0.2311041
0.7972614,-0.2993383,-0.1641628,1.181317,-0.4361042,-0.2686014
0.8596625,-0.2328605,-0.182659,1.172796,-0.3158327,-0.2790708
0.8971852,-0.1172028,-0.1685939,1.056101,-0.1534793,-0.2026672
0.9772645,-0.01589858,-0.1537342,0.8504248,-0.12741,-0.03548229
0.9618313,0.09090897,-0.1391116,0.5358256,-0.249368,0.1640258
0.9332608,0.07931531,-0.09806098,0.3800758,-0.3666789,0.3209362
1.022402,0.09212964,-0.06452177,0.3338878,-0.4231558,0.3044857
1.147099,0.1072478,-0.07725281,0.3166217,-0.2790038,0.2198009
1.248239,0.000715386,-0.08364784,0.309332,-0.1142177,0.1412838
1.274333,0.002763106,-0.06435121,0.367962,-0.2060247,0.1125712
1.295515,-0.05118265,-0.05780303,0.6844369,-0.2576994,0.1693243
1.440766,-0.1735791,-0.05576172,1.160654,-0.1901775,0.2345966
1.584884,-0.2161825,-0.08520534,1.469937,-0.1818527,0.3996519
1.594247,-0.3626575,-0.1954863,1.263586,0.1114909,0.6729183
1.480615,-0.4667816,-0.2701169,0.5535937,0.907954,0.7787486
1.285835,-0.5263062,-0.1413689,-0.3490496,1.387958,0.538171
1.095831,-0.6899828,0.06804332,-0.7215803,0.6696303,-0.07859729
0.963638,-0.7795237,0.1003304,-0.02870332,-0.2494353,-0.8707922
0.9168516,-0.6181551,0.00113171,0.5234285,-0.16459,-1.169707
0.9410958,-0.2854936,-0.08230241,0.2847456,-0.004634616,-0.9129259
0.976412,-0.09015519,-0.1300839,0.1918295,-0.07570299,-0.6990574
1.008576,-0.0526757,-0.1043884,0.1338238,0.197191,-0.2921172
1.018624,-0.1358332,-0.08649812,-0.0259076,0.1321529,0.1561739
1.014099,-0.3371664,-0.1460065,0.08552703,-0.01089756,0.05239231
0.9674911,-0.4538824,-0.1676885,0.2657733,0.2925667,-0.09166814
0.8241245,-0.500866,-0.1339053,0.5988056,0.4421494,-0.253169
0.6608651,-0.4645175,-0.08148978,1.00852,0.564789,-0.5880684
0.5462579,-0.3745149,-0.02293679,1.227715,0.5957607,-0.6760709
0.5117851,-0.2747124,0.002474895,1.406096,0.4404056,-0.7174425
0.555379,-0.04851571,0.007163197,1.4559,0.4854154,-0.6824343
0.6033294,0.1150574,0.01083792,1.279305,0.4758439,-0.4981645
0.6639233,0.1776813,0.03264232,0.9552342,0.4705277,-0.2928995
0.7249534,0.1929848,0.07675775,0.4988167,0.4427016,0.05629841
0.7326033,0.1119133,0.1179391,0.06931082,0.1235492,0.2626784
0.7635274,0.06232665,0.1288661,-0.0729465,-0.1651678,0.3213532
0.87605,-0.08303932,0.1053296,0.0875267,-0.2203011,0.3049131
0.9892071,-0.2591895,0.09951291,0.2456382,-0.002337492,0.1023404
0.9991925,-0.1993649,0.11138,0.3613248,0.1892312,-0.05503076
0.9812292,-0.09912144,0.1439703,0.5618229,0.1720862,-0.190092
1.057241,-0.07777678,0.2096067,0.7338588,0.1805547,-0.2178248
1.112952,-0.04796047,0.2211709,0.8858738,0.1345098,-0.1470747
1.218885,-0.03265781,0.1902343,0.9383526,0.08135359,-0.157016
1.491886,0.01555118,0.16757,0.8357947,-0.08360146,0.05491323
1.590625,0.08331264,0.1326914,0.7514632,-0.462593,0.5196138
1.526133,-0.07611217,0.1365575,0.6623671,-0.6239716,0.8443002
1.599562,-0.373732,0.1618001,0.7403412,-0.5251421,0.5854673
1.595185,-0.4698719,0.1431941,0.9141405,-0.4443922,0.04984411
1.356701,-0.4523675,0.1083735,0.7667128,-0.4379355,-0.09877026
1.029818,-0.4249492,0.05644306,0.5695461,-0.4045569,-0.1360546
0.8050194,-0.3911194,0.01173705,0.4413839,-0.400037,-0.004946126
0.8319598,-0.4310286,-0.002315371,0.3491037,-0.5021783,0.2695635
0.9654465,-0.4508433,-0.03835532,0.6528856,-0.6409839,0.09510131
1.092443,-0.4226506,-0.0742182,1.006881,-0.8097421,-0.2245227
1.186068,-0.3650004,-0.1137287,1.003261,-0.6980153,-0.5667813
1.101214,-0.2456789,-0.1526114,0.8757532,-0.411789,-0.7743122
0.9537971,-0.1249717,-0.09871943,0.7249031,-0.3840847,-0.5107975
0.8376119,-0.05004372,-0.03269115,0.5844177,-0.3785261,-0.3536472
0.6780893,-0.02306179,-0.02660694,0.5296746,-0.4265555,-0.2319741
0.6051065,-0.02432407,-0.02917386,0.4752748,-0.5606745,0.01013006
0.6023,-0.07810847,-0.06373235,0.3201547,-0.5609618,-7.316122e-05
0.6021298,-0.1742273,-0.108213,0.2362662,-0.5591388,0.04157241
0.6734206,-0.2339023,-0.1375984,0.3251853,-0.4597671,0.104644
0.7391426,-0.2458123,-0.1597162,0.4166608,-0.293015,0.06216763
0.7954814,-0.2194178,-0.1586178,0.5676766,-0.2110206,0.1027537
0.8581224,-0.1681857,-0.1561479,0.6675954,-0.1085986,0.08004733
0.9064664,-0.09561918,-0.1390372,0.5675615,-0.04416298,0.07396274
0.9656054,-0.03460297,-0.1067738,0.4572218,-0.04623381,0.08592988
0.975747,0.00591485,-0.08389288,0.2207222,-0.111045,0.03957849
1.003632,0.08706223,-0.06642899,-0.08652823,-0.1522977,0.08151722
1.089758,0.1120679,-0.04611783,-0.2154941,-0.02636501,0.1335192
1.152667,0.01866075,0.006058388,-0.3027363,0.05013205,0.1781075
1.202899,-0.08786929,0.04177761,-0.2893722,-0.1327549,0.1817412
1.257462,-0.2014369,0.01223891,-0.01263106,-0.3167332,0.1492398
1.372758,-0.3215112,-0.04378591,0.4616,-0.1958277,0.2439429
1.524684,-0.3500356,-0.126191,0.7475472,0.1051832,0.3383585
1.675961,-0.2642551,-0.2145672,0.4213664,0.6299595,0.3805161
1.784063,-0.2292984,-0.2325523,-0.1277697,1.104678,0.3529217
1.575551,-0.3584809,-0.1417429,-0.3698793,0.6264965,0.05500028
1.162955,-0.4837135,-0.05246926,-0.2404759,-0.03337862,-0.2816615
1.024993,-0.4575063,-0.1161425,0.1338306,0.2256114,-0.242571
1.152791,-0.3506537,-0.185968,0.2430817,0.5849898,-0.03473858
1.223287,-0.2603869,-0.1269476,-0.1506579,0.8259167,-0.08426039
1.132272,-0.2135121,-0.08100007,-0.698112,0.9963901,-0.3319064
0.9767287,-0.1993855,-0.0104099,-0.9026023,0.5493846,-0.5452243
0.8285364,-0.1878485,0.07422718,-0.6436461,0.1656486,-0.4688805
0.794237,-0.2001549,-0.004208497,-0.4371787,0.1936822,-0.1791116
0.8559528,-0.2536714,-0.08646823,-0.3025169,0.3076114,-0.1135055
0.7777673,-0.2639182,-0.07766323,-0.1479697,0.5484353,-0.1140006
0.676825,-0.2581116,-0.06765672,-0.2143408,0.562079,-0.1083722
0.6325518,-0.2783688,-0.01050272,-0.1369604,0.4574773,-0.1898258
0.5384042,-0.2488453,0.02597711,0.03653763,0.4423287,-0.1218414
0.5884979,-0.200298,0.02087696,0.01308,0.3323114,-0.1154134
0.6576938,-0.1278505,0.03239864,-0.02935295,0.2723792,-0.1104381
0.6716431,-0.03877175,0.0267655,-0.1802073,0.2107837,0.008828683
0.768396,-0.01278594,0.04774489,-0.3851617,0.2144861,0.03337214
0.756139,-0.01256523,0.08377289,-0.5435927,0.2493302,0.2076363
0.7752826,-0.05818366,0.1043009,-0.6373228,0.1357444,0.4302091
0.8868777,-0.1432594,0.1370581,-0.5657674,0.0905658,0.5331326
0.9285651,-0.1902858,0.148305,-0.4545997,0.03957227,0.5544858
0.9954348,-0.2055885,0.1400265,-0.2951388,0.01182142,0.3551818
1.011101,-0.1828462,0.1232415,-0.1611134,0.06445133,0.1375616
1.03866,-0.1316944,0.1034089,-0.1056532,0.05635659,0.0310509
1.100718,-0.0686862,0.1010019,0.05804533,0.1459385,-0.005806899
1.097762,-0.03264642,0.1107449,0.1578343,0.181875,-0.04415779
1.209151,-0.04505645,0.1292921,0.08266171,-0.02609088,-0.0325291
1.356288,-0.06013462,0.1369617,-0.05055722,-0.3432062,0.3026813
1.499654,-0.1323326,0.1333858,-0.1895712,-0.5547722,0.659744
1.707854,-0.244935,0.1188378,-0.1776649,-0.4733608,0.5874221
1.706415,-0.324268,0.08067643,-0.1298206,-0.3021424,0.2356255
1.403881,-0.4122176,0.05224328,-0.2309881,-0.1748521,0.03987247
0.997294,-0.4440656,0.05433671,-0.2699713,-0.1175496,0.173564
0.7712575,-0.4223322,0.05123849,-0.2499894,-0.2140601,0.4042522
0.8355256,-0.4514092,0.01884614,-0.3134995,-0.36356,0.4846354
0.958804,-0.4385486,-0.01230029,-0.285313,-0.6612779,0.209918
1.059472,-0.3871225,-0.05916989,-0.07751551,-0.8810891,-0.3290068
1.100848,-0.3749563,-0.1166155,0.1575215,-0.6610169,-0.6732824
0.9792193,-0.2959118,-0.1114499,0.1746393,-0.4375876,-0.658364
0.8400989,-0.1683442,-0.08207182,0.06530764,-0.4297368,-0.5616094
0.7320746,-0.06202821,-0.05534577,0.06342117,-0.4839245,-0.5080058
0.6243445,0.03366826,-0.03281592,-0.09653771,-0.6539085,-0.3070647
0.6122219,0.04641041,-0.05850028,-0.3705701,-0.7117769,-0.08238004
0.6383635,0.01038301,-0.09082318,-0.534773,-0.5526619,0.0147147
0.6814024,-0.02865443,-0.1204077,-0.74059,-0.3047994,0.1167329
0.7704532,-0.1364771,-0.1368927,-0.7896052,0.02477709,0.1436469
0.8157575,-0.2552837,-0.115881,-0.6628342,0.228127,0.1242018
0.8253599,-0.309149,-0.111774,-0.5684662,0.2135808,0.1466995
0.8621391,-0.3067688,-0.09825836,-0.3864029,0.1069218,0.1209263
0.9479291,-0.2677899,-0.0740298,-0.2138558,-0.02037655,0.1014554
1.022569,-0.196698,-0.08821034,-0.1753328,-0.07486456,0.09727781
1.025626,-0.06503368,-0.1062359,-0.3016142,-0.1217245,0.1407896
1.028031,0.06126808,-0.1242606,-0.6040717,-0.206739,0.3262805
1.042304,0.06568059,-0.1341164,-0.850346,-0.2115645,0.5295808
1.053002,0.01601624,-0.1265429,-0.8860904,-0.146685,0.5836579
1.098146,-0.01578444,-0.1184656,-0.7481076,-0.1171762,0.4548449
1.146152,-0.1258158,-0.08877834,-0.5393117,-0.2027511,0.2879656
1.164066,-0.2555215,-0.08526966,-0.2559797,-0.3370565,0.2498169
1.230865,-0.3555082,-0.1580257,0.07067098,-0.3052899,0.4069574
1.441395,-0.550162,-0.263776,0.2133489,0.09365972,0.620896
1.691533,-0.6617795,-0.3174737,0.1587019,0.8411569,0.5384263
1.750207,-0.6160337,-0.2396448,0.01572455,1.197415,0.1462322
1.53218,-0.6571541,-0.1155385,-0.03048099,0.5370734,-0.3272466
1.180254,-0.6689217,-0.06623628,0.2863406,-0.00623008,-0.5167767
0.9329996,-0.5376617,-0.06425373,0.7283833,0.5711253,-0.09799698
0.9170117,-0.4022624,-0.05339898,0.7682105,1.128971,0.2152099
1.04974,-0.2809279,0.02096063,0.407739,0.9788867,-0.1055772
1.116463,-0.2261857,0.1018443,0.1076477,0.5808952,-0.492153
1.068445,-0.2181142,0.08191686,0.07998414,0.007515816,-0.6986577
1.043595,-0.1867826,0.005354189,0.2571823,-0.1430015,-0.5985974
1.02278,-0.2077453,-0.0642696,0.4944413,0.2635078,-0.2590992
0.920682,-0.2492022,-0.06571712,0.6644802,0.3506442,-0.1711878
0.7914155,-0.2853236,-0.01072894,0.8716775,0.2598511,-0.1987932
0.6937935,-0.3205055,0.009024696,1.067524,0.2147975,-0.2652197
0.6187992,-0.2637017,0.01982666,1.173579,0.1002386,-0.4634506
0.5680216,-0.1585571,0.01743399,1.257758,0.2028753,-0.4974554
0.5640934,-0.0583224,0.00179573,1.213323,0.3596765,-0.3885614
0.5788884,0.03876482,0.03180187,1.089487,0.453335,-0.1920147
0.5864993,0.07468054,0.0657678,0.8707752,0.5035681,0.08223764
0.6069779,0.05980642,0.1009208,0.5409747,0.3557861,0.2672648
0.6455402,0.001649061,0.1476813,0.3266528,0.1612326,0.3541577
0.6975832,-0.0825553,0.1835603,0.1489144,0.05459761,0.3347607
0.7766209,-0.1408741,0.2149843,0.0733807,0.154482,0.2814808
0.8940503,-0.2002115,0.240921,0.2073077,0.3091652,0.1429178
0.9744152,-0.1984485,0.2815077,0.2893431,0.2525163,-0.1148672
1.017382,-0.0968519,0.2978425,0.3217705,0.1836242,-0.2333152
1.166477,-0.007133343,0.3297291,0.3017092,0.01366363,-0.1761563
1.299656,0.05299969,0.4023401,0.222746,-0.3684894,0.0466559
1.340863,0.05774556,0.3476718,0.2454196,-0.6283282,0.3694443
1.508849,0.01289651,0.2386971,0.1423212,-0.7092659,0.629527
1.598752,-0.04400899,0.1919632,-0.1539144,-0.7448031,0.8766365
1.483615,-0.2259249,0.1653446,-0.2934911,-0.7610882,0.9959641
1.460118,-0.4345494,0.1837908,-0.189519,-0.7181565,0.783577
1.307229,-0.5616134,0.1385041,-0.07767523,-0.5656073,0.3675346
0.9113608,-0.6299649,0.06486307,-0.101405,-0.4931085,0.05131951
0.6964039,-0.5716214,0.0627709,-0.02512328,-0.715501,-0.07845536
0.7472996,-0.5834553,-0.002251607,0.3054579,-0.9294734,-0.1139674
0.9710307,-0.6438632,-0.07243322,0.8654463,-0.740709,-0.1666778
1.238992,-0.5559519,-0.1124756,1.512188,-0.4179881,-0.3406312
1.284159,-0.4636702,-0.1633001,1.660467,-0.3238257,-0.5571688
1.112362,-0.2941184,-0.1046778,1.316124,-0.5003846,-0.6903496
0.9346233,-0.1160153,-0.02476696,1.031477,-0.8142345,-0.6559584
0.798976,-0.06135701,-0.0321441,0.7089994,-0.9313763,-0.5344844
0.6863501,0.04072068,-0.03910826,0.3486855,-0.9455564,-0.3920988
0.6590203,0.04949699,-0.04989756,0.2400804,-0.9244744,-0.1339435
0.6664526,-0.05573413,-0.08795639,0.2788887,-0.6294,0.01371407
0.6636021,-0.1662219,-0.1095231,0.3337832,-0.388008,-0.01252773
0.6738749,-0.3263925,-0.126145,0.4916205,-0.2956999,-0.100341
0.6430732,-0.3803832,-0.1455614,0.7534926,-0.2703599,-0.282784
0.6351994,-0.3428005,-0.1392936,0.9991276,-0.4687272,-0.3298716
0.7061598,-0.2797662,-0.1409116,1.153332,-0.5932696,-0.2530251
0.8216311,-0.1344666,-0.1683631,1.078879,-0.5666941,-0.194509
0.9344336,-0.01155577,-0.1777159,0.8377171,-0.4482781,-0.0857637
0.96193,0.06661026,-0.1587757,0.5669664,-0.2179757,0.06262875
0.960532,0.1144749,-0.1125907,0.1739111,-0.1586331,0.2511664
0.994753,0.0860721,-0.05437225,-0.08233162,-0.3066234,0.3640584
1.094219,0.03620688,-0.02828568,-0.1056957,-0.4561142,0.3285294
1.247393,-0.009935141,-0.03403002,-0.1258448,-0.3909492,0.1784883
1.296861,-0.07249495,-0.04627364,-0.001158008,-0.3332562,-0.08201959
1.263014,-0.09201623,-0.0690436,0.2557349,-0.4998156,-0.3103191
1.320177,-0.06857906,-0.09943412,0.5722442,-0.5064353,-0.294607
1.467329,-0.09607061,-0.1177843,0.8189004,-0.2723487,0.1058547
1.606506,-0.2023978,-0.1175832,0.6865536,0.2205013,0.7139408
1.672157,-0.3657261,-0.08617889,0.2877985,0.6197469,1.104607
1.549529,-0.5311982,-0.03624851,-0.05729368,0.2934162,0.9839047
1.287071,-0.7395594,-0.02638801,0.04594603,-0.1164633,0.3751892
1.167407,-0.9379927,-0.07825974,0.3070695,-0.07509471,-0.4260632
1.193944,-0.7864495,-0.1540923,0.1273445,0.116962,-0.9125689
1.19134,-0.4328575,-0.2076625,-0.09107255,0.4911817,-0.8365636
1.127699,-0.2703926,-0.2125431,-0.3880259,0.8244643,-0.7309393
0.9781057,-0.1933199,-0.1407607,-0.7136069,0.7714855,-0.6440264
0.7626657,-0.1787409,-0.02459553,-0.4674268,0.4878909,-0.2451062
0.6173474,-0.2475357,0.008041658,-0.1631574,0.1874258,-0.02518755
0.6503912,-0.3379693,-0.05421027,0.2153456,0.1650378,-0.01541369
0.7152685,-0.4660986,-0.108428,0.6866407,0.4725486,-0.0714458
0.7030849,-0.4673417,-0.1287944,0.5113567,0.6897634,-0.4019523
0.6662978,-0.3837326,-0.1013821,0.387187,0.6802084,-0.6724523
0.568595,-0.304317,-0.03280106,0.5235684,0.5217382,-0.7216186
0.5509411,-0.165082,0.01133406,0.3565344,0.3167345,-0.566957
0.650492,-0.05661157,0.01406751,0.2429263,0.2679755,-0.2841814
0.7277556,0.04514703,-0.005376423,-0.04171492,0.3397324,-0.08179629
0.8267621,0.08486908,-0.009801688,-0.5445359,0.4759058,0.1456245
0.8576476,0.007990635,0.03479187,-0.7373972,0.6015951,0.3442546
0.8313497,-0.07666787,0.1063802,-0.7506458,0.5640283,0.4765028
0.8819814,-0.1935266,0.1607189,-0.6345711,0.466131,0.5263369
0.9594038,-0.2444382,0.1678911,-0.439382,0.434498,0.4102477
1.070724,-0.2098124,0.1673428,-0.3379161,0.43743,0.2316836
1.158664,-0.1914782,0.1888891,-0.2838338,0.3709044,-0.08886184
1.185022,-0.1099954,0.1902266,-0.2591703,0.1768584,-0.3350919
1.24634,0.0002132835,0.1830975,-0.1804455,-0.08387391,-0.2754922
1.366372,0.004023663,0.1566378,-0.1765045,-0.3556453,0.004187457
1.52277,-0.1782939,0.0851375,-0.2850317,-0.6058381,0.6506842
1.599569,-0.4406495,0.03509133,-0.2569809,-0.7070516,1.101091
1.489906,-0.5323086,0.002876087,-0.1155354,-0.5513919,0.6087246
1.221741,-0.4745689,-0.03403419,0.0005182492,-0.2847138,-0.199817
0.9302319,-0.4079366,-0.03088732,-0.2052023,-0.116327,-0.4928174
0.8398426,-0.321504,-0.02478764,-0.6824936,-0.218754,-0.3290328
0.9746244,-0.2831845,-0.0513297,-0.9528387,-0.4658056,-0.04496514
1.094629,-0.3284654,-0.06869075,-1.011698,-0.4820988,0.05846126
1.111123,-0.3349093,-0.08323047,-0.7623965,-0.4237623,-0.1644886
1.073709,-0.3339398,-0.114142,-0.2425604,-0.388783,-0.490233
0.9622924,-0.3207807,-0.1290496,-0.01695784,-0.2689336,-0.6542293
0.8667745,-0.2115417,-0.1168911,-0.1150396,-0.309974,-0.6644335
0.7947812,-0.1332861,-0.1025345,-0.2585113,-0.3514952,-0.6160606
0.6541118,-0.05843867,-0.09890136,-0.4092496,-0.2679522,-0.4399561
0.5359698,0.05538184,-0.09143857,-0.6411473,-0.2410442,-0.1688402
0.5193052,0.007930236,-0.0898122,-0.8440518,-0.145661,0.04890889
0.6206188,-0.171085,-0.1151366,-0.8186297,-0.08000822,0.2370408
0.7078851,-0.311162,-0.1337691,-0.7095727,-0.08278843,0.3187819
0.7134891,-0.3468775,-0.1416548,-0.5384982,0.008412885,0.3173838
0.7777057,-0.2996413,-0.1651288,-0.3433669,0.1062369,0.3496618
0.8600444,-0.289397,-0.196677,-0.2687531,0.204136,0.3714095
0.9443263,-0.2878539,-0.2127301,-0.1981281,0.2487601,0.4473208
1.000344,-0.2082777,-0.189313,-0.2421176,0.1817467,0.4930786
1.040994,-0.1142309,-0.1525183,-0.4218752,0.1216945,0.4382806
1.125561,-0.02197328,-0.09816164,-0.6389346,0.0499455,0.4133199
1.104025,0.05142676,-0.03092256,-0.9404617,-0.0519854,0.4205411
1.134912,0.07010549,-0.02507335,-1.098478,-0.07617689,0.4258797
1.23097,0.06379451,-0.04470431,-1.076789,-0.02725882,0.4116805
1.256642,-0.02448598,-0.05276776,-0.9316045,0.003298172,0.4270505
1.407627,-0.2141705,-0.09372446,-0.5512703,0.07462782,0.4577021
1.556787,-0.4211645,-0.1795278,-0.2909939,0.3799799,0.4071189
1.657242,-0.5207345,-0.2656425,-0.4759997,1.090694,0.163705
1.687652,-0.4641647,-0.2389712,-0.8206193,1.639325,-0.3227097
1.436392,-0.4484969,-0.108873,-0.9710272,1.004705,-0.7201248
1.140487,-0.4889439,-0.006338231,-0.7587797,0.06396619,-0.7899158
1.030259,-0.4396174,-0.01516172,-0.3238747,0.2144617,-0.5702575
1.097449,-0.358058,-0.1289915,-0.2152804,0.6561701,-0.299335
1.123685,-0.2619709,-0.1791254,-0.5694298,0.7808888,-0.4327794
0.9837374,-0.2180625,-0.08940787,-0.9408649,0.7036574,-0.7909013
0.87838,-0.243109,-0.001466545,-1.044123,0.3045639,-0.9485366
0.773818,-0.17957,-0.01054282,-0.8649847,0.2334243,-0.8206643
0.7449587,-0.1320725,-0.06704727,-0.6501719,0.4710865,-0.4521059
0.7728741,-0.1945092,-0.0784013,-0.4976291,0.6350209,-0.2418476
0.6341999,-0.2452909,-0.06527835,-0.3549738,0.8163592,-0.1829998
0.5593815,-0.2693296,-0.04977924,-0.374795,0.6595328,-0.1254382
0.5546301,-0.2505565,-0.008095625,-0.3561657,0.4978213,-0.2268474
0.5243613,-0.1832903,0.02263634,-0.2582384,0.5116932,-0.1888533
0.6038559,-0.09667266,0.02590871,-0.3359004,0.4148138,-0.04908194
0.7041878,0.001395313,0.01568881,-0.4577626,0.4882544,0.1143519
0.8375287,0.01822707,0.04265486,-0.6812346,0.5154913,0.4352712
0.9682678,-0.03100976,0.08486611,-0.9278729,0.462941,0.5282936
1.012834,-0.06633731,0.09792811,-0.9208008,0.4442253,0.4944111
1.045474,-0.1130281,0.1297494,-0.8463173,0.2465716,0.5200114
1.034083,-0.1479387,0.1384318,-0.7096556,0.1252507,0.5014829
1.052369,-0.1505014,0.134046,-0.4299982,0.1218573,0.4985297
1.139671,-0.1278551,0.1449122,-0.2124298,0.1772654,0.3649974
1.216527,-0.07119434,0.1414507,-0.08959375,0.2453636,0.1438001
1.263957,-0.00776998,0.1770546,-0.02303681,0.09131106,-0.08552081
1.271738,0.03859992,0.1919449,-0.05221842,-0.2584786,-0.09274612
1.357544,0.01391936,0.1326803,-0.1398362,-0.6208074,0.3821788
1.481222,-0.1492941,0.0514609,-0.2619468,-0.6999107,0.9279784
1.485637,-0.3869138,0.001199032,-0.3737305,-0.7089084,1.083671
1.37811,-0.5046273,0.00887553,-0.3741554,-0.7888194,0.6341081
1.131349,-0.4752814,-0.01474308,-0.439185,-0.4148431,0.0147906
0.9116294,-0.463439,-0.03606511,-0.6302983,0.0011485,-0.2055901
0.9298095,-0.4279534,0.004078642,-0.6000267,-0.08369473,-0.1989732
0.9971932,-0.3178742,0.01121931,-0.4088296,-0.2833945,-0.09657329
1.006754,-0.2560287,-0.006005128,-0.2890448,-0.4733258,-0.07987164
1.061056,-0.2185496,-0.03543664,-0.2139037,-0.5800539,-0.2091208
1.014974,-0.1871211,-0.08173033,-0.2117878,-0.4919325,-0.2716723
0.8467506,-0.182913,-0.08736551,-0.1553449,-0.3623236,-0.2847326
0.7667487,-0.1384055,-0.07843831,-0.09766719,-0.2294453,-0.200858
0.6823696,-0.09401375,-0.07860562,-0.2371264,-0.2124221,-0.1601939
0.5941126,-0.08560514,-0.06938245,-0.4058053,-0.2841266,-0.1946674
0.6123665,-0.07942747,-0.07307773,-0.5532911,-0.283055,-0.149803
0.606726,-0.09514685,-0.09143206,-0.7001261,-0.3262439,-0.09714668
0.6594921,-0.1584298,-0.1165944,-0.7205365,-0.3367467,0.05718827
0.775598,-0.2440763,-0.1649234,-0.5892624,-0.1685712,0.2151542
0.7953465,-0.2672316,-0.1877222,-0.3869833,0.0008077018,0.2780348
0.8308,-0.2501303,-0.1640069,-0.2351427,0.05716961,0.3205517
0.9345848,-0.2753342,-0.1618254,-0.1227715,0.0596104,0.251652
1.016794,-0.2600445,-0.1596623,-0.08271205,0.1177985,0.2034245
1.0257,-0.1328454,-0.1253346,-0.2195021,0.1670797,0.2135055
1.046166,0.05008877,-0.08134902,-0.5044252,-0.01479706,0.2410441
1.105176,0.1554593,-0.04245353,-0.8879392,-0.2543409,0.3887712
1.135229,0.09420367,-0.0664583,-1.15968,-0.2676863,0.5833526
1.265255,0.01402179,-0.110458,-1.141743,-0.1578395,0.6780653
1.391923,-0.06952135,-0.1087281,-0.927084,-0.06364441,0.5219263
1.408497,-0.2724318,-0.1205838,-0.5234742,-0.0009111578,0.265423
1.469947,-0.4115699,-0.1500395,0.01422671,0.08176708,0.1503109
1.471603,-0.4444584,-0.1943704,0.2223884,0.419109,0.08959454
1.435026,-0.4569112,-0.227273,-0.2350765,1.19057,-0.01810568
1.389113,-0.402956,-0.1824249,-0.9494944,1.604751,-0.2835067
1.203418,-0.4274598,-0.105773,-1.158914,0.6636833,-0.6356055
1.095906,-0.5705653,-0.03088978,-0.5023646,-0.3439409,-0.8186034
1.116085,-0.6568924,-0.02944745,0.2177951,0.1268625,-0.7881353
1.112637,-0.4972585,-0.1419214,0.0003687352,0.8265626,-0.625163
1.106886,-0.1541301,-0.1909246,-0.4963406,0.99702,-0.52727
1.023994,-0.03737456,-0.09873489,-0.7683217,1.078499,-0.6140742
0.8419926,-0.08948124,0.03327384,-1.184204,0.4649872,-0.6607718
0.7155407,-0.07282809,0.07127208,-1.181477,-0.0917642,-0.4186978
0.7510299,-0.1030945,-0.0284426,-0.8845916,0.2706698,-0.06558695
0.7898542,-0.1785315,-0.1293086,-0.8030661,0.645978,0.07759361
0.7059951,-0.3032999,-0.1460357,-0.5640982,0.9851136,0.07939536
0.6528832,-0.391781,-0.07117209,-0.4510996,1.086271,1.440444e-05
0.5902058,-0.362225,0.04314002,-0.3781524,0.7151332,-0.1664443
0.5147597,-0.3214647,0.09577973,-0.1474636,0.4846814,-0.2172344
0.5622593,-0.2038204,0.09940893,-0.2181293,0.2168687,-0.1267403
0.6397787,-0.06148376,0.0619414,-0.3850198,0.1471871,0.05132961
0.7798632,0.01635347,0.02310733,-0.6503303,0.4193125,0.3318636
0.9376543,0.04368518,0.05339566,-0.8756963,0.4275847,0.5672064
0.9783438,-0.04569191,0.08500624,-0.8008315,0.290896,0.6086718
1.022065,-0.1476511,0.09155476,-0.7787255,0.1410706,0.5721095
1.049486,-0.1907638,0.1059274,-0.5702081,0.1335804,0.5946241
1.084356,-0.2015441,0.1120216,-0.2016823,0.3220919,0.5478123
1.192747,-0.1626953,0.1167015,-0.03680029,0.3436699,0.3430495
1.227765,-0.09302882,0.1341259,0.04307855,0.2143365,0.02004596
1.208151,0.0200608,0.1513216,0.04880441,-0.0527194,-0.1777446
1.228979,0.07469584,0.1475011,0.003193349,-0.3321281,0.08771642
1.34608,-0.01905589,0.1169969,-0.1891837,-0.4804657,0.6024293
1.521839,-0.1704768,0.07543357,-0.3625874,-0.578843,0.9599112
1.529517,-0.342928,0.03598571,-0.2272054,-0.4751562,0.8737722
1.315544,-0.489617,2.592895e-05,-0.121796,-0.2828087,0.2747333
1.063343,-0.5070304,-0.005422048,-0.1815135,-0.1149883,-0.1869757
0.9346718,-0.4493013,0.04096838,-0.2294468,-0.03109161,-0.1167827
0.9125069,-0.422734,0.07482773,-0.3009145,-0.2686076,-0.0166214
0.9696117,-0.3828084,0.04274385,-0.3802533,-0.5854627,-0.2178431
1.116207,-0.3105183,-0.01911422,-0.3050372,-0.792163,-0.4527946
1.156439,-0.2576147,-0.07261948,-0.1599283,-0.7776301,-0.5417361
1.027246,-0.2135057,-0.0937591,-0.0940013,-0.5069056,-0.5541604
0.886593,-0.1653746,-0.079866,-0.02489668,-0.4020226,-0.4020155
0.7710932,-0.103699,-0.06896312,-0.1111869,-0.4438171,-0.2184796
0.6744225,-0.07211566,-0.06036754,-0.284339,-0.4655412,-0.1482091
0.5912191,-0.09190301,-0.05316181,-0.3026135,-0.4814057,-0.07662784
1.241971,-0.07023077,0.1547449,1.115317,-0.02373511,-0.2474857
1.331238,-0.05631431,0.1435812,1.156503,-0.14658,-0.04333214
1.528589,-0.09648137,0.1295888,0.9195282,-0.4326936,0.421529
1.626239,-0.194367,0.1118922,0.7377065,-0.6528801,0.8362609
1.673166,-0.3429124,0.1060003,0.8486809,-0.6407854,0.5518397
1.610222,-0.4225078,0.08508918,0.9281499,-0.524255,-0.09730895
1.241563,-0.4400288,0.01754915,0.6867022,-0.3892902,-0.3254578
0.8431739,-0.4230686,-0.01709818,0.4331923,-0.1131467,-0.1228046
0.723641,-0.4184993,0.01807678,0.3756712,-0.08964507,0.2345149
0.8392886,-0.4522249,0.03964083,0.4258293,-0.545784,0.3124443
1.008266,-0.4625508,-0.002465734,0.6532052,-0.9199941,-0.06068009
1.116813,-0.4296446,-0.06900726,0.9598026,-0.9292071,-0.4997469
1.111037,-0.3399247,-0.1210977,1.105489,-0.5963069,-0.7573808
0.9533346,-0.2192891,-0.1236981,1.043716,-0.2377263,-0.6784022
0.8152171,-0.1024568,-0.07192644,0.8825698,-0.2468852,-0.5032529
0.713742,-0.02519052,-0.02763669,0.6292857,-0.4516304,-0.3923454
0.6001043,-0.02311196,-0.01664488,0.3190572,-0.6780001,-0.1448927
0.6214979,-0.05910203,-0.04837468,0.1819333,-0.7672724,-0.07085317
0.6444053,-0.1329625,-0.1128494,0.1620269,-0.637681,-0.04860609
0.672744,-0.2404043,-0.1519089,0.2444733,-0.4535411,0.09459963
0.757868,-0.3294593,-0.1737692,0.5102624,-0.224729,0.02613136
0.7576248,-0.3564853,-0.1794492,0.7332797,-0.1356691,-0.05631177
0.8082502,-0.311237,-0.1624081,0.9169642,-0.2111082,-0.1301751
0.8817151,-0.2389322,-0.1573276,1.016751,-0.1735,-0.2229698
0.9306235,-0.1159915,-0.1389529,0.9554468,-0.0942959,-0.1679971
1.005232,0.06032095,-0.1098343,0.8562578,-0.02981814,-0.1440081
1.039649,0.1871748,-0.07312137,0.531076,0.02532149,-0.1096881
1.134008,0.2194547,-0.01567061,0.05561658,-0.04832231,-0.03428166
1.235496,0.1617283,0.0041258,-0.265641,-0.1709575,0.01772082
1.311342,0.05223904,-0.005989812,-0.349219,-0.280243,0.1612493
1.429932,-0.132,-0.03705369,-0.0576063,-0.3642988,0.3434472
1.520371,-0.4101289,-0.1297561,0.4449623,-0.3244586,0.4179997
1.606803,-0.5144197,-0.2266739,0.7047109,-0.1659238,0.308448
1.647032,-0.3731542,-0.2530521,0.4627616,0.290707,0.07263907
1.613422,-0.3366578,-0.2149167,-0.1023034,0.8980275,-0.1895463
1.440094,-0.4549322,-0.1572377,-0.4521507,0.8068881,-0.3822677
1.054816,-0.5699438,-0.09996246,-0.1336183,0.1814663,-0.4003451
0.8411727,-0.6388917,-0.08321925,0.6215157,-0.04101233,-0.2900992
0.9818413,-0.5212786,-0.1420401,0.8962203,0.1970803,-0.1909391
1.098881,-0.3007094,-0.170462,0.4760631,0.6229917,-0.3296395
1.063044,-0.1846056,-0.1003578,-0.005789233,0.8161977,-0.7132474
0.9737641,-0.1053926,-0.01746286,-0.1970054,0.5643698,-0.9421137
0.8037335,-0.08078917,0.0009883415,-0.09637009,0.3291089,-0.7960026
0.7311094,-0.1305821,-0.051242,0.07781629,0.2912515,-0.4569051
0.7819094,-0.152082,-0.09632407,0.2870877,0.4987834,-0.1497182
0.7165715,-0.1958246,-0.07873236,0.4908884,0.7722358,0.1096837
0.6718784,-0.2644337,-0.02415516,0.5547279,0.694985,0.2010632
0.6656587,-0.3127714,0.03797955,0.738526,0.5187408,0.05945848
0.628784,-0.3021371,0.05093848,0.8678663,0.3995757,-0.04243061
0.6952667,-0.1556654,0.02386384,0.7119392,0.2787157,-0.1203305
0.7119733,-0.008436647,0.02718184,0.552953,0.3014063,-0.1044664
0.7116048,0.01152601,0.03427908,0.3806678,0.3534644,0.1481716
0.7586225,-0.02839951,0.04619985,0.2477592,0.3589425,0.3647302
0.7454039,-0.06828823,0.1078589,0.232862,0.2733554,0.5066574
0.7858211,-0.09747399,0.1542625,0.2198432,0.07593291,0.4884043
0.8031085,-0.131399,0.1439674,0.2899799,-0.033381,0.3212026
0.8378446,-0.1480013,0.1397853,0.4639583,-0.04460687,0.1963057
0.9823479,-0.1520321,0.1493841,0.7194334,0.02448801,-0.0137375
1.093443,-0.1397874,0.1383747,1.015357,0.2081892,-0.1413456
1.231763,-0.09410201,0.143354,1.159865,0.299223,-0.2019115
1.336477,-0.06189741,0.1742617,1.1133,0.1411921,-0.2104634
1.415229,-0.02770333,0.1790494,0.9930148,-0.2189871,0.2296785
1.605362,-0.04694302,0.1522768,0.8660236,-0.5161727,0.7067776
1.727187,-0.1223245,0.1229731,0.7879003,-0.5033442,0.6456207
1.659395,-0.1852017,0.1233219,0.6757131,-0.5547299,0.2964816
1.424556,-0.2975868,0.1264412,0.4407667,-0.8280783,0.145597
1.149636,-0.3465989,0.0812765,0.2887015,-0.7529931,0.248863
0.9799337,-0.3496068,0.01907759,0.2146901,-0.3882833,0.3781093
0.9224243,-0.4441242,-0.02601004,0.1015765,-0.1885387,0.4385278
0.9851179,-0.4552291,-0.005254949,0.1234956,-0.2483049,0.2192668
1.070804,-0.4041681,0.03860118,0.2754286,-0.5719885,-0.2474196
1.061644,-0.3772503,-0.000772075,0.4784212,-0.7318415,-0.6137337
0.9737663,-0.2641396,-0.04026785,0.5919508,-0.5435718,-0.7098743
0.87606,-0.1578414,-0.05665009,0.5166708,-0.4254038,-0.5381523
0.7915284,-0.127869,-0.05964332,0.4796149,-0.4994387,-0.340168
0.6909969,-0.08530583,-0.01432726,0.4085421,-0.6576031,-0.1781862
0.6227351,-0.05572464,-0.0325475,0.2761348,-0.7374285,-0.01765662
0.6237841,-0.1053841,-0.07359251,0.236769,-0.7123299,-0.0194506
0.6513555,-0.1750208,-0.09498317,0.1734643,-0.6018786,-0.08201065
0.6800283,-0.2099549,-0.1467785,0.1820192,-0.3958204,-0.09941205
0.7225495,-0.2405766,-0.1425799,0.2630738,-0.2655138,-0.1178249
0.7535319,-0.2418723,-0.1402797,0.3567155,-0.1985864,-0.06764751
0.7692196,-0.2227962,-0.1568858,0.5571118,-0.2108942,0.02983533
0.8369048,-0.2086684,-0.1372158,0.635796,-0.2263753,0.0614621
0.9087627,-0.1574014,-0.1512642,0.5636475,-0.1495473,0.05443522
0.9492973,-0.1069652,-0.148642,0.4443592,-0.1642261,0.07414202
0.9884597,-0.0645051,-0.1327863,0.2232837,-0.1512265,0.09959233
1.020632,-0.01065677,-0.1318473,0.0268782,-0.1047723,0.1327214
1.105483,0.001854262,-0.09691087,-0.1079989,-0.1145308,0.1563591
1.224268,-0.02132195,-0.07672866,-0.1641094,-0.1410402,0.1054347
1.336943,-0.07693045,-0.0703031,-0.08458487,-0.2200051,0.01621024
1.484815,-0.1985562,-0.08983108,0.111329,-0.1566467,-0.005916731
1.612078,-0.3549319,-0.1602912,0.4632,0.01814108,0.05255722
1.636676,-0.4369775,-0.2156369,0.6610111,0.3196957,0.1008331
1.557586,-0.4222726,-0.2103417,0.372328,0.7303879,0.08416101
1.430633,-0.453978,-0.1383255,0.1005989,0.6697656,0.01311582
1.285105,-0.5478109,-0.0825814,0.2648566,0.2219818,-0.137702
1.118041,-0.6036517,-0.09059384,0.5301749,-0.005364753,-0.2993235
1.014002,-0.618534,-0.1197601,0.7368886,0.172146,-0.2688735
1.030803,-0.5447382,-0.1313315,0.7432936,0.6224567,-0.2331239
1.021506,-0.3888996,-0.06600865,0.4733997,0.8689134,-0.5231965
0.8932469,-0.299139,0.0270643,0.4064006,0.6312156,-0.844794
0.7947754,-0.2658754,0.05506138,0.5990878,0.1365228,-0.8439582
0.7664885,-0.2072938,0.02803483,0.8648166,-0.1544094,-0.553288
0.7687233,-0.1693884,-0.02830297,1.129014,0.09847871,-0.2198797
0.8035638,-0.1657225,-0.09458797,1.121405,0.5059653,-0.144173
0.7566043,-0.1569177,-0.1120327,1.029695,0.6180012,-0.1572096
0.6778782,-0.1549254,-0.04905603,1.000632,0.6045337,-0.1375801
0.6364648,-0.1606322,-0.005994332,0.9052146,0.5139714,-0.2412697
0.5941879,-0.1156285,0.000715552,0.7824215,0.3300598,-0.2643638
0.650092,-0.02927158,0.04654348,0.5327225,0.2668621,-0.1720007
0.7342649,0.03138473,0.0635983,0.2675637,0.2976101,-0.07799709
0.7935636,0.05378023,0.05439312,0.08417338,0.2984095,0.09429726
0.8638751,0.03155187,0.08094451,-0.1025303,0.2797613,0.2649015
0.8680292,-0.02193334,0.09980901,-0.178224,0.2575525,0.4346534
0.9001651,-0.09758786,0.1173024,-0.166575,0.2456245,0.5873707
0.9650292,-0.1671535,0.1525352,-0.08021403,0.2052728,0.5671509
1.016577,-0.1622578,0.1611353,0.09632417,0.1219204,0.3737768
1.100594,-0.1215583,0.1427597,0.2284722,0.03850479,0.1117453
1.130652,-0.06316922,0.1477449,0.293662,-0.0003601,-0.003022927
1.162072,0.01498899,0.1692252,0.3424537,-0.04208725,0.06289487
1.270375,0.02595296,0.175383,0.3412854,-0.2474034,0.152902
1.434427,-0.04775473,0.1614478,0.1852534,-0.5480806,0.442185
1.623952,-0.2276611,0.1359177,0.04257062,-0.7054444,0.9523674
1.664635,-0.4763926,0.1332125,0.193357,-0.6669055,1.08237
1.488672,-0.5658131,0.1137007,0.4780765,-0.5842322,0.5438556
1.180527,-0.4510776,0.05574757,0.5355329,-0.502495,-0.003183567
0.884008,-0.3443076,0.03102271,0.1589186,-0.371139,0.02281034
0.7719124,-0.3135763,0.02056688,-0.4073609,-0.4901788,0.2534795
0.8350757,-0.3219552,-0.0004534271,-0.5412243,-0.8066244,0.246167
0.9786131,-0.3822677,-0.02511843,-0.1769272,-0.8596158,0.06686727
1.099586,-0.4120329,-0.05988438,0.3035031,-0.7717645,-0.2633028
1.062933,-0.3848156,-0.05759498,0.7701641,-0.5966079,-0.5893998
0.9200738,-0.3378709,-0.04056971,0.9660307,-0.3366899,-0.6443839
0.8089986,-0.2250623,-0.04359556,0.8822261,-0.3373574,-0.5957279
0.7156129,-0.1371435,-0.03110971,0.8129342,-0.5304929,-0.5868798
0.661169,-0.1202501,-0.03310664,0.6126368,-0.6984241,-0.5476115
0.6243718,-0.06121782,-0.06320064,0.4087139,-0.74414,-0.459354
0.5771551,-0.01966966,-0.08285988,0.2479117,-0.6913708,-0.3462815
0.6397389,-0.05593795,-0.107949,-0.04249837,-0.6894028,-0.2626607
0.6890198,-0.07699879,-0.1410173,-0.03572961,-0.6237972,-0.1560439
0.7007422,-0.1296004,-0.1553062,0.08271525,-0.4886422,-0.08027036
0.7623514,-0.2714931,-0.1652258,0.1282861,-0.4757617,-0.04422215
0.7454249,-0.3535346,-0.1797469,0.4548083,-0.5669426,0.03097858
0.860374,-0.356493,-0.1939574,0.6312621,-0.5746233,-0.08672811
1.115039,-0.3365971,-0.2292831,0.6023033,-0.3348592,-0.317657
1.189558,-0.2174574,-0.2557217,0.5843145,-0.02844863,-0.3234955
1.112749,-0.04634892,-0.2180203,0.3461639,0.01496304,-0.06980184
1.015061,0.06643342,-0.1559719,0.1215919,-0.09995249,0.3280434
1.038859,0.07994563,-0.1111822,0.05376118,-0.2181422,0.51632
1.100358,0.04453757,-0.09936739,0.1425232,-0.5467763,0.4274596
1.170351,-0.008517399,-0.1531714,0.3400208,-0.787176,0.3466996
1.375695,-0.1547075,-0.2270001,0.5294786,-0.4420856,0.2663324
1.506392,-0.3213813,-0.2709666,0.9552011,0.05616903,0.2513197
1.564572,-0.4739113,-0.2790908,1.23703,0.3690369,0.342663
1.581265,-0.584162,-0.2390543,0.9374844,0.7285823,0.3696687
1.449835,-0.5142477,-0.1506867,0.4441193,0.9277742,0.339385
1.315865,-0.4598329,-0.05071016,-0.01321179,0.6166672,0.1584336
1.153257,-0.5355945,-0.05333185,-0.1199587,0.1766364,-0.1528438
0.9494414,-0.5412521,-0.09439547,0.1539672,0.2135352,-0.2659854
0.9077008,-0.5085244,-0.0512035,0.1690247,0.462106,-0.2331909
1.002065,-0.4688634,-0.06110762,0.02979623,0.480731,-0.2295835
1.02005,-0.3630382,-0.08155952,0.0595329,0.3097413,-0.2000933
1.023133,-0.3266811,-0.05417657,0.1852933,0.002025533,-0.2163132
1.037802,-0.4014813,-0.1277941,0.6136211,-0.07510053,-0.2586296
0.8684683,-0.4911682,-0.2058946,1.177239,0.1291197,-0.2377581
0.7545426,-0.5542529,-0.217912,1.554489,0.2825461,-0.2861086
0.7641603,-0.5364619,-0.1861886,1.797041,0.492024,-0.4541221
0.6678706,-0.4738755,-0.1039875,1.878611,0.5178864,-0.6571439
0.6229137,-0.3833153,-0.0663897,1.903716,0.3207059,-0.7478539
0.6459845,-0.1694198,-0.0473613,1.893999,0.2994392,-0.6221216
0.6760856,0.04076368,-0.04496912,1.77166,0.3429906,-0.4260029
0.7246453,0.11828,-0.04893071,1.553971,0.4628949,-0.2040357
0.7333715,0.1330261,0.01441948,1.177273,0.5778903,0.02806671
0.701158,0.06726937,0.07430605,0.8554342,0.4580038,0.1282527
0.626279,-0.02967576,0.1441009,0.7086185,0.2842484,0.1871373
0.6187032,-0.0786894,0.1995526,0.618404,0.1329437,0.1939162
0.6730475,-0.1168776,0.1936334,0.5814664,0.07013351,0.09747965
0.7670608,-0.1038557,0.2016208,0.4968728,0.1138595,0.02752324
0.9351982,-0.05070581,0.2004281,0.3974425,0.1014037,-0.08318215
1.028909,-0.002312119,0.2070591,0.3978928,0.03620887,-0.1620573
1.102579,0.05239387,0.229793,0.4694029,-0.05902589,-0.1256113
1.279064,0.08382263,0.2273312,0.504153,-0.1667031,-0.0940425
1.458048,0.09100834,0.2176563,0.3268105,-0.2842554,0.1132596
1.547124,0.01748618,0.1830639,0.0260055,-0.5029752,0.5893141
1.616146,-0.2155856,0.175196,-0.0391895,-0.7088954,0.9073864
1.665668,-0.5003474,0.2145119,0.3662258,-0.6949942,0.5596393
1.52951,-0.5867284,0.2198396,0.874602,-0.6500078,-0.1100529
1.251202,-0.4743076,0.143769,0.8663836,-0.6568235,-0.290553
0.9336894,-0.412044,0.02675662,0.4885999,-0.5200895,-0.06601672
0.7835797,-0.3687784,-0.01705183,0.1266387,-0.474782,0.2682861
0.9407965,-0.3821745,-0.04922425,-0.1225347,-0.5319168,0.5116864
1.066899,-0.5437294,-0.1109157,-0.02709649,-0.464649,0.2481823
1.114687,-0.5835198,-0.09299607,0.367367,-0.4705675,-0.3029184
1.126503,-0.543787,-0.07930681,0.7976349,-0.4913835,-0.7329947
0.9557906,-0.4746767,-0.09388745,1.032521,-0.4882709,-0.8576452
0.804674,-0.2401807,-0.06206604,0.870797,-0.5986513,-0.6831551
0.7026064,-0.06508727,-0.05771344,0.6809828,-0.6715581,-0.5143366
0.6527842,0.03361004,-0.07339694,0.52464,-0.7114778,-0.257718
0.7146047,0.08717025,-0.08480137,0.1463516,-0.7235063,0.02387625
0.7074045,0.002008684,-0.1174951,-0.04345015,-0.6065158,0.01612001
0.721791,-0.09890646,-0.1306964,-0.06977171,-0.4087968,-0.01622564
0.7463863,-0.236052,-0.1342656,-0.05100096,-0.253639,-0.03260315
0.7142059,-0.3441448,-0.143053,0.2014781,-0.2508927,-0.1304182
0.7779903,-0.3159214,-0.1436358,0.4042141,-0.2508267,-0.09934353
0.833283,-0.2626955,-0.1448854,0.5535974,-0.1494564,-0.0668556
0.8781701,-0.1690036,-0.1360793,0.5974326,-0.07314659,-0.07552115
0.9516747,-0.06213554,-0.1208724,0.4619622,-0.04402599,-0.0005164691
0.973372,-0.0241323,-0.1020101,0.3611165,-0.0009134824,0.0356788
1.035291,0.03197455,-0.06982744,0.09389368,0.07961412,0.04509058
1.117511,0.1031791,-0.03197158,-0.1972851,0.0503912,0.03807856
1.198369,0.04837245,-0.001072562,-0.2602003,-0.1561805,-0.02076987
1.342879,-0.08388212,0.006329021,-0.1759858,-0.3713754,-0.03358626
1.492182,-0.186902,-0.02591243,0.120723,-0.4432947,0.0520336
1.60088,-0.3318589,-0.1264291,0.5300909,-0.2296515,0.2529373
1.708405,-0.4540719,-0.2593383,0.6972696,0.273377,0.3798128
1.709143,-0.4787616,-0.2779855,0.2327985,0.8194246,0.2180461
1.406979,-0.5442675,-0.1218078,-0.321142,0.8457044,-0.1253422
1.074425,-0.6368981,0.01427331,-0.1786537,0.2200267,-0.4075051
1.033325,-0.6178458,-0.05556239,0.2819106,-0.1061687,-0.36158
1.065634,-0.5087665,-0.1726605,0.5465638,0.3303291,-0.04438168
1.054412,-0.3877355,-0.1831327,0.2177497,0.9430226,0.06823845
1.066583,-0.2860074,-0.1291343,-0.380947,1.140929,-0.2739106
0.9537456,-0.2613304,5.229512e-06,-0.335877,0.7316163,-0.7313112
0.7510044,-0.2536285,0.05990181,-0.04103004,0.1536132,-0.7654896
0.7331521,-0.198321,-0.03804779,0.1513692,-0.05413935,-0.4707608
0.7855777,-0.1918316,-0.1013017,0.4082286,0.2580802,-0.2569859
0.6999884,-0.1834263,-0.1063686,0.4055966,0.6989064,-0.132471
0.6037165,-0.1611313,-0.07804556,0.3046283,0.7781377,-0.1734246
0.5187249,-0.1818766,-0.0002709591,0.240005,0.7106241,-0.2532003
0.4806923,-0.1592392,0.05504339,0.1634566,0.5387438,-0.1426045
0.5593145,-0.1268592,0.07893016,0.1980934,0.1892221,-0.1076139
0.6628784,-0.08310595,0.05774773,0.05626583,0.08061337,-0.07182765
0.8050887,-0.01884239,0.03854048,-0.2016811,0.199682,0.02297604
0.9079499,-0.01872379,0.05567712,-0.3790088,0.2773633,0.03462265
0.9091619,-0.04650029,0.07288679,-0.5433198,0.307868,0.1936911
0.927776,-0.1001314,0.1250289,-0.5551769,0.2956069,0.3324492
0.9410094,-0.1460882,0.1479836,-0.4499343,0.2102352,0.3404611
0.9459916,-0.1268945,0.130178,-0.2949536,0.1328715,0.3457599
0.9963535,-0.07911171,0.1332038,-0.1524892,0.1652182,0.2037149
1.04264,-0.02315193,0.1158725,-0.08320482,0.1786725,0.01102524
1.066574,0.004044714,0.1212823,-0.01011214,0.1420968,-0.1527518
1.123775,0.04422446,0.1555408,0.02835102,0.08643035,-0.1832422
1.235817,0.08269609,0.1742117,0.0879536,-0.1517116,0.03497437
1.366902,0.005421339,0.1766121,0.09121588,-0.5455179,0.3958594
1.563942,-0.1195982,0.1099655,-0.0196879,-0.7164556,0.7767963
1.785792,-0.2094034,0.0353414,-0.1257804,-0.3459802,0.7195771
1.786687,-0.2570473,0.04843505,-0.3839988,0.08461178,0.2919044
1.499811,-0.3081323,0.1067503,-0.6195898,-0.01645976,0.1270254
1.113672,-0.3898428,0.1533121,-0.5668665,-0.2483938,0.2577926
0.8214398,-0.3998498,0.1551463,-0.5315417,-0.3343626,0.4919154
0.692471,-0.4258166,0.1139781,-0.5940903,-0.5178102,0.526765
0.7683784,-0.5112567,0.04848495,-0.5194057,-0.7508895,0.224727
0.9974697,-0.4971923,-0.03747503,-0.2950709,-0.8742979,-0.289755
1.098673,-0.4520108,-0.1074326,0.05439699,-0.6637574,-0.8512155
1.030542,-0.3558205,-0.1307167,0.3329333,-0.3262983,-0.8883372
0.9219815,-0.1628715,-0.1301309,0.216439,-0.360518,-0.5438505
0.7447591,-0.02820989,-0.1129972,-0.03767505,-0.5146704,-0.3080949
0.6217627,0.05749787,-0.0727998,-0.2658082,-0.6466036,-0.02670367
0.5990802,0.07418274,-0.05953171,-0.6627595,-0.781573,0.05366374
0.5944201,0.01216481,-0.0981929,-0.9177114,-0.6505095,-0.02476958
0.6203752,-0.06018743,-0.1429117,-0.9385556,-0.4857159,0.07252968
0.6544229,-0.1841141,-0.164131,-0.8202847,-0.3574681,0.1296544
0.7251959,-0.30284,-0.1768526,-0.5121797,-0.1483442,0.2071883
0.8231397,-0.3711851,-0.1918981,-0.2933138,-0.04418462,0.2654325
0.9192694,-0.373181,-0.1865399,-0.1150606,0.03783783,0.1074131
0.9975403,-0.2988156,-0.1724876,-0.0008129672,0.05781848,-0.08605148
0.9986511,-0.2130557,-0.1652633,-0.09903828,-0.04345744,-0.1786247
0.9960114,-0.08082316,-0.1399249,-0.1379823,-0.07756638,-0.0742139
1.016917,0.0653582,-0.1134167,-0.240965,-0.04321318,0.1761786
1.051272,0.136472,-0.09900796,-0.4121242,-0.008301406,0.4096569
1.135226,0.1379068,-0.09492259,-0.4538887,-0.05783978,0.4774874
1.191621,0.08701381,-0.1134508,-0.5411062,-0.1375202,0.2995898
1.213038,0.00442266,-0.1440518,-0.6264082,-0.110077,0.221241
1.278855,-0.1254119,-0.1765682,-0.5994239,0.028821,0.3617966
1.383999,-0.2942311,-0.1878962,-0.3020251,0.1900943,0.4198991
1.4705,-0.4790783,-0.2099041,0.1496022,0.3206562,0.3538402
1.515432,-0.6138932,-0.2792542,0.06257038,0.9111407,0.1835979
1.528379,-0.641672,-0.2845577,-0.5178002,1.636136,-0.0787295
1.43567,-0.651938,-0.1546156,-0.813006,1.11989,-0.3687571
1.202807,-0.6424263,0.02829953,-0.4286503,0.189933,-0.6195502
1.022579,-0.5851259,0.09906159,0.1673808,0.3105723,-0.6208313
1.018779,-0.4521223,-0.003415488,0.1771867,0.7419549,-0.3960278
1.032605,-0.2184396,-0.05654698,-0.1153927,0.9448805,-0.3028585
0.9778646,-0.1169905,0.02466348,-0.2319897,0.6422571,-0.4646223
0.9360438,-0.1428609,0.04289738,-0.349842,-0.07474724,-0.586863
0.9230326,-0.1211068,-0.0385371,-0.2719084,-0.0481769,-0.445112
0.8914539,-0.1812557,-0.1196249,-0.03024014,0.232382,-0.1952837
0.8165348,-0.3050446,-0.1353328,0.2667906,0.3114268,-0.02314323
0.7437457,-0.3830548,-0.1017261,0.6879558,0.7077885,0.002687967
0.6806836,-0.4069949,-0.08598896,0.8553882,0.8340773,-0.1215511
0.5889825,-0.3123382,-0.04802724,0.9542489,0.7632124,-0.2043381
0.515267,-0.1496932,0.02187835,1.098898,0.6920741,-0.150266
0.501198,-0.02047185,0.05380442,1.029136,0.4512992,-0.0452762
0.5654361,0.03499165,0.06086001,0.8900992,0.4093835,0.09446366
0.6672514,0.03891286,0.08338512,0.5485074,0.31932,0.1400527
0.7056888,0.04795299,0.1233456,0.2171189,0.1310633,0.106448
0.7076293,0.04147321,0.1503541,0.1222063,-0.01476327,0.1805335
0.732179,0.02556741,0.1593902,0.05392801,-0.1242891,0.2282448
0.8077949,0.02391161,0.1707329,0.1577171,-0.03835545,0.1999947
1.004971,0.02507529,0.1767177,0.2314815,0.004285968,0.1325361
1.232602,0.04119933,0.1965573,0.2016871,0.08997483,-0.06583709
1.274912,0.05976255,0.234907,0.2666925,0.1831298,-0.2121773
1.240441,0.0872311,0.2755361,0.3091223,0.03907526,-0.1945672
1.353774,0.1147708,0.3007226,0.4530612,-0.1541508,-0.1294614
1.487659,0.07751829,0.2404948,0.5750321,-0.4804406,0.1149539
1.642443,0.01459834,0.127056,0.5256067,-0.6560486,0.6786366
1.800312,-0.02877876,0.1027873,0.3445441,-0.2127577,1.086275
1.577835,-0.1729579,0.2109032,-0.1197393,0.1475101,0.89744
1.160839,-0.4439013,0.3599025,-0.3731177,-0.4777121,0.6085571
0.910597,-0.6265542,0.3676374,0.05865893,-1.505758,0.5142317
0.7538352,-0.6517279,0.1357179,0.5420031,-1.775617,0.4239546
0.8545992,-0.6486751,-0.1295991,0.5068971,-1.204621,0.4663155
1.084452,-0.6205402,-0.1897389,0.4151101,-0.4564929,0.2973107
1.132487,-0.5616714,-0.1691911,0.5864077,-0.1904995,-0.3973767
1.129255,-0.4756152,-0.1584688,0.8075134,-0.273951,-1.086317
1.005206,-0.3028326,-0.0607448,1.205154,-0.3142228,-1.26302
0.8075843,-0.1150196,-0.04065949,1.413732,-0.4810082,-0.9447865
0.7295111,0.006246066,-0.0908346,1.096496,-0.5653126,-0.6314759
0.6552384,0.03656266,-0.04319178,0.7967968,-0.6341811,-0.3168285
0.6375891,-0.0173133,-0.07023769,0.4718495,-0.9558665,0.08110533
0.6983547,-0.08732448,-0.1357512,0.1813358,-1.076518,0.08892122
0.7587233,-0.1945739,-0.1585019,0.2790328,-0.9348527,0.05843396
0.8137533,-0.3070622,-0.2181814,0.360308,-0.6886614,0.1060608
0.7864179,-0.3579013,-0.2025645,0.4653489,-0.3853949,-0.06377454
0.7434746,-0.3967433,-0.1860562,0.7318959,-0.2344521,-0.1099484
0.7251403,-0.3972544,-0.2096178,0.8461377,-0.3041839,-0.1669536
0.7517174,-0.3345129,-0.2101555,0.9982832,-0.4065489,-0.2721113
0.8695692,-0.2480379,-0.2632808,1.24771,-0.2513438,-0.297904
0.937159,-0.1499056,-0.2584284,1.329977,-0.01177762,-0.3059109
0.9401249,0.004909872,-0.1760258,1.254545,0.1788817,-0.127022
0.9574268,0.2272724,-0.08837285,0.9936877,0.2310835,0.01729692
0.9793749,0.2750663,-0.01033103,0.5022777,0.04997906,0.1065565
1.01873,0.1432301,0.01359613,0.04369095,-0.04746783,0.1803948
1.091193,0.1103925,0.07150177,-0.06101166,-0.366279,0.2122108
1.186501,0.02252825,0.06977502,0.2476474,-0.6845951,0.4042846
1.362382,-0.2108969,-0.05206879,0.9515538,-0.3517386,0.3678145
1.626566,-0.3601233,-0.1160002,1.817035,0.01874955,0.1577739
1.68047,-0.3424664,-0.1535206,2.026732,0.306405,0.1362409
1.586011,-0.2241543,-0.1648128,0.9723562,0.6590494,0.2507552
1.600844,-0.2293734,-0.100609,-0.5473006,0.7242707,0.6783469
1.425846,-0.3220432,-0.01782138,-1.058381,0.4109365,0.9476802
1.192355,-0.4788119,0.03781115,-0.5347424,-0.1689518,0.5975065
1.150767,-0.7698459,-0.04126546,-0.05241483,-0.2345887,0.1988627
1.0801,-0.758758,-0.1695762,0.09511958,0.2424078,0.1188758
1.101199,-0.5676818,-0.2132101,-0.1136812,0.6381305,0.001502627
1.114722,-0.4956041,-0.2260762,-0.7069245,0.9725259,-0.3692179
0.9613491,-0.3178707,-0.1861382,-0.9605482,0.7466706,-0.5425286
0.8131378,-0.2925935,-0.1115223,-0.7100636,0.234281,-0.4458192
0.6565056,-0.3555051,-0.06511876,-0.4602001,0.177807,-0.3760724
0.6534753,-0.2934793,-0.08254238,-0.05402079,0.2476837,-0.2383184
0.7143003,-0.3695776,-0.141761,0.3958465,0.5283227,-0.201757
0.6285362,-0.4003008,-0.1233592,0.5397829,0.8281945,-0.354698
0.6061659,-0.3593093,-0.08294603,0.6610549,0.7866134,-0.4444636
0.5862418,-0.363883,-0.03559681,0.8045389,0.6729883,-0.4580012
0.5683679,-0.244597,0.04601647,0.7823098,0.4670645,-0.4554185
0.6717225,-0.09128286,0.03751308,0.5690078,0.4218448,-0.4533165
0.7816654,0.05627964,0.01938186,0.1465026,0.5237079,-0.3613421
0.8720161,0.1508103,0.0434789,-0.3100006,0.4795744,-0.122961
0.8799493,0.1028678,0.05717877,-0.6524401,0.443373,0.1636248
0.8706118,0.01188151,0.1168575,-0.8093296,0.3550974,0.3699605
0.9233373,-0.1291268,0.1580121,-0.6486069,0.3386636,0.372042
0.9485568,-0.2340163,0.167798,-0.3541674,0.364722,0.2546853
1.016186,-0.2428941,0.1905772,-0.1027591,0.2734278,0.07173495
1.09848,-0.2642865,0.1945197,0.2195766,0.2584736,-0.2060108
1.165039,-0.2211191,0.2129273,0.4176408,0.1724704,-0.394322
1.292408,-0.09741805,0.2221271,0.3833114,0.003684143,-0.3538311
1.412379,-0.02496406,0.1948286,0.2156907,-0.1566826,0.01926351
1.538819,-0.06141722,0.1812028,-0.1487642,-0.3814032,0.6252783
1.62614,-0.1785585,0.1770331,-0.3518931,-0.6159387,0.8042059
1.510519,-0.2998208,0.1245269,-0.3214505,-0.7835608,0.2929778
1.233494,-0.3790792,0.00770568,-0.509311,-0.5536304,-0.1815764
0.9581172,-0.3568845,-0.05843835,-0.8207763,-0.1680554,-0.1366308
0.8734052,-0.3298623,-0.02946572,-1.007413,-0.2062099,0.1018199
0.9794524,-0.4072228,-0.03566685,-0.9923053,-0.3056051,0.1993104
1.037378,-0.4277617,-0.07457277,-0.7294037,-0.2750349,0.02715259
1.031404,-0.3899572,-0.05922866,-0.2756856,-0.3230547,-0.3673594
1.012994,-0.3371162,-0.05409224,0.06710595,-0.2863451,-0.643438
0.908205,-0.2150259,-0.07170266,-0.008873235,-0.245726,-0.6175796
0.8271574,-0.1278813,-0.04670416,-0.1759563,-0.3024039,-0.4789084
0.7556019,-0.0374268,-0.03149727,-0.2780063,-0.3379374,-0.3409418
0.642395,0.04074077,-0.04112741,-0.5284078,-0.4041775,-0.1259667
0.6437612,0.00185938,-0.03692648,-0.7967402,-0.4240476,0.02819803
0.6632008,-0.04325059,-0.05175703,-1.048998,-0.3324142,0.02591273
0.6745541,-0.1272286,-0.0891336,-1.15703,-0.1980476,0.07356862
0.7589776,-0.2494887,-0.1232178,-1.003678,-0.01783485,0.120981
0.8010999,-0.260815,-0.13439,-0.8029926,0.1000633,0.1360583
0.8550387,-0.2193655,-0.1279235,-0.5736676,0.1297815,0.2231127
0.9094691,-0.1806261,-0.1270176,-0.4466968,0.129495,0.2238429
0.9129,-0.1160599,-0.1078956,-0.5122934,0.009627215,0.2019074
0.9649309,-0.03638452,-0.08996774,-0.6196423,-0.1415309,0.235846
1.025868,0.061292,-0.1183404,-0.9014922,-0.09052577,0.2643413
1.069579,0.1349901,-0.1554745,-1.315752,0.09215635,0.4023496
1.108672,0.1132395,-0.1561164,-1.636595,0.1830145,0.5276039
1.167561,0.01399739,-0.1332429,-1.750373,0.1628348,0.4985024
1.255632,-0.09588217,-0.1203587,-1.477267,0.1345529,0.3741644
1.320926,-0.1616061,-0.1265523,-1.053603,0.1981986,0.2323028
1.428484,-0.1661017,-0.147843,-0.8200561,0.3316007,0.2449361
1.513898,-0.1969887,-0.1700596,-0.7104056,0.4889682,0.4683848
1.469913,-0.3052612,-0.1845517,-0.7601245,0.7590866,0.7325083
1.405388,-0.4427938,-0.1788609,-1.026683,1.091619,0.7465496
1.289257,-0.6064371,-0.08946425,-1.345568,1.117568,0.4288697
1.118053,-0.769522,0.0108459,-1.336159,0.4405946,-0.03009461
1.11294,-0.792867,-0.05735964,-0.830148,-0.1302965,-0.3871793
1.177351,-0.561241,-0.183763,-0.4384759,0.6586104,-0.4013204
1.112407,-0.2746421,-0.1804336,-0.5900467,1.644784,-0.3043167
1.028519,-0.1955058,-0.09158858,-0.9199707,1.389667,-0.3872457
0.8647607,-0.1860137,0.05217313,-1.060445,0.7350367,-0.4010685
0.6888384,-0.1416548,0.1252431,-0.9654159,0.1097321,-0.3157923
0.7822347,-0.1639105,0.005865347,-0.7738337,-0.2859451,-0.2061924
0.8484263,-0.212886,-0.07696732,-0.6276973,0.2371148,-0.02523313
0.7222782,-0.2664232,-0.05318196,-0.5457653,0.762005,-0.01063471
0.6625316,-0.3590787,-0.07944698,-0.4675495,0.7153182,-0.09341739
0.6054892,-0.3869402,-0.07716915,-0.3185929,0.6523616,-0.1034261
0.5498864,-0.3098724,0.01215478,-0.08183083,0.4378572,-0.2180112
0.5427317,-0.2522101,0.0778219,0.07055598,0.2503836,-0.290028
0.5264593,-0.2032404,0.06703591,0.01618767,0.1448467,-0.1700194
0.622216,-0.1268913,0.04040068,-0.1130526,0.02858822,-0.02063574
0.7913852,-0.05129817,0.03840846,-0.3346929,0.2538767,0.1358886
0.9056702,0.01867799,0.03250116,-0.596176,0.3705486,0.2413329
0.9174693,-0.0345784,0.06373798,-0.7092502,0.2753296,0.2610996
0.893079,-0.1156112,0.1501022,-0.7293621,0.2164534,0.307553
0.9578479,-0.114698,0.1939215,-0.6371932,0.01012352,0.3585579
0.9634406,-0.146349,0.1754436,-0.4173888,-0.08477743,0.3787011
0.977819,-0.1393314,0.1665698,-0.1250515,-0.0849753,0.3547116
1.107123,-0.1301236,0.1642677,0.1466954,-0.03722376,0.226663
1.159831,-0.139157,0.1466113,0.2289138,0.07886254,0.0420539
1.251895,-0.08771208,0.1706959,0.2529141,-0.08074457,-0.1109957
1.359662,-0.07130704,0.2097013,0.2685443,-0.3929993,-0.09532517
1.396606,-0.04965678,0.1751452,0.1268833,-0.6530483,0.2747928
1.508021,-0.1175461,0.1142498,-0.08488021,-0.7024715,0.8047146
1.592645,-0.3172652,0.07116233,-0.180338,-0.526878,0.8335812
1.581689,-0.4228345,0.03282901,-0.1306555,-0.3081315,0.1114964
1.303257,-0.4399027,0.01295955,-0.2242738,0.05069175,-0.5558206
0.8430409,-0.372702,0.01101988,-0.5207278,0.1224219,-0.4492567
0.7504788,-0.2989996,0.04011587,-0.7058061,-0.2595819,-0.07948296
0.910288,-0.334093,0.05088225,-0.6945522,-0.5201672,-0.00331138
1.011243,-0.3410139,-0.005405879,-0.4833289,-0.6526039,-0.03371707
1.118561,-0.342251,-0.07577471,-0.1704186,-0.5809207,-0.2170325
1.116069,-0.370091,-0.1261862,0.01947106,-0.3260456,-0.5058883
0.969296,-0.3194632,-0.1110733,0.04190398,-0.2887153,-0.5217202
0.8239174,-0.2127409,-0.06725758,-0.06357343,-0.303566,-0.4879984
0.6824067,-0.1093701,-0.0568629,-0.2030987,-0.4055869,-0.5066879
0.6107385,-0.06191263,-0.04394588,-0.3582954,-0.5915415,-0.3374401
0.6317151,-0.05502353,-0.06707992,-0.6066141,-0.5676813,-0.1349228
0.6252759,-0.04536057,-0.1045673,-0.8714157,-0.4983486,0.01129631
0.691898,-0.09340656,-0.1253333,-0.9397649,-0.3798809,0.09368168
0.7947569,-0.2000455,-0.1632932,-0.7516239,-0.2407699,0.1649788
0.8274711,-0.2997445,-0.1701841,-0.4996077,-0.1230702,0.2568207
0.920704,-0.3596364,-0.1778724,-0.2560992,0.08702198,0.174626
0.9738105,-0.3342689,-0.184572,-0.08661319,0.2037673,0.01099105
0.9702701,-0.2340637,-0.1483566,-0.1293889,0.2504532,-0.1167012
0.9712268,-0.07847008,-0.1144563,-0.2682237,0.1694052,-0.09873543
0.9312274,0.096542,-0.06889405,-0.473843,-0.06207549,0.1848977
0.9671107,0.176353,-0.0562695,-0.7277546,-0.1730141,0.4683983
1.034264,0.181111,-0.0921295,-0.8982159,-0.1726933,0.64785
1.140417,0.1428357,-0.09456225,-1.073109,-0.06200159,0.6900534
1.27528,0.02371427,-0.07582227,-1.199751,-0.004588417,0.5594299
1.298041,-0.1334929,-0.05956602,-1.139544,-0.112914,0.4801686
1.354446,-0.3614833,-0.08100276,-0.7353874,-0.1926802,0.474581
1.472491,-0.6058249,-0.1749587,0.1796759,-0.1372616,0.4761064
1.60194,-0.655629,-0.3122362,0.7684751,0.3749184,0.3953225
1.687785,-0.4751123,-0.3724776,0.175801,1.186188,0.1775465
1.549153,-0.3320342,-0.2121496,-0.7261841,1.335763,-0.144286
1.290966,-0.4899213,-0.007613799,-0.9148193,0.5444924,-0.5991091
1.066303,-0.6192215,-0.005621144,-0.4173774,-0.05162954,-0.7476575
0.983604,-0.4228584,-0.112264,0.2380121,0.3991179,-0.3604758
1.083477,-0.2637432,-0.166929,0.2082736,1.046751,-0.1038897
1.093528,-0.2308085,-0.1008508,-0.3568677,1.180518,-0.3119568
0.9563038,-0.1601928,0.01811226,-0.6776498,0.895966,-0.6306858
0.8446624,-0.147713,0.04256248,-0.7748885,0.3185102,-0.7869643
0.7719867,-0.1533288,-0.02139645,-0.5871168,0.1606562,-0.6768598
0.7324926,-0.1413447,-0.08969457,-0.3098685,0.5308781,-0.3556754
0.6693651,-0.1974821,-0.0837536,-0.210561,0.7673502,-0.1499114
0.5704186,-0.2785596,-0.01862489,-0.07496252,0.8208341,-0.1087822
0.5280071,-0.3150284,0.02164432,-0.0151763,0.6221391,-0.08726825
0.5340525,-0.2982699,0.04485523,0.2229879,0.3753911,-0.1380739
0.5708961,-0.2569215,0.03814586,0.4471155,0.4497381,-0.1389024
0.6453536,-0.1723368,0.03023972,0.2975673,0.5231951,-0.09065816
0.7513143,-0.04453696,0.06070458,0.2070908,0.531966,-0.02071146
0.8331558,0.005030961,0.07682897,-0.09975491,0.5338807,0.1607058
0.8399062,-0.03386518,0.1133826,-0.4203624,0.4199949,0.2703016
0.8678725,-0.05821442,0.1606571,-0.429938,0.2665399,0.3531218
0.9162921,-0.08756378,0.1777966,-0.5231832,0.04716324,0.4596556
0.9327323,-0.1419335,0.1886172,-0.4073419,-0.1065721,0.4974848
0.9763237,-0.1524756,0.1733247,-0.2409998,-0.08516218,0.5285563
1.027078,-0.123422,0.172185,-0.1864471,0.05078076,0.4508739
1.082919,-0.07696764,0.193489,-0.05780218,0.2594386,0.2817063
1.138692,0.003697547,0.2125149,-0.09849869,0.262223,0.09142529
1.148549,0.06965478,0.2428703,-0.09950337,-0.0665959,-0.115468
1.19328,0.07538934,0.2246301,-0.08384309,-0.482063,-0.1197065
1.363119,-0.003155428,0.1387177,-0.1627589,-0.6474564,0.2823896
1.659014,-0.1751165,0.0439017,-0.1505525,-0.5001503,0.8674069
1.903696,-0.337445,0.02785623,-0.1593939,-0.3484607,0.8935675
1.795616,-0.3917266,0.06441517,-0.1559347,-0.2422492,0.2522476
1.264766,-0.3646107,0.06377351,-0.2013927,-0.1988984,-0.2640274
0.7054278,-0.3535984,0.09322299,-0.2791605,-0.3499506,-0.2237105
0.6872379,-0.3836794,0.09325929,-0.239591,-0.4405513,0.1750306
1.021466,-0.3972407,-0.007120401,-0.260168,-0.4580294,0.3897158
1.150352,-0.41757,-0.08278305,-0.3610974,-0.5652854,0.1901114
1.229944,-0.4202085,-0.1093818,-0.4336982,-0.6207005,-0.2419096
1.224385,-0.3414793,-0.09298364,-0.3454734,-0.6044072,-0.7534598
0.9804312,-0.2315486,-0.09112533,-0.11121,-0.4400318,-0.8764994
0.8891732,-0.1308879,-0.1212784,-0.02241601,-0.2190245,-0.5572885
0.8486559,-0.09373587,-0.07148952,-0.1538608,-0.2465151,-0.3369876
0.7232487,-0.05994028,-0.02375052,-0.3902904,-0.396883,-0.1860585
0.680928,-0.0008053751,-0.02592206,-0.5663397,-0.5083099,0.0003700851
0.6473193,-0.07374708,-0.04596425,-0.6227161,-0.5356862,0.04401425
0.6468455,-0.1371973,-0.1004243,-0.6244664,-0.4559904,0.03030701
0.6366987,-0.1271808,-0.1151482,-0.6020431,-0.389672,0.03465147
0.6923325,-0.1909788,-0.136115,-0.6139821,-0.3525914,0.02197175
0.8028949,-0.2116909,-0.1777253,-0.5499156,-0.3357074,0.02649404
0.4155965,-0.2619157,0.02349466,0.9897326,0.5024105,0.1142757
0.422839,-0.203403,0.02348509,0.9113401,0.3150161,0.1618899
0.4409006,-0.1062198,0.0240692,0.8531538,0.1616421,0.1087243
0.4461104,-0.03381819,0.02924591,0.5167315,0.009573412,0.1386829
0.4907112,-0.00981675,0.03587471,0.3043456,0.02664372,0.2226046
0.5915197,-0.07927927,0.04954961,0.2638636,0.03335271,0.3353338
0.7620649,-0.1509113,0.0773031,0.1657161,-0.03885,0.4796177
0.8328057,-0.2398017,0.0943418,0.2675918,0.07666959,0.3820051
0.8322587,-0.3164353,0.09348364,0.3744689,0.07979789,0.1614801
0.9393101,-0.3167097,0.150173,0.6487874,-0.03140267,-0.05120832
1.02561,-0.3527842,0.2066558,0.9702093,-0.1100158,-0.1494316
1.048798,-0.3178982,0.2056551,1.042057,-0.1732571,-0.04304198
1.207312,-0.2599039,0.2233414,1.165639,-0.1290339,-0.05845431
1.430386,-0.2585737,0.2436077,1.165454,-0.2524246,-0.07080372
1.560289,-0.1834462,0.2045739,0.968716,-0.4883484,0.1623219
1.616695,-0.2245074,0.1253189,0.7491611,-0.5189203,0.4160461
1.58789,-0.3590025,0.07635653,0.5931863,-0.2392853,0.4810356
1.512073,-0.4352746,0.08931438,0.535155,0.07627524,0.1445411
1.347041,-0.439239,0.0908735,0.2812507,-0.1341161,-0.2749034
1.048501,-0.2797294,0.008651452,-0.1596732,-0.3487943,-0.2652726
0.8486533,-0.2059869,-0.07313247,-0.5945499,-0.1970655,-0.05328177
0.8257275,-0.3060227,-0.05749945,-0.7675983,-0.4141855,0.1012473
0.8841399,-0.4592015,-0.01234029,-0.5107038,-0.911251,0.1143333
0.9906583,-0.6423296,-0.009626858,-0.1716409,-1.118232,-0.1291143
1.059413,-0.6501649,-0.07382411,0.1875808,-0.8101943,-0.4460246
1.015016,-0.5306717,-0.1610253,0.4845576,-0.2146778,-0.5733953
0.8566298,-0.4071396,-0.149796,0.539751,0.01649495,-0.5185696
0.6763866,-0.2762881,-0.06572429,0.6336473,-0.05341488,-0.4596477
0.5306908,-0.1806681,-0.000501513,0.574101,-0.2560836,-0.3709172
0.4369578,-0.07439322,0.02091959,0.2793905,-0.6585098,-0.2044398
0.4309193,-0.02775067,-0.02155199,0.08979658,-0.8569777,-0.07687534
0.4849302,-0.05601903,-0.08188421,-0.1177875,-0.8433152,0.08280121
0.6137428,-0.1253756,-0.1320611,-0.1592042,-0.7175111,0.2500048
0.7683091,-0.2772691,-0.1851566,0.05574763,-0.3813655,0.2859403
0.9016811,-0.3988211,-0.1953764,0.2298776,-0.07066239,0.2666919
1.031065,-0.4120967,-0.1811554,0.4035492,0.1656385,0.1669833
1.079554,-0.3194708,-0.1780921,0.3929516,0.3340839,-0.05651783
1.099349,-0.1547526,-0.1519547,0.1800553,0.4494333,-0.2467453
1.128585,-0.007205204,-0.1015736,-0.09019532,0.5216806,-0.2763858
1.138452,0.06781843,-0.0233438,-0.470448,0.2816731,-0.2074534
1.198051,0.06393577,0.0442,-0.6468829,-0.1439238,-0.1193832
1.283388,-0.03571245,0.0276607,-0.5729553,-0.3764535,0.09288675
1.369931,-0.2691939,-0.02083077,-0.3354764,-0.3308906,0.3486786
1.410144,-0.5014657,-0.05351625,0.1319073,-0.1776236,0.4320712
1.416031,-0.6413539,-0.1369681,0.4498172,-0.01688307,0.4171919
1.538975,-0.7333862,-0.2779475,0.3646206,0.4155239,0.3066026
1.6322,-0.7386514,-0.3347932,0.02312315,0.8193886,-0.01838341
1.449957,-0.7721193,-0.201485,-0.1603299,0.5183509,-0.4129721
1.108609,-0.8313147,-0.03772953,0.3081561,0.03784973,-0.5357123
0.8788368,-0.7253556,-0.05190418,1.074748,0.06877135,-0.3073735
0.8685013,-0.5507101,-0.1355869,1.20925,0.2007453,-0.1662268
0.995534,-0.4052677,-0.142876,0.7204941,0.3030887,-0.3055064
1.076202,-0.2966994,-0.100412,0.3012156,0.4619605,-0.4404467
1.018106,-0.2810666,-0.01650739,0.1692778,0.257926,-0.507336
0.9400089,-0.3128876,0.01565217,0.3291634,0.001203209,-0.46531
0.8658347,-0.35378,-0.02637249,0.6623143,0.1057276,-0.2670933
0.7483075,-0.3957844,-0.03345074,1.014203,0.2621873,-0.09893989
0.6645276,-0.4098951,-0.03722824,1.278112,0.4237131,-0.01025851
0.5735277,-0.3721035,-0.01591912,1.246365,0.4742899,-0.03479132
0.4615883,-0.2740381,0.03356697,1.231279,0.3198696,-0.1427778
0.4158076,-0.1394953,0.02638238,1.269772,0.1766737,-0.1734805
0.4025578,-0.01821008,0.02055172,1.031343,0.01935639,-0.1693083
0.4148465,0.007927273,0.03423201,0.7803315,-0.0226475,-0.05844374
0.4633444,-0.03340391,0.04744426,0.4717622,0.04713868,0.1507029
0.5484079,-0.06882607,0.07850917,0.09615166,-0.009032803,0.2347721
0.7011028,-0.1355931,0.09731303,-0.07517501,-0.008657628,0.2597602
0.8756974,-0.2109333,0.1122649,-0.1063528,0.08441673,0.2745565
1.06175,-0.2611108,0.152172,0.07119614,0.09984681,0.2625947
1.25309,-0.3148843,0.210054,0.3420381,0.02237139,0.231192
1.383556,-0.3318447,0.2593564,0.6280759,-0.1435073,0.1140008
1.465506,-0.278592,0.2771091,0.9242161,-0.2443275,-0.01363563
1.519156,-0.1885079,0.2697969,1.024301,-0.3333386,-0.1077923
1.559118,-0.1451015,0.2487528,1.11522,-0.5458892,-0.0594864
1.621928,-0.2281852,0.1818553,1.155199,-0.6322914,0.242646
1.696134,-0.3513945,0.07993674,1.003189,-0.5189004,0.473596
1.701333,-0.379804,0.06542486,0.6618799,-0.3859345,0.2762517
1.490354,-0.37325,0.09623626,0.00267872,-0.4011892,-0.1028768
1.067574,-0.4024993,0.03638921,-0.400007,-0.675259,-0.1777941
0.7706339,-0.4159869,-0.02032263,-0.2735222,-0.8718143,-0.06972461
0.8460751,-0.4640534,-0.04403771,-0.1521944,-0.556821,-0.04577571
0.9280963,-0.5911081,-0.09818141,-0.08575174,-0.2053589,-0.06859463
0.8334032,-0.6412549,-0.09546116,-0.0005126027,-0.4312194,-0.2110304
0.9748261,-0.5424789,-0.0684977,0.144598,-0.5937042,-0.4287504
1.138403,-0.4136155,-0.1021666,0.383598,-0.3815835,-0.550495
1.026632,-0.3037228,-0.1216491,0.3717707,-0.3432299,-0.4846177
0.9125784,-0.1879887,-0.121938,0.1794753,-0.2690685,-0.3547993
0.7285858,-0.1034282,-0.1139373,0.04440349,-0.2247374,-0.3013752
0.562785,-0.09589431,-0.0689162,-0.2121621,-0.4340877,-0.1849497
0.5098992,-0.1262807,-0.05212145,-0.4270439,-0.4984775,-0.1288774
0.41949,-0.1480352,-0.06213097,-0.4340955,-0.5588052,-0.126079
0.4805022,-0.2183015,-0.06737204,-0.3473308,-0.5853095,-0.01627498
0.544983,-0.315472,-0.1012087,-0.08595929,-0.4502242,0.04162299
0.5657923,-0.3674255,-0.1315625,0.2625019,-0.3658156,0.1744263
0.7091303,-0.4241036,-0.1546171,0.5262006,-0.1462104,0.2807219
0.7736607,-0.4271687,-0.1971845,0.5640808,0.09166159,0.1603251
0.8819017,-0.3258406,-0.2137059,0.3488528,0.2311787,0.06668058
1.004953,-0.1861199,-0.1638662,0.1115483,0.2946458,0.01586648
1.00318,-0.02228389,-0.08015554,-0.1479266,0.1324285,0.01208528
1.108572,0.07265233,-0.03428781,-0.3608337,0.009384443,0.04488363
1.267597,0.06948438,-0.008160672,-0.4773636,-0.09371344,0.01761785
1.410955,-0.01218963,0.02112159,-0.5700254,-0.2340582,0.03366295
1.531332,-0.1778585,0.01526756,-0.3837861,-0.1851755,0.06607978
1.586445,-0.2863016,0.003311251,-0.04366761,-0.1057284,0.1187839
1.621695,-0.3586131,-0.01883879,0.2427853,-0.05274969,0.2229895
1.539988,-0.4704993,-0.104879,0.469381,0.009567627,0.3410574
1.447012,-0.536623,-0.2449828,0.3088058,0.1585795,0.4117462
1.432749,-0.6225335,-0.3172338,-0.1452212,0.3326443,0.1515898
1.314691,-0.7979078,-0.2008713,-0.4087023,0.1376368,-0.3157905
1.141458,-0.9063139,-0.07746253,-0.04173244,0.003898398,-0.4727201
1.008342,-0.8025004,-0.1043774,0.8203899,0.4911453,-0.4244436
0.8638053,-0.6356434,-0.09578707,1.139512,0.8843242,-0.5109924
0.7907847,-0.5373425,-0.03376567,0.7729265,0.5466487,-0.6423458
0.8694471,-0.3557844,-0.02101305,0.5947227,-0.03135316,-0.7083346
0.9413625,-0.1466643,0.004158803,0.7791527,-0.2713952,-0.6208741
0.9447689,-0.1247034,-0.04993987,0.8776905,-0.09698286,-0.3496787
0.9462798,-0.1891106,-0.1601338,0.7643805,0.2303073,-0.1555727
0.8277885,-0.2006187,-0.1198354,0.7523324,0.3726657,-0.1174459
0.6176507,-0.2658719,-0.05863218,0.757396,0.4513666,-0.1044481
0.4796036,-0.3284,-0.03783447,0.7184929,0.4553687,-0.1023257
0.4111769,-0.2621327,0.03733773,0.8794754,0.1988553,-0.08305718
0.4035996,-0.2338452,0.03569862,0.9779773,0.02729816,-0.0199118
0.4555817,-0.1907414,0.0007524101,0.9368779,-0.03512385,0.06206524
0.5469199,-0.08943743,0.02632773,0.7935931,0.01002312,0.1020342
0.6216816,-0.1001366,0.04245931,0.456913,0.1748663,0.1271865
0.6425883,-0.08918808,0.08272994,0.2073667,0.07057237,0.1925444
0.6799516,-0.09157686,0.1184074,0.1198063,0.006254178,0.2010752
0.774186,-0.1660358,0.1583432,0.1460884,-0.01256615,0.1671855
0.8682312,-0.170713,0.2158403,0.2170854,-0.2359822,0.1178648
0.9336336,-0.1582957,0.1751412,0.2455495,-0.2744681,-0.01963939
1.09566,-0.07908629,0.1378017,0.2518955,-0.261507,-0.1668472
1.253174,-0.0004543705,0.1529167,0.1482356,-0.2602036,-0.2612294
1.217171,-0.04425805,0.1457563,0.111334,-0.2580086,-0.2644744
1.293448,-0.09353717,0.1930575,0.2777593,-0.4601262,-0.02482545
1.510914,-0.160798,0.2170449,0.6110207,-0.6500331,0.5302353
1.545448,-0.3118253,0.1234035,0.9486177,-0.7448804,1.170988
1.522579,-0.5760483,0.04309177,1.015402,-0.6254932,1.315036
1.53999,-0.7830844,0.06563433,1.141346,-0.2342629,0.5807924
1.482038,-0.7079844,0.09246792,1.277054,0.06578714,-0.3599486
1.221183,-0.5031351,0.04897255,0.8870651,-0.1638771,-0.4962933
0.8303565,-0.335326,0.03606877,0.3220289,-0.5944163,-0.1524221
0.7230369,-0.3060878,0.03297303,0.027413,-0.5645006,-0.08081304
0.8006819,-0.4791583,0.01786153,0.1026518,-0.8562959,-0.1043984
0.8690413,-0.6565997,0.04894236,0.6531558,-1.282642,-0.2950749
1.203791,-0.7520078,0.009689941,1.400961,-0.6308071,-0.8434952
1.434676,-0.7721683,-0.0491598,1.74392,-0.03696699,-1.1532
1.189146,-0.5694292,-0.08312934,1.488588,-0.1453158,-1.01513
0.9148853,-0.2661886,-0.1593979,1.266953,-0.1546199,-0.8577238
0.7416332,-0.1124629,-0.1066772,1.192157,-0.298005,-0.7511119
0.5394896,-0.03409869,0.004610091,0.8446161,-0.7234452,-0.5771227
0.4571308,0.01028878,0.0004438277,0.7007691,-1.067906,-0.5071879
0.4792024,-0.06835856,-0.02500893,0.7861631,-1.233428,-0.5109185
0.5324508,-0.1730286,-0.1021676,0.7348805,-1.231788,-0.4052012
0.6719864,-0.2205947,-0.2266866,0.8679137,-0.8713724,-0.3535216
0.8077116,-0.2668463,-0.2523763,1.05692,-0.3102651,-0.2639083
0.8481897,-0.2832132,-0.2072437,1.184196,-0.1454051,-0.04359552
0.8619942,-0.2591868,-0.1865257,1.257896,-0.1929273,0.04723276
0.8898228,-0.217244,-0.1563644,1.098403,-0.07055347,0.05340957
0.9158607,-0.1085195,-0.09255356,0.8594102,0.01412826,0.02826799
0.9163485,-0.00209834,-0.04723192,0.4851316,-0.1042906,0.03511797
0.9276262,0.04811666,-0.01233741,0.2231625,-0.2568191,0.1728174
1.022207,0.07292991,0.01475863,0.2684312,-0.2255376,0.2425484
1.161189,0.04693623,0.02948547,0.1847858,-0.2172181,0.1148555
1.248438,9.500544e-05,0.0439788,0.1157841,-0.3501725,-0.1552742
1.248438,-0.08455642,0.01286838,0.313295,-0.3992906,-0.2406976
1.283337,-0.2098483,-0.02934025,0.6945197,-0.2396352,0.01138632
1.451616,-0.2713925,-0.04803448,1.019478,0.1716069,0.2727929
1.693592,-0.3014959,-0.08456473,0.890822,0.6259892,0.3402794
1.878441,-0.3325149,-0.1102551,0.4495131,0.8421669,0.26273
1.718463,-0.3613282,-0.1034365,0.04864607,0.7246976,0.2299428
1.312101,-0.5399268,-0.09481402,-0.1228463,0.3704057,0.2153764
1.114812,-0.782723,-0.1166941,-0.04895746,0.08172137,0.163464
1.103097,-0.7675492,-0.1490774,0.1486106,0.1066011,0.2059061
1.131861,-0.6224121,-0.1591798,0.3575696,0.4342425,0.1968636
1.125714,-0.5630481,-0.1594222,0.05891195,0.6179971,0.1247529
1.010002,-0.462743,-0.1227578,-0.5076367,0.3873754,0.01211589
0.8542707,-0.4270029,-0.06798736,-0.3922527,-0.02102831,-0.1677693
0.6883481,-0.4760733,-0.05588781,0.1381749,-0.3996337,-0.1477839
0.703597,-0.4323129,-0.08902357,0.7401473,-0.4145734,-0.06223226
0.7824618,-0.4452356,-0.1423199,1.244813,-0.01852478,-0.08437
0.6849026,-0.458226,-0.1511371,1.246867,0.3721757,-0.06249202
0.652266,-0.3832499,-0.09740445,1.276321,0.5132018,-0.09946931
0.5744714,-0.3420172,-0.02374585,1.401616,0.346104,-0.1887079
0.4616566,-0.2204293,0.0171705,1.320212,0.149479,-0.1971255
0.5344475,-0.08985886,0.01254667,1.246521,0.1166174,-0.1290086
0.5606443,-0.02508484,0.02507875,0.9159401,0.1541159,0.04793419
0.617763,0.03849245,0.05887222,0.4953329,0.2361644,0.2655699
0.7322751,0.00370088,0.1015486,0.2064039,0.1245481,0.4059092
0.7891645,-0.07213705,0.1429365,-0.1058243,-0.1317559,0.4331379
0.9457385,-0.1961034,0.1428093,-0.1544727,-0.2156051,0.3778929
1.087777,-0.3343083,0.1268217,-0.03009333,-0.09685464,0.2720092
1.165144,-0.3252213,0.1179579,0.1372756,0.1508431,0.07093293
1.218045,-0.2735071,0.1483907,0.3520872,0.2188419,-0.09126458
1.206566,-0.2197122,0.2186335,0.4432735,0.07139639,-0.07866461
1.271815,-0.1779325,0.2456309,0.5098383,-0.082387,-0.04291841
1.410518,-0.2013719,0.216189,0.533721,-0.2764984,0.03109514
1.519058,-0.2483686,0.1471846,0.4299245,-0.3062663,0.2614043
1.529695,-0.3784246,0.08526524,0.199549,-0.1968555,0.4449502
1.410797,-0.5416459,0.09128262,-0.03426711,-0.226035,0.3727827
1.226585,-0.5988779,0.07921811,-0.1058777,-0.3891952,0.1075743
1.024608,-0.5166197,-0.02743909,-0.1254019,-0.5777016,-0.1593872
0.9313066,-0.3856042,-0.1380238,-0.2074963,-0.5102816,-0.229017
0.9612285,-0.3628434,-0.1671214,-0.4527571,-0.2723974,-0.1302451
0.9805226,-0.3946412,-0.1391878,-0.6526843,-0.2042862,-0.1076216
1.007277,-0.4202985,-0.09761158,-0.4874244,-0.3093428,-0.1396307
1.028552,-0.4739423,-0.06335065,-0.1370345,-0.4885953,-0.205819
0.9785295,-0.4738169,-0.05420202,0.1563578,-0.4833939,-0.4059198
0.8898511,-0.3919374,-0.07420485,0.1625095,-0.3539141,-0.4735152
0.7910659,-0.2674393,-0.08347477,-0.05116386,-0.3138007,-0.4157144
0.6855118,-0.1540611,-0.06333272,-0.190073,-0.2319031,-0.383143
0.5785733,-0.08838662,-0.06054467,-0.4077343,-0.2495269,-0.1796313
0.4923378,-0.05224001,-0.06919573,-0.6073617,-0.3588014,0.01870514
0.4625369,-0.08076481,-0.07824335,-0.6241393,-0.4273268,0.1568607
0.4941645,-0.1704986,-0.1043314,-0.6764289,-0.5486521,0.3626139
0.5721475,-0.3029359,-0.123795,-0.5876952,-0.5229781,0.4166505
0.7067495,-0.4370941,-0.1473881,-0.3344118,-0.3753658,0.3680194
0.8608441,-0.4586636,-0.1816646,-0.1650325,-0.1885668,0.2556597
0.963973,-0.4079018,-0.2052204,-0.05477082,0.09458374,0.03089904
1.052821,-0.3292287,-0.2004001,-0.1398713,0.2146401,-0.1204065
1.12112,-0.174355,-0.1677385,-0.3490611,0.2263283,-0.1351025
1.134357,0.004104193,-0.1171424,-0.5299342,0.2003285,0.01547322
1.181178,0.1343117,-0.03454927,-0.6981708,0.004303349,0.2473223
1.261489,0.1129659,0.001580354,-0.6724242,-0.1774183,0.3519626
1.362981,-0.06348665,-0.03008456,-0.610301,-0.2324932,0.3350925
1.505465,-0.2191586,-0.05029765,-0.527316,-0.1851703,0.3798366
1.598913,-0.3597553,-0.1500818,-0.2767297,-0.03377864,0.5668222
1.69689,-0.5642176,-0.3728321,-0.2429311,0.4266371,0.6362209
1.766054,-0.7074916,-0.496282,-0.5247949,1.139428,0.2658452
1.538402,-0.7189073,-0.3093137,-0.9341975,1.252413,-0.3764881
1.132359,-0.7524531,-0.008529249,-0.9977303,0.5787656,-0.6159486
0.89275,-0.7879775,0.03692141,-0.1637433,0.1076374,-0.3203917
0.8769324,-0.6014322,-0.09926369,0.6122087,0.3542212,-0.1063383
0.9331649,-0.4165145,-0.1597351,0.2095291,0.7105333,-0.1131141
0.903306,-0.4723711,-0.0783544,-0.3250312,0.6908616,-0.2697921
0.849389,-0.4682089,0.03662125,-0.1183638,0.4545704,-0.585077
0.8230023,-0.3183956,0.01401424,0.05875953,0.05212532,-0.6356941
0.7762414,-0.207366,-0.08382032,0.2681285,-0.0571015,-0.340594
0.7851806,-0.1782119,-0.1585868,0.513478,0.3899342,-0.02546187
0.7532954,-0.2536178,-0.1619948,0.2733972,0.6940861,0.1299604
0.6250547,-0.3555818,-0.0721164,0.2625329,0.721996,0.03721183
0.5427725,-0.3675368,-0.02253128,0.4059288,0.5254031,-0.0705655
0.4959851,-0.2902306,0.01631226,0.4196711,0.1792692,-0.07332294
0.5183253,-0.1724778,0.03803421,0.6576593,0.1362716,-0.094383
0.5976814,-0.07546318,0.007203114,0.4466785,0.1802181,-0.01889038
0.6674054,-0.03247684,0.05638852,-0.00694448,0.179523,0.1017691
0.7597366,-0.02921038,0.0904368,-0.233136,0.1868479,0.2001512
0.805181,-0.06626073,0.09833092,-0.4788141,0.1228239,0.3441819
0.8527035,-0.1488198,0.1400585,-0.4236744,0.1098144,0.4023311
0.9476553,-0.2440933,0.14312,-0.2777437,0.05094113,0.3858941
1.012364,-0.3291328,0.1633759,-0.1611451,0.00642668,0.2734708
1.097563,-0.3513301,0.1583927,0.08510125,-0.04807881,0.0303578
1.176115,-0.2633912,0.1413252,0.2369006,-0.1314221,-0.1301154
1.230029,-0.1495558,0.1612824,0.3745552,-0.08587847,-0.154606
1.31237,-0.1176687,0.1505084,0.317076,-0.2074976,0.006665552
1.40251,-0.1873483,0.1546313,0.1586698,-0.4704312,0.400203
1.496652,-0.3647265,0.116319,0.2068672,-0.6623579,0.8914813
1.53878,-0.62252,0.0449469,0.2207016,-0.6667857,1.136639
1.492153,-0.7339672,0.05263999,0.2802947,-0.2627693,0.6817951
1.292022,-0.5823842,0.05994611,0.3072823,0.1012312,-0.09590922
0.921666,-0.4106902,0.0420922,0.02024241,0.008799869,-0.4569191
0.6938998,-0.3089517,0.03009846,-0.3751504,-0.1755264,-0.4554148
0.7224151,-0.2745613,0.0273875,-0.5629772,-0.3581327,-0.3676154
0.8263392,-0.4021198,0.03378849,-0.2788144,-0.7924349,-0.3010332
1.076294,-0.5381645,0.02862293,0.2860496,-0.9243327,-0.2925658
1.334765,-0.5754961,0.01949693,0.7434699,-0.5231616,-0.4335479
1.231152,-0.5137063,-0.03066075,0.8758849,-0.3204774,-0.760472
1.016827,-0.3591037,-0.1025213,0.6382031,-0.2015809,-0.8655382
0.935029,-0.2622863,-0.1073816,0.5095983,-0.07317202,-0.7288525
0.7368705,-0.1608568,-0.07215729,0.4615913,-0.1654108,-0.6797744
