accx,accy,accz,gyrox,gyroy,gyroz
0.5265761,-0.2921722,0.1838284,0.4401229,1.011162,-0.03495942
0.5095828,-0.2961561,0.2176313,0.5637339,0.8432287,-0.02247557
0.5432563,-0.2583508,0.2351939,0.6098862,0.5366545,-0.01953045
0.5906197,-0.2158522,0.2692197,0.5719132,0.2899512,0.02207835
0.6526129,-0.1903959,0.298723,0.4610075,0.1988934,0.08828705
0.7207814,-0.2017626,0.3019332,0.3008991,0.1350155,0.1357767
0.8327924,-0.2147011,0.3508058,0.1585819,0.1056326,0.1760467
0.9393876,-0.1985949,0.3930367,0.1048325,0.05778153,0.162791
0.9267663,-0.2049977,0.3777323,0.09377213,-0.02681889,0.1403978
0.9506607,-0.1931739,0.4040041,0.1420712,-0.1303322,0.09761474
1.054154,-0.1866936,0.4589519,0.2713789,-0.2005281,-0.004495325
1.077872,-0.2365207,0.4992126,0.2968184,-0.233291,-0.03919905
1.122843,-0.3123006,0.527112,0.1790375,-0.3841503,0.06516315
1.219833,-0.4422325,0.4867093,0.137124,-0.5623149,0.2030478
1.294334,-0.5631853,0.4227964,0.3224886,-0.5450864,0.2233755
1.330691,-0.5624076,0.3912168,0.5142187,-0.4895032,0.1434894
1.157062,-0.5028608,0.3449875,0.4017232,-0.5889032,0.05741909
0.8942814,-0.4809208,0.2886825,0.2595192,-0.7236299,-0.01632527
0.8303482,-0.4634221,0.2393633,0.2925863,-0.8695461,-0.03064394
0.8893291,-0.4577102,0.1949934,0.2587911,-0.9700839,-0.008428259
0.9679209,-0.4874173,0.164799,0.2575685,-0.9240723,-0.004614414
1.045904,-0.474926,0.1492312,0.3550175,-0.9010308,0.02449307
1.058993,-0.4614421,0.1404518,0.4482518,-0.8753277,0.06668561
0.987635,-0.4462589,0.1078429,0.5746613,-0.8294498,0.06946966
0.9086968,-0.3662233,0.07394609,0.6034055,-0.836663,0.01405144
0.8371731,-0.3184997,0.07267638,0.5852367,-0.7735764,-0.07996768
0.732574,-0.2842915,0.07415952,0.6066788,-0.757536,-0.1172089
0.6643209,-0.2276955,0.06947872,0.5468376,-0.76948,-0.09436825
0.6087379,-0.1835258,0.04847327,0.4501006,-0.7112935,-0.09350626
0.5727347,-0.1337659,0.01566418,0.2780813,-0.7094511,-0.07270795
0.6192457,-0.1367478,0.01187437,0.1020069,-0.6511894,-0.01343443
0.672995,-0.1680928,0.02922016,0.06272967,-0.5585364,0.002496634
0.7572516,-0.1869518,0.0378584,0.01547169,-0.4829512,-0.01181996
0.8637891,-0.225021,0.0329182,-0.007909671,-0.3725684,0.0001725136
0.9447652,-0.2420631,0.03141598,0.01869625,-0.3192663,0.019701
1.023651,-0.2375708,0.03548225,-0.02274379,-0.1859085,0.02505472
1.054973,-0.207023,0.03655092,-0.1042986,-0.05348709,0.03782997
1.085182,-0.1631519,0.0527854,-0.227576,-0.09802816,0.0687766
1.14246,-0.1670373,0.07599326,-0.3191844,-0.1091124,0.08996551
1.19404,-0.1786521,0.08144354,-0.3183625,-0.1020159,0.08724274
1.279741,-0.183026,0.07403608,-0.3212863,-0.1211413,0.09351443
1.37692,-0.2425743,0.0526721,-0.3135704,-0.05399896,0.1209498
1.474667,-0.3557163,0.01326106,-0.2804318,0.067904,0.116616
1.507919,-0.4371454,0.003096131,-0.2963382,0.2108362,0.03948922
1.411655,-0.4418239,0.06602054,-0.404457,0.2561032,-0.08187845
1.361645,-0.4738117,0.1138993,-0.5164393,0.1868137,-0.1344632
1.406968,-0.5945478,0.05996774,-0.4205877,0.2143178,-0.04586654
1.38142,-0.6696312,0.009803564,-0.161557,0.4184518,0.04789514
1.243214,-0.6488283,0.03795414,0.04803091,0.7225818,0.03385895
1.101004,-0.6400203,0.05614249,0.1274776,0.9641582,-0.03666718
1.073948,-0.5869419,0.0888401,0.03275627,1.04539,-0.1152314
1.021278,-0.4321426,0.1823524,-0.1088507,0.9851809,-0.1340668
0.8750583,-0.3442405,0.2113566,-0.2141783,0.828316,-0.1225017
0.8639102,-0.3419193,0.1877266,-0.2968528,0.7655767,-0.1842933
0.883374,-0.3249534,0.1838294,-0.2546516,0.8520172,-0.2234333
0.8144553,-0.3261219,0.1314496,-0.237913,0.9502873,-0.1807064
0.7664508,-0.322234,0.09808663,-0.2339961,1.021957,-0.1435734
0.6679715,-0.3113829,0.141281,-0.06298548,1.034905,-0.1110728
0.6128801,-0.3273179,0.1707732,0.05777837,1.052787,-0.08206014
0.6297836,-0.3167675,0.1924342,0.1286174,1.065883,-0.0852637
0.581975,-0.2989062,0.2283181,0.2326192,0.9305571,-0.09273438
0.5821359,-0.266023,0.2527997,0.2439034,0.6865569,-0.09103955
0.6112496,-0.2059402,0.2576283,0.1847946,0.4140224,-0.08785994
0.641206,-0.1932397,0.253931,0.0727482,0.2854721,-0.05237038
0.7358485,-0.2024361,0.2684923,-0.02002525,0.3092403,0.01923964
0.8012323,-0.2157815,0.290026,-0.05305171,0.2622045,0.06132412
0.8413101,-0.237336,0.3069557,-0.06353537,0.2407444,0.07637251
0.8595058,-0.2316308,0.3256324,-0.03170794,0.2178055,0.09621801
0.8529014,-0.2271021,0.369188,0.03986711,0.06675751,0.07447977
0.9014842,-0.224726,0.4486381,0.1745002,-0.03702343,0.001989778
0.991099,-0.2192784,0.5131583,0.2549449,-0.1031919,-0.0889023
1.114988,-0.2587202,0.5627209,0.2341795,-0.2098446,-0.1183859
1.288366,-0.3718124,0.5752138,0.2174647,-0.3219137,0.04633495
1.45962,-0.493493,0.4782739,0.2047677,-0.4156541,0.3405566
1.494989,-0.5024806,0.3796775,0.2865954,-0.4371352,0.4647098
1.32998,-0.4522021,0.3786712,0.3750186,-0.4248039,0.2767247
1.07471,-0.4239225,0.3653819,0.2561657,-0.4313677,0.07188801
0.8460515,-0.353414,0.3177628,0.07573937,-0.5026288,0.09655076
0.778702,-0.3221217,0.3059596,0.01288603,-0.6486251,0.1217745
0.8442904,-0.3949508,0.2665034,0.04363172,-0.7784903,0.06171877
0.8486122,-0.452979,0.1921094,0.09756202,-0.8564177,0.04803719
0.8837502,-0.5022031,0.16333,0.1819841,-0.8964527,-0.01041566
1.00534,-0.5236959,0.1585429,0.3246986,-0.9173891,-0.05815767
1.01704,-0.4636754,0.1465758,0.4063553,-0.8943827,-0.03210385
0.9571318,-0.4070361,0.1214804,0.3802908,-0.8369859,-0.06737149
0.9176855,-0.3426403,0.09732925,0.3532753,-0.7966812,-0.117195
0.8396153,-0.2845598,0.09309426,0.3270643,-0.760834,-0.1526026
0.7709955,-0.2758132,0.07674198,0.2940748,-0.7457998,-0.1767008
0.7376609,-0.2467608,0.05967315,0.2616584,-0.700411,-0.1612552
0.6963842,-0.2102237,0.04302133,0.1472757,-0.5936816,-0.1880935
0.673531,-0.1719372,0.02058615,-0.02185643,-0.4888171,-0.2007399
0.6685413,-0.1476904,0.02992462,-0.1665396,-0.4240738,-0.1621368
0.6746859,-0.1756251,0.03826155,-0.2427465,-0.4303531,-0.1488365
0.7140108,-0.2042858,0.03410463,-0.2116296,-0.4024982,-0.1431912
0.7973329,-0.2434523,0.03826189,-0.1840303,-0.3331296,-0.137247
0.9191144,-0.2671629,0.02716065,-0.1894126,-0.2413684,-0.09735534
1.003944,-0.2386775,0.01788481,-0.1595999,-0.03972294,-0.01289015
1.021909,-0.2073223,0.02674043,-0.1910745,0.05141736,0.06091251
1.033318,-0.1625721,0.04309269,-0.2905947,0.001765894,0.1100869
1.04852,-0.1382804,0.06530448,-0.3862559,-0.003156785,0.1177191
1.086435,-0.1609291,0.07875328,-0.4482369,-0.09227927,0.1149808
1.193352,-0.1852366,0.08093194,-0.4145975,-0.1800844,0.1233253
1.329559,-0.2485514,0.07505528,-0.3458448,-0.07244748,0.1295534
1.415901,-0.3403119,0.06376382,-0.2470492,0.1025345,0.137161
1.451412,-0.4047034,0.0666457,-0.1412933,0.2440293,0.08245067
1.451837,-0.4734399,0.06747807,-0.2139064,0.2918395,-0.02632249
1.383331,-0.5436863,0.04402396,-0.3021242,0.1233592,-0.1004698
1.302235,-0.5962164,0.02833138,-0.2260995,-0.02085929,-0.1169206
1.26411,-0.6390717,0.037093,-0.08615804,0.2583937,-0.09688102
1.211888,-0.6315194,0.05839882,0.1498402,0.6942918,-0.09493855
1.166944,-0.5689847,0.09078631,0.271938,0.9247091,-0.1150405
1.111942,-0.475444,0.1262584,0.116645,1.078164,-0.1269782
0.9751328,-0.3528437,0.1553865,-0.03564879,1.067343,-0.1430118
0.8840722,-0.2754354,0.1728146,-0.2170834,0.8347898,-0.1614784
0.8913693,-0.2758701,0.1687784,-0.418403,0.7004137,-0.1716939
0.8652691,-0.2826673,0.1473016,-0.399544,0.7847236,-0.1715938
0.7998377,-0.2820029,0.1315176,-0.3692836,0.9051495,-0.1695475
0.7514952,-0.2830709,0.1288647,-0.3911774,0.8954679,-0.1587934
0.7139277,-0.279284,0.1389238,-0.2878833,0.8852132,-0.1249321
0.6576967,-0.2798907,0.1536363,-0.1673982,0.9433947,-0.106495
0.6161201,-0.272255,0.1525818,-0.06179838,0.9398981,-0.1120874
0.6179475,-0.2547748,0.172078,0.02933368,0.9297204,-0.08981838
0.5664121,-0.2239223,0.2288108,0.04784406,0.8120207,-0.03193342
0.5313478,-0.1938523,0.2609248,0.04425538,0.5349692,0.02239
0.6083537,-0.1931815,0.260045,-0.01240185,0.3472947,0.06124757
0.6768378,-0.1897867,0.271044,-0.1285817,0.2771701,0.1090954
0.7614389,-0.2096327,0.295372,-0.1976817,0.2632293,0.1662012
0.8651848,-0.2731481,0.3069423,-0.1777864,0.2317606,0.1960605
0.9031331,-0.2990326,0.3280017,-0.09052882,0.1337821,0.1796473
0.9279024,-0.2963105,0.3776954,0.05864211,0.02631104,0.1199372
0.9470415,-0.2971881,0.4348405,0.2164223,-0.1204602,-0.009655879
0.9894338,-0.2864916,0.4919954,0.2633227,-0.2357049,-0.1383985
1.059716,-0.3073214,0.5152475,0.255806,-0.3621399,-0.08416254
1.13391,-0.3740255,0.4942201,0.2798502,-0.63567,0.1050816
1.257034,-0.4452394,0.4321609,0.2739797,-0.7976127,0.2441824
1.33118,-0.4632023,0.3439119,0.2584133,-0.6769402,0.253742
1.305617,-0.4336989,0.3243057,0.1881374,-0.5449304,0.1246771
1.21477,-0.4324685,0.3218965,0.01858542,-0.5440464,0.02459406
1.002722,-0.4229512,0.2655096,-0.08853951,-0.5242234,0.01553165
0.7985874,-0.4034066,0.2520843,-0.08192942,-0.5296109,-0.02123742
0.8098192,-0.4464988,0.2426768,-0.03721028,-0.6654445,-0.05222386
0.8877075,-0.4810963,0.1931654,0.02975494,-0.8420827,-0.07060355
0.8842208,-0.4726408,0.1687487,0.1389156,-1.000027,-0.06827453
0.9624761,-0.4635203,0.1351156,0.2839388,-1.006607,-0.02594773
1.003528,-0.4532102,0.09905992,0.4438933,-0.93462,-0.02063833
0.8887616,-0.4416912,0.09035185,0.6296919,-0.9610835,-0.04600541
0.8457764,-0.4096006,0.08240371,0.7950491,-0.9205754,-0.09365729
0.8105955,-0.3794534,0.08540886,0.895986,-0.8813384,-0.1127016
0.7674818,-0.3542312,0.06912358,0.9269784,-0.8492932,-0.09040013
0.7938229,-0.2747294,0.03490005,0.8828705,-0.6443086,-0.0989672
0.7639125,-0.1830475,0.0325979,0.8143929,-0.5242687,-0.09541641
0.7600992,-0.1658617,0.03752102,0.7456646,-0.5437447,-0.1204791
0.7813016,-0.2215729,0.03536327,0.7275585,-0.5445618,-0.2018155
0.8049897,-0.2843996,0.02950219,0.7857636,-0.5447445,-0.2712406
0.8987371,-0.3150727,0.0137558,0.8577684,-0.5001374,-0.2902868
0.9412185,-0.3173775,-0.002536831,0.9450024,-0.427752,-0.2155596
0.956953,-0.3087808,-0.01177348,0.9763349,-0.3498464,-0.1374342
1.00143,-0.3119413,-0.005310998,0.9475199,-0.3044671,-0.1080625
1.042594,-0.3011741,-0.002091779,0.9927606,-0.302772,-0.08910463
1.056382,-0.2569406,-0.006426115,1.043698,-0.2953222,-0.06305226
1.032504,-0.2147058,0.002195063,1.0359,-0.3403522,0.01331354
1.069417,-0.1868652,0.02093376,1.000792,-0.3806343,0.09645594
1.1117,-0.1620512,0.04235903,0.9582335,-0.3942938,0.2099051
1.129252,-0.1632174,0.04403646,1.02173,-0.4481796,0.341076
1.223047,-0.2066098,0.04630405,1.161713,-0.5014429,0.3925254
1.319174,-0.2355967,0.07084312,1.277471,-0.5543023,0.432683
1.332267,-0.2490959,0.06591443,1.364595,-0.5384535,0.4235954
1.291741,-0.3120025,0.06563634,1.317641,-0.410207,0.3442563
1.283176,-0.3791656,0.1224262,1.095354,-0.254154,0.2632983
1.260771,-0.3991418,0.1756419,0.8499698,-0.136299,0.1423816
1.167253,-0.4739427,0.2133569,0.8015341,-0.0825709,0.1132685
1.124671,-0.6313409,0.2533873,0.9340617,0.01509695,0.1594807
1.154003,-0.6660467,0.2427502,0.9968665,0.2297081,0.1254361
1.191071,-0.5939491,0.1919151,1.011389,0.4518185,0.136591
1.141472,-0.5696497,0.1843022,0.9647751,0.483563,0.1745311
1.029715,-0.4649219,0.2043126,0.779197,0.3493029,0.1726482
0.9800227,-0.3688212,0.2013243,0.670542,0.3084852,0.1891945
0.9116946,-0.3797463,0.1856778,0.6026405,0.2924067,0.1828998
0.8466788,-0.3233966,0.1437187,0.5471879,0.2319945,0.2087249
0.8204202,-0.3122846,0.09347001,0.6494718,0.2329122,0.2418144
0.7733845,-0.3454387,0.07195587,0.828076,0.226253,0.196358
0.7601125,-0.3085478,0.07290981,1.083961,0.3289207,0.1535775
0.7460304,-0.3026102,0.09541597,1.275456,0.53648,0.1212785
0.7196376,-0.2624488,0.1232843,1.345225,0.5713209,0.1110585
0.6731686,-0.1992338,0.1807758,1.444884,0.3610472,0.1402025
0.6358211,-0.1827032,0.2561386,1.358318,-0.004416795,0.1574574
0.7031859,-0.1754856,0.2846449,1.178021,-0.2817766,0.176363
0.7747453,-0.2115624,0.2993806,1.105213,-0.3823402,0.194392
0.820479,-0.2427992,0.3105426,0.9966921,-0.4072754,0.2111696
0.8312428,-0.2667324,0.3099368,0.9875117,-0.3684334,0.2593689
0.7734196,-0.2880004,0.3202463,1.013163,-0.3521915,0.3120505
0.7440694,-0.2343208,0.3274858,0.9331583,-0.3699407,0.2686615
0.7458177,-0.1756404,0.3360637,0.9270737,-0.35328,0.1353581
0.7959018,-0.1613726,0.3546196,0.9255937,-0.2883137,0.05119601
0.8964299,-0.1579525,0.3834414,0.8923696,-0.1955192,0.0471985
0.9720429,-0.1548427,0.4000206,0.858135,-0.2040207,0.1329158
1.022615,-0.1714663,0.4072657,0.7225589,-0.3362462,0.2739386
1.081675,-0.2390445,0.4349651,0.5531922,-0.4441304,0.3676253
1.222249,-0.380127,0.4493444,0.4698827,-0.4331938,0.4263262
1.44926,-0.5576273,0.4569404,0.6436958,-0.3898048,0.4373309
1.585843,-0.5968319,0.4421504,1.093402,-0.3904536,0.3950946
1.406899,-0.510022,0.3767611,1.400404,-0.3753828,0.3013789
1.062383,-0.4442389,0.3360076,1.223829,-0.4300638,0.1972959
0.8677888,-0.3574642,0.3044057,0.8800975,-0.5648023,0.2495471
0.7717224,-0.3419244,0.2580008,0.7817344,-0.6461629,0.3529168
0.8046768,-0.419895,0.2449425,0.7194034,-0.7218416,0.3483257
0.9565817,-0.4585673,0.2120747,0.6667898,-0.7282882,0.3177009
1.014772,-0.5349032,0.152417,0.7552206,-0.6863008,0.2381183
1.01968,-0.5333022,0.1524769,0.7803672,-0.7687114,0.1114338
0.9769862,-0.4261346,0.1727259,0.8300614,-0.8132966,0.01782759
0.9159023,-0.3844148,0.1346536,0.8222087,-0.8457247,-0.04698905
0.868785,-0.2585103,0.100357,0.7009352,-1.010753,-0.068469
0.822206,-0.1945254,0.09099528,0.6909293,-1.057516,-0.06954551
0.8505205,-0.2577172,0.04406172,0.5999796,-0.9092293,-0.06220473
0.7802426,-0.1608967,-0.003808292,0.4992493,-0.7063765,-0.03538912
0.7057211,-0.138125,-0.002199718,0.4180449,-0.5619095,-0.03892323
0.7252209,-0.1788807,0.03377905,0.1970764,-0.5662061,-0.0395579
0.6227169,-0.1007081,0.05645787,0.07483495,-0.6298299,-0.02511402
0.611506,-0.1354121,0.05395196,-0.004685547,-0.6602571,-0.03603219
0.7405804,-0.1739837,0.04952222,-0.05382199,-0.6286829,-0.03322931
0.8909634,-0.1839925,0.02805723,-0.009276555,-0.5270616,-0.03509311
1.050473,-0.2357702,0.01963676,-0.03787937,-0.3495039,-0.05239173
1.052406,-0.1613913,0.02925784,-0.0803972,-0.1046553,-0.0568232
1.074835,-0.09031734,0.02842377,-0.2016323,0.04975357,-0.07705703
1.139188,-0.08445313,0.03998692,-0.4379765,0.05672415,-0.09445496
1.107353,-0.0707119,0.04370999,-0.6415025,0.01524518,-0.08500822
1.196833,-0.1156435,0.0457155,-0.7289619,-0.003829444,-0.04471771
1.321906,-0.1980962,0.05529376,-0.6434342,0.04564392,0.02292747
1.386051,-0.3203265,0.0462981,-0.5255399,0.1478543,0.06761625
1.484037,-0.4856419,0.03063496,-0.4683421,0.3561811,0.06089546
1.476032,-0.5904585,0.02087512,-0.507699,0.5530262,-0.01781074
1.378611,-0.5943506,0.05309067,-0.621767,0.4195042,-0.1057297
1.307999,-0.6598448,0.08788368,-0.5749033,0.255926,-0.08555446
1.247423,-0.7903444,0.05041272,-0.3351795,0.4599036,-0.04455047
1.178664,-0.7429357,0.02463811,-0.01485258,0.6890578,-0.06689169
1.085484,-0.6254998,0.07436414,0.1321709,0.8450132,-0.06650691
1.025564,-0.5190988,0.1249944,-0.03447967,1.010326,-0.07504033
0.9555085,-0.3168765,0.1419752,-0.1836019,0.9118863,-0.1170343
0.8834098,-0.2252754,0.165323,-0.3581408,0.8001307,-0.1232862
0.9286269,-0.246468,0.1841545,-0.6143812,0.8872497,-0.1382913
0.9207997,-0.2437142,0.1671004,-0.661715,0.955302,-0.1461437
0.8242532,-0.2682876,0.1383438,-0.7279958,1.076824,-0.1093057
0.7603255,-0.2590584,0.1206552,-0.810371,1.125233,-0.06554459
0.6865199,-0.2506784,0.1213677,-0.6681117,1.111694,5.733115e-06
0.6569021,-0.2628414,0.1383335,-0.5366983,1.245277,0.03390887
0.6319358,-0.2412768,0.1656789,-0.413712,1.267701,0.03741862
0.5706442,-0.2358111,0.2071991,-0.2602886,1.1895,0.07038064
0.5443902,-0.2021048,0.2377212,-0.2167011,1.049511,0.06930047
0.5413344,-0.170273,0.255431,-0.2765123,0.7384342,0.05561808
0.5926833,-0.1834928,0.2867544,-0.4290808,0.5084209,0.06851758
0.6644488,-0.1918009,0.2993234,-0.5424562,0.3599205,0.06136985
0.7853687,-0.239687,0.3065641,-0.5437056,0.2161966,0.03727064
0.9596158,-0.2855209,0.3473193,-0.4879603,0.1724789,-0.01584786
0.966179,-0.25294,0.3698043,-0.3708562,0.1986863,-0.1069415
0.9066708,-0.2224998,0.4130744,-0.1930488,0.2463786,-0.2140852
0.9775797,-0.276502,0.5126993,-0.02912794,0.2268368,-0.3289641
1.037428,-0.330318,0.5555438,0.02647037,0.1555625,-0.3495573
1.106088,-0.3442076,0.5292981,0.06503227,-0.04156818,-0.1428241
1.308584,-0.437538,0.4493179,0.04908067,-0.3245237,0.1561681
1.46109,-0.5377077,0.3564474,-0.03646638,-0.3256621,0.2288714
1.434876,-0.5478716,0.3968335,-0.00795479,-0.2740052,0.06745852
1.35014,-0.5265257,0.4360729,-0.07975306,-0.4143353,-0.05973128
1.179991,-0.3918206,0.3165299,-0.3461639,-0.4376321,-0.09342301
0.9394601,-0.2227643,0.2293698,-0.6237844,-0.4355542,-0.1061621
0.8824366,-0.2819819,0.2058701,-0.8555075,-0.4818457,-0.07601985
0.904242,-0.4006152,0.1401526,-0.8928527,-0.4450697,-0.04656503
0.8663968,-0.4143536,0.1300058,-0.7957514,-0.4714813,-0.05998709
0.9855883,-0.520991,0.1589322,-0.6456899,-0.5186254,-0.06861185
1.037736,-0.5655211,0.1288126,-0.4458374,-0.543411,-0.09516201
0.9266392,-0.4387278,0.1161962,-0.3921781,-0.5930124,-0.1716456
0.9333697,-0.3718552,0.1206477,-0.4426822,-0.5768183,-0.260245
0.8646002,-0.2886086,0.08644065,-0.4704198,-0.5711587,-0.3062906
0.7932875,-0.2374365,0.07141718,-0.5037779,-0.5626096,-0.2800668
0.8335477,-0.2828801,0.04933091,-0.5441472,-0.478607,-0.231382
0.7860909,-0.2501463,0.007852248,-0.5871258,-0.356453,-0.1910444
0.7915818,-0.2292919,0.01117078,-0.6425127,-0.2049121,-0.1401375
0.7737243,-0.2021453,0.01540199,-0.7309173,-0.1590514,-0.1032165
0.716277,-0.1599685,0.01257671,-0.8124766,-0.1895475,-0.06573119
0.7498024,-0.2091983,0.01843975,-0.8402142,-0.1867257,-0.02451246
0.7576429,-0.2360417,0.004451862,-0.8071357,-0.1943175,-0.03005647
0.829404,-0.2657022,-0.005619759,-0.7563575,-0.1279281,-0.03563986
0.9049782,-0.2893938,-0.009224443,-0.7186266,0.006818345,-0.02323172
0.916314,-0.2471658,-0.005150466,-0.6764715,0.07781651,-0.01774941
0.9642953,-0.2127631,0.006490826,-0.7059423,0.07706869,0.01642555
1.000078,-0.1712662,0.01200862,-0.7656041,0.1097586,0.03881922
1.054343,-0.1756676,0.01982974,-0.7751208,0.1770363,0.03648086
1.107307,-0.2255118,0.01798806,-0.7382366,0.1228699,0.05775281
1.196215,-0.2581553,0.01597921,-0.5768461,0.06462041,0.0921755
1.354215,-0.3266527,0.01438429,-0.3465124,0.1475145,0.1184948
1.44545,-0.4122918,0.01078229,-0.1264184,0.2752224,0.0844376
1.459543,-0.5019104,0.02095134,-0.05787598,0.4713888,-0.002301167
1.355526,-0.5545684,0.03664969,-0.2946122,0.574682,-0.09752551
1.195379,-0.5439867,0.07533513,-0.5234529,0.3831998,-0.2138939
1.169687,-0.6276329,0.1125421,-0.4644826,0.2635618,-0.2593045
1.241409,-0.7944391,0.1162965,-0.1818052,0.5388814,-0.1754276
1.273708,-0.8457202,0.1156558,0.1873569,0.9669645,-0.07864312
1.17788,-0.7021455,0.122222,0.3278125,1.147273,-0.0106965
1.007096,-0.4501981,0.1626763,0.0974577,0.9360077,0.08410308
0.8963447,-0.3123146,0.2047744,-0.1859539,0.6762166,0.1519357
0.8879349,-0.3366195,0.1860784,-0.3083255,0.6875417,0.1088092
0.903222,-0.3478478,0.1686757,-0.3400685,0.7479489,0.04659127
0.8706756,-0.3352648,0.1801619,-0.3131772,0.7882113,0.05058375
0.8458786,-0.3595856,0.1724039,-0.2819557,0.904736,0.05045211
0.7906836,-0.3466406,0.168389,-0.2144514,0.9037779,0.04520059
0.692622,-0.2995351,0.1824532,-0.04839683,0.8556398,0.0653229
0.6314524,-0.2858247,0.1919361,0.1114263,0.8309056,0.09412851
0.5465231,-0.2519767,0.2220723,0.2605929,0.6559943,0.1509291
0.5152634,-0.2035411,0.2539345,0.3183596,0.4306069,0.1706258
0.5877759,-0.2065686,0.2492825,0.2801768,0.2112386,0.1277322
0.6335576,-0.2140447,0.2515843,0.2913811,0.02000054,0.1194605
0.6857553,-0.2184545,0.2608566,0.2469635,-0.007906632,0.1461914
0.7375201,-0.2357684,0.2585122,0.2180883,0.01737641,0.1723686
0.7317431,-0.2361363,0.2717502,0.2558849,-0.05001346,0.1697625
0.7108633,-0.2290973,0.2954263,0.2481991,-0.202462,0.1031848
0.7111611,-0.216131,0.3288841,0.296921,-0.4412588,-0.0070976
0.780397,-0.2098357,0.3622066,0.334343,-0.7471895,-0.1104912
0.9010968,-0.2422458,0.3796863,0.3058351,-0.9334334,-0.1272838
1.026949,-0.3253934,0.3953061,0.3302445,-0.8817271,-0.02937284
1.235538,-0.4993845,0.3909285,0.5094056,-0.7237425,0.1665844
1.551995,-0.6933839,0.3706379,0.8937582,-0.6015222,0.3344085
1.636768,-0.6744408,0.3619051,1.11894,-0.6444289,0.2919665
1.356431,-0.5350237,0.3459391,0.92571,-0.7344609,0.2309453
1.110374,-0.5246892,0.3286965,0.7646447,-0.6636003,0.3037714
0.9756271,-0.5001153,0.327084,0.8835967,-0.5838161,0.300726
0.8749493,-0.4973751,0.3074631,0.9502633,-0.5493324,0.2668915
0.7914903,-0.5968852,0.2667336,1.024724,-0.6432688,0.2095611
0.6718329,-0.5795341,0.2345217,1.271951,-0.990085,0.02585214
0.7776335,-0.5633446,0.1748581,1.437881,-1.263229,-0.0121858
0.9408418,-0.5621325,0.08418014,1.587253,-1.307934,0.08983782
0.974077,-0.4740401,0.03997567,1.724724,-1.207976,0.1320325
1.065002,-0.4460398,0.02890518,1.708963,-1.078476,0.1903894
0.9857914,-0.3917573,0.02205836,1.752713,-1.100887,0.1946178
0.8919215,-0.3293918,0.03592262,1.77618,-1.117858,0.154595
0.915169,-0.3022168,0.02703798,1.705383,-1.088048,0.1413236
0.8462459,-0.2182469,0.00622908,1.657238,-1.052889,0.06419146
0.8816596,-0.1676613,-0.003039531,1.543193,-0.8812958,-0.008033142
0.8749779,-0.1245723,-0.00893703,1.430599,-0.7682799,-0.07435105
0.7957638,-0.1014991,0.01811974,1.322386,-0.7983267,-0.1830072
0.8182892,-0.1250996,0.03270167,1.161789,-0.800369,-0.2519213
0.795558,-0.1313318,0.02173946,1.048244,-0.7274773,-0.2961349
0.8266899,-0.1695094,0.02528616,0.9625295,-0.6420175,-0.2979582
0.8723098,-0.1844307,0.02250176,0.8905283,-0.6193226,-0.2013894
0.9091457,-0.1739238,0.02112496,0.8226924,-0.5472994,-0.08485941
1.003962,-0.1851695,0.02148089,0.7242589,-0.3896479,-0.04991878
1.008994,-0.1605962,0.02433349,0.6194911,-0.2404574,-0.06226471
1.024515,-0.1261369,0.03535324,0.5190071,-0.1330988,-0.03288963
1.067886,-0.1020737,0.04347329,0.4335284,-0.1090011,-0.0185495
1.091615,-0.08970295,0.0620349,0.3337871,-0.1125627,-0.01112742
1.132992,-0.09295211,0.06080908,0.2207495,-0.08932581,0.09699443
1.133818,-0.107461,0.05198845,0.1406796,-0.05941063,0.2270571
1.162621,-0.1529765,0.0642675,0.09423839,-0.05283516,0.3114647
1.198933,-0.2168404,0.06375777,0.0545898,-0.04286525,0.3640159
1.22802,-0.2890631,0.08653464,-0.06894061,0.01267803,0.3399264
1.290923,-0.3242861,0.1487461,-0.290223,0.02625385,0.2311356
1.315682,-0.3220798,0.1961735,-0.4537615,0.01131482,0.08209548
1.375041,-0.4007183,0.1928388,-0.4900022,0.07054284,0.03523029
1.448679,-0.5374441,0.156726,-0.5085788,0.2744791,0.1584463
1.359168,-0.6166688,0.1506375,-0.5312334,0.5876312,0.2534599
1.157837,-0.6866607,0.1563595,-0.457967,0.7211153,0.2179271
1.022327,-0.7348253,0.1480507,-0.284076,0.67919,0.1598101
0.9590735,-0.6598296,0.1381494,-0.04041895,0.701752,0.1121789
0.8932213,-0.5832297,0.1129845,0.1288958,0.6841128,0.05333284
0.862694,-0.5363406,0.1054461,0.110178,0.6238422,-0.02864635
0.8650586,-0.4085025,0.1084304,0.08687124,0.6361347,-0.1491892
0.8571503,-0.3169134,0.1041719,0.05979305,0.662264,-0.2284311
0.8610506,-0.3099807,0.1200496,-0.01195271,0.740691,-0.2236113
0.8554721,-0.3312817,0.1307962,0.01972844,0.8409877,-0.1949981
0.812347,-0.3769021,0.1534716,0.0786295,0.8931477,-0.1309357
0.7518624,-0.3833561,0.1858985,0.1577007,0.8991598,-0.05844126
0.7072125,-0.3580302,0.192713,0.2758277,0.8323543,-0.043206
0.6908147,-0.3080245,0.2178735,0.330788,0.8183825,-0.07796624
0.6758936,-0.2375456,0.2417043,0.350091,0.8286459,-0.1311274
0.6451654,-0.184494,0.2384685,0.2639508,0.7433553,-0.12876
0.6199655,-0.1224571,0.2471436,0.07848678,0.5945368,-0.08988461
0.6358698,-0.1113781,0.2637728,-0.08824507,0.3841735,-0.05679509
0.6850894,-0.1540048,0.2863284,-0.2463385,0.3159791,0.00758592
0.725809,-0.1715149,0.3075917,-0.3821818,0.3620651,0.05895809
0.7570739,-0.2104745,0.32351,-0.4923417,0.2952288,0.07939906
0.7856862,-0.2617716,0.3543455,-0.5022494,0.2392557,0.06165876
0.8012306,-0.2693428,0.3844808,-0.3591558,0.1425562,-0.01586999
0.8311713,-0.2654923,0.4295451,-0.2017753,0.02239187,-0.1114347
0.8979884,-0.27375,0.4944835,-0.1218433,0.0202105,-0.1945026
1.018797,-0.2740816,0.5154623,-0.1257291,-0.04497692,-0.1732748
1.225339,-0.2742382,0.5172615,-0.1575327,-0.1271613,-0.036006
1.416074,-0.3278727,0.5284799,-0.171494,-0.1115267,0.1269076
1.477178,-0.4466149,0.4964522,-0.1478628,-0.07888123,0.2534889
1.492123,-0.5443094,0.4648622,-0.009109273,-0.05394374,0.2370729
1.43222,-0.5247535,0.462399,0.1413398,-0.1414966,0.1100064
1.208285,-0.4337859,0.4320635,0.1061784,-0.3074591,-0.01301195
0.991994,-0.3475101,0.3798632,-0.08975097,-0.3887595,-0.04862953
0.8366456,-0.2857754,0.303528,-0.3357068,-0.4522508,0.003333663
0.741152,-0.3381245,0.2041097,-0.5256758,-0.5507453,-0.01681175
0.7872374,-0.4333819,0.1405082,-0.5397713,-0.5896162,-0.05060754
0.803321,-0.4379047,0.129816,-0.4742409,-0.6377027,-0.04860434
0.812586,-0.4501098,0.1359552,-0.4360862,-0.7898639,-0.10776
0.9229653,-0.4595227,0.1197618,-0.3035154,-0.8559723,-0.1389639
0.9385568,-0.399749,0.0828153,-0.2233918,-0.802782,-0.1983868
0.8769033,-0.331497,0.05937327,-0.3169163,-0.8050192,-0.2975684
0.8184828,-0.2902313,0.05733054,-0.3488775,-0.7669108,-0.3021513
0.7520542,-0.3023728,0.04707744,-0.3400786,-0.6879383,-0.2679671
0.7254282,-0.3146034,0.03179455,-0.3102974,-0.6599681,-0.2236994
0.697507,-0.310576,0.03466966,-0.2208797,-0.5478644,-0.2153039
0.6919676,-0.2951863,0.02952164,-0.2405853,-0.4134096,-0.2086
0.7123441,-0.2199499,0.02240549,-0.3082455,-0.3774178,-0.1397101
0.7207984,-0.1755721,0.02166661,-0.3738498,-0.321302,-0.116112
0.7690968,-0.1765779,0.005849479,-0.4900777,-0.2160681,-0.09626825
0.8403909,-0.1742382,0.006573722,-0.5499145,-0.1528781,-0.09193599
0.9390296,-0.1854682,0.01030106,-0.5597942,-0.09532583,-0.1336012
1.055006,-0.1721094,-0.009884746,-0.6046911,0.05172292,-0.1243283
1.105074,-0.1298157,-0.0129821,-0.7153088,0.1967594,-0.1257189
1.126713,-0.06063343,0.008716207,-0.8753905,0.2409221,-0.1138125
1.176317,-0.03589654,0.03288623,-1.027842,0.2638971,-0.05580718
1.224778,-0.1050835,0.03471549,-1.101583,0.2798882,-0.004310465
1.26786,-0.1866254,0.02898564,-1.028512,0.2625324,0.0712655
1.328498,-0.3043234,0.05073652,-0.8510837,0.2634233,0.1214936
1.399858,-0.4430566,0.06186488,-0.6090075,0.3039672,0.1518632
1.430931,-0.5279667,0.05489109,-0.4835327,0.3941373,0.1637442
1.367667,-0.5649536,0.06084091,-0.6649587,0.4747759,0.08740027
1.269459,-0.5739977,0.06212716,-0.7979116,0.4397304,-0.04082879
1.225955,-0.6246641,0.05190558,-0.6958014,0.4170745,-0.1626161
1.204591,-0.6832451,0.03988469,-0.5484592,0.5785639,-0.1860763
1.195939,-0.6728102,0.03748505,-0.3016125,0.8594415,-0.1566106
1.18798,-0.6299592,0.05314181,-0.1867871,1.151778,-0.1709674
1.076742,-0.5060696,0.1040211,-0.3830938,1.259663,-0.1469071
0.9184427,-0.3161893,0.1814848,-0.5660494,1.076987,-0.1162267
0.8731636,-0.2653385,0.1954494,-0.7209728,0.9040127,-0.09534211
0.8970998,-0.3215016,0.1560949,-0.8642299,0.9213494,-0.03383163
0.8598603,-0.294916,0.1421436,-0.8287262,1.042845,-0.02809774
0.7781405,-0.2823304,0.1208339,-0.7795698,1.215518,-0.05598504
0.7031327,-0.3132053,0.1133939,-0.7711977,1.288309,-0.04803286
0.6443145,-0.2846693,0.1441523,-0.6717564,1.259808,-0.05242898
0.6314525,-0.2899834,0.1638112,-0.576023,1.297104,-0.05960083
0.6121814,-0.2929557,0.1995756,-0.4843042,1.289211,-0.04850841
0.5587109,-0.2492946,0.2339394,-0.3546371,1.097168,-0.01770497
0.5463169,-0.2334081,0.2447965,-0.3324742,0.8250981,0.02825904
0.5881979,-0.210915,0.2655018,-0.391552,0.6333335,0.03669076
0.6778012,-0.2206707,0.264526,-0.4742266,0.547621,0.03166886
0.7570064,-0.235304,0.2764582,-0.5950461,0.4448843,0.05902341
0.7911091,-0.2172577,0.3184079,-0.6047177,0.3648733,0.05866456
0.8535677,-0.2200203,0.3500727,-0.5190684,0.3600409,0.002489916
0.9018183,-0.203829,0.4030566,-0.4582254,0.2891069,-0.1178204
0.9116663,-0.2358205,0.4697191,-0.3858773,0.2080113,-0.2805615
0.9815781,-0.3111399,0.5522238,-0.3183545,0.09540242,-0.3298759
1.108804,-0.35617,0.5758511,-0.2864525,-0.1702063,-0.1992205
1.229315,-0.4753924,0.4336284,-0.3116228,-0.3517938,0.02857508
1.33929,-0.6130833,0.3061194,-0.3126685,-0.391299,0.21468
1.387381,-0.6108434,0.3213823,-0.09852604,-0.3929012,0.1954864
1.230245,-0.5102316,0.3186985,0.106406,-0.3163027,0.03699652
0.9524401,-0.4003594,0.2640434,-0.05503205,-0.3428816,-0.07818296
0.8521635,-0.3084063,0.2636458,-0.3726625,-0.5327134,-0.121841
0.9135738,-0.333306,0.2342619,-0.5762977,-0.7018551,-0.09031759
0.9108668,-0.4347252,0.147867,-0.7045531,-0.7740164,-0.05424665
0.8915151,-0.4425628,0.1459694,-0.6972263,-0.7636483,-0.06979668
0.9661224,-0.4728177,0.1583905,-0.5162455,-0.7833431,-0.0621327
1.017417,-0.523329,0.1226604,-0.2916376,-0.7982053,-0.1001998
0.986315,-0.4641281,0.1055706,-0.1902931,-0.7169449,-0.2070772
0.9456678,-0.3930404,0.08091072,-0.2523784,-0.6511517,-0.2917424
0.8823637,-0.2996982,0.0662218,-0.2833675,-0.6376272,-0.3477522
0.8093267,-0.2347458,0.0594661,-0.3146459,-0.6422832,-0.3087003
0.7966776,-0.2422329,0.04317743,-0.4392602,-0.5791834,-0.2359502
0.8101664,-0.2120201,0.03560156,-0.5276555,-0.414262,-0.1939315
0.8026055,-0.1916691,0.01544463,-0.6406754,-0.2795669,-0.1108577
0.7986171,-0.1856048,0.01327972,-0.7315988,-0.1723012,-0.09063664
0.7945157,-0.1814491,0.01802486,-0.7434597,-0.09611099,-0.1141403
0.7781084,-0.1991931,0.01509479,-0.7872433,-0.07588975,-0.1117115
0.7789265,-0.2102965,0.02889066,-0.7813308,-0.0263888,-0.1638596
0.7935645,-0.2257916,0.01723319,-0.762209,0.02237673,-0.1852682
0.8086361,-0.2071566,0.002990602,-0.7408439,0.04226077,-0.161633
0.8338012,-0.1743178,0.008630978,-0.6937631,0.07271204,-0.1395323
0.8672894,-0.1479851,-0.002341465,-0.7565437,0.1238002,-0.06237951
0.9180642,-0.1216956,-0.006568318,-0.8438806,0.1521577,-0.003157781
0.9989831,-0.1502597,0.003858473,-0.8741619,0.1193497,0.01594526
1.118697,-0.1899002,0.007442815,-0.8137114,0.09643195,0.0500645
1.252112,-0.2202269,0.005675038,-0.6564256,0.09334031,0.08384986
1.38691,-0.2532194,0.005266881,-0.5296209,0.09459638,0.1374342
1.547204,-0.2785054,0.0103624,-0.4465713,0.2012985,0.1641508
1.609674,-0.3396224,0.02096293,-0.4907169,0.3992485,0.1047032
1.531106,-0.4078228,0.04637638,-0.7169347,0.4712768,0.02159958
1.495891,-0.4767074,0.07008052,-0.972587,0.3693701,-0.05317726
1.453976,-0.6150531,0.05663504,-1.021857,0.3508004,-0.1062119
1.297516,-0.7720006,0.04212548,-0.7208863,0.5251519,-0.1378958
1.159967,-0.7982176,0.0700755,-0.3002933,0.74876,-0.1777773
1.083125,-0.695026,0.1092804,0.02530676,0.927794,-0.1714286
1.035518,-0.5810965,0.1514508,0.1187102,1.074162,-0.1497436
0.9679214,-0.4149348,0.197702,-0.1058959,1.125043,-0.1716391
0.8728427,-0.2569188,0.2080588,-0.3534961,0.951795,-0.1459089
0.8800337,-0.2681024,0.1954041,-0.5163767,0.7749106,-0.09254338
0.9039226,-0.3189015,0.1765908,-0.6092397,0.8574778,-0.05835488
0.8506441,-0.3348724,0.1409572,-0.5813499,0.9938985,-0.01521098
0.8250287,-0.3521452,0.1285246,-0.6021677,1.051186,-0.0025107
0.7668308,-0.3200349,0.1415916,-0.5692914,1.067394,0.009744349
0.6545482,-0.2899147,0.1404061,-0.4422072,1.045074,0.02532565
0.6089433,-0.2767428,0.140778,-0.3987906,1.080459,0.02076183
0.6043969,-0.2679232,0.1666228,-0.3216002,1.067164,0.04909577
0.5435521,-0.2600056,0.2190968,-0.2311027,0.8952709,0.08332102
0.4858028,-0.2212648,0.2632636,-0.2037151,0.6790913,0.1107695
0.5375823,-0.2283204,0.25185,-0.1735187,0.5260831,0.1209329
0.6171135,-0.24583,0.2399018,-0.1775573,0.5330568,0.07533097
0.6738031,-0.2168992,0.2690109,-0.2006341,0.5204569,0.001068631
0.7157809,-0.1920135,0.2821083,-0.2410057,0.3760971,-0.1054348
0.7347861,-0.124786,0.309499,-0.307603,0.2840412,-0.2158011
0.8095307,-0.0889992,0.3830191,-0.3495748,0.1702603,-0.2915472
0.8986323,-0.1752085,0.4741518,-0.3541322,0.0109586,-0.315237
1.040417,-0.2885027,0.57645,-0.3071013,-0.1171248,-0.2109467
1.288732,-0.4140073,0.5960636,-0.2287905,-0.2093773,-0.02288972
1.454857,-0.5362483,0.5259522,-0.0805037,-0.2308801,0.09055267
1.508685,-0.5651793,0.4559041,0.1434969,-0.3224413,0.06495419
1.424294,-0.524398,0.3837839,0.2170309,-0.4306693,-0.0189021
1.185084,-0.46515,0.3444795,0.08328335,-0.4684319,-0.05142902
0.9546656,-0.3714137,0.2841662,-0.11437,-0.5212032,-0.03187901
0.7948537,-0.3132662,0.1737601,-0.3590552,-0.5142228,-0.01754935
0.778722,-0.3691495,0.1596761,-0.4903307,-0.5612976,-0.0573277
0.7972489,-0.2601809,0.3260798,-0.5775435,0.2460654,-0.07053722
0.7966704,-0.2524368,0.3576612,-0.5070497,0.1511088,-0.0704574
0.8494245,-0.2531584,0.3985181,-0.4639197,0.01180165,-0.0920459
0.9004855,-0.2598898,0.422931,-0.4294479,-0.1376514,-0.1199763
1.03387,-0.3203644,0.4482874,-0.4438853,-0.2048433,-0.1008163
1.406625,-0.4765124,0.5338071,-0.3902157,-0.208271,-0.01932868
1.618841,-0.5960251,0.5502435,-0.2208911,-0.08129594,0.08029092
1.402159,-0.5462349,0.4246696,-0.09495687,-0.03147839,0.0971758
1.225595,-0.4820259,0.3411999,-0.1606153,-0.2410259,0.06173652
1.178962,-0.4767309,0.3652648,-0.3624533,-0.4954421,0.07403804
0.9297633,-0.3822242,0.3492936,-0.5184512,-0.5130478,0.06961393
0.7401615,-0.3394289,0.2376986,-0.5941611,-0.4536517,0.01161723
0.8100104,-0.4187963,0.1753527,-0.5752634,-0.617092,-0.05515808
0.8224591,-0.4271855,0.187012,-0.5003202,-0.7741083,-0.1049988
0.8539102,-0.442603,0.1495769,-0.4167457,-0.8059091,-0.08964481
0.9485204,-0.4523753,0.1058035,-0.2551013,-0.8089542,-0.08267003
0.9001841,-0.3791858,0.08841246,-0.1538713,-0.7657787,-0.1468545
0.8744255,-0.3462618,0.07038759,-0.1489981,-0.7321293,-0.2309199
0.8413381,-0.3025632,0.07624162,-0.1307377,-0.6619572,-0.3414382
0.744829,-0.2668699,0.07261173,-0.1337336,-0.6505501,-0.38277
0.7164289,-0.2581415,0.06715047,-0.1154071,-0.6787,-0.3677322
0.6862963,-0.1903234,0.06830868,-0.1846995,-0.5685088,-0.4169215
0.7126432,-0.149101,0.05066393,-0.3732448,-0.4886614,-0.3746999
0.7561543,-0.1246548,0.03592885,-0.5048975,-0.4303867,-0.255103
0.77019,-0.1282801,0.01904376,-0.5982213,-0.3410269,-0.1857972
0.8530283,-0.1920244,0.009627691,-0.6131974,-0.2629451,-0.1182403
0.9082187,-0.2344085,0.009207751,-0.5621515,-0.1465537,-0.1217395
0.9760707,-0.2698207,0.003804107,-0.5380363,-0.08518846,-0.1511896
1.061153,-0.2583715,0.01464814,-0.5158442,0.01651221,-0.1539417
1.064579,-0.2084776,0.03584163,-0.5337541,0.09007841,-0.1865108
1.063138,-0.1634023,0.05372877,-0.5812231,-0.03612235,-0.1301508
1.082912,-0.1115279,0.04836446,-0.636546,-0.1060908,-0.0197942
1.157348,-0.1322432,0.01839212,-0.6612912,-0.08807886,0.04178176
1.284195,-0.207091,-0.001351858,-0.5987477,-0.07711954,0.08840146
1.393766,-0.3246039,-0.001247846,-0.5225955,-0.01016437,0.08060486
1.442819,-0.4257048,0.01810907,-0.476463,0.1230655,0.04744608
1.420084,-0.4104969,0.04733638,-0.523679,0.2735728,0.03461036
1.450813,-0.465175,0.07001039,-0.6251514,0.3123706,0.02823929
1.491232,-0.6224061,0.06683061,-0.6041228,0.3860907,0.03492454
1.373904,-0.7017128,0.05445343,-0.481701,0.5920406,0.01532814
1.208832,-0.6870656,0.07655676,-0.3073037,0.685587,-0.02935192
1.113447,-0.6209037,0.1027204,-0.1529108,0.7415413,-0.0893221
1.038611,-0.5529376,0.1219597,-0.1336658,0.912106,-0.171405
0.9871938,-0.4819643,0.1451805,-0.1744273,1.004888,-0.2089222
0.9434357,-0.3872353,0.1519368,-0.2691837,0.9543791,-0.1929708
0.8431801,-0.297172,0.1662132,-0.4233926,0.85738,-0.1738494
0.7818847,-0.2599866,0.1643715,-0.4725136,0.7372479,-0.1548153
0.7740816,-0.2758168,0.1439343,-0.4237525,0.7402204,-0.1450938
0.7117865,-0.2621734,0.1495242,-0.3887753,0.872649,-0.1546726
0.6791419,-0.2581425,0.1507276,-0.3347783,0.979593,-0.1649187
0.6713663,-0.2720879,0.1673057,-0.260905,1.115966,-0.1744314
0.6455101,-0.2423216,0.2038222,-0.2492398,1.161787,-0.1735784
0.6523159,-0.2367016,0.2336057,-0.2594733,1.102469,-0.1310429
0.6167986,-0.2314282,0.2838207,-0.2275207,1.031072,-0.06232316
0.6031239,-0.2242126,0.3096272,-0.2015062,0.7242161,-0.01347076
0.6578178,-0.2461779,0.3094455,-0.1952726,0.4257511,-0.01178225
0.7045724,-0.2376892,0.3212985,-0.2199359,0.3270841,-0.03645376
0.7875833,-0.2431753,0.3164678,-0.2775134,0.2252125,-0.05207141
0.8385002,-0.2461963,0.3250882,-0.3217911,0.2331805,-0.07244947
0.8425536,-0.2174065,0.3560834,-0.3264265,0.223175,-0.08395081
0.8715978,-0.2009433,0.3889392,-0.2386665,0.09734461,-0.07348939
0.895541,-0.1827481,0.4389845,-0.1134376,-0.009113248,-0.08253357
0.964974,-0.1918372,0.4730852,-0.08603821,-0.1143407,-0.111865
1.084751,-0.2095727,0.5027777,-0.1515404,-0.1561038,-0.1210981
1.222796,-0.2411912,0.5480149,-0.2304441,-0.2231467,-0.008364939
1.371694,-0.367093,0.5305789,-0.2375698,-0.2582837,0.2487273
1.48611,-0.5024785,0.4476815,-0.1233282,-0.2111037,0.3832919
1.489864,-0.5133848,0.3790681,-0.0086434,-0.2667919,0.2255225
1.290315,-0.460893,0.3564892,-0.073231,-0.3049764,0.05962704
1.02737,-0.4527452,0.360419,-0.2090811,-0.4025083,0.09511347
0.8342849,-0.4083026,0.3253102,-0.2423632,-0.5851294,0.1261348
0.7545969,-0.3712274,0.2494107,-0.2411222,-0.6547931,0.09440991
0.8312035,-0.4378762,0.1872686,-0.2368922,-0.7389198,0.08891509
0.8619854,-0.4575043,0.1421683,-0.229045,-0.8006372,0.02886257
0.8915049,-0.4645812,0.1385039,-0.1716685,-0.8085347,-0.009693942
0.9611843,-0.4888639,0.1434483,-0.006779407,-0.8237828,0.01282488
0.8954579,-0.4458929,0.1180155,0.1481162,-0.7962165,-0.02774843
0.8758798,-0.4331779,0.1212216,0.2874179,-0.7898544,-0.09763252
0.8583189,-0.392636,0.1088873,0.3879881,-0.7328337,-0.1786642
0.7628081,-0.3109611,0.07542285,0.4161344,-0.6644538,-0.2324031
0.7409354,-0.2713603,0.06796126,0.4564343,-0.6736411,-0.2271112
0.6915334,-0.1945695,0.03251458,0.373551,-0.6118218,-0.2384123
0.6743358,-0.1047005,0.01595846,0.148185,-0.4990409,-0.2145909
0.7091806,-0.06835199,0.03198388,-0.114795,-0.417262,-0.155436
0.721283,-0.1033375,0.02829261,-0.3410385,-0.3657007,-0.1261681
0.7965533,-0.1662092,0.02953753,-0.3560026,-0.3073308,-0.1146509
0.8724106,-0.2141056,0.02266686,-0.2989679,-0.2309477,-0.1324543
0.9584582,-0.2543421,0.01762263,-0.3036339,-0.1640041,-0.1416933
1.048869,-0.2347787,0.01722379,-0.2994472,-0.0308749,-0.1291289
1.06153,-0.2100028,0.01737307,-0.3425057,0.07267943,-0.1102561
1.057881,-0.1762274,0.05791856,-0.4209899,0.04379413,-0.05669125
1.061422,-0.1084104,0.09761415,-0.5292606,0.02952542,-0.004732211
1.097725,-0.1299296,0.09389626,-0.6126286,0.02830534,0.02608231
1.194207,-0.1933026,0.07986228,-0.5916112,-0.02698669,0.05920263
1.34511,-0.2857695,0.07472804,-0.4940214,-0.03073542,0.08590854
1.479899,-0.4197386,0.03711345,-0.3219785,0.07687357,0.09466388
1.488017,-0.4756529,-0.002103723,-0.2632447,0.1627777,0.09130162
1.433377,-0.5104862,0.02135137,-0.3537476,0.09249541,0.07633889
1.381304,-0.5654832,0.02709725,-0.3639847,0.01904377,0.04518249
1.303536,-0.6007198,0.01325639,-0.2974099,0.121288,0.0392148
1.208623,-0.6252847,0.03728589,-0.1627711,0.2983681,0.03790925
1.142796,-0.5998465,0.05780018,0.02880466,0.5120435,-0.02040411
1.1302,-0.5382528,0.09637879,0.1268012,0.7711949,-0.08868599
1.080478,-0.442798,0.1561044,0.1034478,0.9596954,-0.1288929
0.9696841,-0.3102114,0.1942292,-0.03102576,1.015253,-0.1266242
0.9047718,-0.2501402,0.2021462,-0.267673,0.847858,-0.08322743
0.8798157,-0.2557032,0.1711949,-0.4579464,0.6695821,-0.04671873
0.8162102,-0.2287606,0.1396996,-0.5303731,0.7784338,-0.02637668
0.7640309,-0.2188717,0.1360176,-0.576071,0.8750811,-0.01817103
0.7451904,-0.2548358,0.143328,-0.5564275,0.8948098,-0.005439714
0.6481911,-0.2687581,0.1497282,-0.4506348,1.020992,-0.01568691
0.5807394,-0.2817319,0.1557183,-0.3538383,1.064994,-0.05149428
0.6331823,-0.3006585,0.1748433,-0.2504065,1.069927,-0.02748094
0.6137331,-0.3091089,0.2122865,-0.13126,1.036397,0.003875731
0.5719036,-0.3396351,0.2573546,0.0145861,0.7928584,0.01620031
0.5995778,-0.3332439,0.2773651,0.1329028,0.5114785,0.05597398
0.6175411,-0.3002997,0.2818055,0.1472427,0.3202312,0.06680375
0.6877388,-0.2981023,0.3021944,0.1554077,0.2315897,0.0784818
0.77501,-0.2766992,0.3137783,0.1401188,0.2118592,0.09903571
0.8197754,-0.2632174,0.3316865,0.09519478,0.1301871,0.07521881
0.8762646,-0.2571159,0.3696527,0.09042194,0.00750478,0.04108397
0.9386437,-0.2452894,0.3973313,0.1036112,-0.09702684,-0.01714267
1.023861,-0.2712753,0.4305943,0.1846741,-0.1692498,-0.08004802
1.089602,-0.2901377,0.4685053,0.2755518,-0.2472904,-0.08197212
1.128282,-0.3263583,0.4846524,0.2914483,-0.4013228,-0.03204258
1.237106,-0.4114278,0.4621384,0.2680266,-0.5374999,0.0602507
1.360861,-0.4790857,0.4017076,0.2461858,-0.5338124,0.1298647
1.37467,-0.4780068,0.3472049,0.2644917,-0.4844937,0.101864
1.208604,-0.4291227,0.3225996,0.220574,-0.5197022,0.06219413
0.9352049,-0.4044838,0.3179295,0.06223286,-0.5402755,0.05902542
0.7653414,-0.3686072,0.3029916,-0.1113863,-0.5741953,0.01634599
0.7667428,-0.3777218,0.2612568,-0.1795912,-0.7546255,0.0001187449
0.8578936,-0.4627664,0.2072033,-0.1275412,-0.9219823,0.03796069
0.9528654,-0.4702424,0.1453576,-0.0785459,-0.9887084,0.02858073
0.988247,-0.4841691,0.1113911,0.05588722,-0.9650927,0.0280003
0.951233,-0.4970396,0.1060764,0.2804034,-0.9249444,0.01838126
0.8777139,-0.421152,0.08980693,0.4399546,-0.9703217,-0.07274539
0.8131496,-0.3939608,0.08274435,0.5922548,-0.9397812,-0.1593079
0.7656818,-0.3584605,0.08416878,0.6927117,-0.8598588,-0.2197624
0.7278585,-0.3087269,0.08163415,0.758191,-0.8106331,-0.2446026
0.7006492,-0.2926659,0.07832108,0.848346,-0.7424042,-0.2375467
0.7028009,-0.2201094,0.05992665,0.8162521,-0.7146728,-0.2252081
0.7174441,-0.1519642,0.02393658,0.6707993,-0.62488,-0.1932575
0.7347869,-0.124725,-0.0101224,0.452206,-0.5238349,-0.1960134
0.8349383,-0.164623,0.0002550463,0.2644118,-0.5044977,-0.1925999
0.9559582,-0.2360858,0.01660682,0.2675328,-0.4422798,-0.1499779
1.006606,-0.2517968,-0.0009759051,0.3346406,-0.3451397,-0.1441884
1.055915,-0.2817993,0.006291214,0.3677023,-0.1934217,-0.1509263
1.070411,-0.2761121,0.01684732,0.3732508,-0.09450845,-0.1496299
1.033385,-0.233627,0.01158678,0.3323109,-0.116839,-0.1300145
1.03291,-0.2277232,0.02052605,0.2803045,-0.0854922,-0.07263727
1.060457,-0.1987079,0.02026715,0.2018039,-0.05149024,0.01396057
1.076479,-0.1856556,0.02729387,0.1192422,-0.0434977,0.1362614
1.066062,-0.2089181,0.03973732,0.1169082,-0.03606723,0.2569184
1.04704,-0.2475304,0.05082579,0.1873693,-0.08007423,0.3550969
1.05704,-0.2844227,0.087795,0.2950223,-0.1461026,0.4031906
1.109679,-0.2845069,0.1090959,0.4572404,-0.2599215,0.3881729
1.201406,-0.3135646,0.1154723,0.6536965,-0.3271288,0.3603357
1.272527,-0.3574452,0.133701,0.7339284,-0.320926,0.2746724
1.300097,-0.3994167,0.1242829,0.6134085,-0.361494,0.1685572
1.328942,-0.4894036,0.08326648,0.4238082,-0.2954447,0.18115
1.29859,-0.5678192,0.05992577,0.3072918,-0.09877293,0.2402468
1.214123,-0.6295434,0.09237671,0.3176119,0.01518616,0.2579531
1.198824,-0.6857661,0.1348089,0.4022261,0.09826271,0.2538474
1.179777,-0.6770392,0.1481487,0.4398858,0.3359249,0.1625154
1.104545,-0.6345698,0.1710606,0.4453722,0.5793297,0.02815937
1.027141,-0.5487768,0.1695582,0.4300828,0.5211512,0.03427253
0.9290161,-0.4120534,0.1258776,0.360092,0.4187091,0.1611654
0.9164805,-0.3976248,0.1085517,0.3345103,0.5151624,0.2570348
0.9389012,-0.4490302,0.1058861,0.3812026,0.5671388,0.2621382
0.8511811,-0.3975028,0.09569392,0.4840622,0.672801,0.2322326
0.8282101,-0.3995768,0.1001177,0.6822135,0.751787,0.2464934
0.8123854,-0.4331861,0.1102375,0.9764811,0.5964329,0.247983
0.6957929,-0.3969979,0.1184017,1.32135,0.5363061,0.199378
0.7028448,-0.4033601,0.1218616,1.562385,0.5034389,0.148158
0.7363075,-0.3495038,0.1416592,1.675072,0.3620427,0.09819875
0.6860323,-0.2422859,0.1803366,1.705658,0.2485474,0.1073976
0.6994641,-0.2074294,0.1911565,1.609492,0.1065653,0.1589916
0.7041862,-0.1586552,0.2088688,1.507067,0.03092498,0.20135
0.6913967,-0.1384358,0.261869,1.415365,-0.05979007,0.3026401
0.7115593,-0.1671902,0.285458,1.290087,-0.2336857,0.4038861
0.7014058,-0.1770838,0.2977672,1.242786,-0.32393,0.4200661
0.7073988,-0.2106095,0.3475175,1.207418,-0.3950942,0.3766434
0.7349458,-0.2429868,0.3798433,1.143655,-0.4524308,0.3052708
0.7736471,-0.2473837,0.3915717,1.121628,-0.4993502,0.2390839
0.8491751,-0.2516907,0.4347682,1.085687,-0.5319509,0.1784303
0.911555,-0.2410268,0.4644657,1.001008,-0.5338738,0.1722755
0.9603278,-0.2292463,0.471503,0.8838414,-0.655495,0.2392947
1.028968,-0.2757588,0.4934974,0.7847884,-0.821695,0.3667058
1.162954,-0.3830135,0.4879988,0.7858337,-0.8579889,0.5538815
1.360381,-0.4863688,0.4533306,0.9143039,-0.6803559,0.6069052
1.454136,-0.5212859,0.4147165,1.052737,-0.4626811,0.4585374
1.349275,-0.481239,0.3730537,1.008502,-0.5045701,0.3126235
1.138655,-0.430833,0.3503682,0.8246773,-0.5648759,0.2727966
0.9080454,-0.4012731,0.313649,0.6463337,-0.5118503,0.313315
0.779822,-0.4282044,0.2602886,0.5486508,-0.5962426,0.332368
0.8335441,-0.5177668,0.2280349,0.6143831,-0.7502902,0.2962629
0.8999395,-0.5548392,0.1747378,0.7018396,-0.91844,0.2651861
0.9417639,-0.5396176,0.1213537,0.734752,-1.024346,0.2001299
1.001563,-0.5062759,0.1043978,0.8210864,-0.9221859,0.1007246
0.9330504,-0.4320362,0.08321828,0.8495888,-0.8770253,0.03984227
0.8612419,-0.4007843,0.08516071,0.8786161,-0.9650563,0.004502533
0.8659934,-0.4001265,0.09950855,0.9992708,-0.980094,-0.04514905
0.8018378,-0.3616026,0.09054453,1.052679,-0.9723647,-0.09647267
0.7757603,-0.3191894,0.08731089,1.068138,-0.9416999,-0.1123903
0.7731058,-0.2744668,0.05586416,1.041961,-0.8814387,-0.1269274
0.7238664,-0.2127194,0.01553766,0.9433369,-0.8622415,-0.1836784
0.7245473,-0.1474982,0.01447417,0.7925178,-0.8116618,-0.2199544
0.7465585,-0.09963305,0.02005431,0.4877028,-0.6973662,-0.218695
0.7806826,-0.07389527,0.02679158,0.1211917,-0.5475799,-0.2233489
0.8481679,-0.1172924,0.02355207,-0.06376097,-0.4489676,-0.2210015
0.9531622,-0.2266101,0.01932265,0.0223842,-0.4182536,-0.207591
1.052078,-0.2631429,0.02566847,0.1145325,-0.2799219,-0.1969702
1.057744,-0.2411678,0.02307453,0.07675379,-0.1093165,-0.1937239
1.035576,-0.2142464,0.02916217,0.05502377,-0.05616979,-0.1669215
1.023405,-0.1481063,0.03419455,-0.08358009,0.00908492,-0.09553852
1.006808,-0.1241227,0.04130992,-0.2241163,0.04372114,-0.03671415
1.036629,-0.1456358,0.05589563,-0.2615562,-0.029378,-0.004317113
1.102943,-0.155496,0.04830412,-0.356724,-0.04669828,0.01600386
1.171837,-0.1899166,0.03414691,-0.3497811,-0.01243361,0.03291174
1.252462,-0.2610773,0.01010432,-0.3203615,0.03673416,0.09385495
1.346621,-0.3584433,-0.01252801,-0.2603072,0.1436424,0.157142
1.408046,-0.4374724,0.01780992,-0.0915881,0.2002776,0.156795
1.441078,-0.4750161,0.0785512,-0.1201403,0.2037686,0.1257394
1.467765,-0.5056407,0.1158844,-0.1690848,0.2209191,0.1194455
1.438002,-0.5701848,0.112262,-0.09818572,0.2743848,0.1740392
1.350332,-0.6589481,0.08522743,-0.04764512,0.4407195,0.230958
1.198761,-0.6495291,0.08055229,0.07852482,0.6165168,0.20004
1.052662,-0.575314,0.1273825,0.1525603,0.7036748,0.11534
1.016241,-0.5531359,0.1854933,0.1189234,0.8210096,0.02292334
0.9638598,-0.483341,0.189677,0.07290515,0.9189532,-0.04270391
0.8876882,-0.3799412,0.1646311,-0.04151102,0.8674156,-0.02899886
0.8816779,-0.3322844,0.1592943,-0.1313248,0.7900371,-0.01177849
0.8585128,-0.3002403,0.1480735,-0.1410814,0.7887276,-0.02812381
0.822354,-0.3037888,0.1383906,-0.1630437,0.8479678,-0.01286188
0.7841852,-0.3049361,0.1492199,-0.1675541,0.9506373,-0.01620562
0.7155269,-0.2908182,0.1478136,-0.1124545,0.9611149,-0.03929578
0.6632611,-0.3080487,0.1506834,-0.04922326,0.9420186,-0.05006881
0.6436558,-0.2985604,0.1668696,-0.004888088,1.027052,-0.08141812
0.6599088,-0.2891343,0.1889599,0.02823703,1.024328,-0.07631934
0.6480428,-0.2889731,0.2335916,0.05889684,0.8970124,-0.05402093
0.6253171,-0.271147,0.2612454,0.08498917,0.7034529,-0.04853187
0.6475387,-0.26881,0.2761793,0.08740655,0.4847243,-0.01383974
0.6528833,-0.2430363,0.3023557,0.06105031,0.3830392,-0.01029507
0.6954457,-0.2167814,0.3087767,0.001019284,0.2845158,-0.02417737
0.7628569,-0.2113479,0.3274293,-0.08798067,0.2067862,-0.007393056
0.7939197,-0.197208,0.3650051,-0.1791191,0.2315732,-0.01161664
0.8350065,-0.1991027,0.3809821,-0.2373327,0.1648421,-0.02016661
0.8533627,-0.1925318,0.394017,-0.2365728,0.04320479,-0.03684466
0.8887788,-0.1788893,0.4198589,-0.1737435,-0.03362829,-0.09326948
0.9580114,-0.181917,0.4633246,-0.07720051,-0.048436,-0.153728
1.009031,-0.2144291,0.5198189,-0.0679134,-0.02869695,-0.1810452
1.093057,-0.3188414,0.5474846,-0.2080251,-0.08902404,-0.1195686
1.237706,-0.4589614,0.5266916,-0.2902613,-0.18622,0.02940485
1.415704,-0.5452744,0.4710707,-0.1106532,-0.3199299,0.1180214
1.4505,-0.5211627,0.4004263,0.1008843,-0.3982886,0.03473486
1.262199,-0.4510178,0.3628936,0.0258228,-0.3684161,-0.08647373
1.049285,-0.4009114,0.3612224,-0.1940575,-0.4243988,-0.0850074
0.8682876,-0.3317667,0.3057895,-0.4297035,-0.4580742,-0.05015587
0.758242,-0.3215398,0.20963,-0.6508717,-0.4856573,-0.04181316
0.8511181,-0.4053268,0.1613268,-0.6534719,-0.5749895,-0.03105266
1.000585,-0.4813821,0.1382823,-0.6054461,-0.5047841,-0.0864577
1.008904,-0.5170852,0.1300841,-0.5922628,-0.4791666,-0.1623135
0.9794804,-0.4953946,0.1339809,-0.4043299,-0.6334273,-0.1857594
0.9763184,-0.4673754,0.1181128,-0.2979798,-0.7266802,-0.1933811
0.8979569,-0.4236209,0.1117656,-0.335697,-0.6889431,-0.1867068
0.813371,-0.3269133,0.09789864,-0.2805833,-0.6246095,-0.181285
0.7901199,-0.3118783,0.064927,-0.2360866,-0.6432814,-0.1757905
0.7519491,-0.312725,0.04616082,-0.2346962,-0.6167416,-0.1596991
0.7239584,-0.2590524,0.03480162,-0.2283391,-0.5518591,-0.145132
0.7467746,-0.2413882,0.03166998,-0.2764985,-0.4983806,-0.118643
0.7551134,-0.178415,0.0154441,-0.3884188,-0.3460191,-0.1017013
0.7467474,-0.1535127,0.008804423,-0.5072416,-0.3100768,-0.09407523
0.796656,-0.2114035,0.02360037,-0.5827552,-0.323705,-0.07489661
0.8761443,-0.2022749,0.004964084,-0.6109892,-0.2003143,-0.05802464
0.9338878,-0.2287597,0.003942501,-0.5757975,-0.1421849,-0.06617583
0.9645401,-0.2568466,0.01629984,-0.5432029,-0.04145192,-0.09544856
0.9888571,-0.2246255,0.00476597,-0.5487808,0.1244249,-0.09492539
1.025439,-0.2451158,0.01623954,-0.5524169,0.1333044,-0.05270219
1.003487,-0.2206129,0.01641386,-0.5835477,0.07826034,0.02586073
0.9976343,-0.190413,0.01327303,-0.5912415,0.05335976,0.1089697
1.057209,-0.2170544,0.02544655,-0.5484172,0.03338731,0.1337771
1.09329,-0.2163798,0.01997482,-0.4960083,0.0225986,0.1238506
1.172533,-0.2569791,0.02817657,-0.3915455,0.03337198,0.119175
1.255645,-0.3053284,0.02932989,-0.1994688,0.08045845,0.1309562
1.33358,-0.3611674,0.01466248,-0.03702304,0.2049822,0.127491
1.41784,-0.4376694,0.02142707,-0.101284,0.3381195,0.06067197
1.369627,-0.4168432,0.03489701,-0.277144,0.295773,-0.04414905
1.321023,-0.4363168,0.05170528,-0.3573336,0.230343,-0.1166158
1.300012,-0.563663,0.07165594,-0.3391065,0.3100235,-0.1040376
1.197508,-0.6408537,0.09735763,-0.1666419,0.3998258,-0.1092574
1.127147,-0.653638,0.1242943,0.05853107,0.5942484,-0.1855513
1.060586,-0.626044,0.1340011,0.1739285,0.8788907,-0.2129259
0.9524447,-0.5587694,0.140951,0.2054332,0.9584127,-0.2152273
0.8630112,-0.4787915,0.1593707,0.1866726,0.8333199,-0.2149828
0.8427061,-0.4376399,0.1925066,0.2003263,0.6832823,-0.1704958
0.8987345,-0.4402272,0.221585,0.2312005,0.6599838,-0.1116897
0.914901,-0.4033692,0.2181701,0.2749016,0.701296,-0.04263553
0.9081428,-0.347714,0.1966211,0.3685205,0.6863576,-0.01341873
0.9019634,-0.3228224,0.1860588,0.3695866,0.72521,-0.01961487
0.8450161,-0.2920394,0.1878611,0.3093996,0.7690942,-0.03530903
0.8237845,-0.2438388,0.1896258,0.2447116,0.805976,-0.09518978
0.7959238,-0.1765489,0.1948661,0.1177165,0.8778297,-0.1033808
0.7165239,-0.1443148,0.2114994,0.02134675,0.8052846,-0.03318621
0.6473883,-0.16308,0.2440469,0.0008161271,0.5921987,0.05211635
0.5713998,-0.15992,0.2721071,0.04873217,0.3032611,0.1301928
0.5713337,-0.1841418,0.2648137,0.1572561,0.07769676,0.1364254
0.6290931,-0.2267468,0.2608363,0.2703746,-0.004739656,0.1321941
0.6391439,-0.2041337,0.2925009,0.3136179,-0.1786148,0.1703765
0.6715893,-0.1765228,0.336867,0.247502,-0.3426426,0.1658498
0.7149224,-0.1662098,0.3813666,0.1546613,-0.4458705,0.1410032
0.7623051,-0.1646789,0.3816467,0.06070282,-0.6903466,0.1352008
0.8740361,-0.188555,0.3393775,0.006646194,-0.8788129,0.1390086
0.9786808,-0.2143156,0.3240306,0.07183615,-0.9273866,0.1649968
1.039303,-0.282173,0.3127853,0.1459939,-0.9262963,0.2004271
1.131548,-0.4076871,0.2978156,0.224046,-0.8032061,0.2744423
1.294918,-0.5202393,0.3126392,0.4082355,-0.5740554,0.39957
1.446766,-0.5861356,0.3200482,0.6408805,-0.3581473,0.4433301
1.49541,-0.6054054,0.3251865,0.8127903,-0.3307034,0.3165366
1.40954,-0.5842008,0.3333426,0.8378538,-0.4052119,0.2159978
1.180376,-0.5387311,0.3218688,0.8113143,-0.3856966,0.3211703
0.8881024,-0.5032832,0.317157,0.8282261,-0.3908464,0.421475
0.6874331,-0.5115761,0.2941426,0.8136603,-0.4847112,0.3720084
0.6904851,-0.5284954,0.2225794,0.831879,-0.6923036,0.3035018
0.8132286,-0.5150784,0.148513,0.9003523,-0.96395,0.1999931
0.9285365,-0.5057866,0.1024007,0.9672867,-1.024281,0.06481077
0.9856248,-0.4880648,0.07436574,1.082991,-0.9462793,0.00028379
0.9175094,-0.437494,0.07053727,1.194094,-0.9704029,-0.0247296
0.8579754,-0.4096662,0.08293749,1.294651,-1.019304,-0.02539536
0.865436,-0.3805778,0.07557026,1.378601,-1.02716,-0.04165898
0.8218095,-0.3241737,0.07076269,1.381687,-1.026672,-0.09487345
0.8119355,-0.3094492,0.06549643,1.39758,-1.006442,-0.1269025
0.8226535,-0.3064842,0.02212973,1.433354,-0.9832091,-0.1837209
0.8024695,-0.2604106,-0.00728858,1.407703,-0.9315862,-0.2260646
0.7980668,-0.1967102,-0.003286308,1.344688,-0.8421896,-0.2194171
0.7761563,-0.1405284,-0.005827741,1.242544,-0.809865,-0.2355053
0.7816345,-0.1277719,-0.01243914,1.08636,-0.791806,-0.2232604
0.8099069,-0.1569168,-0.01303785,0.9345404,-0.6983154,-0.194399
0.8647413,-0.2035475,-0.01976808,0.8697877,-0.5971015,-0.1816124
0.9762791,-0.2680916,-0.03466525,0.8933203,-0.4993121,-0.1657114
1.004465,-0.2780369,-0.03002012,0.9002122,-0.341117,-0.1718042
0.9800737,-0.2212596,-0.01781752,0.8358703,-0.1609997,-0.1523468
1.012346,-0.190878,-0.01379192,0.7233406,-0.05790671,-0.1309351
1.015808,-0.1689062,0.000169359,0.5580647,-0.03723867,-0.1146737
1.004331,-0.1611004,0.001995733,0.4267715,-0.03277509,-0.04133149
1.038319,-0.1812445,0.001579115,0.3907014,-0.02032428,0.02871884
1.045279,-0.1637267,0.01310983,0.3507174,-0.01297721,0.09816708
1.025325,-0.1602134,0.02377856,0.332809,-0.05638803,0.172841
1.01747,-0.1490067,0.06428062,0.3435522,-0.1434265,0.2298911
1.006228,-0.1075864,0.09522426,0.3274119,-0.2256163,0.3062471
1.044871,-0.1379493,0.07710142,0.379835,-0.3046937,0.3465057
1.154963,-0.1756893,0.07225154,0.4771194,-0.3258138,0.3349362
1.281516,-0.2026644,0.08325675,0.4695099,-0.2655404,0.3030942
1.359584,-0.2433858,0.08891298,0.1936991,-0.2246267,0.2507229
1.36134,-0.2429642,0.130457,-0.2388518,-0.2248933,0.2471812
1.377668,-0.3346553,0.1730238,-0.3910009,-0.1497181,0.3303838
1.404079,-0.5742625,0.1359752,-0.3460714,0.129047,0.4200964
1.362293,-0.7411807,0.09309498,-0.3799948,0.5149608,0.3946507
1.272627,-0.7141511,0.1217294,-0.3538649,0.6785653,0.2565149
1.126156,-0.6539163,0.1297344,-0.3041457,0.6574935,0.0990277
1.015467,-0.6474573,0.1057407,-0.280067,0.7634705,-0.01321687
0.9880911,-0.5765592,0.1045872,-0.2139168,0.8183987,-0.04221546
0.9054465,-0.4863171,0.07756379,-0.2002675,0.7114658,-0.05371883
0.8292496,-0.4323473,0.04698712,-0.2006723,0.709906,-0.06165081
0.8027859,-0.3586995,0.0526513,-0.2077149,0.7516549,-0.03660065
0.7418586,-0.3156669,0.05749057,-0.249992,0.7855436,-0.05612975
0.7128756,-0.2976678,0.07395231,-0.2220021,0.9192813,-0.1149561
0.7041671,-0.3114197,0.1034271,-0.1548507,1.106515,-0.2037581
0.6799437,-0.3822028,0.1242847,-0.01748862,1.224964,-0.2717981
0.6789109,-0.4126192,0.148957,0.1956465,1.123109,-0.2420994
0.7027547,-0.3953187,0.1834121,0.305243,0.9941113,-0.2564379
0.7613906,-0.3504197,0.2225068,0.3028823,0.9428656,-0.2953713
0.7803243,-0.2913918,0.2480633,0.2106424,0.7980721,-0.2456475
0.7619906,-0.2635158,0.2592247,0.03399633,0.7212938,-0.1999617
0.7786123,-0.2285177,0.2761691,-0.1312011,0.6496166,-0.1348373
0.7869919,-0.2027525,0.294927,-0.2606785,0.4781166,-0.02995137
0.8085208,-0.2158473,0.3111271,-0.3351016,0.4336605,0.02940258
0.8372503,-0.2368421,0.3321277,-0.3697872,0.4316895,0.06632557
0.8295773,-0.2605448,0.3435604,-0.3994474,0.3803285,0.1112593
0.8174545,-0.2596,0.352107,-0.3649026,0.299685,0.1096702
0.8004694,-0.2390544,0.3880002,-0.2646719,0.1489583,0.006018344
0.8088182,-0.2306056,0.4226035,-0.1469887,0.04597018,-0.1499236
0.8861474,-0.2340889,0.4572787,-0.07057125,0.01344076,-0.2518372
1.036923,-0.2783305,0.5146652,-0.09354548,-0.0443169,-0.2264628
1.232421,-0.3839664,0.5250038,-0.1294193,-0.1408921,-0.07775797
1.409305,-0.4920229,0.4739201,-0.1253474,-0.2198807,0.07717274
1.488408,-0.5205188,0.4126265,-0.1309775,-0.246697,0.09404463
1.378999,-0.4755107,0.3640343,-0.144539,-0.3084477,-0.02417045
1.154556,-0.4002723,0.3393116,-0.2639572,-0.3954298,-0.07670243
0.9374768,-0.3251493,0.2926159,-0.5288184,-0.3827258,-0.01250247
0.781739,-0.3363229,0.2157252,-0.7375058,-0.3625616,0.01231794
0.7997192,-0.4333076,0.1705203,-0.7785782,-0.4449417,-0.0268119
0.8944722,-0.5122791,0.1553666,-0.7213367,-0.5090917,-0.09612603
0.9236728,-0.5512821,0.1372153,-0.6281495,-0.5437236,-0.1712785
0.9301824,-0.5158144,0.1182699,-0.479311,-0.5978744,-0.2156449
0.8640448,-0.4308426,0.1140823,-0.3263378,-0.6510795,-0.2415234
0.7801796,-0.3919669,0.1186867,-0.2729884,-0.738207,-0.2646411
0.7631247,-0.3503258,0.1127713,-0.2405092,-0.7325123,-0.2751811
0.7339065,-0.3115575,0.08617905,-0.1813167,-0.6407585,-0.2453832
0.7044164,-0.2955211,0.03950071,-0.1464629,-0.6168916,-0.1892324
0.6932733,-0.2603713,0.01009081,-0.1363848,-0.5360557,-0.1246898
0.7029055,-0.2321609,0.01583886,-0.1999564,-0.3984115,-0.09861876
0.7201978,-0.1778773,0.01660765,-0.3549469,-0.2774671,-0.09776529
0.7462529,-0.1642657,0.01426207,-0.5416919,-0.1989251,-0.0259553
0.837893,-0.2175602,0.02464672,-0.6558184,-0.2346875,-0.003585874
0.9125799,-0.237571,0.01412147,-0.6645856,-0.1922456,-0.04365727
0.9697546,-0.2908428,-0.00570442,-0.6641615,-0.04411263,-0.04142998
1.045689,-0.3245403,-0.002555567,-0.6389485,0.03811189,-0.0875048
1.056261,-0.2736063,0.009008701,-0.5865197,0.07765704,-0.09033823
1.060911,-0.2150246,0.02342637,-0.5972071,0.07484753,0.0002228118
1.08537,-0.1521992,0.03143999,-0.6805008,0.09375716,0.06683465
1.078837,-0.1441043,0.03555144,-0.8246101,0.1329553,0.1118774
1.100589,-0.1719209,0.05013612,-0.9441171,0.08907734,0.108541
1.18001,-0.2026623,0.04582924,-0.9482045,0.05962728,0.1052763
1.285523,-0.2986221,0.03566094,-0.8234854,0.08282104,0.1204943
1.392253,-0.398186,0.04222195,-0.6007953,0.1701196,0.1060552
1.442668,-0.4579081,0.03332565,-0.4869975,0.4134301,0.09997511
1.394502,-0.4677301,0.02655547,-0.59456,0.5705961,0.01133454
1.330436,-0.4640549,0.04069177,-0.7423817,0.342159,-0.1417679
1.297817,-0.5839827,0.04325072,-0.7693469,0.1401903,-0.1785824
1.259851,-0.7500116,0.022414,-0.5619223,0.4475434,-0.1119559
1.224837,-0.7655749,0.009721755,-0.201004,0.8514451,-0.08376013
1.147122,-0.6549637,0.06101146,-0.0553884,1.019134,-0.148691
1.034417,-0.5495015,0.1499084,-0.1352136,1.154981,-0.2022521
0.9881224,-0.4818815,0.1806513,-0.2465772,1.154571,-0.2135751
0.9445558,-0.3772303,0.1561452,-0.4562854,0.9626307,-0.2420417
0.8535171,-0.249441,0.1426094,-0.6123562,0.8445243,-0.2577775
0.8560626,-0.2563082,0.1406082,-0.6542629,0.9711553,-0.2473487
0.8796534,-0.3153937,0.1216265,-0.7425893,1.212418,-0.2125675
0.7446398,-0.2627777,0.092809,-0.7351214,1.275612,-0.1574065
0.6468784,-0.2627391,0.08107111,-0.6808156,1.273941,-0.1034379
0.6698732,-0.3048383,0.1203313,-0.6662948,1.299117,-0.07905133
0.6336341,-0.2741468,0.1896004,-0.5645981,1.241641,-0.09445484
0.6054572,-0.3018544,0.2158866,-0.4591124,1.197172,-0.08347975
0.6145879,-0.2994971,0.229518,-0.3692821,1.031197,-0.05062502
0.5846754,-0.2436696,0.2745175,-0.3429179,0.7568062,-0.03482344
0.5904561,-0.2457624,0.2879073,-0.4003096,0.5627816,-0.001800858
0.6539987,-0.2171506,0.2771886,-0.4287001,0.406022,0.04349958
0.7222765,-0.218841,0.2972421,-0.5395846,0.3849551,0.06369538
0.7784051,-0.2439065,0.3163554,-0.6441774,0.3916048,0.03230456
0.8437313,-0.2276611,0.3225736,-0.6271243,0.3250402,-0.0367957
0.8981111,-0.2300242,0.3480908,-0.5845154,0.2936689,-0.1172722
0.9020834,-0.2145206,0.4122899,-0.4535838,0.1868603,-0.1897484
0.9216158,-0.2596288,0.5198557,-0.3336007,0.01897221,-0.2082752
1.007918,-0.3386557,0.5911952,-0.327193,-0.2467839,-0.1528804
1.155789,-0.3659294,0.5501753,-0.3631674,-0.4957638,-0.004930546
1.335405,-0.4694673,0.4268757,-0.3931195,-0.3779253,0.1666831
1.409055,-0.5671949,0.2971685,-0.3060983,-0.2651221,0.1921145
1.323635,-0.5384313,0.2861739,-0.2278834,-0.4099764,0.07268979
1.161607,-0.4567879,0.3283051,-0.3186002,-0.4592187,-0.04390175
0.9374728,-0.3671573,0.2598217,-0.4827962,-0.5451334,-0.08744789
0.8084122,-0.3363224,0.2022988,-0.6645353,-0.6877927,-0.100646
0.8904586,-0.4255625,0.17492,-0.7290695,-0.6232626,-0.1258626
0.9547383,-0.5408289,0.1242384,-0.5867851,-0.5998262,-0.1400856
0.9759613,-0.5663301,0.1431779,-0.386777,-0.6478993,-0.1407028
1.004887,-0.5351808,0.1343482,-0.1909569,-0.630136,-0.1530049
0.920789,-0.4718668,0.1003848,-0.04206341,-0.6853624,-0.1857667
0.8579949,-0.3722617,0.1002168,-0.04978129,-0.6831634,-0.2345176
0.8505026,-0.3055669,0.05666653,-0.1164207,-0.5907617,-0.2720745
0.8077801,-0.2893836,0.04269157,-0.1254063,-0.5448505,-0.2616287
0.8023238,-0.2810248,0.03828885,-0.1243797,-0.520056,-0.2045318
0.7914215,-0.2675994,0.01804731,-0.1334543,-0.4878987,-0.1404236
0.7757554,-0.252375,0.02165223,-0.1967411,-0.3333012,-0.08782896
0.7596726,-0.2055111,-0.003296955,-0.3214811,-0.1744278,-0.06377286
0.7177023,-0.1551443,0.008681445,-0.4556623,-0.1878545,-0.07439032
0.7328003,-0.1604119,0.02851329,-0.5952516,-0.2043676,-0.08411863
0.7628975,-0.1890046,0.007860103,-0.6361154,-0.1714083,-0.08782307
0.8239184,-0.2390951,0.01641463,-0.5696867,-0.1173193,-0.09445376
0.9166931,-0.278118,0.01017521,-0.5202116,-0.01417189,-0.08106802
0.9247619,-0.2454705,0.0005160068,-0.4902338,0.0761794,-0.03003836
0.9310457,-0.1957962,0.008858265,-0.493294,0.09890046,0.03858834
0.9728922,-0.1586093,0.006768976,-0.5515568,0.07120491,0.08559009
1.000952,-0.1381718,0.01757954,-0.6426709,0.07521297,0.09975433
1.066249,-0.1428729,0.03169049,-0.7207694,0.08716671,0.09444434
1.148072,-0.1551747,0.04947371,-0.7082953,0.06872188,0.0893938
1.207752,-0.1906761,0.06411645,-0.6155233,0.06475163,0.09675054
1.302703,-0.2494991,0.06951155,-0.4858332,0.06307356,0.115238
1.42996,-0.3549429,0.07740063,-0.3767186,0.1154223,0.1273776
1.467846,-0.5022403,0.07273298,-0.3997898,0.1889209,0.08493495
1.38599,-0.5595986,0.06829975,-0.5555321,0.1659296,-0.01723537
1.296639,-0.5613961,0.05654971,-0.6751082,0.1630879,-0.09218731
1.276483,-0.6676171,0.03167734,-0.579987,0.2821914,-0.08517294
1.27981,-0.7474133,0.02772152,-0.3211933,0.5156367,-0.0371866
1.255659,-0.671619,0.03666298,-0.09292954,0.8873086,0.01994922
1.199768,-0.5678261,0.05195532,-0.02311355,1.222331,0.06114932
1.051237,-0.4600753,0.09533519,-0.2150482,1.261838,0.03548733
0.8778074,-0.3547117,0.1450249,-0.4856264,1.042485,-0.01651279
0.8322015,-0.3311525,0.1514632,-0.5712116,0.8353299,-0.03661158
0.8458805,-0.3227642,0.1283508,-0.6043143,0.8382989,-0.05520281
0.8298314,-0.3140682,0.1144936,-0.6235486,0.9894162,-0.06230261
0.7849872,-0.3341506,0.1065961,-0.5848077,1.141469,-0.06190508
0.7049131,-0.3290833,0.1181977,-0.5453278,1.237377,-0.09037216
0.6298786,-0.3308546,0.1519314,-0.4038314,1.236215,-0.1208094
0.6014722,-0.3351543,0.1834935,-0.2357487,1.180685,-0.1464858
0.603085,-0.3154384,0.2160044,-0.1299566,1.096641,-0.1262872
0.6051892,-0.3143837,0.2411016,-0.05316447,0.9300348,-0.07014577
0.6304201,-0.2883698,0.255774,-0.07132487,0.7336404,-0.04048653
0.6827588,-0.242988,0.2722694,-0.1152357,0.5473615,0.04450265
0.7259775,-0.2363833,0.2843064,-0.1862622,0.4438019,0.1133472
0.7654737,-0.2506263,0.3017352,-0.3037646,0.4467605,0.07731231
0.8043924,-0.2632017,0.3218684,-0.3431425,0.3428525,0.07659537
0.8384027,-0.2462597,0.3304405,-0.3283559,0.189576,0.06523997
0.8633701,-0.2127105,0.3543876,-0.2715983,0.1730405,-0.02347041
0.8762546,-0.1928411,0.4111226,-0.1522082,0.1300119,-0.1036794
0.8858795,-0.2021781,0.4694125,-0.05790174,-0.01082697,-0.1392945
0.9166124,-0.2532066,0.4828891,-0.09361697,-0.1920053,-0.05610091
1.066734,-0.3614561,0.4467771,-0.254597,-0.4307763,0.1214618
1.309457,-0.5388825,0.3771452,-0.3252929,-0.5475437,0.2716533
1.397843,-0.6064653,0.304436,-0.1433478,-0.4272019,0.3047756
1.294506,-0.5152072,0.3113379,0.06944819,-0.3584743,0.135581
1.188562,-0.4691297,0.342258,-0.01223501,-0.5055935,-0.08203291
1.089313,-0.4162341,0.2945611,-0.2377728,-0.6450608,-0.1229937
0.9814932,-0.3540274,0.2514641,-0.4276776,-0.6666791,-0.06228699
0.8967981,-0.3649776,0.1938517,-0.6573288,-0.6223778,-0.05349184
0.8329415,-0.356432,0.1287519,-0.7086931,-0.5659991,-0.09219125
0.8992172,-0.423838,0.1704287,-0.6314965,-0.5844971,-0.1228286
0.9730737,-0.5148617,0.1738286,-0.5816035,-0.6159147,-0.1609514
0.9275577,-0.4840821,0.1261636,-0.3675356,-0.6255474,-0.2083303
0.9195054,-0.4637534,0.1326055,-0.2173899,-0.6578459,-0.2566827
0.8702585,-0.4293125,0.1059896,-0.2046102,-0.6400614,-0.3384665
0.8138971,-0.3689302,0.08870961,-0.152343,-0.6149641,-0.3899513
0.8289142,-0.3417049,0.06987384,-0.1874668,-0.5996435,-0.3642549
0.7785333,-0.2986545,0.01587703,-0.2335693,-0.5151142,-0.3038485
0.778481,-0.2829328,0.0140652,-0.273151,-0.4221761,-0.2176968
0.7868594,-0.2673882,0.006601929,-0.3452027,-0.343535,-0.1538492
0.7452041,-0.2435501,-0.0003333988,-0.3753359,-0.2839641,-0.1332207
0.7671352,-0.2548399,0.0165147,-0.4110729,-0.2673967,-0.1199413
0.7562368,-0.2566416,0.007261704,-0.4011379,-0.2596596,-0.1341119
0.781019,-0.2685012,0.01062689,-0.3881479,-0.2186523,-0.1627724
0.8594111,-0.2781116,0.008780534,-0.4094341,-0.1001248,-0.1677517
0.8814947,-0.2686397,-0.001473915,-0.3654866,0.008076394,-0.1584712
0.9102743,-0.2667254,0.004906791,-0.3361428,0.04679018,-0.1244557
0.9342663,-0.2356321,0.001397044,-0.3661109,0.07583205,-0.05502433
0.9688759,-0.1763507,-0.001018964,-0.4128221,0.07650116,0.01431897
1.027167,-0.1362202,-0.0007777566,-0.4766681,0.09230772,0.05811105
1.078034,-0.138902,0.009123264,-0.5273915,0.1504274,0.07581433
1.130223,-0.1619012,0.03004293,-0.5284836,0.1735367,0.07600346
1.153687,-0.1823148,0.03381638,-0.4819242,0.1427136,0.09139601
1.22013,-0.2169316,0.03089113,-0.4056627,0.1042434,0.1504427
1.357932,-0.2866115,0.03112584,-0.271449,0.1609283,0.2148799
1.472636,-0.3984788,0.03081704,-0.1208673,0.2522113,0.1992323
1.493753,-0.4682407,0.03435836,-0.1056836,0.2088336,0.1034579
1.387118,-0.4546657,0.0445539,-0.2715632,0.01473483,0.01802238
1.293923,-0.5038268,0.04860602,-0.4022894,-0.141701,0.00731336
1.312512,-0.6355879,0.0245976,-0.2634628,0.1060207,0.06494161
1.279922,-0.6828931,0.004894237,-0.04112701,0.5700889,0.09659694
1.165671,-0.6278155,0.04265975,0.03581388,0.784083,0.06410201
1.109024,-0.5638934,0.1128432,0.06466373,0.982303,0.03597527
1.035619,-0.4894055,0.1570163,0.01942073,1.139863,0.006466337
0.8929256,-0.3843562,0.1668869,-0.1375283,0.9788362,-0.02859589
0.8486851,-0.3213865,0.1587388,-0.2809936,0.827021,-0.02550031
0.8820163,-0.3316434,0.1474756,-0.3710324,0.7704756,-0.001136115
0.8681239,-0.33182,0.137196,-0.3804629,0.7592234,0.02249532
0.824697,-0.3230968,0.1262213,-0.3648932,0.8937724,0.02875542
0.7628049,-0.3446214,0.129958,-0.3490726,0.9856128,0.02255189
0.7105467,-0.3504776,0.1365153,-0.2656711,1.031258,0.01538451
0.6764268,-0.3490489,0.1433718,-0.1557943,1.079761,-0.03592739
0.6383999,-0.3564115,0.1754196,0.01299459,1.051068,-0.1115688
0.6254866,-0.3529506,0.2148183,0.1982487,1.008531,-0.1309226
0.6089347,-0.3327772,0.2574611,0.3224868,0.8786705,-0.1091668
0.5799393,-0.2861029,0.2840561,0.4384152,0.6459704,-0.112815
0.6009653,-0.2432248,0.2686844,0.443564,0.4617377,-0.1253984
0.6498467,-0.2070515,0.268168,0.3270925,0.3316521,-0.1188524
0.7047449,-0.1894768,0.2844153,0.1846244,0.2071323,-0.1100471
0.7742708,-0.2204656,0.2897643,0.04930295,0.1412174,-0.07134562
0.792447,-0.2383029,0.3111859,0.02101982,0.1421848,-0.001825275
0.7841351,-0.2544619,0.3349956,0.06223044,0.04126551,0.06196662
0.8109788,-0.2937395,0.3674981,0.1225205,-0.1480108,0.1169847
0.8212026,-0.277848,0.3990548,0.2097002,-0.2725708,0.1210252
0.848236,-0.2099328,0.3897217,0.2302068,-0.3747734,0.07404672
0.9165369,-0.1318821,0.3935591,0.1815422,-0.4760019,0.02948046
0.9352613,-0.08944117,0.4061222,0.05393067,-0.5465213,-0.02077813
0.9304145,-0.1419864,0.3961428,-0.2051583,-0.5625589,-0.04747638
0.9943312,-0.2573915,0.4235366,-0.3617222,-0.5001874,0.01502451
1.089921,-0.3763728,0.4495466,-0.2030992,-0.3897794,0.1934279
1.180619,-0.4876074,0.4213251,0.03195656,-0.281899,0.4146552
0.5225922,-0.2033002,0.2905447,-0.09112673,0.2899892,0.02623172
0.608138,-0.1576215,0.3108528,-0.2445486,0.06761331,-0.001657612
0.7702494,-0.1900413,0.3276523,-0.3862394,-0.01667612,-0.05255268
0.887285,-0.2199623,0.3795565,-0.4072005,0.1554055,-0.1381072
0.8971864,-0.207845,0.444214,-0.3621837,0.3310016,-0.2865898
0.9120995,-0.2628992,0.5226375,-0.3068199,0.3168333,-0.4214509
0.9475929,-0.2974249,0.579697,-0.2841206,0.0757364,-0.51018
1.094143,-0.3904222,0.5343039,-0.3464583,-0.4080445,-0.3797861
1.337888,-0.5370532,0.4291068,-0.3983781,-0.661362,-0.1014961
1.440771,-0.5543394,0.3088971,-0.2110261,-0.4288045,0.05823818
1.257565,-0.5064086,0.2400588,-0.02043159,-0.2802211,0.0633003
1.005277,-0.46341,0.2669899,-0.2225886,-0.4728109,-0.07002234
0.9494084,-0.4055432,0.2494354,-0.5113559,-0.6202778,-0.1622856
0.9851607,-0.4216546,0.1927892,-0.6320778,-0.6520143,-0.1364939
0.9963852,-0.5056289,0.1637523,-0.7127615,-0.6446043,-0.1201354
0.9850039,-0.5203996,0.1234027,-0.672717,-0.5756575,-0.08751828
0.977285,-0.532067,0.1331839,-0.505586,-0.6730136,-0.06763526
0.9909971,-0.5672875,0.1353649,-0.2633928,-0.8228285,-0.09639464
0.9637105,-0.5115773,0.1065591,-0.03115123,-0.8040538,-0.1494469
0.9445638,-0.4325847,0.1158417,-0.01898641,-0.7622782,-0.2225629
0.9131822,-0.3610484,0.07118965,-0.1057493,-0.6718166,-0.2637395
0.8240889,-0.2843887,0.03649517,-0.1699848,-0.6209875,-0.2672742
0.7636609,-0.227624,0.05121091,-0.2948162,-0.6260001,-0.2249031
0.7336299,-0.1808679,0.03327395,-0.4067824,-0.4910544,-0.1675328
0.7385043,-0.1859443,0.03661262,-0.5004751,-0.3238614,-0.1460042
0.7260246,-0.2012823,0.03353988,-0.5699652,-0.1913388,-0.1461591
0.698225,-0.2032138,0.02827938,-0.5660569,-0.1716422,-0.160992
0.7309238,-0.2175083,0.04217457,-0.5831827,-0.2245839,-0.1569673
0.7532526,-0.2186924,0.02046953,-0.6036507,-0.1567442,-0.154337
0.8056379,-0.2353034,0.01317417,-0.5918732,-0.07092709,-0.1564929
0.8826001,-0.2425921,0.01569787,-0.5950041,0.004949962,-0.133423
0.9137018,-0.2166731,0.01454213,-0.5945122,0.02644854,-0.1075566
0.9873284,-0.1701318,0.03976985,-0.6202904,0.01605847,-0.0513455
1.073654,-0.1048831,0.07330365,-0.6973091,0.1104488,-0.01173959
1.117446,-0.09590035,0.1052397,-0.7712301,0.09707642,-0.01487126
1.171101,-0.1449828,0.1019586,-0.7883836,0.01872316,0.005978025
1.267053,-0.2006503,0.0917245,-0.698883,0.01188142,0.03282606
1.39103,-0.2847751,0.08714797,-0.5096033,0.009810775,0.06117419
1.517586,-0.3963998,0.02670981,-0.4069428,0.2275041,0.05531678
1.570325,-0.4536232,-0.01496885,-0.6252536,0.4581081,-0.03734791
1.432915,-0.4319426,0.04670655,-0.9636564,0.3150432,-0.1439915
1.278469,-0.4807918,0.1125076,-0.9893232,0.194131,-0.1788475
1.261714,-0.6217124,0.08549658,-0.7496975,0.3622201,-0.1697833
1.228762,-0.6739402,0.0670662,-0.4569502,0.5848534,-0.1801722
1.201069,-0.6243918,0.09823077,-0.1918418,0.8956647,-0.1737059
1.177919,-0.5274648,0.1002303,-0.1857846,1.205239,-0.1719775
1.016608,-0.3501352,0.1511752,-0.4799463,1.186647,-0.1973147
0.8431496,-0.2326003,0.215356,-0.8284283,1.000892,-0.1755618
0.8274844,-0.3129559,0.1752838,-1.011335,0.8943255,-0.1548901
0.8623594,-0.3923421,0.1342554,-0.9791654,0.9111602,-0.1322383
0.8000311,-0.3722088,0.1241907,-0.8906027,1.021794,-0.07931571
0.7276155,-0.4005676,0.1232268,-0.7491965,1.057816,-0.07112568
0.6744997,-0.4174173,0.1554379,-0.5453213,1.084633,-0.09824332
0.6008631,-0.3949983,0.1812411,-0.3940543,1.053086,-0.167286
0.6074826,-0.4040836,0.2103605,-0.2512398,0.9199165,-0.2450115
0.6127754,-0.3488898,0.2348876,-0.1928882,0.8787558,-0.2652611
0.5736404,-0.286614,0.2431262,-0.2096786,0.6850122,-0.2555496
0.6039988,-0.2872923,0.2566585,-0.1708805,0.3990938,-0.221033
0.6529036,-0.2431523,0.2406706,-0.2003454,0.3214278,-0.1871538
0.7126889,-0.1782825,0.2326869,-0.28202,0.2978092,-0.1413698
0.7532582,-0.1773077,0.2475517,-0.3888103,0.3384402,-0.06306668
0.7529917,-0.2047715,0.2481905,-0.5538714,0.3741473,-0.009916864
0.8093994,-0.190108,0.2788599,-0.6242008,0.3206752,0.008734972
0.8332576,-0.1888343,0.3064897,-0.6049401,0.2571902,0.01231747
0.8183352,-0.2121785,0.3207202,-0.5011171,0.1020955,-0.0001207763
0.8952633,-0.1998566,0.3794748,-0.3217997,-0.004391029,-0.101714
0.9958361,-0.2155799,0.4340522,-0.2514958,0.01333224,-0.2646399
1.062602,-0.2267669,0.4700965,-0.2263791,-0.02973576,-0.2915987
1.123791,-0.2401903,0.4937019,-0.1506968,-0.1418901,-0.1538091
1.246579,-0.3689539,0.4749745,-0.1144787,-0.258923,0.03493314
1.443485,-0.5101189,0.4366911,-0.05856437,-0.342991,0.13874
1.482236,-0.5291869,0.3780691,0.02639286,-0.3364218,0.07571664
1.295743,-0.4772382,0.315029,-0.01816451,-0.3192538,-0.00607026
1.058692,-0.4370625,0.2965354,-0.1686528,-0.4100772,0.0001906891
0.8170504,-0.37768,0.2838906,-0.2977329,-0.4956553,0.005848381
0.7361829,-0.3895537,0.2451696,-0.3595761,-0.5783783,0.01119354
0.8407622,-0.5009818,0.2160487,-0.3217019,-0.727072,0.03566639
0.8791163,-0.5182821,0.1929509,-0.2039763,-0.8178983,0.02134847
0.9535459,-0.5378978,0.1656202,0.009725429,-0.8955175,-0.02758204
1.047823,-0.5619765,0.1434724,0.2582164,-0.923435,-0.1379899
0.9907224,-0.4761418,0.1163426,0.3328013,-0.8856931,-0.2750864
0.9703984,-0.4134546,0.08915388,0.3039804,-0.8840466,-0.3370101
0.9387267,-0.3234902,0.06724793,0.270883,-0.7804359,-0.3410685
0.8461544,-0.2575129,0.05030028,0.1569226,-0.6840222,-0.2627224
0.8281213,-0.2538907,0.03591274,0.05697304,-0.6320649,-0.1203803
0.7723338,-0.1932568,0.02127439,-0.01968787,-0.4276191,-0.002488713
0.7086705,-0.1927377,0.02115557,-0.1217037,-0.2398164,0.06038444
0.6729163,-0.1958456,0.03295184,-0.188829,-0.2036985,0.0333409
0.6298912,-0.170374,0.0515352,-0.252869,-0.2557377,-0.008070804
0.6604288,-0.1976744,0.05617822,-0.2826388,-0.2802187,-0.02638568
0.7017307,-0.1919014,0.03445031,-0.2631896,-0.2605955,-0.04706188
0.7585929,-0.1984064,0.02123537,-0.2693682,-0.2573664,-0.01154969
0.8221513,-0.1976254,0.01802522,-0.2738748,-0.1761906,0.04371494
0.8484429,-0.1625875,0.02519784,-0.29117,-0.09906711,0.09635509
0.9610649,-0.153068,0.04613009,-0.3763492,-0.07643579,0.151729
1.101616,-0.1240057,0.069304,-0.4711554,-0.04808421,0.167368
1.194191,-0.1230358,0.1042134,-0.4869465,-0.1052874,0.1789729
1.29047,-0.1653403,0.1207297,-0.4051801,-0.1390607,0.1824721
1.391971,-0.2497081,0.1058128,-0.26666,-0.009183968,0.1713671
1.504671,-0.4195273,0.07996988,-0.1838696,0.2510548,0.1567931
1.515988,-0.5513682,0.05570976,-0.2901649,0.4437336,0.0867777
1.417421,-0.5878292,0.07094392,-0.4620294,0.375037,0.00884169
1.35048,-0.6380655,0.09150801,-0.448301,0.3208236,-0.0218555
1.278691,-0.7271659,0.07061547,-0.2568558,0.4530023,-0.02934053
1.219613,-0.7545066,0.0619679,0.009678852,0.6201772,-0.006607996
1.206801,-0.695592,0.08141505,0.2039546,0.8821184,0.02471052
1.124664,-0.6004419,0.1134197,0.1872285,1.018035,0.0305299
0.990658,-0.4486668,0.169914,0.08346407,0.8096968,0.0199483
0.9160125,-0.3283381,0.1996839,-0.05009287,0.6741773,0.01276005
0.91777,-0.3318459,0.1810718,-0.1853649,0.7223097,0.003942383
0.90137,-0.3389444,0.1732322,-0.1787576,0.7722394,-0.0295293
0.806332,-0.3050809,0.1668055,-0.138486,0.8782202,-0.06180299
0.7072647,-0.280096,0.1503747,-0.1250392,0.9235726,-0.0738847
0.6393822,-0.2490418,0.1597995,-0.06802254,0.9345633,-0.08840991
0.5905915,-0.2284936,0.1763006,-0.03134966,1.000778,-0.08698779
0.5421407,-0.22484,0.1929413,0.00206217,0.9661528,-0.05174721
0.4896575,-0.2110145,0.2256764,0.03432562,0.7991671,-0.004252274
0.4900474,-0.1992026,0.2571047,0.02343232,0.5047589,0.05417427
0.5369613,-0.2138469,0.2727397,0.006108713,0.2604515,0.1172952
0.610148,-0.2533072,0.2803669,-0.02026813,0.1834616,0.1518547
0.6992662,-0.2906509,0.3063616,-0.0489887,0.07649485,0.1410231
0.7622097,-0.3066894,0.3353008,-0.06296109,0.005474003,0.09832659
0.8158128,-0.2993825,0.3473498,-0.06791867,-0.01239074,0.07131897
0.8879889,-0.2905517,0.3813368,-0.02116092,-0.1020746,0.05722224
0.9875473,-0.2972697,0.4312606,0.0784107,-0.1663711,-0.003912535
1.067237,-0.3138346,0.4669282,0.1333231,-0.1878858,-0.08517281
1.100619,-0.358161,0.5023403,0.1407765,-0.1932796,-0.09132378
1.186448,-0.4278886,0.5112142,0.1627956,-0.2663477,0.02299344
1.342291,-0.5187474,0.4374254,0.1905948,-0.4289907,0.1770772
1.458449,-0.5950575,0.3517174,0.3038536,-0.4987761,0.2122115
1.38078,-0.5419376,0.3517456,0.4539832,-0.5129775,0.08328252
1.091236,-0.3880016,0.3326388,0.3911372,-0.5309572,-0.04873795
0.8320458,-0.2857973,0.2621857,0.1536983,-0.5258456,-0.04208396
0.7586438,-0.2994309,0.2548439,-0.09164745,-0.5757547,0.002307444
0.7904114,-0.3611156,0.2355864,-0.2554405,-0.6164631,0.01787927
0.8457357,-0.4223113,0.1716485,-0.2235662,-0.6084893,0.05567036
0.9664855,-0.5589486,0.1439089,-0.08454209,-0.6510425,0.04733057
1.052632,-0.6279524,0.1286228,0.1032615,-0.7355523,-0.01609064
0.9771405,-0.5425482,0.1396522,0.334551,-0.7799809,-0.08225627
0.9373884,-0.5230525,0.1487184,0.4394689,-0.8065591,-0.1715073
0.9090315,-0.476972,0.1331882,0.5154719,-0.8831188,-0.2473299
0.8238508,-0.3783705,0.1459601,0.6184108,-0.8985057,-0.2742818
0.8397893,-0.3728935,0.1166196,0.6295326,-0.8132968,-0.2416821
0.8037672,-0.3191218,0.0592466,0.6666276,-0.7586531,-0.1944523
0.7381759,-0.2774428,0.03915826,0.6523471,-0.7032529,-0.2184915
0.7369835,-0.2522761,0.0242537,0.5073369,-0.6289255,-0.2514323
0.678227,-0.145969,0.02823974,0.3355677,-0.6070279,-0.2564276
0.680207,-0.1279865,0.02564486,0.1564125,-0.5991773,-0.2461627
0.7347752,-0.1534316,0.01852257,0.09178303,-0.5571986,-0.1849104
0.8011744,-0.1924236,0.02074971,0.1064062,-0.4914272,-0.1559928
0.9193335,-0.2870679,0.00297249,0.1732951,-0.3882909,-0.1631848
0.9838551,-0.3052749,0.008998216,0.319855,-0.1860044,-0.1254448
1.010948,-0.2712274,0.0176127,0.3321054,-0.02833547,-0.08226229
1.017605,-0.2279828,0.01970533,0.2530981,-0.08949388,-0.03330619
1.036919,-0.1835727,0.04069871,0.1772604,-0.1511411,0.03704067
1.093433,-0.1824336,0.03179267,0.0918459,-0.1435537,0.09451337
1.128091,-0.2096676,0.02340461,0.1112146,-0.2026796,0.1039011
1.209247,-0.2313253,0.03534831,0.1647507,-0.182692,0.08401779
1.300503,-0.2171785,0.0436447,0.2163295,-0.1007504,0.08760439
1.328183,-0.2140691,0.06968266,0.3104219,-0.06915506,0.06485628
1.339321,-0.2356229,0.08765004,0.3424587,-0.0307141,-0.01038834
1.314939,-0.2890318,0.09383704,0.2765572,-0.06971253,-0.1072192
1.241445,-0.4076881,0.1419024,0.141022,-0.1725549,-0.1643086
1.150124,-0.4848216,0.19319,0.02834706,-0.2313512,-0.09321335
1.124237,-0.5344957,0.168261,0.08718864,-0.1816615,-6.693634e-05
1.183747,-0.6829345,0.1241817,0.2787105,0.04944049,0.01453321
1.214425,-0.7779429,0.1204101,0.4471917,0.3501101,0.008921626
1.203838,-0.668887,0.1212742,0.5109154,0.6128455,-0.0114059
1.155719,-0.5488259,0.1511458,0.4528302,0.6816598,-0.0213536
1.040287,-0.4992381,0.1923487,0.3764374,0.5400833,0.00676568
0.9465743,-0.4107623,0.1851481,0.3477679,0.4780885,0.04555585
0.9055687,-0.3689651,0.1734708,0.3430138,0.4593753,0.09251495
0.8665809,-0.3727606,0.1520719,0.4272133,0.4726262,0.1504227
0.8198042,-0.3543302,0.09486441,0.5490462,0.5516427,0.2144947
0.7534579,-0.3652252,0.06740993,0.7125329,0.5014663,0.2192266
0.7003068,-0.3526051,0.09412641,0.9773844,0.5018577,0.1474313
0.6939611,-0.3303547,0.1240281,1.159498,0.6156603,0.08497066
0.6885919,-0.3128159,0.1387491,1.236873,0.6462894,0.05922141
0.6532884,-0.2473584,0.164944,1.289731,0.5470287,0.1008059
0.6258996,-0.1960518,0.1904044,1.312783,0.2827778,0.1818885
0.645635,-0.162983,0.2152638,1.303003,0.06910766,0.2046997
0.6829093,-0.1512352,0.253664,1.247506,0.005301993,0.2009979
0.7212881,-0.1602625,0.277333,1.202583,-0.05080951,0.2212029
0.7686431,-0.1498724,0.3012504,1.060502,-0.09370618,0.2828889
0.7850745,-0.1646953,0.3261332,0.8486525,-0.1596451,0.3546571
0.7905604,-0.1953501,0.3380623,0.7848603,-0.2604307,0.35839
0.8207497,-0.2343089,0.3550718,0.8040749,-0.3612229,0.3175992
0.8475639,-0.2774076,0.3595525,0.8697922,-0.4133126,0.2266754
0.873539,-0.2734643,0.3881356,1.004528,-0.4390255,0.07941649
0.9143332,-0.2622492,0.4583012,1.123254,-0.5255773,-0.006951609
0.9903612,-0.2645133,0.4973724,1.140061,-0.5282363,0.02522577
1.094056,-0.2712293,0.497395,1.095399,-0.4890332,0.1820844
1.25553,-0.3062449,0.4857991,1.110672,-0.5578983,0.4482011
1.498429,-0.3414782,0.4709481,1.101366,-0.5899034,0.6180205
1.54183,-0.3440752,0.4463847,1.021883,-0.58062,0.5587579
1.318247,-0.3607336,0.4035053,0.8932609,-0.5674548,0.4983526
1.146866,-0.4073919,0.3627183,0.7390613,-0.5407084,0.5185958
1.032646,-0.4001175,0.3439154,0.709113,-0.5930292,0.4892127
0.9540023,-0.3877766,0.3222111,0.7254031,-0.6531718,0.4590005
0.9256124,-0.4537117,0.2449867,0.7025875,-0.6827852,0.3749745
0.8791959,-0.5146332,0.1676508,0.7230122,-0.8031963,0.2225584
0.9424438,-0.5445082,0.1421044,0.7608618,-0.9783106,0.1408948
0.9642531,-0.5301506,0.1206659,0.8297825,-1.03496,0.08773323
0.9190471,-0.4589577,0.1096861,0.8982763,-0.983011,0.04680807
0.9803974,-0.4022782,0.08499626,0.9030233,-0.9848126,0.01841603
0.9369638,-0.3604536,0.06368293,0.9073811,-1.004212,-0.005832479
0.8528635,-0.3161803,0.06292394,0.9020183,-1.003584,0.01113375
0.7997944,-0.2515189,0.002149226,0.8349654,-1.020383,0.02372041
0.7411097,-0.2177333,-0.02183622,0.6907443,-0.8827617,0.06282424
0.771264,-0.2380057,-0.01097147,0.4794045,-0.5637558,0.102126
0.7129817,-0.1937796,-0.05701472,0.3148211,-0.2148564,0.104704
0.684236,-0.1876393,-0.03493219,0.2790957,0.1519179,0.1306358
0.7271103,-0.2454687,0.02917637,0.3330943,0.1947903,0.08936883
0.6797397,-0.2495295,0.06229134,0.4925947,-0.6237459,-0.0762324
0.7823378,-0.2774584,0.05785866,0.6445557,-1.371192,-0.2280451
1.018127,-0.218551,-0.03610717,0.4487923,-0.5587911,-0.1499568
1.197954,-0.1053716,-0.09060996,0.119308,0.4329351,0.02283979
1.151541,-0.128441,-0.0241052,0.08258715,0.07934156,0.02483993
1.002433,-0.120372,0.04492575,-0.02001846,-0.05130439,0.06932748
1.096653,-0.09174229,0.04346556,-0.2642125,0.2407483,0.1342076
1.117987,-0.138381,0.04097694,-0.2766612,-0.01383375,0.09493048
1.077171,-0.1789082,0.08899653,-0.2435206,-0.06468471,0.1377889
1.20715,-0.2461565,0.0965371,-0.1941803,-0.08449344,0.1310356
1.269962,-0.2930186,0.07270573,-0.03387154,-0.1804697,0.1103966
1.417691,-0.3257842,0.06588129,0.06181834,0.1158802,0.1501809
1.541297,-0.4449521,0.05385671,0.08249992,0.212749,0.04535827
1.467828,-0.5411464,0.07229357,-0.02569168,0.230996,-0.05537244
1.421664,-0.5644342,0.1190385,-0.1386235,0.1903759,-0.06931142
1.284225,-0.6264556,0.1684026,-0.04664348,0.01011202,-0.02777198
1.165679,-0.7100563,0.1591328,0.1272019,0.2420862,0.06528256
1.152258,-0.7033557,0.1212573,0.3184988,0.5304429,0.06810996
1.080882,-0.6035382,0.1602012,0.3933659,0.7662133,0.02681884
1.025344,-0.459887,0.173526,0.1963722,0.9060972,-0.03285244
0.9408456,-0.3163294,0.1602225,-0.09826999,0.742191,-0.0760986
0.9144191,-0.2755293,0.171994,-0.3193284,0.776912,-0.07391003
0.9467034,-0.3221136,0.1451218,-0.3978189,0.869188,-0.1158712
0.8701292,-0.3437433,0.1517741,-0.3452413,0.9147988,-0.1019945
0.8058111,-0.3615346,0.1671765,-0.2855,1.071698,-0.04928053
0.726189,-0.3720324,0.154206,-0.1646313,1.082346,-0.008993053
0.6330574,-0.3384048,0.1757037,0.01655478,1.101172,0.04585246
0.586755,-0.2980972,0.1866924,0.08711787,1.144086,0.02563769
0.4921319,-0.2295618,0.2062264,0.1434942,1.069759,0.0250006
0.4519666,-0.1558639,0.2380362,0.1658254,0.8693363,0.07852174
0.4849863,-0.1429797,0.2461133,0.04460203,0.5077425,0.08854476
0.532157,-0.1560865,0.2668244,-0.0424732,0.2742421,0.08719891
0.6544076,-0.1807221,0.2913713,-0.1319748,0.2005648,0.06823263
0.7872989,-0.2085946,0.3188628,-0.2231885,0.142149,0.03642694
0.8660295,-0.2077244,0.3414536,-0.2076166,0.1597579,-0.0105906
0.9228702,-0.2063404,0.3821614,-0.2081542,0.107827,-0.08421252
0.9971592,-0.2453166,0.4864577,-0.173191,0.007643349,-0.1485529
1.075687,-0.3261301,0.582481,-0.05990694,0.0117325,-0.2147005
1.127174,-0.3969548,0.5953944,0.08812007,-0.1109132,-0.196044
1.213815,-0.4480861,0.4790235,0.2225433,-0.4301068,-0.005724599
1.381313,-0.5110808,0.3491209,0.209246,-0.5996305,0.223507
1.463548,-0.5099506,0.374949,0.2087198,-0.5187154,0.2658691
1.262839,-0.4320245,0.3435087,0.2296603,-0.4266112,0.09458049
0.9840966,-0.3560527,0.1972009,0.02126776,-0.4376113,-0.06872446
0.9145522,-0.279457,0.2187634,-0.2959834,-0.450018,-0.1579013
0.9524506,-0.301689,0.2624539,-0.5458241,-0.4483076,-0.2068222
0.9524364,-0.4325538,0.1940531,-0.6555319,-0.5390586,-0.1863014
0.9410655,-0.4909245,0.1996586,-0.5901811,-0.6530614,-0.167715
0.9920613,-0.5325297,0.1823418,-0.4025347,-0.6865325,-0.1431846
1.04587,-0.5880178,0.1105191,-0.08360263,-0.6749243,-0.1430997
1.00606,-0.5562059,0.1046464,0.1732305,-0.6607967,-0.215156
0.949138,-0.4698525,0.09773241,0.1829527,-0.6436528,-0.2563838
0.8739816,-0.3520475,0.08637471,0.120745,-0.5927097,-0.2673737
0.7926451,-0.2858523,0.0687465,0.04725411,-0.5723935,-0.1861895
0.7595782,-0.2706869,0.03997965,-0.06146383,-0.5683822,-0.03765796
0.7015114,-0.2186604,0.03510226,-0.1289322,-0.4716286,0.01229129
0.6805756,-0.205911,0.02094651,-0.2281159,-0.3190438,0.04194084
0.6987039,-0.2148265,0.01872589,-0.3561887,-0.1596922,0.05322523
0.6797351,-0.2038867,0.02498829,-0.386889,-0.1176908,0.004755833
0.7041707,-0.2205688,0.03011937,-0.3835194,-0.1663847,-0.02230955
0.7406329,-0.244511,0.03487731,-0.404065,-0.1301554,-0.03414239
0.7736465,-0.2580808,0.02102381,-0.3601624,-0.1295072,-0.04587747
0.8554067,-0.2472805,0.02837786,-0.2995725,-0.1372734,-0.06378107
0.9335246,-0.2105929,0.02955187,-0.3217437,-0.06153623,-0.01874826
1.001295,-0.1685159,0.0293653,-0.3626681,-0.01607669,0.1049488
1.038847,-0.1271832,0.05285271,-0.4229406,0.01512417,0.1902676
1.061857,-0.1159847,0.05996043,-0.5351131,-0.02981005,0.2145931
1.147238,-0.1532513,0.07585829,-0.5968235,-0.1160094,0.170558
1.264103,-0.2164672,0.08601876,-0.5734165,-0.1122151,0.1117422
1.386317,-0.3136378,0.0810374,-0.472377,-0.07235301,0.1072073
1.459655,-0.4448823,0.07095627,-0.3684934,0.08787744,0.09874819
1.43418,-0.5224788,0.04707954,-0.4636383,0.3066634,0.05546902
1.393171,-0.5351935,0.06699701,-0.649521,0.3591567,-0.0303452
1.355222,-0.5754198,0.08991353,-0.6633145,0.354524,-0.09035679
1.281067,-0.659007,0.06946397,-0.539365,0.4407785,-0.07407486
1.201895,-0.7336036,0.05934126,-0.3318044,0.5894253,-0.06503005
1.17239,-0.7147171,0.06076942,-0.1284103,0.8002466,-0.05470105
1.125457,-0.586961,0.103066,-0.08403527,1.016389,-0.03947449
0.9685627,-0.4631862,0.183686,-0.1469323,1.033666,-0.048491
0.8852404,-0.4096119,0.203985,-0.2404281,0.834344,-0.03454797
0.91744,-0.4079254,0.1778629,-0.3037068,0.6867283,-0.02582916
0.8651097,-0.3941648,0.1753071,-0.288847,0.7458707,-0.0496991
0.8391683,-0.3664299,0.1681463,-0.2317037,0.8391144,-0.06781039
0.8543782,-0.3783146,0.1434193,-0.1217956,0.8630411,-0.06740844
0.7674936,-0.348719,0.1300051,0.008815396,0.9771765,-0.07745789
0.7265428,-0.3025419,0.1267005,0.09633401,1.081307,-0.123212
0.7203133,-0.301729,0.1412082,0.1346626,1.071343,-0.1442442
0.6270895,-0.2558998,0.1827393,0.1735364,1.02998,-0.1063123
0.53775,-0.2261322,0.2387767,0.2500081,0.8155986,-0.06162215
0.5176658,-0.229479,0.2643101,0.3095362,0.5128972,-0.04822655
0.5692222,-0.2257456,0.2537458,0.3386331,0.2834876,-0.05404179
0.6186519,-0.2481659,0.2737306,0.3374911,0.1249882,-0.01668942
0.6543206,-0.2475781,0.2904444,0.3300442,0.09481212,0.06959298
0.7297023,-0.264726,0.2938707,0.3604975,0.02732808,0.1256377
0.7780059,-0.2838687,0.3352893,0.4050556,-0.1202758,0.1147263
0.7898897,-0.2593418,0.3367602,0.4852136,-0.3047431,0.08600056
0.8106668,-0.2378778,0.3236987,0.5497872,-0.5646012,0.04554605
0.88026,-0.1823498,0.3465157,0.5281956,-0.7436859,-0.04808745
0.9744679,-0.1477124,0.3425748,0.4535228,-0.7990055,-0.07824549
1.05495,-0.1873034,0.3713159,0.3510445,-0.6682228,0.05049793
1.178856,-0.3140606,0.4234918,0.3793168,-0.424971,0.2768248
1.280084,-0.5251717,0.4381714,0.6886893,-0.3779642,0.5209208
1.35666,-0.6307659,0.4477538,1.081431,-0.5442785,0.5608358
1.397386,-0.5895969,0.406347,1.170458,-0.7779159,0.3592303
1.281405,-0.5386015,0.3545941,0.96666,-0.837577,0.263118
1.13957,-0.4712883,0.3622831,0.8323437,-0.7225947,0.3705187
1.00653,-0.4031263,0.3378338,0.7047229,-0.6481728,0.4436142
0.8616356,-0.4304403,0.2731382,0.4975231,-0.5817606,0.3704285
0.804198,-0.4682443,0.2318438,0.4718005,-0.6599341,0.2592937
0.8006988,-0.4605211,0.1973027,0.5316293,-0.8915665,0.168474
0.8819822,-0.4979068,0.1673489,0.5744352,-1.017679,0.08709712
0.9694385,-0.4964087,0.1443745,0.7132118,-1.038428,0.08859939
0.937878,-0.4534273,0.1182616,0.8307531,-1.007022,0.1071367
0.8871053,-0.4468399,0.1263516,0.9179998,-1.012135,0.09326449
0.8477171,-0.4115678,0.1389195,1.036743,-1.045837,0.1050702
0.8161932,-0.3941183,0.1048053,1.114656,-1.035217,0.07717602
0.8109791,-0.374599,0.07284535,1.172161,-1.070433,0.04194993
0.8096567,-0.3291025,0.04389539,1.238825,-1.056871,-0.006951307
0.8040262,-0.3277566,0.01370806,1.284266,-0.9503914,-0.1143497
0.7826394,-0.2863263,0.006437268,1.263591,-0.8643461,-0.1753511
0.769085,-0.2317144,-0.0008306295,1.187151,-0.802606,-0.2071972
0.7979103,-0.2263319,-0.001053928,1.102845,-0.7254782,-0.2284262
0.8589845,-0.2173036,-0.01973634,1.019121,-0.5519732,-0.2269766
0.9019902,-0.2271133,-0.04584805,0.9992192,-0.4272765,-0.2199445
0.9268355,-0.242332,-0.02242998,1.018402,-0.4295249,-0.1675596
0.9602213,-0.2418359,-0.002895014,0.9897662,-0.3611344,-0.1184439
0.9656603,-0.2337519,0.006387196,0.9570658,-0.2919315,-0.1062345
0.9541397,-0.2034008,0.0326967,0.8938728,-0.2769316,-0.08405323
0.9617873,-0.1633395,0.03351417,0.7715524,-0.2535337,-0.03654191
0.985522,-0.1298778,0.018962,0.6418789,-0.2284837,-0.0003752217
1.018039,-0.1154274,0.02276974,0.5049589,-0.1497711,0.03709012
1.031571,-0.1042273,0.03755545,0.3909708,-0.1016696,0.1215231
1.027896,-0.09997872,0.05036699,0.3074277,-0.07785473,0.1663174
1.031019,-0.1160452,0.05803543,0.2629238,-0.02147699,0.1580819
1.040151,-0.1202016,0.06325457,0.2485264,-0.04145584,0.1682266
1.067068,-0.1224127,0.07305992,0.1889319,-0.08655544,0.2056054
1.134133,-0.15268,0.07553536,0.1602656,-0.1179178,0.2825761
1.239969,-0.2222177,0.07545221,0.22399,-0.146604,0.3201378
1.346945,-0.28281,0.108363,0.2365825,-0.134147,0.2826294
1.405806,-0.2863413,0.1417063,0.03186503,-0.1390737,0.2380151
1.446313,-0.3529512,0.1467985,-0.2898806,-0.1000099,0.2285025
1.527871,-0.5271421,0.1654501,-0.4221926,0.08211432,0.3259044
1.552508,-0.6397282,0.1903514,-0.3983552,0.3072733,0.4376223
1.418868,-0.6758908,0.1845479,-0.3834189,0.451376,0.3731026
1.237005,-0.7440772,0.1804211,-0.2957194,0.5727117,0.2528583
1.1214,-0.7374599,0.1931356,-0.1428295,0.7330589,0.2024032
1.048411,-0.6218306,0.1659197,-0.03790649,0.7908719,0.1246047
0.9643017,-0.5570723,0.1295171,-0.04871275,0.7215068,0.08731295
0.8832432,-0.4864445,0.1245132,-0.08851829,0.6344501,0.08599715
0.8566166,-0.3927218,0.1015386,-0.02893966,0.6045213,0.0007416558
0.8404658,-0.3638677,0.09300648,0.002278272,0.6958647,-0.05430047
0.7832085,-0.3125445,0.1117927,-0.02198355,0.8347216,-0.1070603
0.7138815,-0.2988848,0.1147372,0.001874261,0.98418,-0.2044836
0.6323962,-0.3263818,0.1349257,0.04236271,1.060303,-0.2473472
0.582228,-0.2975204,0.1649211,0.1351394,0.9816546,-0.2937197
0.6141658,-0.3117119,0.1853412,0.2383413,0.9414632,-0.317004
0.6464095,-0.3144936,0.2199424,0.2949997,0.8965467,-0.283388
0.65963,-0.2799695,0.2472789,0.3357141,0.7271678,-0.2288623
0.6972374,-0.2635858,0.2600418,0.2687109,0.5846947,-0.1528663
0.7183712,-0.2135443,0.2784561,0.1235361,0.4777507,-0.1388442
0.7407193,-0.2081793,0.2936837,-0.03846875,0.3609514,-0.1309804
0.7855286,-0.2241587,0.3049819,-0.2200966,0.2660849,-0.0618378
0.81264,-0.2230584,0.3226308,-0.3296513,0.2192402,-0.01156333
0.8305576,-0.2590046,0.3426286,-0.3596862,0.2201285,0.009389602
0.8234265,-0.2514854,0.3619536,-0.28691,0.1748534,-0.002918259
0.8123755,-0.209279,0.3807944,-0.1603202,0.05208673,-0.05364003
0.8533404,-0.1762042,0.4068855,-0.1189535,-0.04768525,-0.136381
0.933969,-0.1648427,0.4526058,-0.1172553,-0.06193095,-0.2254196
1.080064,-0.2120787,0.5028476,-0.1792075,-0.06097906,-0.2318751
1.272672,-0.3090458,0.5186124,-0.3209842,-0.1493335,-0.1424251
1.458609,-0.4767456,0.4968524,-0.3964327,-0.2766235,-0.01277488
1.562395,-0.5815953,0.4756157,-0.3427875,-0.2913016,0.07160421
1.420467,-0.510808,0.4337038,-0.1873675,-0.2494743,0.03327149
1.120248,-0.4276084,0.341933,-0.08976235,-0.2795856,-0.0305323
0.8690102,-0.359528,0.2759328,-0.2244765,-0.3148518,-0.03465914
0.720136,-0.2985835,0.2524304,-0.5041957,-0.34518,-0.04735304
0.7230368,-0.3464679,0.21357,-0.689714,-0.3757866,-0.0678864
0.7713494,-0.3974434,0.1944779,-0.6978271,-0.3729583,-0.09218736
0.8210293,-0.4541183,0.1901671,-0.5735129,-0.4462351,-0.1154819
0.9430063,-0.5770768,0.1591273,-0.340824,-0.5714204,-0.1106238
0.9565886,-0.5513184,0.1542629,-0.1064223,-0.6304271,-0.1540832
0.8820225,-0.4460181,0.1535309,0.05286716,-0.6467286,-0.2166591
0.8600367,-0.4242369,0.1113652,0.1160818,-0.6527511,-0.2588685
0.7961254,-0.3551339,0.0949246,0.1088157,-0.6759105,-0.2840017
0.762534,-0.2937879,0.1047625,0.1305601,-0.6836305,-0.2072591
0.7811144,-0.2646696,0.08964856,0.08044985,-0.5839525,-0.1132155
0.7684824,-0.2255303,0.06310284,-0.05912271,-0.3908292,-0.08316224
0.7804511,-0.2312992,0.03559144,-0.1849213,-0.210004,-0.08302829
0.7563301,-0.1735922,0.01806223,-0.3488456,-0.1279599,-0.1027041
0.7184633,-0.1383349,0.03145543,-0.4627646,-0.1412725,-0.1018067
0.7676807,-0.1958523,0.05621605,-0.507131,-0.1387612,-0.1192433
0.8276613,-0.2081128,0.06754775,-0.5692984,-0.03713593,-0.1346644
0.8800603,-0.2370897,0.06932249,-0.5929093,0.07774699,-0.1086913
0.9336514,-0.2388766,0.06253937,-0.6172136,0.1591964,-0.09511717
0.9643363,-0.1905501,0.05741815,-0.6859201,0.2442937,-0.0474836
0.9833262,-0.1726833,0.06809426,-0.7764103,0.2724253,0.02920379
0.9800893,-0.1358111,0.08046585,-0.8749271,0.2108684,0.08573834
0.9938639,-0.153563,0.09371504,-0.9169816,0.1128606,0.1241357
1.051352,-0.2062901,0.1137121,-0.8916527,0.06571121,0.1218452
1.152344,-0.2454429,0.1287372,-0.8335704,0.06621013,0.09638258
1.325777,-0.3145741,0.1307147,-0.7417971,0.1135002,0.06562685
1.459538,-0.3291418,0.1216719,-0.6293722,0.2662454,0.02562594
1.445427,-0.3342897,0.1229574,-0.6262327,0.3219295,-0.05619749
1.403509,-0.3609332,0.1347515,-0.8140885,0.2197752,-0.1801812
1.411337,-0.4023951,0.1284844,-1.006374,0.123382,-0.2204195
1.394034,-0.5488312,0.08019191,-1.005885,0.07403798,-0.1048913
1.315761,-0.6599261,0.02525217,-0.7961412,0.2677163,0.04049814
1.179901,-0.6457696,0.05642147,-0.5007402,0.6459521,0.04662883
1.063498,-0.606217,0.1353056,-0.2955946,0.9279024,-0.06549595
1.032132,-0.5270835,0.1744625,-0.2572158,1.141184,-0.1942497
0.9903108,-0.407372,0.1918075,-0.3694609,1.190498,-0.2995767
0.9519648,-0.3098272,0.1813206,-0.5535672,1.037408,-0.3160892
0.9810549,-0.2824065,0.1689871,-0.7458277,0.9473506,-0.2455739
0.9709151,-0.3018788,0.1733916,-0.8542881,0.9715905,-0.1706218
0.8986881,-0.3005111,0.1519581,-0.8184369,1.022779,-0.136388
0.805408,-0.3024965,0.1411643,-0.8018731,1.076859,-0.1180981
0.7309443,-0.3128637,0.1454685,-0.7999945,1.071717,-0.09180524
0.7050758,-0.2999426,0.1628731,-0.6902331,1.038023,-0.1094884
0.6519454,-0.2883688,0.1988235,-0.6042915,1.040422,-0.1477085
0.6342055,-0.2799644,0.1938254,-0.5834643,1.033519,-0.1567915
0.6563621,-0.2660873,0.1946038,-0.5723747,0.9893213,-0.1337725
0.5841378,-0.2483896,0.2292715,-0.5701739,0.8609362,-0.06753911
0.5567409,-0.2360983,0.2444677,-0.5459632,0.6468583,-0.02726853
0.6143063,-0.2462796,0.2590784,-0.5313754,0.4971365,0.003129382
0.6618517,-0.2547479,0.292865,-0.5349093,0.4521217,0.04344483
0.7505526,-0.2555155,0.3248693,-0.5269041,0.4176782,0.01910382
0.7812627,-0.2528055,0.3180097,-0.5021574,0.3563881,-0.001243106
0.792497,-0.2245696,0.3168964,-0.4416634,0.2838201,-0.0319121
0.8776459,-0.197977,0.3700429,-0.3673596,0.1820144,-0.1167347
0.9029361,-0.2004978,0.4311023,-0.315339,0.04737459,-0.143858
0.9723313,-0.2227684,0.4954411,-0.3079989,-0.0315728,-0.1032086
1.118317,-0.2643903,0.5260329,-0.3159153,-0.1133499,-0.01329378
1.228627,-0.3469122,0.5052675,-0.2859345,-0.2887001,0.1105285
1.374144,-0.4976954,0.4592974,-0.2230669,-0.3480838,0.2016788
1.456924,-0.6283082,0.3779341,-0.08860386,-0.2330557,0.2157632
1.392024,-0.6094192,0.3686951,0.03169925,-0.1986291,0.1238278
1.190721,-0.4760262,0.3937885,-0.08888821,-0.3219571,0.01709829
0.8875245,-0.3333729,0.3277119,-0.3450015,-0.4860407,-0.007412879
0.7413164,-0.2809502,0.2732582,-0.5194577,-0.5758274,-0.01763023
0.7874168,-0.3521605,0.2176078,-0.6480406,-0.5770121,-0.07104562
0.8490312,-0.4313619,0.1571458,-0.6730381,-0.5956093,-0.1156569
0.9272498,-0.4809829,0.1674082,-0.5376237,-0.6563818,-0.1409247
0.9758858,-0.5072068,0.1475244,-0.3746453,-0.6827634,-0.1773239
0.9350217,-0.4398596,0.1173697,-0.2578541,-0.668084,-0.2105198
0.8776935,-0.3586728,0.108567,-0.2513014,-0.6657191,-0.2642968
0.797796,-0.3187663,0.07845653,-0.3139543,-0.6778952,-0.3019765
0.6988133,-0.2778456,0.07143273,-0.3306562,-0.6946404,-0.2680677
0.6896253,-0.2709421,0.04135482,-0.3528977,-0.7059202,-0.2189786
0.7058968,-0.2513533,0.01109602,-0.3952677,-0.6097208,-0.1428076
0.6896216,-0.2091614,0.02782554,-0.4694489,-0.3971728,-0.06438396
0.7045729,-0.1912104,0.02519811,-0.5862239,-0.2363372,-0.02465422
0.7191742,-0.183137,0.02523205,-0.6732972,-0.1905869,0.03957074
0.7647791,-0.2162062,0.02338599,-0.7218878,-0.1726807,0.08004845
0.8431272,-0.248592,0.008823547,-0.7149186,-0.1295497,0.07025812
0.9136698,-0.2597874,0.01690072,-0.702444,-0.08780057,0.04830711
1.001977,-0.2760816,0.01750405,-0.7109287,-0.03762506,0.009303613
1.026565,-0.2419934,0.01763787,-0.6997364,0.02176334,0.01971686
1.017274,-0.2044343,0.02741235,-0.7448344,0.0042611,0.07878412
1.062276,-0.2003904,0.03252546,-0.8196472,-0.03469317,0.1307092
1.115534,-0.182901,0.04002923,-0.8692297,-0.01571007,0.1789788
1.193,-0.1842797,0.03361065,-0.8617365,-0.01588916,0.2044395
1.277501,-0.2346646,0.0231633,-0.7219726,0.0117169,0.2173061
1.348669,-0.3206334,0.02891985,-0.5213816,0.1502864,0.2121247
1.448838,-0.4426677,0.03161983,-0.4021702,0.3476688,0.1662547
1.477261,-0.5492681,0.03515113,-0.5172767,0.4556235,0.08738757
1.353777,-0.5570324,0.07159299,-0.780757,0.3566316,-0.03283271
1.225672,-0.5682643,0.1175729,-0.8781823,0.2765857,-0.1151493
1.226655,-0.6802125,0.1152249,-0.663499,0.3819799,-0.1150431
1.248806,-0.7534145,0.08090797,-0.2774728,0.5919198,-0.09236121
1.208656,-0.7283813,0.06999229,-0.1341187,0.9500563,-0.05585062
1.171782,-0.6509468,0.09068943,-0.2266745,1.207627,-0.04132632
1.066628,-0.5392686,0.1236456,-0.2718429,1.135412,-0.05319408
0.9119507,-0.4426014,0.1549406,-0.3759111,0.9533124,-0.05988776
0.8701115,-0.3931999,0.1748868,-0.4092838,0.7898639,-0.0977022
0.8677101,-0.3934295,0.1688481,-0.3144202,0.8568645,-0.1438855
0.8259388,-0.3861342,0.143814,-0.2952035,1.094511,-0.1606773
0.7479976,-0.3547088,0.1275778,-0.2182988,1.154252,-0.1642052
0.6397911,-0.3402499,0.1201625,-0.08072326,1.242157,-0.1796098
0.5843452,-0.3188155,0.1305063,0.0425853,1.343763,-0.2077005
0.5506101,-0.2910613,0.1720444,0.1516731,1.288739,-0.2089024
0.5150232,-0.2500101,0.2157719,0.1549803,1.211102,-0.1944548
0.5104902,-0.1966098,0.2488143,0.08405443,0.9452559,-0.1688547
0.5095794,-0.1677823,0.2703661,-0.04916648,0.5742475,-0.1131969
0.5601727,-0.1606266,0.2840224,-0.1987173,0.3076238,-0.07455283
0.6726992,-0.2054306,0.308203,-0.2814668,0.1270442,-0.04756411
0.7891511,-0.2751914,0.3331979,-0.301856,0.1074354,-0.003886279
0.8645621,-0.2942716,0.3571034,-0.2682465,0.119265,-5.577908e-05
0.8693165,-0.2696998,0.3841842,-0.2343978,0.1070035,-0.0374992
0.8531767,-0.2331757,0.4050749,-0.1843211,0.07363288,-0.06790148
0.8553881,-0.2108929,0.4250759,-0.1235715,-0.03594715,-0.1112859
0.891996,-0.203647,0.466003,-0.1030701,-0.1143193,-0.1425295
0.988893,-0.2305835,0.5205226,-0.09990254,-0.1748122,-0.1139295
1.151322,-0.3424457,0.5240284,-0.1512788,-0.2223179,-0.03871745
1.342196,-0.5146482,0.4735344,-0.1735715,-0.3065732,0.09582537
1.43852,-0.610456,0.4207476,-0.01101962,-0.4060338,0.1893058
1.389754,-0.5677782,0.391018,0.1943019,-0.381429,0.1315877
1.272662,-0.5017597,0.397311,0.1978315,-0.4306083,0.03908386
1.136682,-0.4439213,0.3825545,0.04008216,-0.5434342,-0.01432579
0.9738904,-0.3845098,0.2988856,-0.1260377,-0.525831,-0.01759063
0.810802,-0.3603169,0.1989695,-0.3017558,-0.5225332,0.01574603
0.8001637,-0.3557223,0.171815,-0.4144325,-0.5694354,-0.02126086
0.9126157,-0.4124335,0.1929783,-0.4026104,-0.6026512,-0.07813255
0.9488863,-0.4809666,0.1570713,-0.354372,-0.6821965,-0.1346018
1.000424,-0.4935043,0.1404429,-0.2824783,-0.7344992,-0.2371035
1.014612,-0.4728249,0.1550119,-0.2322559,-0.7096808,-0.2661926
0.873944,-0.3864449,0.0947458,-0.2126809,-0.7241193,-0.2515808
0.8320339,-0.3335276,0.06559914,-0.1949248,-0.7260341,-0.252524
0.8082961,-0.3230807,0.07239168,-0.2311506,-0.6791368,-0.2245917
0.6934078,-0.262963,0.03396093,-0.2487596,-0.6709194,-0.2187561
0.6636924,-0.2375809,0.01856443,-0.2647947,-0.6332627,-0.2063615
0.6537606,-0.227272,0.01294294,-0.3560079,-0.5378332,-0.1784639
0.6643912,-0.196297,-0.002856325,-0.4553802,-0.3744359,-0.1620342
0.684154,-0.1922938,0.001451524,-0.5402265,-0.2124889,-0.1096309
0.6989759,-0.2063969,0.01736391,-0.5706178,-0.2036388,-0.06217631
0.7901529,-0.2275296,0.02560418,-0.547818,-0.1901002,-0.052862
0.9093706,-0.2626707,0.01310123,-0.5019742,-0.09118877,-0.07043623
1.076452,-0.3046635,0.005851735,-0.4371842,-0.007089965,-0.09213321
1.12569,-0.2802734,0.006351239,-0.4230673,0.1051009,-0.08922663
1.052269,-0.2332089,0.01006912,-0.4248735,0.1807462,-0.07020883
1.084084,-0.2135387,0.02604227,-0.4371558,0.1340536,-0.0123883
1.070372,-0.1475493,0.04303312,-0.5286026,0.07639278,0.06525231
1.050642,-0.1222713,0.05122549,-0.6418392,0.07266253,0.1121966
1.107717,-0.1841398,0.04047986,-0.7049154,0.03974714,0.1334092
1.132238,-0.2619565,0.03126815,-0.6754692,-0.007875866,0.1501577
1.226621,-0.340703,0.02316697,-0.512301,0.01801151,0.1668512
1.337639,-0.3799421,0.01696418,-0.2415414,0.1410823,0.1583004
1.406799,-0.4033091,0.04001458,-0.1058281,0.3614715,0.1016672
1.443845,-0.419652,0.06952097,-0.2582065,0.4232558,-0.01030351
1.379732,-0.3942591,0.09288167,-0.4398146,0.1268531,-0.08379366
1.353394,-0.4166196,0.09083851,-0.4839551,-0.09046659,-0.0403065
1.343557,-0.5334891,0.06900613,-0.3540812,0.1615698,0.0123271
1.231196,-0.6358974,0.06789419,-0.07950221,0.5279083,0.03051461
1.153829,-0.6084251,0.0775458,0.02800448,0.6846668,0.02543791
1.121189,-0.5205883,0.1244056,-0.02726069,0.8607681,-0.03801481
1.048268,-0.4871586,0.1780135,-0.06563654,1.028339,-0.1164189
0.9891111,-0.4354212,0.166733,-0.1789815,0.9893222,-0.1826698
0.9538406,-0.3685651,0.1576526,-0.2809678,0.8975826,-0.1857273
0.8763778,-0.328344,0.1776845,-0.3053943,0.7700601,-0.1238858
0.8459477,-0.2955979,0.1722535,-0.3149211,0.6809652,-0.09089128
0.8734226,-0.3208001,0.1566242,-0.29614,0.7756511,-0.03685142
0.7669565,-0.3060398,0.1392583,-0.3003938,0.8594962,0.0005788531
0.6763049,-0.2780504,0.111247,-0.269501,0.9069641,-0.05158262
0.6995672,-0.318469,0.1225059,-0.1807957,1.004286,-0.09274798
0.6372955,-0.2863501,0.153191,-0.09668233,1.066108,-0.1361424
0.5906075,-0.2781855,0.1535412,0.01497048,1.067472,-0.1621297
0.5895311,-0.3001498,0.1846647,0.0884046,0.9774975,-0.125104
0.5434341,-0.2622462,0.2370738,0.1122538,0.7556854,-0.1025824
0.550241,-0.2708857,0.2658376,0.1277738,0.4876922,-0.07602909
0.602891,-0.2598033,0.2972137,0.1130106,0.3048116,-0.06052173
0.6697214,-0.2550726,0.3106999,0.1019271,0.1906406,-0.06293333
0.7640968,-0.2802571,0.3113571,0.09234217,0.1197186,-0.02583733
0.8697833,-0.2635109,0.3161423,0.09929622,0.1379567,0.02210501
0.9223133,-0.2739893,0.3141487,0.133431,0.1314259,0.117724
0.870266,-0.2571437,0.3182411,0.1667663,0.0412253,0.2505281
0.8148824,-0.2186558,0.3244595,0.1996591,-0.07101826,0.3237921
0.7941889,-0.193538,0.3424812,0.1639818,-0.2147063,0.3271897
0.7855696,-0.1321873,0.3673521,0.04720718,-0.3763225,0.2534912
0.8214209,-0.08922589,0.379282,-0.1131745,-0.5476454,0.1477682
0.8882725,-0.1044527,0.3869215,-0.3124755,-0.6481531,0.08391043
1.035603,-0.2471156,0.4033817,-0.4117304,-0.5966863,0.08573137
1.258554,-0.4667793,0.4412582,-0.2499203,-0.4107064,0.1976069
1.436335,-0.616866,0.4555635,0.1320617,-0.1304789,0.3421092
1.517802,-0.6812196,0.4445456,0.4669688,-0.06501321,0.3346206
0.7619084,-0.2757184,0.05247084,-0.7030834,1.018117,-0.1042281
0.706136,-0.2792507,0.06439354,-0.7027772,1.106337,-0.08551667
0.6702955,-0.2656841,0.09802115,-0.5864966,1.173159,-0.1161124
0.611358,-0.2703963,0.1430952,-0.5274741,1.2218,-0.110684
0.5386952,-0.2511717,0.1893673,-0.4005311,1.163209,-0.05339296
0.4949933,-0.1888473,0.2048881,-0.2853228,0.9052967,0.02292752
0.515129,-0.1589212,0.2144068,-0.3123521,0.6189906,0.1183475
0.5780585,-0.151205,0.2129736,-0.3091097,0.4099093,0.1241561
0.6639813,-0.1633759,0.2171776,-0.3499388,0.3188396,0.09089221
0.7656665,-0.1741591,0.2494903,-0.4183142,0.2999266,0.06149771
0.8768659,-0.178681,0.2719642,-0.4548305,0.246874,-0.01094069
0.9738604,-0.1859047,0.3034084,-0.5072957,0.209427,-0.0961298
1.00138,-0.180045,0.3606521,-0.5112521,0.146995,-0.1933696
1.076818,-0.2408214,0.4359439,-0.4688336,0.05132036,-0.2446054
1.230379,-0.3328022,0.4876853,-0.3657501,-0.02897597,-0.2405461
1.280557,-0.3739858,0.4674739,-0.2913795,-0.1745164,-0.1301159
1.293235,-0.4189554,0.4374947,-0.381482,-0.2878966,0.1093284
1.374322,-0.517612,0.3699076,-0.4457299,-0.2983207,0.1897214
1.467516,-0.6418574,0.2647865,-0.2836197,-0.2889484,0.02400193
1.409737,-0.604835,0.2840965,-0.170984,-0.1848477,-0.1496607
0.9990035,-0.3726776,0.3125952,-0.4438568,-0.08908294,-0.1799074
0.578427,-0.2187649,0.2373232,-0.8055031,-0.3238682,-0.1289503
0.6334152,-0.2746255,0.2289836,-0.9118142,-0.6714437,-0.1045695
0.8751462,-0.4034351,0.2087758,-0.8785213,-0.6785276,-0.06024301
0.994759,-0.4867385,0.09229795,-0.7550267,-0.5679517,-0.01480147
1.143055,-0.5465079,0.05208498,-0.5426429,-0.5338282,-0.027398
1.102286,-0.4936793,0.06788097,-0.4434161,-0.4186805,-0.06337584
0.8464638,-0.3324655,0.0504298,-0.5263249,-0.4219137,-0.1404979
0.8008188,-0.283969,0.03342567,-0.5911988,-0.5598116,-0.229266
0.7696342,-0.2849919,0.03506366,-0.5938235,-0.6469369,-0.2611517
0.6685248,-0.2625407,0.02789921,-0.604597,-0.7150141,-0.2593452
0.6872125,-0.2680057,-0.009893391,-0.5670725,-0.6015873,-0.2543107
0.6689962,-0.2510458,-0.02406744,-0.5490748,-0.3833427,-0.2166879
0.6720933,-0.2464072,-0.02024242,-0.5624167,-0.3279968,-0.1468919
0.6676494,-0.2284275,-0.02580751,-0.5423014,-0.3222888,-0.1022961
0.6798461,-0.2153122,-0.01654405,-0.5517534,-0.2882305,-0.09583164
0.8072875,-0.2505059,-0.02170826,-0.5470504,-0.205512,-0.111108
0.8761332,-0.257628,-0.02757235,-0.5124072,-0.08809502,-0.1177198
0.9724386,-0.2527537,-0.02988172,-0.4762164,-0.03404413,-0.09619744
1.043177,-0.2072629,-0.03576558,-0.4408309,0.0441333,-0.06857232
1.042962,-0.1310784,-0.01765943,-0.4885652,0.1069947,-0.04352785
1.081285,-0.07608512,-0.001173402,-0.5925952,0.04551309,-0.02982719
1.083826,-0.05598884,0.0146281,-0.7075704,-0.03497293,0.0007221488
1.185994,-0.1287727,-0.002204165,-0.7636131,-0.08885776,0.06858145
1.347225,-0.2333847,-0.0577807,-0.6564296,-0.1007517,0.1190493
1.464673,-0.3486515,-0.07111174,-0.4857084,-0.007552546,0.1225408
1.568646,-0.4576999,-0.05353763,-0.3514479,0.1919652,0.07486811
1.550338,-0.4891524,-0.01953031,-0.3680601,0.3688806,-0.000621376
1.453646,-0.4861149,0.02474063,-0.6408301,0.327081,-0.07364049
1.303672,-0.510947,0.03260843,-0.9002196,0.1903613,-0.1606119
1.193813,-0.6308016,0.01234028,-0.8417905,0.198387,-0.2515362
1.196248,-0.7504115,-0.0004483875,-0.5481295,0.3056113,-0.3175428
1.177834,-0.7393607,0.01921724,-0.2269342,0.5679117,-0.3309075
1.159854,-0.6310306,0.05686985,-0.05198481,0.9351476,-0.2922228
1.080528,-0.4371547,0.1017543,-0.1602745,1.036287,-0.2389303
0.9453712,-0.2823212,0.1383996,-0.378965,0.8696929,-0.1306942
0.9235432,-0.2811894,0.126557,-0.5283723,0.7276939,0.03459607
0.9334471,-0.3290853,0.1034723,-0.6247136,0.7381682,0.1088044
0.8697888,-0.3340301,0.09498903,-0.5415648,0.7983143,0.05974561
0.7659198,-0.3133226,0.0919247,-0.4592595,0.8174798,0.02542676
0.6946994,-0.2822382,0.1042114,-0.5129681,0.8849509,0.01199321
0.6461424,-0.2205665,0.1123944,-0.4770261,0.9590922,-0.02348163
0.5632603,-0.182883,0.1315589,-0.49212,0.9999727,0.002519675
0.5038004,-0.1787817,0.1578482,-0.4764989,0.9208924,0.07077282
0.4896072,-0.1535623,0.1597753,-0.3353097,0.6748872,0.1198749
0.5023258,-0.1512021,0.1653614,-0.2970602,0.53319,0.1495833
0.5639577,-0.1709399,0.1776987,-0.230226,0.4868635,0.1270623
0.6427022,-0.182079,0.193266,-0.2229332,0.4924433,0.1033487
0.6707381,-0.1801968,0.2125736,-0.3264549,0.5446872,0.0596715
0.7068049,-0.147947,0.2293165,-0.3833652,0.4060877,-0.04901537
0.8193472,-0.1262033,0.2669478,-0.4582823,0.216289,-0.1334945
0.875781,-0.1521712,0.2991861,-0.4144382,0.07533802,-0.207578
0.9562527,-0.2477074,0.3424199,-0.299123,-0.07393381,-0.2314025
1.220934,-0.3747181,0.4242963,-0.1901478,-0.155232,-0.1511942
1.37603,-0.4217465,0.426411,-0.0806812,-0.2170368,-0.06500503
1.365175,-0.4355398,0.3587731,-0.1116141,-0.192835,-0.01866143
1.43672,-0.5008779,0.3382305,-0.03268877,-0.1839323,-0.07946012
1.401127,-0.5073593,0.326406,0.1351793,-0.2960429,-0.1916544
1.230645,-0.4444963,0.3164729,0.08488691,-0.3501694,-0.206221
1.129174,-0.3879996,0.2906441,-0.08859827,-0.417674,-0.1586912
0.9159984,-0.2854197,0.2042075,-0.3472294,-0.5124552,-0.09174081
0.7582128,-0.2736919,0.1548286,-0.578566,-0.5586483,-0.05646527
0.8834278,-0.3926926,0.1326489,-0.6208852,-0.6119951,-0.05921221
0.9475872,-0.4495548,0.0915986,-0.5653686,-0.6654173,-0.04427309
1.021091,-0.5241314,0.08209522,-0.4213864,-0.6895556,-0.06526399
1.131886,-0.5599392,0.06770547,-0.2301261,-0.6370568,-0.1266235
1.014878,-0.4675458,0.06507866,-0.1601536,-0.622311,-0.2152015
0.9348191,-0.4115557,0.07951038,-0.1852748,-0.6739475,-0.3097501
0.8644632,-0.3340844,0.0551031,-0.1645103,-0.6879928,-0.3217905
0.7177135,-0.270144,0.03447697,-0.1324432,-0.7034732,-0.2669901
0.7127025,-0.2672402,0.0103986,-0.1411029,-0.6312746,-0.1986313
0.6689465,-0.2155325,-0.01793981,-0.1652883,-0.4819234,-0.1406302
0.6128627,-0.1872636,-0.01290747,-0.2647026,-0.3536172,-0.0623795
0.6251437,-0.1637874,-0.004271177,-0.3706895,-0.277075,0.04106442
0.607283,-0.1631376,0.004260721,-0.3760605,-0.32199,0.04666297
0.6838707,-0.2252108,-0.00550086,-0.3563415,-0.3333939,-0.007644749
0.7946821,-0.2574712,-0.0321225,-0.3068185,-0.2796699,-0.01429108
0.8912171,-0.2845147,-0.04509647,-0.2138224,-0.2538946,-0.01770234
0.9789382,-0.2679123,-0.06326079,-0.1509311,-0.151855,-0.001292892
1.019306,-0.2238486,-0.06284743,-0.1420256,-0.02183271,0.05669134
1.093221,-0.208313,-0.0516349,-0.1972934,0.02275786,0.1153346
1.107436,-0.1806624,-0.05828172,-0.2782226,-0.02626522,0.1507697
1.102223,-0.2006963,-0.04001124,-0.2976886,-0.1156798,0.1411657
1.19406,-0.2235337,-0.02435754,-0.2414306,-0.1582211,0.1258488
1.279839,-0.2316341,-0.05074826,-0.1710322,-0.1248544,0.1230132
1.387716,-0.2834121,-0.07264956,-0.09151813,0.003834283,0.1089771
1.470762,-0.3399312,-0.06292462,-0.005050305,0.1712408,0.0832131
1.439584,-0.4600679,-0.02826925,-0.01340431,0.265099,0.01529491
1.401809,-0.5627278,0.02152496,-0.175829,0.2256155,-0.07735986
1.32952,-0.5561746,0.05196091,-0.359699,0.1212925,-0.156449
1.210502,-0.6212586,0.03231403,-0.3067797,0.1028634,-0.1890855
1.189288,-0.744262,0.005276399,-0.009312262,0.2217317,-0.1562709
1.194526,-0.7627064,0.0066292,0.3538215,0.5041164,-0.1484174
1.124824,-0.6813922,0.02563561,0.5942466,0.7967734,-0.1414083
1.054478,-0.517315,0.08278747,0.4677595,0.8440071,-0.0685235
0.9695466,-0.3278471,0.1349871,0.2050985,0.7030938,0.02022018
0.9265108,-0.2723476,0.1326413,0.05205471,0.5936599,0.142737
0.9674568,-0.3345384,0.1207847,-0.06817331,0.6488233,0.1963163
0.9235864,-0.3512514,0.1116592,0.05364743,0.7158531,0.1259708
0.8301086,-0.3364504,0.1089215,0.183742,0.6968317,0.095426
0.767025,-0.3219125,0.1160809,0.122848,0.7450037,0.06005191
0.6950216,-0.2616437,0.1197027,0.1865064,0.7767198,-0.01060746
0.6487469,-0.224115,0.139747,0.1825133,0.7568112,-0.006217735
0.5822254,-0.2109358,0.1689266,0.1725153,0.6603629,0.05415659
0.532523,-0.1695403,0.1860106,0.2890879,0.4343292,0.149109
0.5431759,-0.1556062,0.1788734,0.2989125,0.3341119,0.2220338
0.5381928,-0.1534082,0.1644555,0.3404677,0.3141252,0.2524462
0.5760618,-0.1397815,0.1740154,0.3164006,0.2607559,0.2803607
0.6383972,-0.1409413,0.1887981,0.1934611,0.2738774,0.2368347
0.6766468,-0.132174,0.208696,0.112736,0.232281,0.158664
0.7392289,-0.1276517,0.2317279,-0.02448513,0.1170252,0.0981042
0.7939294,-0.1350349,0.2616756,-0.04497287,-0.03685238,-0.0008591086
0.8654107,-0.1652718,0.3297679,0.006762914,-0.1859586,-0.1058804
0.9964996,-0.2452183,0.3980955,0.01310756,-0.2141478,-0.1852233
1.14976,-0.3179874,0.435507,0.07686285,-0.2635241,-0.2045343
1.300926,-0.3877423,0.4386637,0.1008755,-0.3579583,-0.1410385
1.434116,-0.5204233,0.4022197,0.134028,-0.344658,-0.05957262
1.515397,-0.6563047,0.3344017,0.2873793,-0.3408789,-0.01343157
1.515275,-0.6528812,0.2625597,0.5156918,-0.4161146,-0.07839229
1.430137,-0.5096066,0.26033,0.6097412,-0.4444934,-0.2263697
1.216313,-0.3352902,0.2678427,0.4009227,-0.4556996,-0.2842692
0.9353811,-0.2055604,0.217315,0.04440965,-0.4826349,-0.1811022
0.7982785,-0.2452594,0.1841019,-0.3476621,-0.4830255,-0.02572478
0.828748,-0.393405,0.1255082,-0.6008031,-0.5272769,0.02320114
0.9232121,-0.5064809,0.06578954,-0.5583193,-0.5870622,0.01209327
1.048671,-0.6234221,0.07981785,-0.3772629,-0.6066166,0.016966
1.102259,-0.618722,0.0763539,-0.1076472,-0.6134796,-0.03048315
1.037148,-0.5081766,0.07059397,0.1447873,-0.5994386,-0.08948011
0.9733429,-0.4402789,0.07226939,0.2124223,-0.6231349,-0.1483127
0.9037378,-0.3387527,0.04362408,0.2145845,-0.6616324,-0.2032047
0.8155388,-0.308264,0.02843756,0.2280549,-0.6838367,-0.1740645
0.7991254,-0.3167037,-0.0005593209,0.2465674,-0.7207207,-0.1238873
0.7709042,-0.2307355,-0.02730974,0.2573638,-0.6735694,-0.06325442
0.7221537,-0.17422,-0.03160064,0.2036685,-0.5516061,0.01047465
0.7198728,-0.1304958,-0.04001234,0.0970525,-0.4158189,0.04652757
0.6717549,-0.1211454,-0.02653681,-0.06695243,-0.3282251,0.1153266
0.6270945,-0.1495339,-0.0197471,-0.1881904,-0.3675935,0.1617322
0.6741555,-0.1748977,-0.02506406,-0.1748633,-0.4012414,0.1066432
0.759694,-0.2834515,-0.02801174,-0.1191716,-0.4081007,0.04997371
0.8461546,-0.3300843,-0.04562613,-0.002044368,-0.4116063,0.0122562
0.9124538,-0.2665358,-0.05332349,0.1160919,-0.2825455,-0.02088743
0.9607237,-0.2193183,-0.05505139,0.08673555,-0.1199551,0.02443607
0.9806232,-0.1823753,-0.05453654,0.01080334,-0.04509601,0.1157593
0.9802047,-0.1757643,-0.04327886,-0.04014127,-0.00978782,0.143734
1.021774,-0.193405,-0.03006769,-0.08509464,-0.0130136,0.1304109
1.087917,-0.2332181,-0.01215962,-0.06619113,-0.04274052,0.1146588
1.13133,-0.2839543,-0.0002749692,0.02902496,-0.06292565,0.08606594
1.175554,-0.3001549,0.009929993,0.1931445,-0.1003224,0.06804313
1.242176,-0.342256,0.02277672,0.3951896,-0.1624764,0.04088098
1.309564,-0.459775,0.01966209,0.5057389,-0.1864028,-0.02182479
1.328177,-0.5576841,0.02099891,0.4496105,-0.2052185,-0.1108802
1.270657,-0.5477215,0.06665908,0.23766,-0.3115263,-0.1873054
1.230222,-0.5828278,0.1025795,0.02735334,-0.4037551,-0.1774309
1.284337,-0.7177677,0.04698932,0.0875173,-0.2779305,-0.1075925
1.325845,-0.7583309,-0.01177775,0.2745281,0.04214044,-0.05786945
1.279175,-0.6978592,0.01694151,0.3420449,0.3649318,-0.04132488
1.181223,-0.608793,0.05030412,0.3816085,0.5983108,-0.03684754
1.034217,-0.5277955,0.06137064,0.3264219,0.635935,-0.02365796
0.9155107,-0.5065627,0.07893097,0.2513942,0.5078672,-0.01261776
0.9128067,-0.5002291,0.05948251,0.3593478,0.4199508,0.008939543
0.9167388,-0.489624,0.03117746,0.4814056,0.3915892,0.05604322
0.8599512,-0.471581,0.01118834,0.6239969,0.4633742,0.0874059
0.7841837,-0.4492985,-0.03298069,0.833614,0.55873,0.09322039
0.7075598,-0.4544087,-0.01922577,1.084646,0.5096069,0.05486249
0.6945388,-0.4525729,0.04347479,1.471459,0.4967619,-0.03376506
0.684153,-0.4278568,0.06672376,1.763268,0.5260957,-0.09883417
0.6404637,-0.3852129,0.07147855,1.894674,0.4391385,-0.1196674
0.6762871,-0.2893044,0.05855234,1.948638,0.2717376,-0.09050688
0.7117449,-0.1221942,0.05381313,1.758914,0.1007932,-0.02853093
0.7387001,0.003139027,0.07089152,1.47407,0.08848337,0.01038878
0.7906623,-0.007372758,0.09055959,1.247294,0.0911362,0.1005046
0.7624398,-0.04707367,0.1551907,1.102294,-0.1084256,0.2107974
0.7611625,-0.09968349,0.2104602,1.143511,-0.2596102,0.2166562
0.7950329,-0.1838462,0.2299427,1.218547,-0.331219,0.2107761
0.7833119,-0.2044887,0.2581381,1.25377,-0.4671647,0.2081482
0.8058941,-0.1989046,0.2744291,1.288735,-0.5466551,0.1288097
0.8268893,-0.2049017,0.3158647,1.23956,-0.6046041,0.03680575
0.8706757,-0.2030622,0.365124,1.176935,-0.7047002,0.0006814594
0.9605766,-0.2191826,0.3642474,1.170677,-0.7912259,0.06492976
1.048307,-0.2487362,0.3430301,1.193028,-0.8241393,0.1724028
1.168552,-0.2883282,0.3097911,1.23248,-0.7524258,0.2483466
1.253237,-0.3392288,0.2909746,1.232194,-0.6666581,0.3373406
1.326327,-0.4211849,0.2960603,1.243183,-0.5727788,0.3514735
1.417269,-0.4782208,0.2931135,1.325444,-0.4812642,0.2196519
1.406017,-0.4374174,0.2910123,1.361905,-0.5546799,0.1221333
1.319505,-0.3936969,0.2884467,1.248552,-0.6093643,0.1854902
1.151275,-0.3530407,0.272841,0.9923085,-0.5036406,0.2798731
0.9358301,-0.3068952,0.2411562,0.7603775,-0.4664273,0.2708849
0.872775,-0.3626738,0.1975515,0.7073284,-0.5691863,0.2275477
0.9202821,-0.4396631,0.1290118,0.7383276,-0.7002705,0.1835957
0.9387922,-0.4576689,0.06032033,0.7406673,-0.7394866,0.1330791
0.9697737,-0.4589892,0.05768608,0.7281484,-0.6759224,0.09479916
1.006947,-0.4447643,0.06329566,0.7362167,-0.656207,0.006908558
