accx,accy,accz,gyrox,gyroy,gyroz
1.057678,-0.4020737,-0.4780524,0.2120278,1.19942,0.457743
1.050964,-0.3227481,-0.4273327,0.1918809,1.198659,0.4767374
0.9793615,-0.2175198,-0.3111477,0.08692547,1.024266,0.4634985
0.908991,-0.2277651,-0.2433698,0.005930794,0.7260057,0.4356571
0.8546105,-0.2516679,-0.2513326,-0.04507033,0.4573262,0.4842472
0.8435396,-0.2250744,-0.252758,-0.03564756,0.4126361,0.5538398
0.8122343,-0.2612605,-0.2379204,0.1331022,0.5477679,0.5582229
0.7334457,-0.3055406,-0.1946498,0.3283118,0.7037525,0.5086655
0.6327085,-0.3024963,-0.1438251,0.3660187,0.6900615,0.3824952
0.5511399,-0.2886875,-0.1290059,0.2962558,0.6257372,0.2825273
0.5513785,-0.2383733,-0.130749,0.2447665,0.5928057,0.2589953
0.5677699,-0.1873799,-0.1275397,0.1844903,0.5333662,0.2671219
0.6193369,-0.1790387,-0.1411974,-0.03489542,0.484858,0.2793911
0.6841081,-0.2184279,-0.1510696,-0.303773,0.4240396,0.2063206
0.6848618,-0.3111629,-0.1071234,-0.4375937,0.4241333,0.1301606
0.7508347,-0.3917122,-0.05905952,-0.4001487,0.4244152,0.1071234
0.8588831,-0.4104838,-0.05765894,-0.3199187,0.384798,0.08857827
0.9359928,-0.3871731,-0.08087656,-0.3639354,0.4503402,0.1010151
0.9649798,-0.3850665,-0.09369062,-0.3860686,0.4904774,0.1170735
0.9436499,-0.4144948,-0.07617453,-0.3918512,0.4446061,0.1595195
1.034823,-0.4224573,-0.05807287,-0.3983926,0.4599607,0.1885155
1.226704,-0.4257653,-0.05814792,-0.2417385,0.6195854,0.1042355
1.371345,-0.4417588,-0.1096454,-0.1646499,0.7638548,-0.04339664
1.395436,-0.5352457,-0.227634,-0.2773409,0.4903506,-0.09858941
1.390009,-0.7403327,-0.3035383,-0.3147084,-0.1505681,0.1056659
1.408722,-0.825188,-0.2802553,-0.07033665,-0.5600885,0.2930008
1.224308,-0.6393203,-0.2577311,0.1914826,-0.4209381,0.06364472
0.9323408,-0.4075851,-0.2944535,-0.05233973,-0.2260651,-0.2589668
0.7924586,-0.3501012,-0.2992485,-0.5766885,-0.3242406,-0.312831
0.7715422,-0.3358149,-0.2689036,-1.029714,-0.2971245,-0.3210641
0.7745466,-0.2584564,-0.2652534,-1.242301,-0.2419649,-0.4220935
0.8029739,-0.2802092,-0.2256399,-1.037472,-0.3438703,-0.5077892
0.9609592,-0.369061,-0.1898997,-0.8364935,-0.2989708,-0.5243412
1.002798,-0.3720256,-0.1890871,-0.6489551,-0.2940962,-0.4984081
0.8485391,-0.3274017,-0.1570411,-0.4070006,-0.2829538,-0.4933247
0.7876092,-0.2604636,-0.1677007,-0.5081646,-0.1563193,-0.4442423
0.6842748,-0.1871919,-0.2008677,-0.5441391,-0.1748579,-0.3158914
0.5869054,-0.1338794,-0.2029206,-0.5762419,-0.157492,-0.2163352
0.6033371,-0.10959,-0.2447243,-0.9979429,-0.1392708,-0.2133046
0.6258273,-0.1790245,-0.2741129,-1.142861,-0.1703311,-0.3255343
0.7559693,-0.2644788,-0.2624576,-0.9370195,-0.08471901,-0.4141557
0.8425406,-0.2592522,-0.2676822,-0.7886106,-0.06589604,-0.3808457
0.851541,-0.2384319,-0.2871727,-0.7180471,-0.1089074,-0.3297465
0.8958168,-0.2338952,-0.3022885,-0.7456769,-0.1383148,-0.28212
0.9499466,-0.2350116,-0.2854451,-0.6594588,-0.09714628,-0.2374846
1.062247,-0.241401,-0.2567125,-0.4497768,0.04510521,-0.2231847
1.061859,-0.2153701,-0.2495839,-0.3503395,0.1212258,-0.1920051
1.010586,-0.1463511,-0.2541018,-0.4664515,0.1106351,-0.1074727
1.037785,-0.07094107,-0.2609793,-0.7064717,-0.006677366,0.00408064
1.00951,-0.09204465,-0.2577969,-0.8165362,-0.1797182,0.07237691
1.029461,-0.1812145,-0.2612949,-0.8628001,-0.3311173,0.02714527
1.087861,-0.243341,-0.2835947,-0.8499605,-0.4053065,-0.07033666
1.14812,-0.3571985,-0.3301323,-0.585181,-0.3070933,-0.0912237
1.258206,-0.4889598,-0.4199314,-0.2330926,-0.2188087,-0.07935287
1.328429,-0.507924,-0.5260589,-0.1310496,-0.1101515,-0.06577736
1.382544,-0.4110371,-0.6013649,-0.2105505,0.1010151,0.001301042
1.348248,-0.3184071,-0.5927284,-0.1292876,0.1620391,0.1407784
1.164279,-0.3626995,-0.5222007,-0.001583621,0.181865,0.3277517
0.963025,-0.4082387,-0.4701069,0.1111839,0.396061,0.3859753
0.8818304,-0.3736442,-0.4266134,0.2865972,0.6407758,0.3921975
0.9678131,-0.3619126,-0.4010747,0.3756689,0.6926528,0.531718
1.018494,-0.3227018,-0.4084312,0.4644122,0.6775772,0.5828956
0.9967991,-0.3172931,-0.3948512,0.3822324,0.7763014,0.4518192
0.9922052,-0.3668028,-0.3368855,0.2484106,0.7979077,0.3006532
0.9065282,-0.3517234,-0.2375981,0.4726773,0.6301041,0.2283467
0.8610538,-0.3386694,-0.1925623,0.6429691,0.4438482,0.2480035
0.8740808,-0.3163335,-0.2431425,0.6509903,0.3946742,0.2850314
0.8130167,-0.2873977,-0.2510718,0.6608334,0.4290414,0.3256567
0.7602679,-0.3115613,-0.1973203,0.6279574,0.368263,0.3418716
0.6886136,-0.2945915,-0.1388182,0.6826343,0.3031124,0.283878
0.6381059,-0.2492337,-0.09756835,0.6615162,0.2922748,0.1895717
0.6631979,-0.1931538,-0.1282936,0.5123785,0.2116264,0.09333813
0.6613508,-0.1465931,-0.1693092,0.2472566,0.1105959,0.05587283
0.6736668,-0.1884768,-0.156001,-0.100977,0.0287629,0.09293147
0.688548,-0.2527854,-0.1283336,-0.2177449,0.04177888,0.1240409
0.7065686,-0.3381605,-0.09361714,-0.1882397,0.1520115,0.116287
0.7724788,-0.4173448,-0.0845909,-0.1387924,0.233551,0.06245925
0.8028365,-0.4083085,-0.09937263,-0.05574034,0.3329644,-0.02430008
0.8153583,-0.3997049,-0.08047227,-0.003218179,0.3298496,-0.06508591
0.849812,-0.3898358,-0.05923248,0.06546921,0.209644,-0.06324679
0.9258654,-0.3512355,-0.04957292,0.1410957,0.1838187,-0.0563237
1.04028,-0.3421303,-0.05888955,0.2337048,0.1736117,-0.01646059
1.107816,-0.3243814,-0.1122566,0.2098211,0.1381909,0.01080889
1.213719,-0.3351112,-0.1763015,0.04572971,0.08702476,0.07478986
1.466957,-0.4870801,-0.246109,0.05028004,0.05293346,0.2762493
1.639648,-0.6711578,-0.2611937,0.3046883,0.04441525,0.3717614
1.475995,-0.6570624,-0.2161603,0.5394898,-0.1274514,0.0619775
1.219711,-0.5419546,-0.2096643,0.3083414,-0.3143295,-0.3486129
1.144149,-0.5326356,-0.2033874,-0.05398908,-0.3616555,-0.3191837
1.053516,-0.4965973,-0.21653,-0.008220964,-0.3550458,-0.1408133
0.8903789,-0.3986515,-0.271979,-0.1579094,-0.2940649,-0.1748781
0.8382406,-0.3650478,-0.2936947,-0.5009427,-0.3140311,-0.1277551
0.8905579,-0.3675053,-0.2807865,-0.4756654,-0.4310317,-0.1449388
0.9188127,-0.3764895,-0.2327278,-0.389464,-0.4885824,-0.2756121
0.8933529,-0.3614744,-0.2262401,-0.3270999,-0.4216231,-0.2832474
0.8646124,-0.3501746,-0.2359159,-0.2488392,-0.3066079,-0.4331784
0.7779181,-0.3457211,-0.185091,-0.2534079,-0.299611,-0.6093434
0.7020758,-0.3108526,-0.1901977,-0.1834907,-0.3101343,-0.6682551
0.6953031,-0.3161099,-0.2087261,-0.07856478,-0.2337444,-0.7407671
0.6294008,-0.3027793,-0.2086007,0.01333059,-0.1332842,-0.6748702
0.6048874,-0.2684107,-0.2433888,0.03974007,-0.07041166,-0.5979219
0.6420714,-0.2606535,-0.2805447,-0.01018399,-0.07484286,-0.5680314
0.6840418,-0.2140455,-0.3395414,-0.01511894,-0.05062424,-0.5234379
0.7833119,-0.2015076,-0.3286256,-0.03976342,-0.03031985,-0.5395825
0.8068999,-0.1880508,-0.2604212,-0.05799574,-0.134888,-0.4702254
0.8160177,-0.1151614,-0.2476525,-0.1312481,-0.2255087,-0.394561
0.9231571,-0.09593787,-0.2428472,-0.3410762,-0.1729227,-0.3775247
1.006458,-0.1287566,-0.2473934,-0.4234448,-0.1336765,-0.2748119
1.021233,-0.1658133,-0.2365933,-0.3410062,-0.2351279,-0.1711875
0.9719242,-0.183136,-0.2275203,-0.3072465,-0.2989658,-0.1228541
0.9427954,-0.1890398,-0.2529631,-0.3313255,-0.2262113,-0.1272753
0.9675172,-0.2164116,-0.2369108,-0.2809349,-0.09904367,-0.150191
0.9719221,-0.2378507,-0.2148609,-0.1819927,0.03845273,-0.1541727
0.9805869,-0.2056736,-0.2029296,-0.1804157,0.03159772,-0.1927787
1.014735,-0.1140916,-0.2217427,-0.2841722,-0.09052117,-0.2018431
1.066836,-0.06588339,-0.2699988,-0.4150092,-0.1194264,-0.1481711
1.110847,-0.1190944,-0.2379005,-0.4222018,-0.1218691,-0.1109419
1.131413,-0.220504,-0.2104018,-0.2641029,-0.1702195,-0.1285353
1.152814,-0.3394126,-0.2478302,-0.05197727,-0.2479683,-0.1549832
1.210416,-0.442754,-0.3482592,0.1148416,-0.2759001,-0.1388378
1.395831,-0.4599902,-0.5523937,0.07885125,-0.09437057,-0.1587238
1.560614,-0.352253,-0.6405585,-0.04045312,0.06668136,-0.1459183
1.420027,-0.261536,-0.5606914,-0.03697536,-0.07307162,0.1006493
1.154609,-0.3116285,-0.5498392,0.01817304,-0.1266889,0.4396648
1.016862,-0.3615835,-0.5566107,0.1123918,0.2966906,0.549096
0.9530019,-0.3367792,-0.4678087,0.2106766,0.7384054,0.4986568
0.9915209,-0.3147827,-0.3726269,0.3401533,0.7142874,0.5559658
1.036119,-0.2854917,-0.3028592,0.4723664,0.6125706,0.5852057
0.9662537,-0.2689259,-0.2439294,0.4543734,0.7046501,0.5135106
0.935389,-0.2951492,-0.2148252,0.4648191,0.6839723,0.4917258
0.8923007,-0.2846536,-0.2076415,0.5026337,0.5856539,0.4157932
0.8263651,-0.240268,-0.2059762,0.4878477,0.5173174,0.3972522
0.8381153,-0.1880593,-0.1972922,0.5364732,0.3748575,0.516762
0.8024245,-0.1424032,-0.1919828,0.4999084,0.300144,0.566556
0.7520559,-0.1845209,-0.1909663,0.3619646,0.2501301,0.5970942
0.7022438,-0.2523517,-0.1578027,0.2714045,0.1055421,0.5472307
0.6583727,-0.2950897,-0.1248577,0.3869864,0.04108413,0.3990564
0.7024565,-0.3488438,-0.1345913,0.6218626,0.04715967,0.3084382
0.6903996,-0.3789793,-0.1427254,0.6183371,0.05356901,0.2148375
0.6742519,-0.3798173,-0.125574,0.5752584,0.05720742,0.1805248
0.7075445,-0.3242976,-0.1070224,0.5968997,0.02691044,0.1897617
0.6951821,-0.2704277,-0.09463715,0.4761938,-0.01528196,0.1623771
0.744353,-0.280581,-0.1068535,0.3561215,-0.09057847,0.1818076
0.8047727,-0.2823196,-0.135342,0.2738975,-0.1307972,0.1989066
0.8038308,-0.3265011,-0.1215769,0.2896955,-0.1290765,0.2001743
0.7950042,-0.3950021,-0.09953198,0.3814703,-0.1423402,0.1413849
0.7822579,-0.3952065,-0.09194861,0.416453,-0.1068717,-0.006209119
0.8174706,-0.3914111,-0.05122761,0.5872931,-0.0829389,-0.1370621
0.8618712,-0.4100327,-0.03460775,0.759231,-0.06664162,-0.2577387
0.8986469,-0.4111705,-0.04654742,0.7262407,0.006600307,-0.2938692
0.9759608,-0.3648556,-0.04353656,0.6889854,0.02316139,-0.2168549
1.060193,-0.2818183,-0.06736532,0.6087325,-0.1221577,-0.1189139
1.160312,-0.2090292,-0.1197113,0.3450426,-0.4547118,0.03624052
1.304712,-0.2304628,-0.1961455,0.1634099,-0.7533091,0.1808178
1.498984,-0.4232447,-0.2491639,0.3528353,-0.7386991,0.1807822
1.627687,-0.6686673,-0.2318994,0.5963166,-0.6035584,0.01569505
1.531162,-0.7415788,-0.2208937,0.5661138,-0.5184907,-0.2430431
1.280059,-0.6416106,-0.219551,0.4599504,-0.4346017,-0.3566464
1.027244,-0.6142877,-0.1835394,0.4148555,-0.6934365,-0.2432142
0.8833372,-0.6657951,-0.169739,0.5552447,-1.04242,-0.170293
0.8522021,-0.6292798,-0.2353519,0.7251517,-0.7351672,-0.2273848
0.8176423,-0.5708166,-0.3485809,0.4923755,-0.3797062,-0.3346707
0.8183563,-0.48407,-0.3977382,0.1898719,-0.4680692,-0.5414678
0.8484879,-0.3700966,-0.3396622,0.1642197,-0.4461448,-0.6947277
0.8082649,-0.3098246,-0.2683428,0.1796253,-0.4383881,-0.6925197
0.7958811,-0.267351,-0.2386021,0.2066044,-0.5648647,-0.7138955
0.7852573,-0.3014883,-0.2281315,0.2472793,-0.5809759,-0.7364691
0.7365769,-0.3510195,-0.2367421,0.2805267,-0.5580747,-0.7481018
0.7347016,-0.3470032,-0.2425972,0.3928743,-0.4312926,-0.8175591
0.7035606,-0.3607791,-0.2338253,0.5275962,-0.2916587,-0.8360937
0.6886577,-0.3220238,-0.2434924,0.6001616,-0.2581113,-0.7887049
0.7072914,-0.2837739,-0.2562738,0.5880317,-0.2464577,-0.7114679
0.6781847,-0.2709617,-0.2728052,0.5596556,-0.2903945,-0.6424053
0.679737,-0.2138789,-0.3001649,0.5411201,-0.3084182,-0.6389582
0.7003916,-0.1912079,-0.3012973,0.4960033,-0.2939689,-0.6356718
0.7726222,-0.1734452,-0.2895978,0.4667145,-0.273853,-0.6208125
0.9028287,-0.1543526,-0.2522856,0.4308662,-0.2198142,-0.6081682
0.9482647,-0.1668269,-0.1849064,0.4168497,-0.1978473,-0.5716488
0.9349695,-0.157384,-0.160588,0.4112916,-0.1341018,-0.5471069
0.9476752,-0.119221,-0.1509796,0.2945195,-0.008361738,-0.5766974
0.9805941,-0.03980184,-0.1329292,0.1522873,0.02020442,-0.620657
0.9896251,0.02385779,-0.1924316,-0.02250206,-0.2854074,-0.5399156
1.01345,0.01395174,-0.2623035,-0.2647134,-0.6300382,-0.3069224
1.045604,-0.08309165,-0.2250255,-0.3125477,-0.3847356,-0.05890459
1.010719,-0.237878,-0.1742739,-0.1251768,-0.07493597,0.01150132
0.9919258,-0.2973659,-0.170004,-0.0006538958,-0.1993379,-0.09815183
1.00061,-0.2946904,-0.1703347,-0.0274949,-0.2630833,-0.1887908
1.092917,-0.3281233,-0.2110185,0.01784706,-0.2678514,-0.3300604
1.312692,-0.3218342,-0.2829588,0.2208728,-0.2152228,-0.4305616
1.398906,-0.3070438,-0.3411559,0.4527535,-0.01059812,-0.3059401
1.368319,-0.309114,-0.393436,0.5627201,-0.04349948,-0.2613496
1.45294,-0.2520806,-0.5114855,0.3445154,-0.1022559,-0.2745542
1.526583,-0.2003145,-0.666069,0.005223469,-0.07271629,-0.2066993
1.34647,-0.2478499,-0.6096747,-0.04439525,-0.3113046,-0.1135883
1.017513,-0.3560809,-0.4935572,0.02795992,-0.4516735,0.1917853
0.8941046,-0.4384242,-0.5774359,0.1425097,-0.1034777,0.4295079
0.9791831,-0.4649803,-0.5749509,0.4132881,0.477695,0.3643472
1.026827,-0.4712799,-0.5136765,0.5632776,0.8108685,0.2975709
1.029177,-0.4112352,-0.5276137,0.5247777,0.7741343,0.2602482
1.03217,-0.2607218,-0.4038928,0.4854093,0.6403787,0.2697227
0.9807816,-0.1921405,-0.3132733,0.4332079,0.4718323,0.3546275
0.9184902,-0.2151463,-0.3202124,0.3762186,0.3873736,0.4091314
0.9291435,-0.2097313,-0.2708083,0.428244,0.4364068,0.4389078
0.9179249,-0.239418,-0.2517795,0.5702767,0.4426644,0.4352092
0.8355161,-0.2716,-0.2369418,0.6400039,0.477471,0.450313
0.750967,-0.2621955,-0.2284145,0.6095617,0.5030246,0.4810588
0.672074,-0.2615934,-0.2214991,0.5652984,0.4277566,0.4672918
0.6574384,-0.2290487,-0.181794,0.5270966,0.2990989,0.440041
0.6877909,-0.2159404,-0.1948323,0.4313151,0.2011863,0.3558446
0.6943944,-0.2288851,-0.2034395,0.2464107,0.2845898,0.2359495
0.7139005,-0.2244308,-0.1930694,0.06754201,0.3681854,0.1472939
0.7092737,-0.2637344,-0.1772347,-0.01218432,0.2786349,0.1147449
0.6945483,-0.3001123,-0.1404166,0.04116509,0.1986054,0.177762
0.7400069,-0.3238866,-0.1572727,0.08390636,0.1774295,0.2347678
0.8151522,-0.3624572,-0.169164,0.0410443,0.2126964,0.2081421
0.8815292,-0.3737202,-0.1437871,0.0597849,0.3342401,0.1400664
0.8948829,-0.3730454,-0.1252374,0.04542518,0.4171579,0.07877718
0.9016749,-0.3689374,-0.08780567,-0.001746747,0.4281859,0.1260364
0.998303,-0.3723744,-0.05661904,0.06246452,0.4189927,0.227065
1.127468,-0.3558564,-0.0560956,0.1314317,0.370776,0.2350919
1.233575,-0.2895867,-0.09842347,0.1072516,0.2727531,0.1965007
1.339271,-0.2577237,-0.2079283,-0.1803779,0.08708773,0.1924034
1.439557,-0.3664097,-0.3035657,-0.4503478,-0.1753281,0.2766183
1.465352,-0.599761,-0.2852254,-0.06627558,-0.4747062,0.3560449
1.296247,-0.7349944,-0.2513366,0.4350034,-0.679617,0.2210537
1.027787,-0.6805515,-0.2797376,0.3483474,-0.6202939,0.03079259
0.8946371,-0.5669483,-0.2551685,0.2195191,-0.4580742,-0.03599394
0.8680704,-0.4199346,-0.2241174,0.1930989,-0.3024417,-0.1639663
0.8517434,-0.2761711,-0.2599861,-0.2238576,-0.2605993,-0.3370797
0.848435,-0.2058201,-0.2648474,-0.6342254,-0.4747584,-0.3909575
0.8456096,-0.2004231,-0.250642,-0.5768256,-0.5831626,-0.361037
0.8666175,-0.2640792,-0.216847,-0.3608938,-0.5151639,-0.3326593
0.8843937,-0.3484347,-0.1489661,-0.2101676,-0.4911421,-0.3844383
0.8629799,-0.3663274,-0.1371494,-0.06736722,-0.3999732,-0.4720971
0.8240133,-0.3349896,-0.1738123,0.0167983,-0.2322583,-0.510538
0.7336642,-0.2867375,-0.2255073,0.000925259,-0.07240855,-0.5057202
0.6433802,-0.1951684,-0.2795092,-0.07676123,-0.06375141,-0.4546237
0.6552105,-0.1261455,-0.3065965,-0.272928,-0.1267172,-0.4255804
0.728434,-0.1458634,-0.3206585,-0.4215951,-0.1004609,-0.3925674
0.7837897,-0.1904952,-0.317991,-0.3796116,-0.1688305,-0.2868746
0.7837599,-0.2356627,-0.2845146,-0.3009021,-0.2364462,-0.240416
0.7749399,-0.2643805,-0.2404064,-0.1382717,-0.2041931,-0.2745438
0.8402973,-0.2480632,-0.2371115,-0.02912938,-0.1712532,-0.2979406
0.945954,-0.2384265,-0.2582022,-0.0317942,-0.0682166,-0.3010127
1.007999,-0.218698,-0.2519945,0.07914644,0.0001965392,-0.2957522
0.9929838,-0.1541923,-0.2548307,0.0792724,-0.03650928,-0.249611
0.9548784,-0.1029954,-0.2477528,-0.05909629,-0.09833835,-0.1378447
0.9626664,-0.09680427,-0.2257671,-0.1487442,-0.1834248,-0.05878179
0.987146,-0.1415748,-0.2503725,-0.2208625,-0.2653077,-0.003752892
1.040356,-0.2268317,-0.2627883,-0.2195961,-0.2847225,0.06700336
1.13747,-0.3237223,-0.2302069,-0.1332923,-0.2302304,0.05983075
1.221801,-0.3954075,-0.2274972,0.05988748,-0.2014629,0.01211842
1.293727,-0.402914,-0.3011267,0.1943773,-0.2176296,-0.01387799
1.314567,-0.376856,-0.4088668,0.1088088,-0.2160872,-0.01233248
1.280061,-0.3103925,-0.5047972,-0.04746462,-0.2089694,0.04585286
1.248395,-0.2271579,-0.6057706,-0.2408364,-0.2046434,0.1747306
1.174882,-0.2831021,-0.5977334,-0.2676131,-0.2006593,0.3661467
1.048675,-0.4624608,-0.4741925,0.02073297,-0.1159492,0.5052083
0.9421526,-0.5714322,-0.4370433,0.3217088,0.1541415,0.5141445
0.9763553,-0.4948932,-0.4110602,0.5098023,0.4977046,0.4368848
1.068359,-0.3702294,-0.3506655,0.6559773,0.6329693,0.3445369
1.012107,-0.3616467,-0.344417,0.7170861,0.565021,0.3275573
0.9811092,-0.2949683,-0.3017275,0.5651147,0.5089155,0.3455196
0.9981261,-0.2117833,-0.2866554,0.3485692,0.4157272,0.3421052
0.9083182,-0.2780124,-0.2905828,0.396053,0.357351,0.3898154
0.8603195,-0.2626158,-0.2147877,0.5443343,0.394281,0.4590803
0.789706,-0.2369687,-0.1974337,0.6128575,0.3315785,0.4837719
0.6857862,-0.3109027,-0.2099613,0.6586302,0.3249868,0.4664165
0.6836444,-0.3208917,-0.1962817,0.6451369,0.414196,0.3888481
0.6615239,-0.3586183,-0.1978907,0.6774084,0.3920478,0.2852594
0.6619716,-0.3561489,-0.1705882,0.6943688,0.3700738,0.213056
0.6903128,-0.2994614,-0.1552253,0.6141178,0.3583833,0.1879458
0.7001814,-0.3155913,-0.1415435,0.5583514,0.2497978,0.1889783
0.7633532,-0.2888741,-0.1154446,0.4545713,0.07656951,0.1702233
0.7758292,-0.3002522,-0.1295444,0.3576369,-0.08884296,0.1353818
0.7873259,-0.3371858,-0.139192,0.3145128,-0.1591633,0.117567
0.8478818,-0.328513,-0.1290869,0.2779677,-0.1332307,0.08558622
0.8697439,-0.3939463,-0.1121285,0.3069186,-0.05660511,-0.01479533
0.8924004,-0.4186775,-0.08655418,0.2845231,0.03926575,-0.09648335
0.8604077,-0.3712344,-0.07971673,0.2426073,0.1119249,-0.08628712
0.8007138,-0.3304232,-0.09311034,0.1990708,0.08298016,-0.07430052
0.8114316,-0.2977556,-0.08750804,0.0900636,0.03623609,-0.08177935
0.8499602,-0.298863,-0.03398837,0.08718804,0.1075771,-0.09191982
0.8995269,-0.284681,0.02332324,0.09168817,0.1264336,-0.09993309
0.9331259,-0.2804284,0.02167441,0.02003058,0.0749727,-0.04475188
0.9847698,-0.296445,-0.02225795,-0.0225495,0.0750517,0.06010697
1.075617,-0.3050497,-0.05107712,-0.06709745,0.05483845,0.1481319
1.158819,-0.3728882,-0.07922587,-0.08097385,-0.004411851,0.2068698
1.352134,-0.5072927,-0.1216706,-0.03562295,-0.1791954,0.2263065
1.664516,-0.6356347,-0.1421927,0.2269076,-0.3884585,0.1135868
1.792962,-0.6334629,-0.1632914,0.5093668,-0.4113219,-0.06214113
1.499693,-0.5370392,-0.1742606,0.2097364,-0.3715882,-0.05277493
1.042554,-0.500977,-0.1681807,-0.2597495,-0.4019605,0.0791206
0.8688458,-0.4959388,-0.1995707,-0.3395338,-0.4305382,0.1797723
0.8639374,-0.4674654,-0.2199329,-0.431977,-0.4092539,0.2199025
0.8296181,-0.4157889,-0.227234,-0.550351,-0.4211532,0.04182216
0.8723453,-0.3902333,-0.2699507,-0.5635758,-0.5329714,-0.2618868
0.887056,-0.4272396,-0.2841912,-0.65772,-0.5732653,-0.4398416
0.8694103,-0.4492726,-0.2583395,-0.5044956,-0.3499339,-0.5383814
0.8709577,-0.4558453,-0.2150011,-0.1909221,-0.08524147,-0.5965092
0.8084638,-0.4424479,-0.1695555,-0.1091395,-0.1488564,-0.6132354
0.8074629,-0.3786558,-0.1909929,-0.02253677,-0.25715,-0.6415011
0.8178262,-0.3182339,-0.2508347,0.01819107,-0.1731484,-0.6574265
0.7667189,-0.2524859,-0.2846483,-0.05457265,-0.2102406,-0.6743125
0.7514605,-0.2027164,-0.3050639,-0.1233329,-0.2247209,-0.6949049
0.7227707,-0.2002396,-0.2985609,-0.297802,-0.1703886,-0.6848907
0.7142208,-0.2114349,-0.2755265,-0.3540794,-0.255755,-0.6578947
0.7148333,-0.2437509,-0.2587229,-0.2424528,-0.25924,-0.6185303
0.7218592,-0.2704768,-0.2370259,-0.1449698,-0.2163557,-0.5843224
0.8050978,-0.2826796,-0.2421073,0.0276656,-0.1377329,-0.5627833
0.85258,-0.2820418,-0.2473445,0.1988704,-0.002907752,-0.5304776
0.8641658,-0.230696,-0.2288193,0.2651154,-0.1133114,-0.485436
0.8600167,-0.1606197,-0.242802,0.2400088,-0.2840129,-0.4122338
0.8411903,-0.1134461,-0.2602744,0.1802266,-0.3247844,-0.308099
0.9011419,-0.1075861,-0.2737801,0.1464097,-0.339385,-0.2147877
0.9634851,-0.1230563,-0.2962186,0.04331416,-0.2836911,-0.1506205
0.9765292,-0.1316308,-0.2731116,-0.04654264,-0.2492483,-0.1204182
0.973456,-0.1504802,-0.2430569,-0.000601539,-0.2662045,-0.1182759
0.9762147,-0.1574599,-0.2287609,0.03418494,-0.2650731,-0.1053394
1.004086,-0.163364,-0.2021003,0.0391796,-0.2776439,-0.08737704
1.00064,-0.2031085,-0.1990387,0.09970117,-0.2841746,-0.0780338
1.024982,-0.2710226,-0.1946035,0.1953266,-0.2486183,-0.07594241
1.124421,-0.3449719,-0.1752946,0.3457109,-0.1757435,-0.1169348
1.258706,-0.3353757,-0.2486885,0.5216659,-0.1455545,-0.1622867
1.463355,-0.2552284,-0.4398004,0.5438275,-0.1836149,-0.1622487
1.618986,-0.2306379,-0.5717672,0.3090934,-0.2009395,-0.1742554
1.583699,-0.2842604,-0.5189615,0.09106531,-0.1815839,-0.1784544
1.389423,-0.3673994,-0.4653932,0.1555887,-0.1719326,-0.04378996
1.102155,-0.3994846,-0.5385623,0.2428697,-0.1446467,0.240959
0.9374658,-0.386504,-0.572561,0.263709,0.07882058,0.4826393
1.008524,-0.3917264,-0.5664727,0.3948916,0.5807161,0.4975073
1.073,-0.3392925,-0.5455199,0.3827459,1.008611,0.3709836
1.044176,-0.235864,-0.4040356,0.2499203,1.007167,0.2997157
0.975694,-0.2023638,-0.2799834,0.1963286,0.7793126,0.2965559
0.8267489,-0.2289796,-0.2261052,-0.006999777,0.5175518,0.3417586
0.7819688,-0.2656153,-0.1888008,-0.08476296,0.2040409,0.4376194
0.8471362,-0.3049404,-0.2191986,0.1701075,0.1710349,0.4826418
0.7934999,-0.3231765,-0.2342314,0.387752,0.3501392,0.4532892
0.7348909,-0.2997213,-0.2493542,0.5336588,0.3524401,0.4179625
0.7043512,-0.2762115,-0.2735696,0.4939828,0.3883426,0.4115458
0.648559,-0.267761,-0.2297264,0.3875067,0.3604451,0.4283551
0.6611358,-0.2524788,-0.197427,0.491409,0.1383747,0.4325592
0.6974576,-0.2738705,-0.1643813,0.4987638,0.06960142,0.4074283
0.7472347,-0.3001435,-0.1194162,0.5451618,0.04051785,0.3346514
0.7624953,-0.2866154,-0.1255468,0.6695704,-0.01235893,0.2680886
0.7514037,-0.2788344,-0.1485546,0.5315126,-0.04065358,0.2744562
0.8189248,-0.2699373,-0.1525426,0.3887605,-0.1118903,0.2953461
0.8287671,-0.2692787,-0.1439346,0.2981438,-0.007779573,0.2849015
0.814249,-0.283535,-0.1339485,0.2303174,0.1425646,0.225844
0.8557533,-0.3004912,-0.1057968,0.2393741,0.1885702,0.1089839
0.8398083,-0.3523037,-0.1006811,0.1498219,0.2640983,-0.00838734
0.8365877,-0.3940175,-0.1137488,0.1482731,0.3020664,-0.07454457
0.8567784,-0.3865316,-0.07975284,0.2291807,0.3350199,-0.09539282
0.8682315,-0.3624123,-0.04489229,0.2367688,0.4102174,-0.06325568
0.9299829,-0.3282018,-0.02575967,0.2724672,0.4467375,0.0150681
0.9828117,-0.2920039,-0.03764238,0.1643396,0.3681957,0.07589628
1.025195,-0.2676457,-0.06207446,-0.08730314,0.2507369,0.1511889
1.135654,-0.2675462,-0.05259521,-0.2962387,0.2439245,0.2535451
1.287291,-0.3417672,-0.09531686,-0.393774,0.1399874,0.3142171
1.384647,-0.5555911,-0.1571657,-0.1803813,-0.2256089,0.3166532
1.481869,-0.8202,-0.1557229,0.279777,-0.4780576,0.1455294
1.557735,-0.859932,-0.1499044,0.5839938,-0.1188343,-0.2437129
1.282428,-0.6179478,-0.1709463,0.462202,0.2543064,-0.5534634
0.8485052,-0.3998824,-0.199946,0.1627401,-0.3447253,-0.4824407
0.7586361,-0.3532827,-0.221503,-0.003846774,-0.9287695,-0.2125998
0.7675457,-0.3212787,-0.2698829,-0.2729964,-0.6674705,-0.04764768
0.7505304,-0.3017692,-0.3274571,-0.5794831,-0.5777388,0.01607352
0.9312134,-0.3675605,-0.3178075,-0.6165603,-0.6057921,-0.1408283
1.016448,-0.3994882,-0.2759262,-0.4826146,-0.2842268,-0.4054941
0.948972,-0.3897058,-0.2212847,-0.2891553,-0.1708214,-0.4704371
0.9090929,-0.3884531,-0.1630542,-0.2420052,-0.2154525,-0.5284848
0.7889729,-0.3310074,-0.180732,-0.3298121,-0.2081732,-0.5762509
0.7359806,-0.2671252,-0.2161746,-0.3568752,-0.2743994,-0.5343751
0.7528392,-0.2387253,-0.2046194,-0.3892497,-0.3120258,-0.516067
0.6798297,-0.2280767,-0.2224945,-0.3736618,-0.3283471,-0.4279929
0.6438227,-0.2363277,-0.2447185,-0.3642289,-0.2715818,-0.4020651
0.6516828,-0.2243688,-0.2406461,-0.3831773,-0.1377219,-0.4315204
0.7069466,-0.2220209,-0.2576386,-0.2947246,-0.1049196,-0.3827763
0.7949253,-0.2107988,-0.2571466,-0.1450653,-0.08260211,-0.3776057
0.8149507,-0.1637083,-0.241478,-0.003016931,-0.02434858,-0.3504564
0.8257455,-0.1358215,-0.2324976,-0.04617657,-0.04891779,-0.3026334
0.8444914,-0.1056174,-0.2235269,-0.1480956,-0.1198474,-0.245505
0.8816961,-0.08929304,-0.2476377,-0.1883258,-0.1920869,-0.1397862
0.964121,-0.09042971,-0.274843,-0.407487,-0.2434731,-0.1154582
1.039014,-0.1135174,-0.2789611,-0.4977029,-0.2084889,-0.1101245
1.066177,-0.1957662,-0.244597,-0.3368501,-0.1488483,-0.08509589
1.056444,-0.2339034,-0.1842512,-0.2622893,-0.1624253,-0.1156877
1.079302,-0.224038,-0.1827898,-0.1774835,-0.1823963,-0.1471741
1.1501,-0.2457421,-0.2093212,-0.07318277,-0.1555521,-0.1508585
1.247696,-0.2760133,-0.2384934,0.0286195,-0.1092233,-0.1259018
1.359161,-0.2928782,-0.3340503,0.1547952,-0.06254145,-0.09982849
1.476723,-0.2656366,-0.46146,0.02249027,-0.05411126,-0.1050575
1.537398,-0.237752,-0.5233653,-0.164098,-0.1003283,-0.05845799
1.337424,-0.2886533,-0.5041123,-0.07960834,-0.227402,0.1906402
0.9879608,-0.3888543,-0.5012672,-0.02901027,-0.3088126,0.5698229
0.8947832,-0.4680452,-0.526929,0.004571743,-0.09487934,0.6792702
1.008994,-0.4670006,-0.5125418,0.1766888,0.3527968,0.4722103
1.066451,-0.4046058,-0.4920376,0.2002659,0.8064579,0.3547637
1.081261,-0.3479819,-0.4578451,0.1459357,1.041715,0.3625336
1.014086,-0.261461,-0.3378532,0.1090079,0.9252718,0.3651995
0.8651064,-0.1494932,-0.1921984,-0.1242572,0.6342704,0.422336
0.8465837,-0.1591898,-0.1783261,-0.3644184,0.360342,0.4540285
0.9085116,-0.2509706,-0.2389168,-0.3725079,0.2678378,0.4749907
0.90606,-0.2849057,-0.2103055,-0.225014,0.3416889,0.5638618
0.9077452,-0.3171556,-0.2056255,-0.06343317,0.3787913,0.6240137
0.8740172,-0.3366693,-0.2319977,0.07147872,0.512447,0.6324971
0.7610591,-0.3276297,-0.1774503,0.228952,0.5828814,0.5816327
0.6850906,-0.3466466,-0.1671131,0.2999987,0.39711,0.5041542
0.7042825,-0.3195703,-0.17813,0.2960325,0.368546,0.4607665
0.7322637,-0.284679,-0.1533955,0.3255879,0.4605576,0.4154855
0.6987941,-0.28231,-0.1522964,0.2757754,0.5052965,0.3663502
0.6860794,-0.2577338,-0.1388401,0.1407062,0.5300013,0.2982863
0.6848226,-0.2561998,-0.1337108,-0.01313849,0.4081477,0.2493613
0.6670816,-0.249969,-0.1211993,-0.1485942,0.2764629,0.2485774
0.7224111,-0.2599676,-0.1081604,-0.2240911,0.1539623,0.2390479
0.7948126,-0.3195946,-0.1208057,-0.2694999,0.1255997,0.2225447
0.8663546,-0.371891,-0.09130698,-0.2242536,0.2609787,0.1671193
0.9263745,-0.4321488,-0.06941193,-0.1297734,0.2858634,0.1102462
0.9131467,-0.4384863,-0.06060387,-0.1095636,0.2792772,0.1097966
0.9521651,-0.41754,-0.04209923,-0.1048977,0.2934892,0.1182554
1.079422,-0.4242724,-0.03068832,-0.09705189,0.3132102,0.1210236
1.235221,-0.37031,-0.02323412,-0.1036653,0.358844,0.07170986
1.345048,-0.3390288,-0.1236569,-0.1562742,0.2242234,0.04617767
1.3849,-0.4139726,-0.2535497,-0.2283517,-0.04660111,0.1836895
1.421246,-0.5627379,-0.2569482,-0.1467965,-0.3117653,0.3143809
1.272373,-0.6761516,-0.2322595,-0.03511249,-0.4053306,0.2402532
1.020725,-0.6057897,-0.2497053,-0.07434122,-0.3799937,0.08323487
0.959093,-0.4762315,-0.2556175,-0.1776649,-0.468588,-0.03516851
0.9029127,-0.4032808,-0.2529464,-0.3848679,-0.4795809,-0.1371546
0.848992,-0.3307512,-0.2819304,-0.6542096,-0.4103454,-0.1502722
0.9261293,-0.3131011,-0.2934736,-0.7778129,-0.3860902,-0.1840872
0.9384786,-0.3359425,-0.2736985,-0.768618,-0.3646358,-0.3293895
0.9042219,-0.3360726,-0.2550786,-0.7450068,-0.3667015,-0.3544814
0.8928885,-0.3519451,-0.1956992,-0.6767711,-0.3023742,-0.3531942
0.8348268,-0.3489761,-0.1549666,-0.4927746,-0.2571254,-0.4269502
0.7901526,-0.3091261,-0.1793084,-0.3315331,-0.1319407,-0.4464348
0.7451073,-0.2576759,-0.2040711,-0.2936274,0.1588782,-0.4935317
0.6757508,-0.1736137,-0.2314763,-0.3436155,0.1773596,-0.4892934
0.6695318,-0.1144202,-0.2538705,-0.5340524,0.03611271,-0.3975297
0.7145602,-0.1103769,-0.2522763,-0.7410792,0.03246154,-0.3176317
0.760008,-0.1318986,-0.2459174,-0.814593,-0.02260917,-0.2074623
0.7864723,-0.1812512,-0.2333524,-0.8166514,-0.117605,-0.141244
0.8135253,-0.2241559,-0.2218315,-0.7974051,-0.1723216,-0.108068
0.888181,-0.2475921,-0.2380772,-0.7733445,-0.1659483,-0.09445922
0.963466,-0.2571863,-0.2561368,-0.6784305,-0.09700881,-0.1298383
0.9838451,-0.2548006,-0.2307376,-0.4973576,-0.04633795,-0.1086872
0.9538752,-0.2402006,-0.2104219,-0.3168154,-0.02288664,-0.07857196
0.9342284,-0.2055142,-0.2256158,-0.2636268,-0.09767489,-0.05028105
0.9994147,-0.1827945,-0.234748,-0.3800439,-0.2066571,-0.006315975
1.057975,-0.163582,-0.2417259,-0.4250503,-0.2433353,0.02388226
1.037638,-0.1736146,-0.2562554,-0.4098253,-0.3393693,0.1087891
1.052442,-0.2261231,-0.2760004,-0.4595584,-0.396994,0.1495078
1.113933,-0.2366103,-0.2941979,-0.4285336,-0.3225607,0.1430345
1.170244,-0.2812848,-0.2957462,-0.2926637,-0.3060541,0.1990316
1.265081,-0.4053979,-0.3184439,-0.02766131,-0.2821833,0.2192036
1.321566,-0.4480835,-0.3897728,0.09701673,-0.1744611,0.1942068
1.298536,-0.3733512,-0.5147599,-0.2195025,-0.1513281,0.1543886
1.316958,-0.3184881,-0.6312999,-0.4412833,-0.1930411,0.116569
1.2561,-0.3599008,-0.546919,-0.1949935,-0.1696139,0.1936658
1.039367,-0.3929219,-0.3881298,0.06197444,-0.09615366,0.349362
0.9291934,-0.3736687,-0.4405851,0.07143891,0.06507509,0.4596903
0.9768017,-0.3649984,-0.4945161,0.1125063,0.422388,0.5206419
1.03338,-0.3251412,-0.4577626,0.2073016,0.7446738,0.5644042
1.039716,-0.2882599,-0.4570974,0.1898035,0.7640017,0.553063
0.9674096,-0.2962035,-0.3413146,0.1229006,0.7033355,0.4422926
0.8758188,-0.2976737,-0.231174,-0.0005939369,0.6714799,0.2883096
0.8488859,-0.3101245,-0.240485,-0.02436282,0.537655,0.2369986
0.8598549,-0.3043754,-0.2119419,0.07703487,0.4231577,0.3308766
0.8503609,-0.2899869,-0.2137956,0.08017276,0.4090111,0.4176566
0.8520047,-0.3123454,-0.224783,0.1586549,0.4101634,0.4408159
0.8366651,-0.3160278,-0.1977507,0.2739705,0.388576,0.4509241
0.7625451,-0.310884,-0.2008246,0.2649495,0.3559727,0.4281758
0.7182565,-0.3076355,-0.1979156,0.2274192,0.2805771,0.4007052
0.7002591,-0.2970745,-0.1990541,0.1586343,0.1781572,0.3747295
0.7299861,-0.3101031,-0.1880783,0.1697375,0.2142463,0.3337825
0.8006854,-0.3346036,-0.1620367,0.1947264,0.3152016,0.3020163
0.7983749,-0.3652495,-0.1532366,0.1509966,0.3234442,0.2530176
0.7987209,-0.3740903,-0.1435778,0.1418924,0.3236409,0.2291153
0.797086,-0.3493168,-0.1531448,0.04360346,0.2442468,0.2558251
0.7657405,-0.3394956,-0.1627069,-0.08403044,0.08822332,0.2567029
0.8073391,-0.3474105,-0.1604086,-0.1522357,0.07280349,0.2162133
0.850266,-0.3724894,-0.1360387,-0.210423,0.1709687,0.119801
0.8527642,-0.3996804,-0.08672273,-0.2067806,0.2900321,0.01522863
0.8542975,-0.3907125,-0.07802143,-0.2493906,0.3987145,0.02052866
0.8674652,-0.372292,-0.07839281,-0.3258232,0.4610046,0.07483952
0.9304742,-0.3691955,-0.05328513,-0.3187096,0.4562376,0.08419592
1.012881,-0.3603224,-0.03085756,-0.2988468,0.3438797,0.09570772
1.113566,-0.3390536,-0.01573536,-0.303687,0.2786712,0.08403937
1.240277,-0.3244966,-0.05068334,-0.4066186,0.4104593,-0.003998863
1.332491,-0.3840988,-0.1503496,-0.6503819,0.5067478,-0.02084731
1.399119,-0.5893321,-0.2597124,-0.702003,0.2910905,0.1790327
1.445332,-0.7717797,-0.2904853,-0.1845238,-0.06329072,0.3337999
1.405535,-0.6864444,-0.2256795,0.3384927,-0.1837775,0.05878122
1.247473,-0.5225055,-0.1925435,0.04233159,-0.1252075,-0.2800073
0.9697307,-0.4599512,-0.2219966,-0.4851444,-0.1694577,-0.1825554
0.7515989,-0.3175208,-0.2463042,-0.6595206,-0.2991649,-0.05081334
0.8126947,-0.2484996,-0.2728509,-0.8496216,-0.333327,-0.08779042
0.9162348,-0.3706631,-0.2765926,-0.8705237,-0.3138836,-0.08141944
0.897315,-0.3977979,-0.2530695,-0.757333,-0.3358013,-0.2194171
0.9173215,-0.3849283,-0.2410486,-0.7859734,-0.2848086,-0.4107351
0.8637325,-0.3780899,-0.2148556,-0.6625853,-0.1892345,-0.4700847
0.7784568,-0.3083892,-0.1870998,-0.6218178,-0.09341989,-0.4978865
0.8001375,-0.3196145,-0.1903029,-0.6138392,0.03134078,-0.4646916
0.767175,-0.3111667,-0.2060125,-0.4213016,0.04365943,-0.4393338
0.7397202,-0.2685046,-0.2161923,-0.4603073,0.01859843,-0.4193901
0.7613582,-0.2804052,-0.2213088,-0.5306475,0.03272261,-0.3969716
0.7579682,-0.2554854,-0.2281394,-0.522159,-0.003040893,-0.4434452
0.7733275,-0.2556172,-0.2218745,-0.5582095,-0.02692806,-0.4414626
0.7433534,-0.250278,-0.2092784,-0.4993987,-0.06791867,-0.4671431
0.7121536,-0.1904,-0.2191448,-0.5420543,-0.1731069,-0.4997175
0.7699437,-0.1631003,-0.2595389,-0.6206226,-0.2554226,-0.4045958
0.8694951,-0.1593627,-0.2945275,-0.6378054,-0.2019994,-0.3022939
0.9495826,-0.188911,-0.2474388,-0.5753738,-0.05167139,-0.2121309
0.9390561,-0.2180361,-0.1783256,-0.3791763,-0.01368205,-0.1751305
0.9229153,-0.2004011,-0.1981322,-0.3638048,-0.0889049,-0.1806697
0.9853314,-0.1497373,-0.2407083,-0.4418721,-0.1293045,-0.1502117
1.025515,-0.0951298,-0.2551488,-0.4443887,-0.03856604,-0.1366352
1.013509,-0.1175214,-0.2489595,-0.4680783,0.03925851,-0.07907683
1.012738,-0.1727294,-0.1972367,-0.445804,-0.136664,-0.0324784
1.039902,-0.1863617,-0.1561303,-0.4326366,-0.2821355,-0.0453272
1.069431,-0.1911692,-0.1613991,-0.3600531,-0.1710346,-0.01407989
1.111753,-0.2088853,-0.1760452,-0.2127293,-0.119873,0.007215575
1.193113,-0.2623135,-0.1934507,-0.1292319,-0.2231683,0.04522994
1.239553,-0.2969398,-0.2324676,-0.01591701,-0.3064697,0.1455395
1.263463,-0.271169,-0.3706011,0.02695656,-0.3320757,0.1986733
1.474147,-0.2695723,-0.5989508,-0.1358138,-0.3034355,0.1560684
1.693496,-0.2995265,-0.6771865,-0.2433158,-0.2436037,0.1212052
1.457984,-0.3652275,-0.5095765,-0.04514997,-0.2057247,0.2439571
1.05442,-0.4528767,-0.3953346,0.2253276,-0.1188598,0.4533376
0.9677555,-0.4254238,-0.4625373,0.313608,0.1255184,0.5616808
0.9938749,-0.349934,-0.4743875,0.4069835,0.5872226,0.5209894
1.051738,-0.3076226,-0.4290456,0.4523168,1.064307,0.4787514
1.144975,-0.1910046,-0.4071873,0.3531463,1.10126,0.5469631
1.014494,-0.1312345,-0.304088,0.2285794,0.8541647,0.551842
0.8362237,-0.2003428,-0.2005469,-0.06794303,0.656935,0.4881288
0.8167919,-0.2219644,-0.1921037,-0.2634945,0.4175947,0.4896782
0.8313609,-0.2429386,-0.2134417,-0.1287912,0.385866,0.5125859
0.837805,-0.2954891,-0.2280031,-0.04758712,0.5339215,0.5740842
0.8008916,-0.2981879,-0.20729,0.06023623,0.5249768,0.5916073
0.757619,-0.3033029,-0.1866365,0.1647962,0.5321547,0.5481233
0.7212848,-0.3108151,-0.194232,0.03359805,0.5167865,0.5484518
0.6587844,-0.3071567,-0.1796009,-0.008889731,0.394823,0.5196759
0.6619918,-0.3124406,-0.1681036,0.02631343,0.3329242,0.5060326
0.7178831,-0.3060194,-0.1736382,-0.006640126,0.3466871,0.4759787
0.769218,-0.3054325,-0.1619236,-0.01491403,0.3862042,0.3524311
0.7692398,-0.3078562,-0.1498133,-0.1048732,0.2996703,0.2828341
0.7313041,-0.3082434,-0.144899,-0.2234594,0.1766393,0.2694479
0.7466979,-0.3251612,-0.1439227,-0.2992152,0.1493863,0.2696098
0.7741816,-0.3569661,-0.136117,-0.3305438,0.1185583,0.2468631
0.823432,-0.4022866,-0.1139677,-0.2721412,0.1810245,0.1397077
0.8763165,-0.4209964,-0.1097394,-0.2553775,0.31644,0.03851143
0.8603185,-0.3989172,-0.1152746,-0.3088056,0.4594713,0.01639355
0.861184,-0.3786913,-0.1034169,-0.3416207,0.5301924,0.06693973
0.8849092,-0.3651573,-0.08291936,-0.3211902,0.3117879,0.119311
0.9463622,-0.3519629,-0.06543919,-0.2918998,0.1067583,0.1495831
1.065744,-0.3486831,-0.06529786,-0.3201147,0.1692473,0.173191
1.127236,-0.3521849,-0.08676883,-0.3646585,0.1854116,0.161639
1.224342,-0.381556,-0.1601399,-0.4497325,0.1002395,0.2124927
1.428091,-0.4971829,-0.2872716,-0.4768122,0.08886023,0.3208056
1.478863,-0.6483585,-0.3387529,-0.25405,0.04348038,0.3175779
1.308112,-0.6603072,-0.2862736,-0.07055583,-0.06996914,0.1357175
1.128007,-0.5548976,-0.2523921,-0.2433219,-0.09142131,-0.1068899
0.9831186,-0.4725601,-0.2352508,-0.443023,-0.1505257,-0.1484697
0.889797,-0.4025655,-0.2318947,-0.4242572,-0.3860786,-0.05736556
0.9060097,-0.3815065,-0.2830351,-0.5367323,-0.5651909,-0.04736292
0.9152018,-0.4192952,-0.3216799,-0.7663541,-0.514773,-0.001034759
0.9096934,-0.4390208,-0.3383988,-0.7761628,-0.4199662,0.02733934
0.9422644,-0.4784364,-0.323401,-0.6939653,-0.387983,-0.09616206
0.912639,-0.4574979,-0.2688995,-0.5895924,-0.2625821,-0.2491003
0.8471034,-0.3767103,-0.2600552,-0.4473218,-0.2086236,-0.4034457
0.7918085,-0.3801192,-0.2435569,-0.3758808,-0.2683817,-0.5313852
0.7235252,-0.3425459,-0.2058802,-0.3002262,-0.143124,-0.5857251
0.7093542,-0.2869313,-0.2130729,-0.2019206,0.02542578,-0.6359294
0.7232887,-0.3098049,-0.2137043,-0.07729066,0.1260264,-0.6561259
0.7056079,-0.2743758,-0.2349458,-0.0004064434,0.1444379,-0.6188115
0.7101611,-0.2354897,-0.2722136,-0.1084692,0.02348667,-0.5742755
0.7015695,-0.3060519,-0.2786452,-0.9711591,0.02620099,-0.379622
0.7233022,-0.2479913,-0.3053319,-0.9215967,0.003415376,-0.2920467
0.7266825,-0.2398233,-0.2774016,-0.8284279,0.0008187513,-0.2482423
0.7334146,-0.1698262,-0.2908021,-0.6912921,-0.08574807,-0.143148
0.7807104,-0.1566288,-0.2925177,-0.764639,-0.1342235,-0.1361687
0.8384263,-0.1957711,-0.2853094,-0.7771592,0.04520696,-0.1354584
0.9619973,-0.2163288,-0.2491739,-0.6379458,0.2403919,-0.160181
1.001258,-0.2182835,-0.1719155,-0.5854953,0.2010793,-0.1947542
0.9450756,-0.1412557,-0.1641953,-0.6395074,0.1109395,-0.09903712
0.9504501,-0.07046406,-0.1849426,-0.771454,0.01148989,0.026708
0.9852376,-0.07611221,-0.1998383,-0.9238721,-0.1996824,0.1047398
1.017367,-0.1288598,-0.2252284,-1.011228,-0.226112,0.05449172
1.055604,-0.2153912,-0.2238508,-0.936956,-0.1376009,-0.04601463
1.066825,-0.3152244,-0.21963,-0.7508159,-0.2907163,-0.09351549
1.08131,-0.3767972,-0.2722385,-0.6880693,-0.4260876,-0.1168672
1.188788,-0.389458,-0.4173691,-0.7675306,-0.411211,-0.05436488
1.367165,-0.4162598,-0.5851557,-0.8267426,-0.3370381,0.02985058
1.461889,-0.3761021,-0.6280937,-0.7208682,-0.2073365,0.2124633
1.387235,-0.310402,-0.5785337,-0.5434927,-0.2078597,0.5261111
1.225354,-0.3631654,-0.6017034,-0.4735522,-0.02640335,0.6510777
1.055446,-0.3938557,-0.628329,-0.39335,0.5181306,0.6416832
0.9676234,-0.3874693,-0.5526776,-0.3291324,0.8752724,0.6087297
1.02845,-0.3940811,-0.4642169,-0.2549008,0.9645386,0.4829937
1.024582,-0.3432484,-0.3668992,-0.09766782,1.00873,0.4844655
0.9177288,-0.2907526,-0.2824583,-0.1869744,0.9674989,0.4997039
0.876112,-0.2435405,-0.2700722,-0.381433,0.8436775,0.3822447
0.8278749,-0.212371,-0.2740653,-0.4077526,0.7291211,0.4284518
0.816935,-0.2230388,-0.2776178,-0.41856,0.6437075,0.5125036
0.8245553,-0.231112,-0.2726523,-0.3837771,0.5558933,0.4999614
0.760371,-0.2575199,-0.2710775,-0.3857405,0.5536133,0.5047637
0.7437621,-0.2933773,-0.2662574,-0.4105132,0.5824616,0.4182228
0.6928743,-0.3213393,-0.2168932,-0.3312763,0.5508317,0.3649179
0.6360501,-0.3392329,-0.1786403,-0.2615964,0.5409395,0.3572133
0.6587781,-0.3500966,-0.1632783,-0.1101759,0.5373074,0.2830062
0.6381102,-0.3745194,-0.1541582,0.03687288,0.5942022,0.2782967
0.6557676,-0.3491554,-0.150916,0.02466896,0.6512796,0.2337445
0.6891919,-0.2839653,-0.1386029,-0.0475067,0.4629935,0.1351827
0.677669,-0.258755,-0.1434312,-0.2463037,0.1623231,0.1126778
0.7184907,-0.2709958,-0.155824,-0.4586962,0.03921267,0.1424855
0.7857714,-0.3134526,-0.1621415,-0.503139,0.1003436,0.1949163
0.8839348,-0.379967,-0.1400767,-0.4638704,0.2434978,0.1543852
0.9533808,-0.4540232,-0.09570297,-0.4268204,0.4219021,0.05952954
0.9509624,-0.4736649,-0.09300531,-0.4032268,0.4944691,-0.01131097
0.9941036,-0.422724,-0.09121463,-0.3431278,0.440369,-0.02162374
1.104134,-0.3864679,-0.07618529,-0.265686,0.5334226,0.04842355
1.234095,-0.3473052,-0.1070766,-0.2329011,0.7825495,0.03769105
1.300919,-0.3277349,-0.177712,-0.3355853,0.8736561,0.05065102
1.300037,-0.4616347,-0.2440521,-0.4726954,0.5205291,0.185794
1.314183,-0.6907869,-0.2666064,-0.3827465,-0.1864989,0.27911
1.307213,-0.7819033,-0.2831786,-0.2428791,-0.5886668,0.2569194
1.199357,-0.6451286,-0.2953642,-0.2127557,-0.5324057,0.1103377
0.9701239,-0.4811631,-0.2736692,-0.2821146,-0.5174115,0.001194853
0.7777439,-0.4122119,-0.2925255,-0.582434,-0.4573817,-0.04979448
0.7861908,-0.3512376,-0.3220072,-0.9405724,-0.254288,-0.1792285
0.8870737,-0.3337328,-0.311617,-1.115387,-0.2928243,-0.3473764
0.968335,-0.3675928,-0.2971693,-1.012491,-0.3688935,-0.4453562
1.002761,-0.3802691,-0.2272477,-0.7304381,-0.2239968,-0.3981342
0.9357479,-0.386679,-0.1552526,-0.5479517,-0.2058918,-0.4159047
0.8107107,-0.3554997,-0.1654223,-0.4844427,-0.2326869,-0.4834443
0.7041873,-0.2854402,-0.1804808,-0.5102472,-0.1112334,-0.4274084
0.6419729,-0.2190014,-0.2080278,-0.5264577,-0.06850683,-0.4247909
0.6253104,-0.1563808,-0.2811994,-0.6230351,-0.1247991,-0.3899474
0.6306621,-0.1468305,-0.3262518,-1.008253,-0.195665,-0.3556779
0.6966532,-0.1948606,-0.3168212,-1.194726,-0.1543986,-0.4125313
0.7925576,-0.2413785,-0.2959373,-1.053144,-0.06319703,-0.3788523
0.799697,-0.2718539,-0.2813442,-0.9301826,-0.06887823,-0.3907916
0.7881351,-0.2850288,-0.2778739,-0.7558498,0.03850072,-0.3916577
0.8304501,-0.2651914,-0.2949001,-0.6553582,0.145588,-0.3163314
0.8743709,-0.2196426,-0.2997035,-0.6807768,0.1091388,-0.2732017
0.9180002,-0.1984051,-0.2946623,-0.6199068,0.05231506,-0.1351709
0.923836,-0.2076003,-0.2884791,-0.5404638,-0.03587098,-0.03097949
0.9055802,-0.2094077,-0.2607234,-0.5729995,-0.07028166,-0.003386231
0.9418749,-0.2092654,-0.2532919,-0.6338102,-0.100938,0.04250333
0.9891315,-0.2243149,-0.268505,-0.6370547,-0.1177327,0.0374314
1.029918,-0.2603704,-0.2760705,-0.6438175,-0.05442841,0.01546426
1.085936,-0.3065064,-0.2833353,-0.5643571,-0.04357209,-0.0620257
1.129031,-0.3314155,-0.3147422,-0.4161063,-0.02227506,-0.1170983
1.19492,-0.3240744,-0.4167673,-0.3745757,-0.03736673,-0.06223712
1.313045,-0.3075998,-0.5635337,-0.423902,-0.07282254,-0.03765111
1.397458,-0.3162472,-0.6378125,-0.5258181,0.04821498,-0.04461893
1.372777,-0.3715436,-0.5611451,-0.5210275,0.1356231,0.0211062
1.295746,-0.4332258,-0.483037,-0.3325344,0.08956015,0.2252805
1.143187,-0.4144498,-0.5318096,-0.1011968,0.1014641,0.4221515
0.9170798,-0.3643858,-0.5381657,0.01052025,0.3337204,0.4216755
0.9226155,-0.3506021,-0.488451,-0.03135575,0.7174517,0.3649844
1.046678,-0.2800965,-0.4418856,0.008542407,0.9392334,0.3847063
0.9726922,-0.203939,-0.3203281,0.07116572,0.8913233,0.4000332
0.969103,-0.2326053,-0.2815951,0.03799922,0.7643147,0.3893744
0.9751694,-0.2725501,-0.328202,5.052418e-05,0.691284,0.3923186
0.8509427,-0.298841,-0.2815405,-0.086656,0.6778578,0.3685597
0.8713225,-0.3444417,-0.2607604,-0.007294609,0.730595,0.3415469
0.8525932,-0.3533092,-0.2637235,0.2273561,0.7730474,0.3462506
0.7387014,-0.3498988,-0.2023403,0.3685032,0.7179054,0.3204645
0.7170696,-0.3574283,-0.1848976,0.4592585,0.5650346,0.2848188
0.6989891,-0.3082295,-0.2105883,0.3834708,0.3558439,0.2608008
0.7043304,-0.2492452,-0.2291922,0.2666104,0.2801747,0.253978
0.7117258,-0.251647,-0.2398725,0.2555045,0.2770391,0.2425773
0.7437433,-0.2688921,-0.2245095,0.1672196,0.2066607,0.1384722
0.7860352,-0.2916996,-0.1911542,0.1067511,0.2427383,0.003743565
0.7340431,-0.3183382,-0.1425786,0.04402547,0.2448124,-0.05278987
0.7247062,-0.3320663,-0.1054257,-0.04179324,0.1445839,-0.0170789
0.7383265,-0.3360069,-0.110166,-0.008230873,0.0642169,0.04054514
0.7446826,-0.3185623,-0.1324543,-0.03571575,-0.07634938,0.06612498
0.8065729,-0.3149684,-0.1404042,-0.09595055,-0.01894421,0.06792674
0.8514577,-0.3351572,-0.1273546,-0.1041946,0.1906446,0.01533947
0.8765115,-0.3540652,-0.1028776,-0.1259083,0.2440461,-0.02025709
0.8707082,-0.3546967,-0.07369057,-0.07390844,0.3090027,-0.02925443
0.9110791,-0.3186027,-0.05973935,-0.04893879,0.3526567,-0.07082667
1.036561,-0.2776626,-0.07500095,-0.1316629,0.3832167,-0.06242102
1.127879,-0.2424525,-0.09710634,-0.2686811,0.5043588,-0.02281451
1.219225,-0.2568754,-0.1195039,-0.4306555,0.5183461,0.0933327
1.3604,-0.4298853,-0.179467,-0.4383444,0.3755008,0.3012548
1.481493,-0.6974404,-0.261631,-0.1825863,0.07872948,0.3123163
1.485442,-0.7833414,-0.2773696,0.22438,-0.146733,0.07453867
1.4031,-0.6165181,-0.2446565,0.3707102,-0.08989246,-0.1308207
1.200709,-0.4665703,-0.245111,-0.02909285,-0.1445925,-0.1205867
0.8508081,-0.3991278,-0.2545095,-0.4919888,-0.343422,0.02300237
0.7705122,-0.3447281,-0.2554813,-0.5875326,-0.3204358,0.06796247
0.9431132,-0.3826832,-0.2674632,-0.5879281,-0.3628875,-0.08165486
0.9473162,-0.4297984,-0.267434,-0.6298066,-0.5927467,-0.2963431
0.955434,-0.4349324,-0.2577711,-0.4829074,-0.5484574,-0.3985071
0.9591949,-0.4376245,-0.2468385,-0.2531364,-0.3910105,-0.4253782
0.7837554,-0.385307,-0.2178178,-0.1933249,-0.3567494,-0.4758047
0.6634556,-0.3443145,-0.2016132,-0.2088599,-0.2758472,-0.4910649
0.6439713,-0.323476,-0.2199089,-0.1829458,-0.2967634,-0.5202451
0.6601496,-0.2803563,-0.2437169,-0.1316537,-0.308581,-0.5973041
0.6602565,-0.2701397,-0.2691892,-0.09825316,-0.1996161,-0.6098349
0.6201995,-0.2705905,-0.2958566,-0.1094933,-0.1305756,-0.603635
0.6365666,-0.2556352,-0.3084755,-0.1327612,-0.01615372,-0.6251835
0.6394475,-0.2051828,-0.3037129,-0.2192921,-0.02986231,-0.6385675
0.6831626,-0.143531,-0.2759249,-0.3499382,-0.1773884,-0.6292418
0.8100231,-0.1338027,-0.2460236,-0.3667621,-0.2682154,-0.5120437
0.8653082,-0.1290257,-0.2498404,-0.3409469,-0.345233,-0.3251514
0.9154415,-0.1202147,-0.2754728,-0.4070879,-0.2755102,-0.2318843
0.9979458,-0.1176445,-0.2887174,-0.4315953,-0.1457666,-0.2310094
1.038608,-0.1127004,-0.277742,-0.3829592,-0.0703611,-0.1890227
0.9915542,-0.1350899,-0.2525059,-0.3989338,-0.05087884,-0.1162243
0.8971613,-0.1595183,-0.235521,-0.4494543,-0.1318705,-0.08670597
0.8933297,-0.1680437,-0.2420316,-0.4950292,-0.1453187,-0.002017618
0.9465723,-0.1683646,-0.2587752,-0.49445,-0.2119443,0.1168346
1.031307,-0.182675,-0.2569198,-0.4227124,-0.2513786,0.1513381
1.125326,-0.2199067,-0.2268399,-0.352268,-0.01767055,0.1125377
1.153433,-0.2273781,-0.2054481,-0.245766,0.08361785,0.02494615
1.17387,-0.2251658,-0.265004,-0.1869843,-0.1153721,0.0042622
1.225377,-0.2742715,-0.4056256,-0.2152641,-0.3172462,0.05733701
1.367435,-0.3660515,-0.5160193,-0.1514673,-0.2494599,0.07174236
1.478601,-0.4163807,-0.5349166,-0.01857748,0.01960635,0.07189488
1.327015,-0.3699303,-0.5256866,0.1174629,0.1457079,0.08464112
1.100485,-0.3394577,-0.535184,0.1591449,0.1417948,0.1658745
1.015293,-0.3760082,-0.5246727,0.1596369,0.206634,0.2647628
1.016437,-0.3712753,-0.492327,0.3036379,0.5525271,0.2713467
1.049557,-0.3125793,-0.4638312,0.3474647,0.9098203,0.2941802
1.064818,-0.2626486,-0.4098168,0.3286527,0.8390977,0.3944384
1.021173,-0.2644939,-0.3546274,0.3812815,0.6811114,0.4675059
0.9514889,-0.3201496,-0.3098816,0.253306,0.5322787,0.4023955
0.9113965,-0.3676029,-0.2508327,0.19286,0.3915531,0.2990166
0.9084969,-0.383147,-0.2392126,0.3927261,0.5022923,0.3133939
0.8935591,-0.3696631,-0.2453971,0.6260561,0.5341782,0.3604498
0.834748,-0.3354974,-0.2247565,0.7270457,0.3739696,0.405628
0.7774581,-0.3106884,-0.2330993,0.6424774,0.2172204,0.4301431
0.743619,-0.2934586,-0.2311765,0.6254011,0.08113092,0.3898906
0.7138003,-0.3012482,-0.2052894,0.6726691,0.03769095,0.3630597
0.7036026,-0.3099285,-0.1814405,0.6983773,0.09360558,0.3092753
0.6882351,-0.2825315,-0.1482401,0.7687334,0.1254944,0.2284732
0.6646834,-0.2640544,-0.153464,0.586773,-0.02994301,0.1957657
0.6789692,-0.2476737,-0.164604,0.2819452,-0.1958931,0.1909326
0.7172319,-0.2455711,-0.1443003,0.2037844,-0.1501754,0.2456192
0.7579341,-0.2773089,-0.1544364,0.1488737,-0.1171487,0.3121091
0.7749544,-0.3112585,-0.1653862,0.00902512,-0.1566014,0.3257476
0.7598499,-0.3763458,-0.1533589,-0.08615935,-0.1371402,0.3352626
0.7626036,-0.4295049,-0.1425589,-0.07323661,-0.1177473,0.3201266
0.7890326,-0.4231336,-0.09427709,-0.01513794,-0.07921994,0.2633309
0.8195211,-0.4084149,-0.04359061,0.06992286,0.01747854,0.2083176
0.8766094,-0.3902225,-0.051988,0.1956081,0.06488494,0.1804503
0.9725932,-0.3509462,-0.07270552,0.166495,0.1198243,0.1403093
1.091102,-0.2870772,-0.08045845,0.01623657,0.2824678,0.08142225
1.185676,-0.2568675,-0.1231675,-0.09922986,0.3174127,0.1312187
1.243253,-0.3581328,-0.222123,-0.2467315,-0.05604671,0.2607166
1.375291,-0.6005835,-0.2832872,-0.1900249,-0.6833025,0.3155959
1.589333,-0.8533453,-0.2056301,0.2463338,-0.9650071,0.2598605
1.620975,-0.8856453,-0.1251297,0.7271368,-0.713895,0.01101717
1.324307,-0.6748422,-0.1621106,0.8595224,-0.4941462,-0.3607199
1.012668,-0.4961294,-0.1529249,0.6210408,-0.4880452,-0.5176369
0.9809294,-0.4906565,-0.1071371,0.531303,-0.4474056,-0.4289485
0.9281476,-0.4960136,-0.1909986,0.6320691,-0.3782536,-0.4174273
0.7023261,-0.4306918,-0.2807201,0.4828171,-0.3074116,-0.5539659
0.7141491,-0.4162378,-0.2941013,0.2482035,-0.4008795,-0.6897761
0.8343805,-0.4242266,-0.313622,0.0957142,-0.5879514,-0.8427208
0.7751025,-0.3912885,-0.3213749,0.1085775,-0.4925811,-0.9324593
0.8074466,-0.4186985,-0.3100573,0.2402588,-0.415089,-0.8792363
0.8417477,-0.4783907,-0.2833707,0.2578735,-0.4753141,-0.8999691
0.8065106,-0.50738,-0.2535821,0.4325671,-0.3695438,-1.006644
0.8761845,-0.5078264,-0.2702114,0.6595682,-0.3214781,-1.116287
0.8311763,-0.4163325,-0.3031652,0.7113036,-0.3327151,-1.207907
0.7459437,-0.2817816,-0.3120929,0.7497561,-0.3067711,-1.105913
0.7410433,-0.1994797,-0.305496,0.634773,-0.3488064,-0.9101098
0.6803954,-0.2081826,-0.2997374,0.4805758,-0.3565883,-0.7613223
0.6758314,-0.259996,-0.2995991,0.3709002,-0.3911567,-0.6730558
0.6842471,-0.2618736,-0.2831803,0.3300468,-0.3715104,-0.7534755
0.6829341,-0.2752055,-0.2494054,0.5151905,-0.2329512,-0.8214188
0.7198422,-0.2438293,-0.2385204,0.6121123,-0.1954223,-0.8003634
0.7246077,-0.1233594,-0.2584836,0.5798879,-0.2772255,-0.8051672
0.8246206,-0.06133164,-0.2674179,0.4646005,-0.3685681,-0.7032249
0.9849281,-0.03059914,-0.249873,0.2929834,-0.2679883,-0.5598309
1.028533,-0.02299164,-0.2097819,0.3599176,-0.1520659,-0.4721209
0.9561661,-0.02558351,-0.1779059,0.3595711,-0.2824289,-0.3089635
0.912605,0.008611388,-0.2140411,0.09843753,-0.3588449,-0.1142264
1.001925,-0.02679564,-0.2490502,-0.1999021,-0.3259431,-0.0514573
1.054127,-0.1043358,-0.1768848,-0.3607283,-0.2156675,-0.1454507
1.026427,-0.1933992,-0.09321749,-0.1773669,-0.0582617,-0.2690103
1.024114,-0.2586385,-0.09421996,0.001416439,-0.158987,-0.3508232
1.041619,-0.2322392,-0.1286621,0.02209078,-0.2980898,-0.3016065
1.11769,-0.2318789,-0.2087731,0.2811352,-0.2441838,-0.09123767
1.23456,-0.2570984,-0.3340668,0.6083369,-0.1766676,0.04561674
1.392747,-0.3097538,-0.442951,0.684813,-0.0433763,0.04132117
1.60078,-0.409417,-0.5606908,0.5944865,0.1064866,-0.0985154
1.650541,-0.399491,-0.599284,0.5065574,0.08077379,-0.3124346
1.446577,-0.3570665,-0.5324572,0.4696374,-0.1221041,-0.2930768
1.167511,-0.3803245,-0.5589704,0.4266557,-0.2969654,-0.01266138
0.9746342,-0.3787264,-0.5892715,0.4156307,0.01807014,0.3409426
1.02015,-0.4019884,-0.5431903,0.4553263,0.8031368,0.5240639
1.17634,-0.4351155,-0.554038,0.5484739,1.339358,0.4806622
1.120629,-0.3660846,-0.4703559,0.6700513,1.245927,0.4760839
1.016755,-0.2407602,-0.3109839,0.6107549,0.8040769,0.4642602
0.9086243,-0.148311,-0.2697012,0.3435073,0.3820887,0.4367295
0.7721965,-0.1440085,-0.2696808,0.05765728,0.12478,0.5118907
0.841895,-0.2261522,-0.2750522,-0.009065363,0.1719048,0.5470651
0.8291612,-0.3298209,-0.2524866,0.2416876,0.2980156,0.5437183
0.7337989,-0.4218352,-0.2074386,0.5089868,0.2135654,0.4989474
0.7414603,-0.4525187,-0.2046615,0.6470989,0.3084427,0.4036149
0.6529861,-0.3908889,-0.2007962,0.6916572,0.3953877,0.3441325
0.6591883,-0.2956064,-0.2065228,0.603297,0.1733031,0.3062518
0.6976711,-0.2034167,-0.2074104,0.5008354,0.04974878,0.3421572
0.6775657,-0.1554187,-0.2026353,0.3514804,-0.0589214,0.4085647
0.7577607,-0.1858766,-0.1899002,0.2049786,-0.0685622,0.4406385
0.749553,-0.2430114,-0.1339756,0.1666908,0.01511258,0.4606493
0.7216461,-0.2977666,-0.1193012,0.04136843,-0.0993519,0.4297942
0.734014,-0.3324438,-0.1313597,-0.07087017,-0.1198483,0.4015991
0.7433715,-0.3407868,-0.1207121,-0.05517526,-0.1414181,0.3501168
0.8187331,-0.3704349,-0.1125749,0.02607505,-0.1228323,0.2322464
0.8382618,-0.3993348,-0.1035989,0.1719363,0.06904172,0.136316
0.850107,-0.4194049,-0.1028236,0.202607,0.1549334,0.07208533
0.8906456,-0.4567876,-0.08434836,0.2492093,0.3426305,0.06027794
0.9367163,-0.4516927,-0.06881601,0.4240507,0.44729,0.06281194
1.030521,-0.3785458,-0.08964286,0.409376,0.2063928,0.001840888
1.125967,-0.275585,-0.1399443,0.1654306,-0.01285383,-0.006973487
1.311354,-0.2852743,-0.2395261,-0.2205834,-0.1060286,0.1669912
1.507863,-0.5457306,-0.3127418,-0.4068408,-0.1701316,0.3702718
1.5368,-0.8497398,-0.3016422,0.08502799,-0.3065629,0.3074816
1.427393,-0.8868722,-0.2721672,0.6012315,-0.4311273,0.06298172
1.190135,-0.7077119,-0.2339317,0.4356502,-0.4490216,-0.1454501
0.921047,-0.5470192,-0.1736253,0.2748839,-0.4423277,-0.3142345
0.7344928,-0.3957867,-0.1664476,0.2443778,-0.3790507,-0.3903453
0.6940585,-0.2391162,-0.2225581,-0.2724964,-0.3567382,-0.4725372
0.8171414,-0.2307915,-0.2701195,-0.64385,-0.3754884,-0.5507504
0.9450968,-0.3097309,-0.2731062,-0.4822416,-0.3522611,-0.4621551
0.9790294,-0.3825669,-0.1980144,-0.2868117,-0.370458,-0.4501727
0.8866939,-0.4148099,-0.13328,-0.07083953,-0.4027597,-0.5615449
0.7290162,-0.3524726,-0.1688932,-0.0530064,-0.4286289,-0.6409326
0.6673366,-0.2928104,-0.2165388,-0.2174366,-0.3849329,-0.6957267
0.6432227,-0.2266901,-0.2579917,-0.235345,-0.2537966,-0.6337563
0.6198153,-0.158657,-0.3035326,-0.4197162,-0.1794544,-0.552952
0.661554,-0.1665655,-0.3106584,-0.618083,-0.1481059,-0.4955845
0.717336,-0.1804827,-0.2991877,-0.5988226,-0.06907674,-0.4224513
0.7609477,-0.1999445,-0.2859496,-0.5585008,-0.0003819286,-0.4277525
0.7589131,-0.2079653,-0.2744753,-0.3789095,-0.109011,-0.3670731
0.7505954,-0.1869635,-0.2744344,-0.2774367,-0.2760767,-0.2395861
0.823352,-0.1744396,-0.2852835,-0.4081348,-0.2604642,-0.1723139
0.8906626,-0.1554985,-0.2920966,-0.4510817,-0.1690133,-0.1396675
0.9273293,-0.1911741,-0.2862692,-0.3479872,-0.07584897,-0.1071387
0.9777167,-0.2330917,-0.2775818,-0.2126351,-0.04200554,0.01542939
0.9843239,-0.1884436,-0.2739365,-0.1789411,-0.1414167,0.09525665
0.9835536,-0.1453616,-0.2980033,-0.2233843,-0.1896308,0.07137164
1.039037,-0.1455818,-0.3365379,-0.3178281,-0.1583244,0.07758948
1.05625,-0.180621,-0.3348067,-0.4451524,-0.1525146,0.02181449
1.038789,-0.2782688,-0.2852074,-0.3457351,-0.1789723,-0.0564844
1.091026,-0.386904,-0.2521504,-0.1058123,-0.2588455,-0.07825393
1.153528,-0.4188986,-0.2924643,0.1262533,-0.3649042,-0.1007184
1.222702,-0.4180025,-0.3614914,0.3565693,-0.3683428,-0.1101617
1.383598,-0.4205255,-0.443633,0.3834436,-0.1572711,-0.1606496
1.533978,-0.3548981,-0.5466827,0.3852343,-0.003446221,-0.1820648
1.464624,-0.3074198,-0.5413578,0.4649336,-0.2051768,-0.002241554
1.185189,-0.3777998,-0.4818955,0.4065877,-0.302337,0.326965
1.01427,-0.4482091,-0.5215947,0.4189052,0.2079882,0.5841392
1.06214,-0.4390989,-0.5093705,0.4725383,0.766345,0.6128884
1.097518,-0.3838198,-0.4391741,0.4463893,0.7461558,0.510776
1.027575,-0.2955917,-0.3910278,0.4964459,0.654471,0.4270319
0.9668855,-0.2233832,-0.2930048,0.3738071,0.712444,0.3757399
0.9245342,-0.2668943,-0.2640399,0.224457,0.4985531,0.3333202
0.8169369,-0.345306,-0.2333968,0.4004829,0.3714033,0.3162604
0.8036827,-0.3351637,-0.1568413,0.6055889,0.4724492,0.3341573
0.8545358,-0.3352733,-0.2084255,0.7918302,0.4507819,0.3196661
0.7721226,-0.3506411,-0.2049009,0.9598484,0.4798404,0.2836888
0.7315059,-0.3309915,-0.1677939,0.9264105,0.4808117,0.2589973
0.6942578,-0.3186555,-0.2028248,0.8575538,0.3441038,0.2297425
0.6176519,-0.2703872,-0.1389352,0.829416,0.2511414,0.2417001
0.6540344,-0.2311878,-0.0919692,0.7496945,0.1329909,0.2535765
0.6547353,-0.2319426,-0.09646548,0.6054206,0.01253608,0.2448895
0.6425369,-0.2184051,-0.1003116,0.3641667,-0.1757809,0.2758155
0.6699144,-0.2338116,-0.1424596,0.06661094,-0.4250158,0.3217983
0.6672771,-0.2867851,-0.1285489,-0.05188173,-0.4758968,0.3863471
0.7277667,-0.3919213,-0.1184434,0.05813009,-0.3396991,0.4156308
0.8032762,-0.5068031,-0.1280071,0.1556631,-0.1086415,0.3241369
0.827092,-0.5269799,-0.1157587,0.2140129,0.01545289,0.1916203
0.8101616,-0.495753,-0.1364905,0.2362575,-0.02678992,0.09271979
0.7970226,-0.4584208,-0.1361124,0.1735088,-0.01189777,0.04170212
0.8568561,-0.4332934,-0.1307911,0.1626217,0.06164351,0.04584289
0.9290663,-0.43994,-0.1285645,0.1899209,0.1753813,0.05228646
1.008633,-0.4287212,-0.1118023,0.1576185,0.2677986,0.001153362
1.126936,-0.371408,-0.1257405,0.00773748,0.341686,-0.1169241
1.292529,-0.3492178,-0.1365359,-0.3024575,0.5230275,-0.1747725
1.48742,-0.487728,-0.1856116,-0.4565362,0.5293463,0.01152658
1.549281,-0.6794687,-0.2694191,-0.2346072,0.08644534,0.2288368
1.440398,-0.7116816,-0.2776609,-0.04069114,-0.4729615,0.1343252
1.291245,-0.6663691,-0.2486177,-0.0616409,-0.6017519,-0.03858014
1.135295,-0.6395746,-0.2469597,-0.04783447,-0.4641341,-0.110126
0.9056106,-0.5164182,-0.2606828,-0.157455,-0.5508496,-0.2211694
0.6727233,-0.3726787,-0.2801809,-0.4603647,-0.6837484,-0.2206572
0.6567031,-0.386664,-0.3005927,-0.5661132,-0.7422647,-0.1982559
0.778219,-0.4595508,-0.296752,-0.5189407,-0.7204825,-0.3730668
0.8165466,-0.4938807,-0.2586043,-0.3671655,-0.3976377,-0.5800742
0.831804,-0.4991562,-0.1982085,0.08133002,-0.07501863,-0.7625026
0.850796,-0.4214423,-0.145428,0.4724935,-0.03066558,-0.8490525
0.8275131,-0.3119619,-0.1769019,0.5783674,-0.06781937,-0.8426277
0.7994541,-0.2272297,-0.2453277,0.5410472,-0.03750054,-0.8451584
0.7352645,-0.1115378,-0.2640305,0.3392244,0.001036867,-0.7536774
0.6678581,-0.007418401,-0.288493,-0.05688912,-0.08740758,-0.6703586
0.6683624,0.007950777,-0.2980942,-0.5883313,-0.2008456,-0.6105994
0.6813186,-0.04018183,-0.2788491,-0.8577238,-0.293357,-0.4931861
0.701645,-0.1255429,-0.2792401,-0.7637359,-0.3827415,-0.4203504
0.7595062,-0.2459118,-0.2675398,-0.6292878,-0.3680825,-0.3402133
0.828358,-0.3391828,-0.2767476,-0.3469715,-0.2610853,-0.3088704
0.8869963,-0.3493728,-0.3054917,-0.09598037,0.01824314,-0.3390477
0.9129258,-0.2963821,-0.2946815,-0.03563535,0.220879,-0.3132885
0.9063762,-0.2121415,-0.2642284,0.04448522,0.02367083,-0.2634767
0.9025505,-0.1227699,-0.2318088,-0.08178366,-0.197237,-0.138658
0.9283444,-0.05216646,-0.247181,-0.3126835,-0.2151742,0.02029304
0.9635062,-0.02947177,-0.2836947,-0.4673166,-0.2016322,0.1412413
0.977491,-0.06377233,-0.2679607,-0.6051665,-0.2118864,0.2426003
0.9745705,-0.1129646,-0.2442663,-0.5568423,-0.2530456,0.2485286
0.9758189,-0.1632562,-0.2065904,-0.4868975,-0.2952103,0.1639737
1.014966,-0.2081026,-0.1761744,-0.3790119,-0.2799832,0.08114008
1.085095,-0.2240741,-0.1994705,-0.1317288,-0.2355226,0.06441256
1.168345,-0.254837,-0.2195586,0.1011079,-0.2322917,0.01128963
1.263191,-0.3133668,-0.2895038,0.3720802,-0.2566374,-0.1351867
1.351129,-0.3439035,-0.4475769,0.4131102,-0.2591818,-0.1979572
1.437215,-0.3485975,-0.5478847,0.280576,-0.1579274,-0.2096695
1.460012,-0.3369937,-0.5226627,0.2964628,-0.02981692,-0.2079025
1.358823,-0.2918817,-0.4894518,0.2118264,-0.06697298,-0.04393937
1.232811,-0.2496124,-0.5153882,0.09789618,0.01573438,0.2043207
1.15409,-0.2627049,-0.5196728,0.001502613,0.5767942,0.3995667
1.093092,-0.2995562,-0.504712,-0.2219129,1.231472,0.5064389
1.052636,-0.2944322,-0.4575727,-0.3373204,1.268943,0.5050712
1.017412,-0.2662321,-0.3085748,-0.3276847,0.8245418,0.4634672
0.9340731,-0.2502012,-0.2090167,-0.3064011,0.603375,0.4512076
0.8596768,-0.2750759,-0.2266341,-0.3235908,0.4710563,0.4399034
0.8415681,-0.3453853,-0.2505802,-0.3232484,0.2007407,0.4148301
0.8191593,-0.3909755,-0.277474,-0.1441965,0.1466734,0.4401191
0.8291513,-0.4322182,-0.2886067,0.1526071,0.2842614,0.4755151
0.8573079,-0.4745779,-0.2670789,0.5415354,0.4397949,0.4393902
0.8021345,-0.4560826,-0.2496443,0.8395504,0.5091949,0.3654726
0.7317431,-0.4244556,-0.2500943,0.8700968,0.4416162,0.2471018
0.7058051,-0.3754787,-0.2495477,0.8499857,0.3887482,0.1290695
0.7102051,-0.3068822,-0.2113502,0.8634332,0.3270044,0.09756126
0.7371594,-0.2720309,-0.1658247,0.9238539,0.2653789,0.1106859
0.734244,-0.2404258,-0.1386166,0.9694994,0.2324654,0.1539773
0.7002474,-0.2080009,-0.1288466,0.8680854,0.1233207,0.211781
0.6605405,-0.1769723,-0.1340094,0.603887,-0.08407018,0.2435421
0.6551353,-0.1743706,-0.120422,0.2085943,-0.3233111,0.2711197
0.7055663,-0.2474812,-0.1058174,0.02782435,-0.3897538,0.2852994
0.7559013,-0.3454867,-0.107508,0.09695599,-0.2689199,0.2599027
0.8104301,-0.4123557,-0.1079853,0.09686346,-0.1279227,0.1714748
0.8515472,-0.4209905,-0.1026427,0.1437906,0.04432224,0.03052991
0.8684797,-0.4072666,-0.08638743,0.2257722,0.249453,-0.066771
0.9382272,-0.4047099,-0.05776614,0.1838977,0.4322574,-0.08057097
1.039756,-0.3783579,-0.01835225,0.1628108,0.5351724,-0.05144968
1.153072,-0.3586525,0.01072356,0.2042799,0.4998684,0.03468195
1.259312,-0.3446951,0.01533164,0.1985199,0.4465118,0.148982
1.293818,-0.3225273,-0.0268906,0.112634,0.3900803,0.1625314
1.337112,-0.3865404,-0.1247888,-0.02717183,-0.02422756,0.1198982
1.443641,-0.5788823,-0.1824278,-0.04888869,-0.5727311,0.1284037
1.547522,-0.767815,-0.1388384,0.2585551,-0.5737381,0.07130789
1.52447,-0.7372209,-0.1235849,0.5192011,-0.3864518,-0.07668512
1.129985,-0.5264206,-0.2671922,0.1699235,-0.4804606,-0.1541112
0.6116423,-0.3739241,-0.4141121,-0.3787585,-0.4624386,-0.1380288
0.6341679,-0.3484646,-0.391168,-0.5328634,-0.349347,-0.1783619
0.8829441,-0.4250637,-0.3385187,-0.4900022,-0.3584533,-0.3516294
0.8574732,-0.480624,-0.3374326,-0.3813962,-0.3218337,-0.5156993
0.9438937,-0.4507154,-0.3024647,-0.1904147,-0.2662238,-0.6015451
0.9824247,-0.4446876,-0.2732691,-0.09848321,-0.1343013,-0.6462474
0.8076483,-0.3816952,-0.2623334,-0.03806398,0.00445635,-0.614856
0.8214824,-0.2610608,-0.2239335,-0.02462647,-0.1282438,-0.5632916
0.8059442,-0.2381239,-0.2287983,-0.1533628,-0.2468592,-0.4922445
0.7631868,-0.2262968,-0.2643066,-0.2585337,-0.2389774,-0.4054234
0.7951269,-0.1735492,-0.2586972,-0.3240119,-0.3346751,-0.4057739
0.7279592,-0.1678864,-0.2628507,-0.3406232,-0.3857339,-0.4168635
0.7703216,-0.2038946,-0.260387,-0.3232687,-0.3195109,-0.4433673
0.7767485,-0.2150685,-0.2252211,-0.3405169,-0.2630603,-0.4939771
0.7264792,-0.2204119,-0.2101937,-0.2594708,-0.2581389,-0.4305318
0.7828479,-0.2450995,-0.2094743,-0.140882,-0.2302374,-0.3613632
0.7846156,-0.2214892,-0.2201765,-0.03882356,-0.1607756,-0.3498691
0.8492469,-0.1762649,-0.2334037,0.04611571,-0.1611045,-0.2613586
0.8668929,-0.1354063,-0.2458068,-0.01459769,-0.282147,-0.132361
0.8147034,-0.09560453,-0.2641568,-0.08934788,-0.5071112,-0.06630514
0.8810214,-0.1092829,-0.2712725,-0.1404709,-0.5666534,-0.03918494
0.9371299,-0.1478633,-0.2845245,-0.1529714,-0.3353365,-0.01635495
1.053541,-0.2157974,-0.2411633,0.01269001,-0.1631716,-0.05200688
1.112808,-0.2854992,-0.1376384,0.1686881,-0.1999875,-0.1636906
1.043742,-0.2880559,-0.1168331,0.2021588,-0.3410397,-0.2692751
1.090088,-0.2852693,-0.1870831,0.1766518,-0.4368725,-0.2587579
1.170185,-0.3011098,-0.2829944,0.1890621,-0.4039361,-0.1394631
1.286935,-0.3132353,-0.4134976,0.3248064,-0.3617597,0.001313993
1.424114,-0.3132325,-0.566414,0.4071238,-0.3039002,0.1232266
1.437206,-0.3059062,-0.608993,0.3777362,-0.1762106,0.1122434
1.382769,-0.3141901,-0.5482863,0.3149057,-0.01534858,0.1476977
1.186498,-0.3143936,-0.5593768,0.1741862,0.2459224,0.4997917
0.9459483,-0.3141845,-0.5374963,-0.01471507,0.5229467,0.7276149
0.9678951,-0.3148606,-0.4502556,-0.1011125,0.5758704,0.5600751
1.095597,-0.2891905,-0.4421534,-0.08763869,0.564439,0.4341071
1.075797,-0.25466,-0.4197639,-0.1303568,0.7663842,0.4932389
0.9950153,-0.2300401,-0.3572272,-0.1411246,0.9428789,0.4988328
0.8753903,-0.2401927,-0.2502873,-0.1562566,0.7919369,0.4603334
0.7613117,-0.2609944,-0.1647306,-0.2386328,0.5422401,0.503392
0.7839684,-0.2743333,-0.2257635,-0.1562042,0.499414,0.5311906
0.7976644,-0.3126978,-0.2399745,-0.05409485,0.451733,0.5560166
0.7709813,-0.3276711,-0.2313617,-0.02435211,0.3650324,0.5915293
0.7914049,-0.312501,-0.2724911,0.02926534,0.5081512,0.5122338
0.7560365,-0.3117759,-0.2161498,0.02838378,0.5961123,0.4313067
0.7096635,-0.3056725,-0.1804026,0.05947849,0.4816001,0.3693757
0.6773256,-0.3040906,-0.1633915,0.04580364,0.3835065,0.3213316
0.6359016,-0.3153234,-0.1081162,-0.02605204,0.3072629,0.3353282
0.6575318,-0.3288935,-0.109416,-0.04767079,0.2962712,0.2928697
0.6909551,-0.3415161,-0.1128471,-0.1010293,0.3145789,0.2683423
0.7301015,-0.3259975,-0.1194456,-0.1349727,0.2990725,0.2418388
0.7770717,-0.295627,-0.1499298,-0.2538377,0.2296972,0.1881647
0.791201,-0.2892441,-0.1650703,-0.4240034,0.1158316,0.2493853
0.8205684,-0.3259468,-0.146198,-0.3859349,0.1224002,0.2835804
0.8734863,-0.3953619,-0.1002662,-0.2917266,0.2228056,0.2550596
0.942867,-0.4415349,-0.08232293,-0.2310099,0.3102259,0.2284889
1.023547,-0.4442238,-0.07004638,-0.1390021,0.3803094,0.1606381
1.113134,-0.4322812,-0.05936623,-0.1120906,0.5117324,0.1293501
1.229706,-0.4112402,-0.08296665,-0.160467,0.7165915,0.1322804
1.355503,-0.4098269,-0.1566424,-0.231112,0.6602767,0.1389221
1.438602,-0.5166827,-0.2718524,-0.23988,0.1492998,0.1867943
1.414379,-0.7062309,-0.301352,-0.0279902,-0.4573303,0.2293307
1.294694,-0.7624477,-0.2668817,0.2802052,-0.5893391,0.1498686
1.11483,-0.6097872,-0.2710569,0.3019616,-0.3796626,-0.07026836
0.932827,-0.431066,-0.2534005,0.06927998,-0.4130708,-0.2694791
0.8466526,-0.3213349,-0.2384896,-0.2163304,-0.4420092,-0.3321532
0.8514364,-0.265988,-0.2296609,-0.5675129,-0.3421134,-0.3178247
0.9092353,-0.2923889,-0.1829041,-0.7154157,-0.4220179,-0.3606626
0.9598372,-0.3443928,-0.1870288,-0.5729428,-0.4067034,-0.4437573
0.9654343,-0.3540705,-0.1902969,-0.4217035,-0.3634753,-0.5064415
0.9207677,-0.3354363,-0.1525242,-0.2606071,-0.4210194,-0.6181727
0.8134846,-0.2794171,-0.2042154,-0.2242526,-0.3093851,-0.6778066
0.7726566,-0.2267982,-0.2757808,-0.3611895,-0.1228489,-0.6513002
0.7767526,-0.2152613,-0.2711867,-0.4348379,0.1770397,-0.662638
0.7260569,-0.1837251,-0.2430229,-0.5730392,0.3805833,-0.6256714
0.7134453,-0.1334954,-0.2065548,-0.63885,0.2208162,-0.495888
0.7220185,-0.09913897,-0.1944622,-0.5240029,0.0937724,-0.3037611
0.7428331,-0.08328818,-0.1998628,-0.572073,-0.07112206,-0.1401942
0.7704933,-0.09546122,-0.206851,-0.6245761,-0.3655814,-0.1420064
0.7657697,-0.1038514,-0.2563713,-0.6842956,-0.4176952,-0.205988
0.8083073,-0.1014173,-0.2958298,-0.8742837,-0.3460462,-0.2396818
0.8791545,-0.1326329,-0.2881682,-0.8541386,-0.3142245,-0.2331051
0.9422925,-0.202012,-0.2669825,-0.7517942,-0.2315549,-0.2075402
0.9598348,-0.2548905,-0.2454783,-0.6608455,-0.1952308,-0.2158444
0.937153,-0.2409705,-0.2390073,-0.4644313,-0.2711378,-0.1388238
0.9865423,-0.1863214,-0.2365066,-0.3551684,-0.3601923,0.01832622
1.068895,-0.1550451,-0.2293102,-0.2766849,-0.4545384,0.1402792
1.182042,-0.1898057,-0.2388301,-0.1876464,-0.5119912,0.2105217
1.326049,-0.2660365,-0.2782409,-0.1172751,-0.4433153,0.1919207
1.377111,-0.3256289,-0.3620824,0.04416228,-0.3819112,0.2043897
1.372401,-0.3518275,-0.5043162,0.104693,-0.3218772,0.2621185
1.406274,-0.3153379,-0.6131277,-0.1381254,-0.1077038,0.1640502
1.399994,-0.2817013,-0.5547781,-0.3872192,0.1409384,-0.001127334
1.166947,-0.3730501,-0.4741044,-0.2870665,0.3000552,-0.02875692
0.8422424,-0.4630811,-0.5131421,-0.1532363,0.4174855,0.1116327
0.8318986,-0.437701,-0.5044204,-0.194148,0.5916583,0.2778255
1.050182,-0.4069872,-0.4543604,-0.05110215,0.8730376,0.3003561
1.159108,-0.369252,-0.4409687,0.1551862,1.178883,0.3298823
1.129974,-0.297475,-0.372152,0.2177176,1.337784,0.442383
0.9414268,-0.2785792,-0.2790846,0.2080355,1.090949,0.4624529
0.727922,-0.2751671,-0.1886806,0.0964577,0.5785412,0.4918932
0.7570959,-0.2499144,-0.176,0.05148283,0.3625671,0.5733939
0.8014727,-0.2497559,-0.2331842,0.08597505,0.431234,0.6065435
0.7029243,-0.2224245,-0.1762523,0.1293143,0.4861246,0.655755
0.704238,-0.2015129,-0.1641949,0.2254914,0.5628011,0.635613
0.7217873,-0.23843,-0.2193106,0.256593,0.6217179,0.5542251
0.6614141,-0.2343865,-0.1870465,0.2599193,0.603599,0.5028366
0.657812,-0.2307707,-0.1929385,0.2290307,0.5271593,0.4042132
0.6536776,-0.2592569,-0.1347869,0.160857,0.428616,0.3285198
0.6501204,-0.2621846,-0.03293803,0.1513001,0.3574311,0.2606846
0.6938067,-0.2719889,-0.06326111,0.05749625,0.2695625,0.2024903
0.7316903,-0.2532503,-0.09046911,-0.1495286,0.1366574,0.2577662
0.7932523,-0.2393859,-0.1158692,-0.3269092,-0.01111406,0.2791671
0.8601118,-0.2982461,-0.1350892,-0.3188276,-0.04613332,0.2601763
0.9255581,-0.3762299,-0.0731359,-0.1855064,0.02939612,0.2424091
0.982002,-0.4300161,-0.02600462,-0.1509979,0.1246784,0.1636588
0.9471238,-0.4133962,-0.03245651,-0.1543252,0.2677238,0.1427385
0.9236997,-0.3820981,-0.03381411,-0.1576526,0.2979302,0.1931194
0.9766316,-0.3650939,0.007612936,-0.1634023,0.2102035,0.2583505
1.037976,-0.3085371,0.01069581,-0.1488878,0.1781313,0.313302
1.155784,-0.2973648,-0.04456163,-0.1772888,0.1174016,0.2997199
1.32699,-0.3679865,-0.1328545,-0.182247,-0.02330957,0.3075451
1.500621,-0.5100794,-0.2486024,-0.1612425,-0.1390584,0.3307148
1.565579,-0.6411844,-0.2629451,-0.07954369,-0.1043411,0.1984878
1.362654,-0.5862882,-0.2410806,0.01447202,-0.08149405,-0.01620161
1.085866,-0.4772898,-0.2597279,-0.1403078,-0.2609124,-0.1031958
0.9641793,-0.4413752,-0.2303573,-0.3551557,-0.3823795,-0.1031882
0.8762339,-0.3663542,-0.2352973,-0.425263,-0.3598706,-0.1547775
0.8237669,-0.342696,-0.2611326,-0.5730062,-0.391077,-0.2501852
0.884838,-0.3957461,-0.242173,-0.6808188,-0.463271,-0.3078744
0.9260029,-0.3927867,-0.2352409,-0.5334786,-0.4787184,-0.2625834
0.9129528,-0.390893,-0.2028832,-0.315141,-0.4564365,-0.2268951
0.872835,-0.3792547,-0.1710384,-0.1052149,-0.4529568,-0.3255283
0.7881187,-0.3279301,-0.1925909,-0.0175874,-0.3966765,-0.4441264
0.7490785,-0.2885239,-0.2252273,-0.157522,-0.2482826,-0.495523
0.7415349,-0.2089136,-0.2604916,-0.2383774,-0.1180919,-0.4665262
0.7004473,-0.1320698,-0.2768253,-0.3029923,-0.1265253,-0.3658625
0.6981001,-0.131895,-0.2576025,-0.4235278,-0.2424951,-0.2856481
0.6984583,-0.1734372,-0.2351043,-0.408023,-0.2821461,-0.2646067
0.6682181,-0.1993813,-0.2293344,-0.4796424,-0.2525164,-0.284822
0.6970169,-0.184258,-0.2324843,-0.5621912,-0.2225157,-0.269825
0.7876628,-0.1766178,-0.2377722,-0.4838215,-0.1617364,-0.215693
0.9287052,-0.1688094,-0.2440703,-0.4773261,-0.1193251,-0.2071678
1.020295,-0.1591197,-0.2310793,-0.4243683,-0.1243119,-0.1875516
0.9391404,-0.1694518,-0.2268903,-0.346862,-0.2520788,-0.1322382
0.872198,-0.1740385,-0.2727797,-0.4453685,-0.4073716,-0.05129526
0.9336993,-0.2051021,-0.3064626,-0.4960728,-0.3370624,0.0255191
1.00818,-0.2481393,-0.2542571,-0.3431231,-0.1493346,0.001205888
1.11066,-0.2588717,-0.1794632,-0.1913287,-0.0231172,-0.06482768
1.161647,-0.2400559,-0.1917798,-0.2617627,-0.03722596,-0.1340359
1.116485,-0.2212387,-0.2726205,-0.4224596,-0.2522142,-0.1559103
1.176412,-0.2651363,-0.3739697,-0.4679855,-0.4902766,-0.06090063
1.298417,-0.3553066,-0.4574277,-0.2991147,-0.5836753,0.020192
1.393331,-0.4517195,-0.5081031,0.02369918,-0.5002663,0.04636402
1.480793,-0.4857827,-0.5869137,0.1475063,-0.2079701,0.03171468
1.390351,-0.3925703,-0.5929631,0.1302142,0.08610823,0.0441144
1.154107,-0.3092392,-0.5006368,0.1696247,0.1098924,0.2365944
0.9776311,-0.3148922,-0.4844731,0.1314071,0.1603038,0.464646
0.9356156,-0.2972228,-0.4853884,0.1207354,0.5006093,0.5356053
0.9962753,-0.2540004,-0.4621941,0.1527827,0.7485168,0.5796175
0.9841699,-0.2330876,-0.425911,0.2120103,0.9224208,0.755426
0.9320689,-0.2081354,-0.3005336,0.3160353,1.077865,0.8456076
0.8907737,-0.2490893,-0.2177234,0.1800007,0.7642032,0.6589273
0.7723083,-0.3574552,-0.2027599,0.04366607,0.3448086,0.4511349
0.7702833,-0.3759018,-0.1876953,0.2280685,0.2391972,0.3804573
0.8408993,-0.3542761,-0.2139596,0.4785727,0.2129766,0.3986115
0.8013592,-0.3783486,-0.2236213,0.7371539,0.3356731,0.4148356
0.7772008,-0.3717924,-0.2297464,0.924731,0.5860685,0.3527993
0.715573,-0.3601824,-0.207576,0.8870952,0.7155771,0.3153319
0.6557138,-0.3571792,-0.1415183,0.8383374,0.5318211,0.2758148
0.69666,-0.3229365,-0.1452591,0.8370284,0.218317,0.2305293
0.6847411,-0.2623929,-0.1368192,0.740013,0.145677,0.2465061
0.6731147,-0.1914444,-0.1278808,0.5971743,-0.001890294,0.2311211
0.6955058,-0.1743524,-0.1988229,0.3019605,-0.2599244,0.2588903
0.6824899,-0.1982061,-0.2195892,-0.1731592,-0.2888327,0.3044173
0.7103179,-0.2800161,-0.1772688,-0.3181342,-0.1981959,0.2235572
0.7702569,-0.4616721,-0.1157646,-0.03461352,0.05090608,0.07195021
0.8254488,-0.5444405,-0.0614696,0.164594,0.300342,-0.1135092
0.8481536,-0.4692578,-0.06822386,0.132922,0.3053466,-0.1843149
0.8471415,-0.4221077,-0.09088596,0.05126764,0.2940074,-0.09633957
0.9142331,-0.4025628,-0.09873858,0.00700302,0.341923,-0.05186446
1.026926,-0.3656862,-0.07415174,-0.02005102,0.4213833,-0.05292141
1.141801,-0.3398956,-0.02826161,-0.06700887,0.5615213,-0.09326917
1.240626,-0.2887079,-0.04061622,-0.2028387,0.6123018,-0.186351
1.285972,-0.2841501,-0.1290159,-0.4438585,0.3743639,-0.1284847
1.349435,-0.4515779,-0.2449107,-0.5216856,-0.08237694,0.1689198
1.454248,-0.6921996,-0.2792276,-0.1852148,-0.3781987,0.3928248
1.443009,-0.7622654,-0.239532,0.2392849,-0.3401936,0.1363073
1.211449,-0.6053839,-0.2536551,0.190908,-0.2446471,-0.2621138
0.8911214,-0.4532566,-0.2837964,-0.1750866,-0.2829126,-0.2132664
0.7645131,-0.4029697,-0.3087686,-0.4751067,-0.2389989,-0.08208912
0.8831128,-0.3689533,-0.3620326,-0.6993343,-0.1808004,-0.1325164
0.9524846,-0.3866561,-0.363222,-0.6867173,-0.2999877,-0.1349011
0.915806,-0.4156391,-0.3262503,-0.5751977,-0.3285416,-0.2461086
0.9329282,-0.4092715,-0.2927771,-0.5569947,-0.2612562,-0.3723924
0.9067452,-0.4053897,-0.2512178,-0.4352443,-0.1514948,-0.4386655
0.8393115,-0.358766,-0.2444189,-0.3656947,0.04085387,-0.5723278
0.8072172,-0.3237249,-0.2395043,-0.332712,0.06875772,-0.5457442
0.7444641,-0.330462,-0.2179864,-0.2041414,0.02148615,-0.4742603
0.7132655,-0.2984409,-0.2239645,-0.1168557,0.01398244,-0.4600634
0.7038644,-0.2556699,-0.2279876,-0.02710232,-0.07728029,-0.4067112
0.6770163,-0.2316026,-0.2389051,-0.053609,-0.2266509,-0.4217832
0.6615348,-0.2089045,-0.2554315,-0.1581897,-0.3647631,-0.3829399
0.6383866,-0.183692,-0.2339813,-0.1739046,-0.3961408,-0.3339362
0.6915701,-0.1644117,-0.2245162,-0.2010946,-0.38682,-0.3425811
0.8007176,-0.1550336,-0.257355,-0.2173008,-0.3814864,-0.2799325
0.9037945,-0.1615876,-0.277122,-0.2556863,-0.2698842,-0.25616
0.9641277,-0.194742,-0.2446729,-0.2273867,-0.1646461,-0.2570389
0.9033684,-0.2028779,-0.2168284,-0.1394265,-0.1965867,-0.2383023
0.8857831,-0.1740118,-0.2585405,-0.2328756,-0.236477,-0.2285306
0.9555721,-0.1558892,-0.2842345,-0.2730601,-0.1749262,-0.1823116
0.9776629,-0.1693453,-0.2326814,-0.1765977,-0.120394,-0.1609647
0.9846187,-0.1875755,-0.1925037,-0.1496361,-0.07787651,-0.1433199
0.9968665,-0.152583,-0.2065147,-0.168014,-0.01516585,-0.1067113
1.020227,-0.1158203,-0.2317826,-0.2395804,0.002118606,-0.09146969
1.021839,-0.1258701,-0.2461969,-0.3099157,0.02307661,-0.05300937
1.004967,-0.1751723,-0.2462503,-0.3117021,-0.05105605,-0.02241646
1.022372,-0.2967722,-0.2200954,-0.1920117,-0.188552,-0.04867796
1.011725,-0.4166415,-0.2139393,0.08222722,-0.1916051,-0.09093541
1.035047,-0.4331642,-0.3166832,0.2942047,-0.2355985,-0.1345278
1.199557,-0.3448722,-0.4941647,0.2506266,-0.2914117,-0.2638802
1.440238,-0.2668754,-0.5717365,-0.001098958,-0.1490451,-0.4958333
1.53306,-0.307081,-0.4962325,-0.1716304,-0.01651213,-0.6011822
1.355619,-0.3348715,-0.4535069,-0.09195433,-0.04903717,-0.373549
1.180886,-0.300393,-0.4923363,0.006672054,-0.05669498,-0.01873888
1.090431,-0.3137569,-0.4655719,0.0211431,0.03894078,0.1431396
0.950337,-0.319431,-0.41255,0.07775281,0.0606906,0.1846025
0.9305446,-0.3040709,-0.4114232,0.1044646,0.01571588,0.2168772
1.02605,-0.3197359,-0.4414054,0.07775332,0.05837423,0.2386353
1.068021,-0.3241899,-0.4849244,0.2054316,0.3154184,0.3523045
1.066295,-0.3270603,-0.4605958,0.4088593,0.7177701,0.459797
0.9907836,-0.3181103,-0.3744385,0.5113259,0.7825437,0.4593907
0.8627782,-0.2859851,-0.2773867,0.5591656,0.5367232,0.4113523
0.8001416,-0.28991,-0.1996539,0.5594658,0.4402871,0.3487422
0.8301776,-0.2920828,-0.2172783,0.5983094,0.3519497,0.3750763
0.8531621,-0.2682263,-0.2259094,0.6628004,0.183046,0.4795185
0.8276376,-0.2497678,-0.2089886,0.6804418,0.1781925,0.5997447
0.830096,-0.2097911,-0.2551343,0.7076273,0.3200871,0.6544723
0.8058131,-0.173291,-0.2188683,0.6500285,0.4232618,0.5431113
0.7478582,-0.1805594,-0.1570409,0.5297451,0.4546316,0.4131625
0.7512257,-0.218721,-0.1576504,0.4205713,0.5415076,0.2928109
0.7418942,-0.2493377,-0.08645839,0.3506158,0.6404753,0.1516789
0.7055133,-0.222278,-0.02763706,0.3169763,0.6358555,0.08802081
0.6860107,-0.1695241,-0.02742873,0.08647963,0.5686463,0.03336705
0.6699306,-0.1456088,-0.03071028,-0.2448194,0.5119745,-0.01719752
0.7142703,-0.1481228,-0.05093909,-0.4412419,0.5342446,-0.07274923
0.7916636,-0.1782937,-0.01130607,-0.5188139,0.5745444,-0.2094946
0.8486619,-0.2226096,0.04403389,-0.4643658,0.5809945,-0.3752186
0.9008407,-0.2716254,0.04757853,-0.3772425,0.5969484,-0.5683334
0.9090328,-0.35416,0.04781456,-0.2162351,0.4850311,-0.6974419
0.8765437,-0.4482469,0.02262691,0.07580527,0.163996,-0.655516
0.8605012,-0.4803167,-0.03602191,0.286009,-0.2144359,-0.5451735
0.9211777,-0.4550933,-0.1320128,0.3853943,-0.4840925,-0.3537366
1.151954,-0.4495171,-0.2728346,0.4876133,-0.5687451,-0.04657202
1.486067,-0.4621197,-0.3827342,0.7474393,-0.3970005,0.1370048
1.550097,-0.4360506,-0.3602925,1.063364,0.3340064,0.07961283
1.13487,-0.3458633,-0.1955665,1.027812,1.063864,-0.05232322
1.056135,-0.05344331,-0.31949,-1.076537,0.07822982,0.01804999
1.095119,-0.07155005,-0.3389277,-1.163743,0.06373449,0.02714088
1.10839,-0.2096851,-0.3518731,-0.9426788,0.02592546,0.03119884
1.230536,-0.3982427,-0.3788802,-0.6342244,-0.007918751,0.09488976
1.321824,-0.4520303,-0.4529945,-0.3990442,0.0009706775,0.1782283
1.445233,-0.4764242,-0.5951396,-0.4688302,-0.00612155,0.2017533
1.546865,-0.4534104,-0.6919177,-0.5405497,-0.0008810288,0.2317601
1.415606,-0.388012,-0.6342008,-0.3271945,0.06090243,0.316452
1.176767,-0.4677926,-0.5365681,-0.1423491,0.2830284,0.381252
0.967313,-0.5094635,-0.4600067,0.01208542,0.5819201,0.4432005
0.8814309,-0.4098845,-0.3328239,0.1862749,0.6754892,0.5348987
0.9748106,-0.3121453,-0.2696148,0.2175712,0.6011107,0.5797832
1.024481,-0.2695079,-0.2868478,0.1266097,0.5895519,0.4473037
0.9793317,-0.2648737,-0.291857,-0.1002486,0.5578715,0.2436395
0.9564155,-0.2508632,-0.3301959,-0.2949595,0.5320005,0.2006539
0.8689499,-0.2615965,-0.2893799,-0.2655228,0.5946696,0.2157936
0.8038707,-0.3100025,-0.1968951,-0.1192265,0.5870329,0.1731743
0.816513,-0.3623797,-0.2054306,0.06477353,0.5935039,0.1383197
0.7601022,-0.3786756,-0.209895,0.1183891,0.5995514,0.06764723
0.7034658,-0.3167398,-0.210946,0.04904896,0.5133957,-0.04247807
0.6519307,-0.2554648,-0.2127085,0.06293484,0.4544008,-0.08539983
0.5891447,-0.2457407,-0.1806195,0.05771617,0.3873243,-0.04013306
0.587786,-0.2495269,-0.1700244,-0.02047878,0.4552277,0.02724533
0.5790522,-0.2363785,-0.1427942,-0.1486922,0.5794034,0.08474755
0.591763,-0.1939871,-0.1376211,-0.3507826,0.4248846,0.13357
0.6489319,-0.1809681,-0.1454365,-0.5327493,0.2620199,0.1929405
0.7252438,-0.2478188,-0.1257816,-0.644585,0.2704683,0.2896724
0.8478229,-0.3547092,-0.1305446,-0.6280441,0.3857143,0.3119261
0.9161263,-0.4212515,-0.10013,-0.4902224,0.63272,0.221981
0.9513943,-0.4437113,-0.07015056,-0.3952578,0.8143653,0.1563926
1.103127,-0.4706067,-0.07929323,-0.4184329,0.9718789,0.0969499
1.290582,-0.461504,-0.05435574,-0.4474197,1.203408,0.02873405
1.345911,-0.4305046,-0.0569694,-0.4072064,1.167519,0.04042372
1.3374,-0.4594667,-0.1504138,-0.4007142,0.5906015,0.1697436
1.356644,-0.5528789,-0.2550754,-0.3758602,-0.1678123,0.353954
1.298661,-0.6462714,-0.2515567,-0.2218056,-0.3362706,0.3342794
1.171004,-0.5856475,-0.2296793,-0.1390054,-0.09038617,0.02748083
1.007241,-0.4039316,-0.2937598,-0.4083055,-0.1636,-0.3274112
0.8292724,-0.2906823,-0.3307089,-1.005333,-0.2338951,-0.5006631
0.8102016,-0.2452408,-0.3476435,-1.426673,-0.1515172,-0.4630686
0.8925296,-0.2894691,-0.3089813,-1.339776,-0.3044287,-0.4492896
0.96473,-0.4160799,-0.1812483,-1.008604,-0.3578801,-0.4879744
1.039396,-0.5210983,-0.1306947,-0.5598692,-0.1707302,-0.4709623
1.017848,-0.541904,-0.108723,-0.1028133,-0.01614572,-0.5208964
0.9223883,-0.3820822,-0.13006,-0.03861712,0.009506189,-0.5462367
0.7959575,-0.1724462,-0.2398982,-0.3067148,-0.1067457,-0.455174
0.6680169,-0.05446457,-0.2460423,-0.622912,-0.1516425,-0.3620164
0.6222195,0.002652798,-0.2325615,-1.031779,-0.2202505,-0.2913045
0.6050292,-0.04637868,-0.274504,-1.355598,-0.4396703,-0.2598461
0.6554675,-0.1206591,-0.2772292,-1.392999,-0.5279969,-0.1926126
0.7620175,-0.217289,-0.2879051,-1.274884,-0.4557395,-0.1111855
0.778789,-0.3149241,-0.2889575,-1.029326,-0.3063362,-0.08965465
0.7596448,-0.2813433,-0.2863486,-0.7512676,-0.1008017,-0.04266028
0.7656909,-0.2718191,-0.2858353,-0.5162071,0.1035109,-0.05091369
0.7949667,-0.2698359,-0.2648995,-0.3070095,0.1933133,-0.1272664
0.8502559,-0.1835992,-0.2692634,-0.3189599,0.1611008,-0.1644906
0.9169681,-0.121928,-0.2586119,-0.442072,0.1762305,-0.1443
1.037818,-0.05645665,-0.2493894,-0.5315779,0.08431806,-0.005952301
1.190589,-0.04828697,-0.2736095,-0.714763,-0.1218719,0.1527912
1.30804,-0.1603663,-0.3067037,-0.7791051,-0.1877182,0.196968
1.38061,-0.33235,-0.3737744,-0.6629328,-0.2065947,0.1822706
1.42135,-0.483581,-0.4865028,-0.5682191,-0.1866159,0.1741714
1.444102,-0.4787983,-0.6359795,-0.4424223,-0.06323251,0.1394734
1.39547,-0.4180468,-0.6727731,-0.3881479,0.01323891,0.08829048
1.192441,-0.427626,-0.5499315,-0.3693842,0.02534633,0.1535056
0.9462316,-0.433669,-0.4802797,-0.08658863,0.2026686,0.3060513
0.9240319,-0.4218592,-0.4724975,0.1849984,0.6000165,0.4533996
1.03332,-0.344318,-0.3953769,0.2218072,0.9285777,0.512652
1.025436,-0.2185692,-0.289818,0.3274582,1.123035,0.4672213
1.031461,-0.2007158,-0.2732872,0.4286989,1.181613,0.5158961
1.015777,-0.2410736,-0.2907872,0.2100356,0.8993265,0.5103453
0.8934702,-0.2562976,-0.217264,-0.1084539,0.5119773,0.4103858
0.8972215,-0.3121536,-0.1734492,-0.07066273,0.3864816,0.4725254
0.9140654,-0.3544589,-0.1867937,0.1512091,0.4305456,0.4723572
0.8229532,-0.3575607,-0.1570763,0.2872315,0.4378059,0.4164576
0.768242,-0.3982121,-0.1567528,0.5080384,0.3800512,0.430182
0.7229632,-0.3834698,-0.1620523,0.6207844,0.3379909,0.3309422
0.681851,-0.2774482,-0.1540964,0.5022276,0.2326083,0.2146075
0.6136974,-0.2050322,-0.1684015,0.3697336,0.0964334,0.1164308
0.5783623,-0.1998454,-0.1566768,0.1909165,0.1160276,0.07340975
0.6353552,-0.2338513,-0.146121,0.03476099,0.1356574,0.1383628
0.6174771,-0.2674843,-0.09873947,-0.01670623,0.1065435,0.1874458
0.6185522,-0.2994775,-0.04010577,-0.05201774,0.0861814,0.2940454
0.6675625,-0.3153342,-0.08686966,-0.191666,-0.001910694,0.3713902
0.6986276,-0.2991306,-0.1266436,-0.3636692,0.01074463,0.3296207
0.8410121,-0.340959,-0.09772081,-0.3223765,0.1670302,0.3231074
0.9415751,-0.3991081,-0.09426452,-0.2694931,0.2867147,0.3210583
0.9451533,-0.4370826,-0.1065211,-0.2972888,0.2515333,0.2929102
1.014488,-0.4919441,-0.09597325,-0.1673797,0.1387724,0.22913
1.15208,-0.507876,-0.1232042,-0.05730826,0.08868566,0.1488975
1.388785,-0.5892367,-0.2412339,-0.09368421,0.006182521,0.1950367
1.644722,-0.6980804,-0.3443196,-0.05577942,0.01422417,0.241082
1.668532,-0.6482981,-0.2959,0.1722674,0.1028455,0.07034075
1.326055,-0.5210566,-0.2163674,0.3144095,0.001791074,-0.2222627
0.8889025,-0.3875929,-0.2648597,-0.02158525,-0.1733739,-0.3975607
0.7563325,-0.3263148,-0.292412,-0.5357485,-0.4597041,-0.3385107
0.8440723,-0.363565,-0.2854316,-0.6976616,-0.6352435,-0.2893678
0.904396,-0.3748237,-0.3456378,-0.7186998,-0.3476857,-0.4709938
0.9335539,-0.3922267,-0.3042315,-0.745832,-0.1684441,-0.6458278
0.9583913,-0.4216283,-0.1848414,-0.502659,-0.2620744,-0.728231
0.9458843,-0.4134969,-0.1164676,-0.1853711,-0.1716534,-0.7663317
0.9014756,-0.370039,-0.1186266,-0.05875764,-0.01657033,-0.6774577
0.8136607,-0.2400287,-0.1883602,-0.09011262,0.001436252,-0.5804607
0.726439,-0.1330475,-0.1892338,-0.283452,-0.04261293,-0.4444409
0.7414084,-0.1363534,-0.2170647,-0.5750804,-0.1347006,-0.2964352
0.7246726,-0.1173319,-0.2920206,-0.8969315,-0.3060977,-0.305663
0.6715609,-0.1319411,-0.2532435,-0.9921239,-0.3931221,-0.3212536
0.7160398,-0.2430485,-0.2517256,-0.7956074,-0.3271883,-0.3749163
0.734694,-0.2824638,-0.2844479,-0.6864963,-0.2493347,-0.4763275
0.7648231,-0.2669747,-0.2991036,-0.628062,-0.1123886,-0.4513632
0.8291612,-0.2606966,-0.3495131,-0.4351791,0.002719682,-0.3669361
0.8353876,-0.2015778,-0.3243514,-0.241427,-0.003440627,-0.2673808
0.8642021,-0.1557813,-0.2864758,-0.2164296,-0.01505429,-0.2203774
0.8678222,-0.1383534,-0.2893614,-0.3042226,-0.06622917,-0.2202899
0.8621832,-0.1085788,-0.2691974,-0.3515582,-0.1173876,-0.1188587
0.9105009,-0.1090215,-0.2638135,-0.4594016,-0.1983912,0.02286015
0.927626,-0.1235907,-0.2732064,-0.535743,-0.4092154,0.08430245
0.9704027,-0.1601548,-0.2974555,-0.510153,-0.5058421,0.0662244
1.084247,-0.2233707,-0.3193553,-0.5168573,-0.3993157,0.01482982
1.215018,-0.2642398,-0.3160793,-0.3795733,-0.2820753,-0.05069341
1.298821,-0.3230787,-0.3268663,-0.1257525,-0.2303804,-0.05913525
1.331804,-0.422573,-0.3826108,0.03775139,-0.1404972,-0.03799939
1.40457,-0.4509813,-0.5103541,0.03165638,0.1166856,-0.1260615
1.452574,-0.3377085,-0.6204902,-0.05730595,0.3095424,-0.1569941
1.368234,-0.2560433,-0.5890368,-0.04072413,0.087264,0.04534872
1.153947,-0.3593977,-0.537391,-0.05392198,-0.1312695,0.3589855
0.9325959,-0.4828334,-0.5555261,0.08188645,0.2896927,0.5570665
0.9138493,-0.4786218,-0.4954276,0.475794,0.8171319,0.5407882
1.000529,-0.4106303,-0.3841758,0.7183156,0.9364975,0.4931399
0.9802795,-0.3236822,-0.3327319,0.8272392,1.009669,0.4704682
0.9074516,-0.2537433,-0.2888027,0.719643,0.8313112,0.4266472
0.8353085,-0.2478298,-0.2603772,0.5010789,0.4055886,0.4460287
0.7950158,-0.2514335,-0.2313792,0.5901995,0.3074141,0.4810149
0.8132614,-0.2531479,-0.2030387,0.6824026,0.3216451,0.4960163
0.789074,-0.3052219,-0.2121734,0.7489476,0.2819599,0.474195
0.7317685,-0.3681544,-0.1783888,0.9105232,0.301961,0.3715585
0.6991551,-0.3840815,-0.1391121,0.954527,0.2205678,0.255097
0.6612524,-0.3256661,-0.1314406,1.019733,0.09373064,0.1602909
0.6731188,-0.2445771,-0.1266342,0.9748156,-0.02347749,0.1363625
0.7181765,-0.2234132,-0.1455154,0.7849011,-0.1365653,0.182015
0.7378489,-0.230899,-0.1335709,0.719621,-0.1986528,0.2249219
0.757668,-0.2526422,-0.1147918,0.6252154,-0.3221567,0.2601834
0.7447821,-0.2983437,-0.1147655,0.5402742,-0.4370197,0.2245343
0.7362387,-0.3302982,-0.1107318,0.5503815,-0.3555554,0.113952
0.7467765,-0.3445397,-0.1363087,0.4762516,-0.2287762,0.01097474
0.7323675,-0.3566978,-0.1259479,0.3743417,-0.2020436,-0.06571529
0.7451098,-0.3982196,-0.06393896,0.364154,-0.1687265,-0.1170352
0.7691605,-0.4445652,-0.02066034,0.479952,-0.1596451,-0.1981616
0.8303041,-0.4190055,-0.03302303,0.6036023,-0.1515323,-0.2982528
0.9633032,-0.3621261,-0.06844391,0.5843678,0.003792851,-0.3261742
1.092049,-0.2983216,-0.04316095,0.5233874,0.2113103,-0.2970679
1.222403,-0.1663975,-0.03600814,0.396371,0.3282158,-0.2491477
1.307786,-0.07508381,-0.0640025,0.05484562,0.1081705,-0.1881105
1.326023,-0.1692751,-0.07405933,-0.2755414,-0.5446852,-0.1265044
1.444558,-0.4357545,-0.1460797,-0.3236697,-1.036627,-0.08525915
1.630125,-0.764265,-0.1951459,-0.1525828,-0.860862,-0.07278716
1.609601,-0.8642519,-0.1883588,0.2049621,-0.4172066,-0.1261082
1.32785,-0.7329262,-0.2199546,0.5710909,-0.2942109,-0.2960814
0.957754,-0.7016494,-0.2228,0.5822442,-0.3568559,-0.4160365
0.7155587,-0.6654005,-0.2301711,0.4997127,-0.3780097,-0.3601091
0.7441405,-0.5972394,-0.3123776,0.6135427,-0.3658293,-0.3421807
0.8109924,-0.6231734,-0.3875207,0.5781699,-0.3070802,-0.4855195
0.7731486,-0.5030322,-0.4061593,0.4188191,-0.3630608,-0.7048611
0.83381,-0.3806734,-0.3870056,0.3481747,-0.3512127,-0.923796
0.8837886,-0.3971331,-0.3334572,0.293657,-0.1682258,-0.9999398
0.8621347,-0.355244,-0.2358755,0.4621385,-0.08682076,-0.9095267
0.8770123,-0.3373584,-0.1854034,0.7331558,-0.1068917,-0.8608609
0.8243923,-0.2926154,-0.2327825,0.7293307,-0.1895396,-0.8701977
0.7788555,-0.2148443,-0.2652965,0.5782259,-0.1438983,-0.8225111
0.7788727,-0.1959705,-0.264125,0.356217,-0.06558674,-0.7333491
0.7625454,-0.14923,-0.269403,0.1509546,-0.1465589,-0.5682642
0.7687814,-0.1658384,-0.2601299,0.0853162,-0.2301701,-0.418802
0.7478474,-0.2004527,-0.2665476,0.0469418,-0.3920975,-0.4193983
0.7525206,-0.1999184,-0.2718691,0.05609226,-0.3097043,-0.4613486
0.7826556,-0.2375476,-0.2269384,0.1616904,-0.0500179,-0.4937724
0.7771505,-0.236116,-0.1817344,0.3608679,-0.09282388,-0.5077023
0.783859,-0.2164104,-0.1748173,0.4769714,-0.1340295,-0.4667232
0.7751722,-0.1495566,-0.1918213,0.4008562,-0.1913024,-0.4156907
0.8030578,-0.06599026,-0.2042219,0.3359373,-0.2530416,-0.3609849
0.8785604,-0.07005781,-0.2109603,0.2267323,-0.2018434,-0.2934467
0.9213171,-0.05538778,-0.2169962,0.09644655,-0.2615849,-0.2207333
0.9487972,-0.0322325,-0.1750808,0.03507385,-0.2577676,-0.1923197
0.9730488,-0.05227119,-0.1257556,-0.1490872,-0.2843495,-0.2111605
1.02118,-0.09968704,-0.1282102,-0.2674844,-0.368812,-0.1726163
1.043429,-0.2062025,-0.1277334,-0.1103484,-0.3597547,-0.09983588
1.029406,-0.3252318,-0.1236879,0.1197614,-0.4325032,-0.09005958
1.092511,-0.4119801,-0.1586402,0.3579801,-0.3858542,-0.1694737
1.226402,-0.4422644,-0.2476317,0.6014518,-0.2006185,-0.2939088
1.431689,-0.3903596,-0.3923998,0.6029198,-0.003885017,-0.3756018
1.634668,-0.2809044,-0.4833791,0.2731975,0.1678154,-0.3869871
1.638697,-0.1619192,-0.4524817,-0.05972304,-0.0427501,-0.2208926
1.458728,-0.1264587,-0.4523634,-0.1642803,-0.5643496,0.1730198
1.238761,-0.2295174,-0.5510059,-0.1427625,-0.8374496,0.5162099
1.082161,-0.3592423,-0.6268544,-0.09607918,-0.1551477,0.6588176
1.041211,-0.4104101,-0.6127547,0.04897744,1.057045,0.6954724
1.043343,-0.4192095,-0.4787282,0.2826312,1.280917,0.5713864
0.9779715,-0.3846531,-0.2851288,0.4358906,0.8787416,0.3342371
0.8653475,-0.3184102,-0.2088286,0.4746889,0.692807,0.2175339
0.8113664,-0.2861365,-0.272279,0.4050912,0.3695059,0.2331999
0.846463,-0.2771397,-0.2991306,0.3412573,0.3676699,0.3164233
0.8724595,-0.2913691,-0.2215581,0.4405133,0.5639376,0.4348486
0.8379715,-0.3095559,-0.1825439,0.6095254,0.3394167,0.4420795
0.8212385,-0.3050423,-0.1967522,0.7683731,0.3255118,0.3824754
0.7724404,-0.2992256,-0.1908993,0.7697072,0.4151412,0.3605369
0.6641911,-0.2595287,-0.2001602,0.6600769,0.3000944,0.2941077
0.6423733,-0.1913058,-0.2010271,0.6427554,0.31603,0.2611377
0.6622648,-0.165039,-0.1935849,0.4588525,0.2219231,0.2800941
0.6513755,-0.2149093,-0.1737302,0.1968664,0.1341444,0.2346801
0.6641808,-0.2938006,-0.1062508,0.1839209,0.1764463,0.1862365
0.664426,-0.3277074,-0.06336009,0.2157509,0.03535609,0.1174348
0.6621965,-0.3389866,-0.07020721,0.2036877,-0.1781877,0.06466865
0.7065562,-0.3803519,-0.1111954,0.2181796,-0.4144556,0.1439588
0.781288,-0.4615576,-0.1600769,0.2811793,-0.4151588,0.2057149
0.8582359,-0.5037583,-0.1708706,0.3624438,0.07404085,0.1829191
0.8864348,-0.437525,-0.1476009,0.3092795,0.4092797,0.1944858
0.9149485,-0.3777322,-0.1274016,0.1651921,0.04873026,0.2621669
1.097233,-0.3795719,-0.1634995,0.06494408,-0.3034562,0.3169641
1.392775,-0.3888719,-0.2046836,0.06100739,0.1202708,0.2909987
1.524562,-0.4617538,-0.2182032,0.09695694,0.3830193,0.2554339
1.440155,-0.6226618,-0.269797,0.1277631,-0.151198,0.2714243
1.378798,-0.7218214,-0.3169726,0.2589662,-0.5885335,0.2316049
1.315104,-0.6158718,-0.3070558,0.3732379,-0.7005034,0.09677554
1.104459,-0.4388164,-0.2896136,0.3044324,-0.6713362,-0.02076232
0.8823595,-0.3538946,-0.2885162,0.09340912,-0.6139483,-0.01068438
0.7886347,-0.3057367,-0.2457555,-0.2423647,-0.6663947,0.01375142
0.8474369,-0.320436,-0.203449,-0.5261943,-0.5929217,-0.1569014
0.9364396,-0.3881599,-0.2282488,-0.5314898,-0.6054625,-0.3766243
0.9411075,-0.4044909,-0.2208122,-0.3537295,-0.6622009,-0.4464338
0.9525134,-0.3898493,-0.194045,-0.1231153,-0.4667684,-0.4538125
0.929533,-0.3513577,-0.1981285,0.1027873,-0.3222109,-0.4752598
0.8356668,-0.3177209,-0.1826966,0.09339556,-0.2319258,-0.5331367
0.7310659,-0.2599394,-0.1918407,-0.07988201,-0.1613691,-0.5708784
0.6369234,-0.1626587,-0.2361156,-0.2164279,-0.1737623,-0.5534238
0.6538372,-0.1549381,-0.2886216,-0.4958976,-0.159973,-0.5981523
0.6860881,-0.167147,-0.313136,-0.6620147,-0.1381021,-0.7539678
0.7050075,-0.1691394,-0.2959024,-0.566075,-0.07385008,-0.9827902
0.7877531,-0.2184094,-0.30636,-0.5953525,-0.06054181,-1.134522
0.8059195,-0.234249,-0.3008901,-0.5311156,-0.08490681,-1.113634
0.8216033,-0.2450962,-0.2862621,-0.293678,-0.09379394,-0.9732921
0.8192607,-0.222947,-0.3149867,-0.1444878,-0.2648659,-0.7098947
0.7431169,-0.1509326,-0.3189847,-0.04995057,-0.5028659,-0.46663
0.7537744,-0.1315059,-0.3234392,-0.03847661,-0.6329521,-0.3514911
0.829809,-0.1477354,-0.3311025,0.1340626,-0.5823073,-0.2766646
0.9540037,-0.1618326,-0.3174346,0.3736042,-0.3752362,-0.2479323
1.054898,-0.1188315,-0.3180452,0.277305,-0.06760862,-0.1704098
1.058853,-0.05168251,-0.2907925,0.1398194,0.2340782,-0.04603451
1.081364,-0.04938599,-0.2572256,-0.02397738,0.2093161,-0.09506725
1.078117,-0.07994891,-0.2472876,-0.2951837,-0.05807057,-0.1561423
1.065183,-0.1321902,-0.2412651,-0.3034874,-0.3776526,-0.03919305
1.102846,-0.1746272,-0.2875525,-0.1852745,-0.7482343,0.146956
1.194351,-0.2226938,-0.4000093,-0.09385505,-0.9447546,0.4044039
1.463446,-0.3172469,-0.5840805,0.05849745,-0.8619124,0.5069878
1.686409,-0.3836724,-0.7502572,0.1162032,-0.3000462,0.3375252
1.50206,-0.397648,-0.7153252,0.3114906,0.4959516,0.3337634
1.096665,-0.3860119,-0.5888091,0.7548544,0.7274294,0.5217681
0.8474469,-0.3844627,-0.5581225,0.8429256,0.7384148,0.6139006
0.8681399,-0.3699851,-0.5271235,0.6732302,0.9655021,0.5431227
1.017969,-0.2944139,-0.443103,0.7561928,0.9589931,0.3859338
1.060353,-0.2067744,-0.3626051,0.8224261,1.025104,0.3830409
1.015212,-0.1512924,-0.3027887,0.7465438,1.222836,0.4366683
0.9487444,-0.1688026,-0.2731125,0.509451,0.7573213,0.4507901
0.8282337,-0.2035022,-0.226315,0.1282717,0.2115656,0.5546189
0.8286321,-0.2118513,-0.2046514,0.1576526,0.3319043,0.5776412
0.8338598,-0.2727214,-0.213594,0.321428,0.4083247,0.5166373
0.7028963,-0.3139204,-0.1929461,0.1941923,0.2702094,0.44471
0.6821701,-0.3103809,-0.226642,0.2346668,0.2991546,0.3379593
0.677338,-0.3126005,-0.2486418,0.2786866,0.3042932,0.2960262
0.6560347,-0.2909107,-0.2270761,0.2007416,0.2713454,0.2737334
0.7019417,-0.2912397,-0.2310787,0.2778266,0.2927282,0.2480774
0.6661513,-0.2962419,-0.1971566,0.259063,0.2352245,0.2124988
0.6636727,-0.2940347,-0.1933733,0.1828441,0.1424329,0.184749
0.6949301,-0.3171641,-0.199164,0.09620114,0.05561182,0.2307972
0.7050522,-0.3265411,-0.1672092,-0.05762635,-0.04302947,0.3010076
0.7960872,-0.3509786,-0.1856091,-0.001653657,-0.03280419,0.4067437
0.8597365,-0.372784,-0.186277,0.09737657,0.08887647,0.4316275
0.8741061,-0.3593359,-0.1709599,0.09957278,0.2553613,0.3589613
0.8576266,-0.3591503,-0.1646909,0.07592283,0.3539541,0.3398397
0.8411118,-0.3633883,-0.1241632,-0.03555509,0.2266318,0.2581828
0.9253382,-0.3644402,-0.09841942,-0.04653554,0.1246103,0.1291523
1.030449,-0.3671453,-0.09633656,0.01153486,0.2714259,0.04789877
1.124944,-0.3651039,-0.1032908,-0.009402676,0.5007262,-0.02016884
1.232685,-0.3648837,-0.1145076,-0.1046196,0.7761676,-0.03254523
1.315592,-0.4125671,-0.1883777,-0.3781827,0.8199636,0.00638994
1.340657,-0.5922834,-0.3476974,-0.5631918,0.1299203,0.146481
1.314571,-0.77206,-0.4122995,-0.2957367,-0.7686108,0.2914734
1.27748,-0.717424,-0.3183734,0.2495222,-0.8611869,0.1537615
1.118262,-0.5929994,-0.2510421,0.5580877,-0.4784516,-0.09621826
0.8776476,-0.5886073,-0.2891427,0.2687927,-0.4428012,-0.1434919
0.7397112,-0.5099372,-0.2901641,-0.2490415,-0.5054348,-0.1158302
0.6343462,-0.4092255,-0.2527813,-0.4733122,-0.43156,-0.2121885
0.7071559,-0.4483846,-0.2771154,-0.4985037,-0.4437878,-0.4716105
0.9775798,-0.4574457,-0.2779374,-0.3629459,-0.4664178,-0.7364523
0.9784035,-0.4373365,-0.2546862,-0.06796072,-0.4457971,-0.7619571
0.854254,-0.4472203,-0.238007,0.1297598,-0.313962,-0.7144667
0.8545094,-0.4162686,-0.1865876,0.2629572,-0.09292801,-0.7755761
0.7477615,-0.3610759,-0.1926816,0.3085317,-0.08417327,-0.7613615
0.7075825,-0.2670433,-0.2410432,0.222721,-0.1929024,-0.6802773
0.7254175,-0.169084,-0.270263,0.1134501,-0.2287401,-0.5958745
0.6547411,-0.1249867,-0.3057576,-0.1465235,-0.2604804,-0.5061762
0.695503,-0.1339374,-0.289725,-0.3558598,-0.2648673,-0.5127737
0.7051729,-0.1827142,-0.2618557,-0.355021,-0.2435154,-0.5113806
0.712793,-0.223336,-0.2732247,-0.333828,-0.2253555,-0.4458576
0.8287629,-0.2334474,-0.274225,-0.2428069,-0.1975686,-0.403352
0.8736079,-0.1870991,-0.288617,-0.1870292,-0.1620044,-0.3576831
0.9065394,-0.1399431,-0.2921927,-0.2004082,-0.1317197,-0.3298158
0.8949103,-0.1472601,-0.263164,-0.1932976,-0.1492067,-0.2627038
0.8676244,-0.1473472,-0.2496788,-0.2403586,-0.190741,-0.1390989
0.9282845,-0.1382677,-0.2468208,-0.2603567,-0.2026494,-0.07659252
0.9729808,-0.119494,-0.2721819,-0.3142736,-0.1903163,-0.01220887
1.010893,-0.09914068,-0.3015193,-0.3997709,-0.1989529,0.04518212
0.9747211,-0.1248171,-0.2875712,-0.3830838,-0.2905685,0.0377295
0.9237472,-0.1919024,-0.2770987,-0.3443748,-0.3706838,0.04432028
1.018068,-0.2823202,-0.2592276,-0.1991911,-0.244338,0.004713717
1.117391,-0.3396593,-0.2133697,0.08064352,0.002876174,-0.09457058
1.203559,-0.3356974,-0.1986357,0.2904592,0.1824508,-0.1641041
1.355101,-0.3130075,-0.2454055,0.3788261,0.2796703,-0.2188994
1.505072,-0.2787311,-0.3630156,0.3783205,0.2427601,-0.2260416
1.539394,-0.239678,-0.4797567,0.2413206,0.1265788,-0.1708433
1.362241,-0.2447986,-0.4671461,0.04542695,-0.0001679293,-0.02944966
1.103631,-0.2912523,-0.4351411,0.0297442,-0.3128437,0.3152589
0.9499757,-0.3741349,-0.5186361,0.1418412,-0.5521099,0.6464978
0.8947172,-0.5143875,-0.5677975,0.230109,-0.1611957,0.6411474
0.9360398,-0.5602799,-0.5579477,0.3814976,0.5440367,0.446354
1.024365,-0.4409487,-0.535195,0.5294216,0.9079519,0.2716943
1.007937,-0.3263108,-0.4107127,0.5518697,0.9798106,0.1975475
0.9392204,-0.2452642,-0.2891633,0.5002575,0.7605542,0.2804123
0.906869,-0.202882,-0.2562602,0.4073079,0.3349951,0.3630886
0.8875879,-0.2395397,-0.2664916,0.3143368,0.2897121,0.4318011
0.9052474,-0.291448,-0.2706877,0.2983541,0.3393558,0.5583546
0.8805483,-0.3772165,-0.2221723,0.4556645,0.2082657,0.5786699
0.8145095,-0.4434055,-0.1991647,0.780171,0.31033,0.5123716
0.77894,-0.4066321,-0.1808094,1.04515,0.3258822,0.4523561
0.7228762,-0.3478812,-0.1722049,1.134731,0.2244979,0.3824227
0.7199252,-0.2683799,-0.2111997,1.054699,0.221358,0.3792836
0.7520304,-0.1898229,-0.1822102,0.8826298,0.08197972,0.3988361
0.7420144,-0.1991126,-0.1675351,0.8297057,0.009981768,0.3806135
0.7237948,-0.2327575,-0.1702961,0.778678,-0.07137583,0.3763052
0.6565933,-0.2610197,-0.1033444,0.6677953,-0.2634805,0.3261794
0.6051224,-0.3038659,-0.06927634,0.6769975,-0.3498784,0.1976651
0.6093371,-0.3348679,-0.0586777,0.6387658,-0.429074,0.05182976
0.6346625,-0.3872365,-0.08425073,0.506502,-0.4332203,-0.06677046
0.6998181,-0.4462188,-0.1290126,0.4187164,-0.3724035,-0.1286286
0.7624432,-0.4712321,-0.1310784,0.4242236,-0.2423971,-0.1838013
0.8455512,-0.4859373,-0.1616897,0.4759998,0.03621267,-0.2794932
0.9170105,-0.4591131,-0.1598208,0.4082327,0.2232376,-0.3384145
0.9639149,-0.3631673,-0.1007268,0.351839,0.41842,-0.3024753
1.095049,-0.2571962,-0.06935742,0.2609052,0.6563407,-0.2222337
1.22861,-0.2296143,-0.05557915,0.009980571,0.5908045,-0.1002651
1.325246,-0.2492327,-0.01626242,-0.1135502,0.3816298,0.05717063
1.413751,-0.2478515,0.02526995,-0.2248199,0.3156342,0.1257509
1.435958,-0.3689756,-0.09001759,-0.5133576,0.1438592,0.1671967
1.485612,-0.6378428,-0.2517355,-0.633237,-0.3946614,0.3294373
1.513768,-0.7815105,-0.212565,-0.2853766,-0.8383343,0.3816675
1.35761,-0.6841468,-0.1854192,0.04499156,-0.3779366,0.1022299
1.146515,-0.5778315,-0.2533654,-0.3337556,0.2298661,-0.1562616
0.9020572,-0.5874214,-0.2529947,-0.8199717,-0.2123098,-0.059418
0.6297998,-0.5153529,-0.3267485,-0.8352869,-0.4961373,0.01940807
0.6684264,-0.4650486,-0.4290007,-0.8262773,-0.1701045,-0.1341415
0.8872572,-0.535597,-0.3819028,-0.7195662,-0.3586957,-0.2458976
0.8678596,-0.4699043,-0.3593989,-0.4764331,-0.4223109,-0.4342188
0.8345606,-0.4246297,-0.384022,-0.4446287,-0.2405855,-0.6221124
0.8438895,-0.4620737,-0.3232715,-0.4305162,-0.335358,-0.5509673
0.748459,-0.41143,-0.2444483,-0.2820458,-0.2878789,-0.5297797
0.7864937,-0.4263373,-0.2013169,-0.06172905,-0.3286479,-0.5179407
0.7978336,-0.4273838,-0.2148768,0.1749574,-0.3612136,-0.3585695
0.6991993,-0.3728813,-0.2468168,0.3605382,-0.2722135,-0.2397119
0.6807342,-0.3591957,-0.2408685,0.5217948,-0.3369656,-0.1340587
0.6068804,-0.2980756,-0.2713775,0.5503171,-0.290199,-0.1406851
0.5826327,-0.2456463,-0.2926929,0.4707105,-0.2598587,-0.2382478
0.6055923,-0.1955999,-0.2639197,0.4069595,-0.1844419,-0.2598025
0.5911946,-0.1404357,-0.2693813,0.2819947,-0.05143565,-0.2732682
0.689053,-0.1167137,-0.2599305,0.1622828,-0.1888549,-0.2123393
0.8331476,-0.05713764,-0.2562841,0.04967861,-0.3148491,-0.1400843
1.055451,-0.0163124,-0.3141509,-0.2308333,-0.4385425,-0.1336157
1.199917,-0.006074835,-0.3425104,-0.6464741,-0.6193361,-0.0860059
1.11789,-0.04276212,-0.3124099,-0.9356127,-0.6045548,-0.03763592
1.092869,-0.1591804,-0.2648251,-0.9047812,-0.5396173,-0.008070045
1.094676,-0.2748694,-0.2574891,-0.830289,-0.5172164,-0.04877419
1.076651,-0.3911746,-0.2541605,-0.8027217,-0.3823099,-0.1531376
1.130121,-0.4919029,-0.1970267,-0.4245803,-0.1577636,-0.2456112
1.146568,-0.5410317,-0.1707422,0.1166831,0.03723482,-0.3638801
1.137696,-0.5348867,-0.1903251,0.4775536,0.238577,-0.4075211
1.142392,-0.4580692,-0.257068,0.6868417,0.3071035,-0.3632236
1.195277,-0.348397,-0.4018968,0.582577,0.1677331,-0.3317135
1.392357,-0.1850448,-0.5399699,0.2101849,0.08053405,-0.2964191
1.557175,-0.04070994,-0.5657864,-0.1148218,0.00732827,-0.2673945
1.357634,-0.1080674,-0.4601758,-0.203722,-0.1835078,-0.1169581
0.9741169,-0.2706063,-0.3809155,-0.2267479,-0.2775551,0.2155946
0.8813883,-0.3445056,-0.4216375,-0.3729634,0.1261618,0.4206971
0.9915737,-0.4254216,-0.4467371,-0.2763201,0.7783341,0.3718802
1.054497,-0.462693,-0.4155801,-0.06059146,0.9642047,0.2864514
1.074093,-0.3731759,-0.3636853,0.02531227,0.9818338,0.2228456
0.9949196,-0.3199067,-0.2717383,0.186489,0.9851261,0.1846171
0.8744623,-0.2998724,-0.2300673,0.05199524,0.5872732,0.2592465
0.8288556,-0.2901914,-0.2737417,-0.1379955,0.2672239,0.3752978
0.8426914,-0.3355243,-0.2660816,0.06674562,0.231445,0.5058758
0.8493625,-0.3648765,-0.2292714,0.2421128,0.3367449,0.6020445
0.8037174,-0.398206,-0.2357474,0.4408614,0.5472686,0.534885
0.7464945,-0.3820684,-0.2433223,0.5131396,0.5064276,0.4515822
0.6743163,-0.3090576,-0.263058,0.2989436,0.4004698,0.4255393
0.6364258,-0.2753802,-0.2402662,0.270909,0.3283443,0.4113632
0.663778,-0.2481159,-0.1876426,0.2705971,0.2005439,0.4690967
0.659163,-0.2755685,-0.1921866,0.1453937,0.325587,0.4835283
0.6618289,-0.3129583,-0.1783292,-0.008479925,0.3991514,0.4130532
0.6876307,-0.3100266,-0.1473291,-0.1961425,0.2588346,0.3379686
0.7114047,-0.3430279,-0.128713,-0.2153718,0.1752855,0.2453975
0.784015,-0.3544376,-0.09978648,-0.1743578,0.1203317,0.1697834
0.864239,-0.3742855,-0.09526995,-0.1884063,0.1767757,0.1111662
0.8913302,-0.4027887,-0.1067134,-0.1875473,0.2935701,0.09067027
0.8768218,-0.3937255,-0.1165681,-0.1959397,0.4214159,0.09598367
0.9136168,-0.4234569,-0.07427854,-0.1526555,0.5740678,0.04403797
1.035233,-0.4276427,0.002618774,-0.1045921,0.5978918,-0.001316059
1.174795,-0.3796324,0.009588891,-0.1215378,0.5909398,-0.02165825
1.29004,-0.3684242,-0.0383661,-0.22177,0.538744,0.01275259
1.356277,-0.4526929,-0.134013,-0.2920358,0.2731117,0.1732618
1.480126,-0.6245533,-0.2211885,-0.0373889,-0.1021391,0.255397
1.567726,-0.6880854,-0.2020655,0.394794,-0.3322316,0.0435208
1.272813,-0.5580672,-0.2013083,0.4758161,-0.3313579,-0.2160015
0.8270336,-0.4092184,-0.2756923,0.04394107,-0.4157557,-0.1705882
0.6836579,-0.3612131,-0.2972919,-0.4080544,-0.6304759,-0.09372082
0.7413128,-0.3777494,-0.2956955,-0.4846961,-0.645009,-0.2000236
0.832896,-0.4135907,-0.2885346,-0.4913968,-0.4676058,-0.2545232
0.9398481,-0.451287,-0.2259841,-0.4327358,-0.2686983,-0.405635
0.9571508,-0.4183257,-0.2230088,-0.1459918,-0.2286396,-0.5824219
0.8944321,-0.3434014,-0.2318607,-0.06460641,-0.2209304,-0.5341157
0.8593279,-0.315941,-0.1629577,-0.04814902,-0.0668252,-0.5024807
0.8278898,-0.2934287,-0.1549724,0.1423063,-0.11983,-0.4613039
0.7919642,-0.2517595,-0.1808124,0.07583493,-0.2015512,-0.3904367
0.7963396,-0.1876363,-0.1981465,-0.07126578,-0.1133198,-0.3825107
0.7884978,-0.1249616,-0.2325946,-0.1601955,-0.216685,-0.2939954
0.7772484,-0.1204831,-0.2218026,-0.3311767,-0.3081608,-0.2384751
0.7882307,-0.1295355,-0.2183607,-0.3840519,-0.370925,-0.2289009
0.7779672,-0.1420012,-0.2261887,-0.4959114,-0.4182926,-0.1812048
0.7886739,-0.1649804,-0.213417,-0.546501,-0.2151041,-0.1574555
0.8263112,-0.1623992,-0.2096809,-0.4257194,-0.08902415,-0.1297083
0.8717597,-0.1505279,-0.191197,-0.4721993,-0.07176835,-0.1579246
0.900683,-0.1303139,-0.181299,-0.4859199,-0.1516653,-0.1673776
0.8567464,-0.113483,-0.1900201,-0.540847,-0.3650164,-0.04721915
0.8374246,-0.1183175,-0.2140139,-0.7096652,-0.4031066,0.07362896
0.8963723,-0.1315979,-0.2470322,-0.6875034,-0.3369479,0.09881028
0.9782849,-0.1613045,-0.2432677,-0.6651636,-0.2102568,0.05216376
1.063852,-0.2017252,-0.2393066,-0.6596278,-0.09448118,0.04762524
1.092153,-0.2429639,-0.2543873,-0.5955872,-0.105824,0.06990611
1.088768,-0.2723733,-0.2635424,-0.5490916,-0.1103127,0.1132786
1.138079,-0.2871188,-0.2814295,-0.3940045,-0.1508229,0.2387807
1.233793,-0.3155657,-0.3140219,-0.2216207,-0.1585369,0.2606028
1.349052,-0.3489293,-0.3951764,-0.2212713,-0.1186761,0.1505076
1.44702,-0.3571443,-0.514576,-0.3865262,-0.05112869,0.05114762
1.449607,-0.349423,-0.544732,-0.5018006,0.04777241,0.03911794
1.247402,-0.3638128,-0.4971127,-0.4139105,-0.06463606,0.2756981
0.9447839,-0.3909671,-0.4983254,-0.2496755,-0.136513,0.5969322
0.8771719,-0.3918835,-0.4864282,-0.09022254,0.1466037,0.6473347
1.017199,-0.3685356,-0.4422161,0.02877519,0.5044243,0.5540864
1.060897,-0.3208198,-0.4301407,0.1184687,0.6827547,0.5736766
1.033928,-0.2707061,-0.3549902,0.1927618,0.695175,0.5859099
1.003697,-0.2576943,-0.2651923,0.07567895,0.6472064,0.5003632
0.9221214,-0.265147,-0.2636874,-0.1404285,0.5579586,0.4515807
0.8806785,-0.268457,-0.2428634,-0.1343253,0.4809998,0.4431573
0.8504968,-0.2768393,-0.1962126,-0.03027493,0.4418767,0.4480448
0.7870722,-0.2941946,-0.1938212,0.009826832,0.4184927,0.4923465
0.7577799,-0.2964112,-0.2021615,0.0847071,0.4399425,0.553431
0.690965,-0.2907162,-0.1952623,0.09877776,0.3903505,0.6062736
0.6207175,-0.2975245,-0.1869039,0.06320584,0.3047963,0.5956602
0.6364656,-0.2998252,-0.1829448,0.03327652,0.2504377,0.530481
0.6731055,-0.3133082,-0.1764367,-0.07376775,0.2303967,0.4059785
0.7231898,-0.3388744,-0.1690369,-0.1286916,0.3667465,0.2386049
0.7504602,-0.3393529,-0.1432624,-0.1474452,0.4502821,0.146989
0.7275364,-0.3243797,-0.1148597,-0.1922172,0.3519517,0.1249578
0.7399498,-0.315178,-0.1218984,-0.222126,0.1965778,0.1742911
0.7827526,-0.3274578,-0.1217028,-0.2863034,0.001528611,0.252022
0.8352269,-0.3567808,-0.1103078,-0.2333529,-0.07071293,0.2584677
0.9008102,-0.3796838,-0.1177324,-0.139139,-0.02612995,0.2640007
0.9405711,-0.3976812,-0.1172948,-0.1903512,0.05088605,0.270886
0.9660522,-0.4038212,-0.1196478,-0.1966652,0.2317022,0.2735066
1.017602,-0.3961455,-0.1295781,-0.2148941,0.4310381,0.2876008
1.165588,-0.3728948,-0.1264721,-0.3516009,0.6539056,0.2305998
1.34593,-0.3363032,-0.1349388,-0.5090001,0.8161002,0.1698981
1.351157,-0.3871802,-0.1750172,-0.7805809,0.6646008,0.2235627
1.3294,-0.6278869,-0.2744364,-0.9150799,0.3305999,0.3985366
1.442603,-0.8760816,-0.3846519,-0.4465548,0.0585701,0.5159649
1.432004,-0.8159089,-0.3529158,0.1511911,-0.0356237,0.2541528
1.262773,-0.5751725,-0.2542133,0.07393665,0.03977179,-0.216578
0.9982283,-0.3997397,-0.2471783,-0.429017,-0.04830349,-0.3424428
0.7090853,-0.2560603,-0.2602577,-0.8444083,-0.2817995,-0.1786785
0.7872575,-0.2907036,-0.2944338,-1.13304,-0.3055662,-0.1464819
0.9663932,-0.3890238,-0.3459101,-1.195832,-0.2149373,-0.249582
0.8813399,-0.3156962,-0.3083274,-1.164419,-0.1119635,-0.372327
0.9026706,-0.3387049,-0.2474304,-1.103386,-0.05775228,-0.4855807
0.8753063,-0.3467457,-0.2023399,-0.8943692,-0.09364352,-0.5058964
0.7270133,-0.2643144,-0.1894548,-0.8270164,-0.004081327,-0.4870514
0.7497693,-0.3206634,-0.219329,-0.8094013,0.09168308,-0.5081788
0.6864284,-0.3025202,-0.2019432,-0.6598709,0.06344054,-0.4741319
0.6314745,-0.2767298,-0.204325,-0.5873194,0.03171414,-0.397118
0.6841185,-0.3035895,-0.2345004,-0.5456475,-0.01390279,-0.3942229
0.658098,-0.2370729,-0.232876,-0.5311116,-0.03380313,-0.3872034
0.7144366,-0.2310631,-0.2548267,-0.5150157,0.02820859,-0.3262728
0.7680036,-0.2107761,-0.2513285,-0.4744171,0.09807667,-0.2821841
0.7647194,-0.1733768,-0.2462592,-0.5023094,0.01739853,-0.2517479
0.8208671,-0.1821371,-0.2836117,-0.5064041,-0.1010173,-0.2316826
0.9172736,-0.1619588,-0.2994283,-0.5108566,-0.06879831,-0.1992244
1.02961,-0.1887516,-0.300346,-0.467776,-0.03521405,-0.1710437
0.9923905,-0.190155,-0.2721295,-0.376611,-0.03496956,-0.1620423
0.9211162,-0.1542473,-0.2484146,-0.3967654,-0.1082599,-0.0997256
0.9545823,-0.1393545,-0.2630903,-0.4212353,-0.2632689,-0.02327597
0.9550284,-0.1365834,-0.2626323,-0.4128079,-0.3066983,0.04076225
0.9981727,-0.1899464,-0.26404,-0.3852259,-0.3255448,0.07966573
1.060578,-0.2252453,-0.2741614,-0.3105537,-0.3465883,0.03754099
1.094312,-0.243804,-0.285803,-0.2720248,-0.3198985,0.01695585
1.194637,-0.2663126,-0.2997177,-0.2088317,-0.3628351,0.06870194
1.298801,-0.2867913,-0.3287326,-0.03828831,-0.3911518,0.1452515
1.40197,-0.3108177,-0.4416396,0.04829184,-0.2998917,0.2074139
1.4859,-0.2333168,-0.5520764,-0.187434,-0.01340338,0.1488952
1.447203,-0.172655,-0.5069617,-0.4403927,0.2982648,0.09222462
1.245926,-0.2621032,-0.4149802,-0.3305263,0.1677887,0.2588022
0.9293543,-0.367942,-0.4053411,-0.1886158,-0.05394767,0.4965725
0.7828818,-0.4110111,-0.3895431,-0.1374491,0.1066487,0.6118633
0.8934247,-0.4129408,-0.372172,0.08561717,0.2913985,0.6402403
1.02347,-0.3853463,-0.3868859,0.2862551,0.6102696,0.6354435
1.106021,-0.323355,-0.3385109,0.3637675,0.9868243,0.6050414
1.013798,-0.280569,-0.2587145,0.3827955,0.8242372,0.527486
0.8000424,-0.2684114,-0.2104727,0.2699003,0.5738564,0.4762627
0.8069408,-0.2496826,-0.2187521,0.1727759,0.4787516,0.5132993
0.8512206,-0.2628613,-0.2445739,0.139597,0.336573,0.5551914
0.7855574,-0.2800805,-0.208547,0.2298793,0.3899975,0.6001825
0.785905,-0.2923076,-0.2035729,0.4113898,0.3813711,0.6211447
0.717199,-0.3157332,-0.2033518,0.3582775,0.31775,0.5514097
0.6557277,-0.3106423,-0.1724522,0.3141921,0.346133,0.4809394
0.7098702,-0.3111963,-0.2027729,0.3869401,0.2057819,0.4458231
0.7087643,-0.3170259,-0.2060808,0.3166247,0.1861099,0.3989298
0.718075,-0.3129444,-0.1904996,0.294472,0.2566696,0.3146189
0.7234768,-0.3204077,-0.1851062,0.2411914,0.2145677,0.2064988
0.6741091,-0.3272736,-0.1370884,0.101213,0.2078421,0.154714
0.6730394,-0.3424599,-0.1260214,0.03350149,0.07914239,0.1520586
0.7226806,-0.3586201,-0.1326995,-0.03350433,-0.07843807,0.1441391
0.8139213,-0.3898212,-0.1200083,0.03774468,-0.1156275,0.135256
0.8554162,-0.4324409,-0.1148219,0.1187436,-0.06962995,0.1109734
0.8416822,-0.4209614,-0.1087798,0.04441507,0.02038248,0.06415373
0.8667844,-0.3870037,-0.1127259,0.006715212,0.03757611,0.006022396
0.8859667,-0.3674177,-0.1033091,-0.06211754,0.1290967,-0.02508485
0.9377799,-0.3546067,-0.07905787,-0.1238117,0.2449454,0.006744146
1.059156,-0.3698799,-0.05768721,-0.1373886,0.2851985,0.05384189
1.208413,-0.3891499,-0.07734972,-0.2486759,0.3408402,0.0984824
1.355582,-0.443596,-0.192053,-0.3015842,0.1575254,0.1790198
1.423954,-0.6206711,-0.3275877,-0.1834296,-0.3852283,0.2949993
1.429577,-0.7899696,-0.3559289,0.03129895,-0.8554659,0.3000378
1.38991,-0.7206662,-0.2757379,0.2031058,-0.6527651,-0.01237796
1.156854,-0.5351067,-0.2418197,0.1177285,-0.292195,-0.3204553
0.7963032,-0.4585053,-0.2887078,-0.1493978,-0.5138334,-0.1847061
0.718532,-0.4170423,-0.3047078,-0.3849682,-0.4555313,-0.06006242
0.8733972,-0.4267795,-0.30177,-0.4901671,-0.1591613,-0.2677596
0.8795705,-0.4827179,-0.2808244,-0.3774895,-0.2910337,-0.398376
0.9108564,-0.4523324,-0.236978,-0.2217993,-0.179627,-0.4969851
0.9835228,-0.4456222,-0.2255506,-0.1132993,-0.08529781,-0.6304328
0.8711132,-0.4013387,-0.2252716,0.06584961,-0.2495527,-0.5824132
0.7894568,-0.2805736,-0.2234828,0.07229824,-0.179997,-0.5637706
0.7639718,-0.2668161,-0.2188538,-0.03596118,-0.170219,-0.57271
0.738795,-0.2594579,-0.213263,-0.02248897,-0.1383043,-0.5181747
0.7751064,-0.2508595,-0.2283443,-0.07886056,-0.07820015,-0.5404509
0.7596289,-0.2806661,-0.2495937,-0.1131502,-0.1123403,-0.5274248
0.7570508,-0.2722633,-0.2721246,-0.09719482,-0.01253842,-0.5164336
0.7728273,-0.2722811,-0.2888344,-0.1488867,-0.01778333,-0.5361226
0.756142,-0.2409885,-0.2955137,-0.1508567,-0.04308878,-0.5255151
0.7846002,-0.2079656,-0.2822017,-0.1708081,-0.03158121,-0.5666148
0.7879671,-0.2079567,-0.2460139,-0.1521514,-0.1390618,-0.5387975
0.7724586,-0.2001341,-0.2397769,-0.06486901,-0.2366863,-0.4603184
0.7812092,-0.2122541,-0.2650268,-0.03764658,-0.395307,-0.3852383
0.8305355,-0.1945675,-0.2861521,0.007841663,-0.4244861,-0.2797474
0.9380544,-0.1721543,-0.28789,0.05259946,-0.2695841,-0.2800009
0.9874928,-0.1668214,-0.2588783,0.05932794,-0.1616102,-0.3242059
0.9922626,-0.1526144,-0.2321808,0.03361985,-0.07851652,-0.3400491
1.007508,-0.1482983,-0.2387389,-0.02685643,-0.1257725,-0.3089352
1.007868,-0.1044874,-0.2754108,-0.1048006,-0.245129,-0.1796172
1.023533,-0.09516488,-0.3044871,-0.2275992,-0.3351557,-0.07840143
1.059853,-0.1882715,-0.2853282,-0.2380542,-0.3856548,-0.07230911
1.123186,-0.3127649,-0.2659178,-0.01900664,-0.2768516,-0.1513837
1.178535,-0.4360374,-0.2915069,0.3522758,-0.1621928,-0.2092347
0.7773716,-0.3650533,-0.2236078,-0.4926092,0.6231549,0.05340414
0.8021245,-0.3461367,-0.2466938,-0.5832124,0.6058195,0.1106662
0.8212973,-0.3536251,-0.2475291,-0.8033928,0.7021057,0.1411291
0.8964162,-0.4171489,-0.1918938,-0.8779347,0.7823326,0.1466693
0.969986,-0.4428435,-0.1327999,-0.8193379,0.8283217,0.1972868
1.082194,-0.455519,-0.1446817,-0.9021418,0.8916905,0.2625172
1.296833,-0.4314878,-0.1667048,-0.9863476,0.9943737,0.3147621
1.4658,-0.4289148,-0.1627531,-1.009678,1.19098,0.3330068
1.440743,-0.4939023,-0.2256212,-1.026687,1.051149,0.3338932
1.335486,-0.5844607,-0.2864301,-0.8762981,0.4096031,0.3441838
1.240434,-0.6524391,-0.2817731,-0.6417608,-0.1845194,0.3339774
1.016908,-0.5504249,-0.3124004,-0.5197591,-0.1650161,0.2118148
0.8297981,-0.3952486,-0.3440542,-0.5636412,0.01762288,-0.07153941
0.8332018,-0.3336294,-0.3295775,-0.9010491,-0.1756081,-0.3546886
0.8246608,-0.2407283,-0.3024863,-1.406155,-0.167528,-0.5213915
0.8601573,-0.2153799,-0.237696,-1.544339,-0.2684173,-0.5449153
0.978043,-0.3090384,-0.1963236,-1.176366,-0.6752958,-0.3959494
1.002919,-0.346584,-0.2221477,-0.8927354,-0.5380739,-0.2795917
0.9388868,-0.3521519,-0.224985,-0.8114443,-0.3251608,-0.324779
0.8286106,-0.3578739,-0.2180431,-0.5999223,-0.2496925,-0.3609166
0.695589,-0.2624845,-0.2560499,-0.6248799,-0.06646448,-0.3737597
0.5855259,-0.08638196,-0.2923414,-0.9455003,-0.1486269,-0.4446751
0.5415063,-0.01004256,-0.3109231,-1.152365,-0.2242763,-0.4227
0.5615271,-0.06627191,-0.3298448,-1.370434,-0.3765903,-0.3018751
0.6015609,-0.1048763,-0.3335289,-1.407325,-0.5447265,-0.2418407
0.6774947,-0.1650051,-0.3070574,-1.078511,-0.25961,-0.1869795
0.7432702,-0.2660736,-0.2533365,-0.7454321,0.04662983,-0.1329904
0.7472161,-0.2605305,-0.2094164,-0.4746168,0.1914461,-0.111619
0.7816077,-0.1869287,-0.2185407,-0.4408122,0.1708788,-0.1105461
0.9112208,-0.09613852,-0.2609347,-0.6571033,0.04434877,-0.1521723
1.051433,-0.01354428,-0.2860718,-0.8029834,0.07208115,-0.1067792
1.136581,-0.04555523,-0.2867206,-1.000527,0.05451015,-0.01790651
1.236157,-0.1205092,-0.2855538,-1.141055,0.04617921,0.02254531
1.314731,-0.2049316,-0.3042536,-1.056797,0.01919165,0.06237515
1.312309,-0.3362412,-0.3746188,-0.8990163,-0.1936095,0.02692139
1.371999,-0.3758786,-0.5198574,-0.7438803,-0.2984815,-0.01877932
1.481269,-0.3273457,-0.6608923,-0.7239657,-0.1403723,-0.09673448
1.441363,-0.2929803,-0.6730298,-0.6052951,0.195444,-0.1601893
1.197466,-0.2639525,-0.6184872,-0.3640873,0.4049913,0.1176096
0.9029552,-0.3083049,-0.5890377,-0.3929828,0.4174936,0.4993323
0.8694528,-0.392538,-0.5285084,-0.3792906,0.5617702,0.5722191
1.068235,-0.3755722,-0.4723371,-0.1514476,0.8795515,0.508082
1.142185,-0.3135814,-0.4393852,-0.03476007,1.149131,0.5673402
1.096519,-0.2745807,-0.358513,0.02278587,1.109742,0.6540634
1.031035,-0.2520887,-0.2971051,-0.05414946,0.8156041,0.6555723
0.9339511,-0.2612752,-0.2940586,-0.3008339,0.4415304,0.6498763
0.8770263,-0.2632546,-0.2976127,-0.3271272,0.167379,0.6173294
0.7877094,-0.2733186,-0.2961082,-0.1553326,0.2487407,0.618446
0.7007832,-0.3145108,-0.2861062,0.004989329,0.3131628,0.6517132
0.6793114,-0.3328918,-0.2855176,0.1009584,0.3060149,0.5741554
0.5918268,-0.3383799,-0.2874013,0.0585081,0.5483299,0.4770783
0.5525395,-0.3091507,-0.267875,0.04335782,0.607056,0.3105802
0.5900048,-0.2325413,-0.2407209,-0.01785079,0.5301074,0.1158853
0.5600537,-0.1970195,-0.211974,-0.2509143,0.547798,0.1222653
0.5726856,-0.2210575,-0.1914876,-0.4077093,0.4023301,0.2066293
0.6416568,-0.2834976,-0.1793294,-0.4505911,0.3559785,0.3036925
0.7039192,-0.3479324,-0.170694,-0.4005114,0.4245392,0.4462349
0.7648489,-0.3639403,-0.1801557,-0.3395246,0.378894,0.5540958
0.7986809,-0.3696842,-0.1910773,-0.3707148,0.3936147,0.5784094
0.9078279,-0.4070887,-0.1849289,-0.3319713,0.3996539,0.5081734
1.102921,-0.4429086,-0.1676838,-0.2452984,0.4342339,0.4419763
1.252424,-0.4448062,-0.1623653,-0.1975714,0.6767174,0.3997325
1.288762,-0.4527309,-0.2302862,-0.1864971,0.8057743,0.3418174
1.268088,-0.5332345,-0.3645615,-0.1863417,0.3942321,0.3108163
1.334326,-0.6671399,-0.4114191,-0.04508734,-0.08792024,0.2782367
1.354393,-0.7024472,-0.2930294,0.2705732,0.1108405,0.07415109
1.149563,-0.5471163,-0.1971689,0.4839349,0.2953442,-0.3806294
0.8456009,-0.3526213,-0.2544464,0.03358769,0.05976939,-0.684479
0.6848809,-0.2712101,-0.2852652,-0.8278712,0.1250163,-0.5953145
0.8503277,-0.2865124,-0.222685,-1.064131,0.09362479,-0.5249968
1.051626,-0.3413514,-0.2154348,-0.8657619,-0.2108253,-0.5849926
1.026384,-0.3867814,-0.2404221,-0.7899497,-0.301339,-0.6022992
1.001249,-0.3863229,-0.2570697,-0.6367692,-0.4346963,-0.6936507
0.9273593,-0.3495986,-0.2980367,-0.6055892,-0.484874,-0.765529
