accx,accy,accz,gyrox,gyroy,gyroz
0.7394146,-0.2638767,-0.4352293,0.3511646,-0.4945949,-1.079199
0.7413589,-0.2538778,-0.4126066,0.4987758,-0.3006929,-1.090436
0.7235723,-0.1911035,-0.427113,0.5482333,-0.2543605,-1.071371
0.6825734,-0.1366467,-0.3984918,0.54951,-0.3844134,-0.983529
0.7059644,-0.05309121,-0.4352471,0.5074263,-0.7108512,-0.8094152
0.7288375,0.05168473,-0.4859509,0.3515308,-1.009509,-0.5421252
0.7546189,0.04922849,-0.5017919,0.2000269,-0.9010617,-0.3367038
0.8419946,0.0008162262,-0.5131978,0.16161,-0.5407713,-0.2222106
0.9284869,0.01874565,-0.518472,0.1553457,-0.2163934,-0.1252083
0.9301261,0.03339836,-0.5369145,0.1345539,-0.03919335,-0.04778135
0.8965704,0.02326847,-0.5388468,0.09072636,-0.1373551,0.06541199
0.9346764,0.01435358,-0.5719648,0.01296768,-0.3716788,0.1539551
0.9792307,-0.05557026,-0.6589917,-0.0758287,-0.5863758,0.2417104
1.018973,-0.1420555,-0.7504863,-0.08445111,-0.7377578,0.3998385
1.13686,-0.2036483,-0.8695037,0.04817886,-0.6035454,0.4648967
1.272665,-0.3101788,-0.9919379,0.1453826,-0.2660221,0.3799059
1.338405,-0.407537,-1.06291,0.1005228,0.06199578,0.2704275
1.232185,-0.4247526,-1.057668,0.07857509,0.3162825,0.2729262
1.01837,-0.3896891,-1.008164,0.1673549,0.5355509,0.335522
0.8972186,-0.3491799,-0.9080539,0.2412996,0.9163812,0.3714906
0.8472959,-0.3156217,-0.7118169,0.2763117,1.194322,0.4843071
0.8300036,-0.293497,-0.6157116,0.4228986,1.44635,0.657054
0.8457926,-0.3452147,-0.6707375,0.6254355,1.977168,0.8196236
0.9274226,-0.4385625,-0.6373467,0.8028525,2.403685,0.8757011
1.068566,-0.496128,-0.5680687,1.017042,2.73397,0.7631148
1.030059,-0.4871671,-0.5097471,1.111236,2.695217,0.5616323
0.8246436,-0.377763,-0.3503561,0.9837932,1.953365,0.2511859
0.631941,-0.2461228,-0.2623396,0.8599869,1.084791,0.0803449
0.4846926,-0.1678987,-0.2952532,0.8291766,0.4985951,0.2111696
0.4562178,-0.1439307,-0.2734421,0.7499602,0.4269662,0.3256237
0.4981591,-0.1795107,-0.2611252,0.6406893,0.6227847,0.4602481
0.5633457,-0.2350428,-0.2811882,0.5782519,0.7819318,0.6042095
0.6208968,-0.2659867,-0.217144,0.5164576,0.921347,0.5101678
0.6206637,-0.2582209,-0.1525079,0.3932758,0.8483535,0.4632279
0.6302089,-0.2343122,-0.1546074,0.1772047,0.7496465,0.5718594
0.5947719,-0.2310833,-0.1087949,0.04152241,0.6014449,0.6341526
0.5572182,-0.2933298,-0.004707954,0.07325605,0.4882611,0.6862656
0.5833923,-0.3978586,0.04391904,0.05419048,0.491821,0.4949954
0.5850308,-0.4174033,0.04130834,-0.02951251,0.1330462,0.01696859
0.6524826,-0.3829231,0.05034455,-0.08289054,-0.2616826,-0.2784316
0.7992999,-0.3902222,0.02890651,-0.1482861,-0.5430322,-0.3232027
0.9553158,-0.3907997,-0.03235143,-0.2028551,-0.8936529,-0.3410528
1.108118,-0.3802777,-0.0853082,-0.2286563,-1.119244,-0.4070171
1.172938,-0.3942983,-0.1709211,-0.2114353,-1.250066,-0.4421644
1.190946,-0.4554666,-0.3810193,-0.05623288,-1.107917,-0.3743245
1.322685,-0.5944898,-0.6722368,0.1279339,-0.9480404,-0.2702356
1.460833,-0.7189318,-0.7571335,0.1197365,-0.9743041,-0.05464678
1.238181,-0.7626877,-0.6152741,0.1153464,-0.8511931,0.2035869
0.9106905,-0.8332736,-0.5395448,0.2110227,-0.7412375,0.2645021
0.9460648,-0.8726515,-0.451432,0.08427981,-0.5776443,0.1257235
0.9652859,-0.7644185,-0.3353588,-0.1035005,-0.3615032,-0.1375497
0.8269214,-0.6309957,-0.2698368,-0.1353441,-0.4146711,-0.3999702
0.8252631,-0.517596,-0.1497633,-0.2585553,-0.6520866,-0.6356755
0.835884,-0.4639443,-0.2783302,-0.3775539,-1.076755,-0.7534319
0.8169419,-0.4584194,-0.5750617,-0.3627388,-1.491344,-0.6362905
0.8307802,-0.3692462,-0.6352914,-0.39979,-1.537317,-0.6015531
0.8436823,-0.3448869,-0.6532378,-0.4573895,-1.371872,-0.6983147
0.8638731,-0.3409386,-0.6490522,-0.382204,-1.225747,-0.7718713
0.8360037,-0.3001948,-0.584018,-0.1969733,-1.079424,-0.9663137
0.785683,-0.3854057,-0.5290003,-0.03584667,-0.7986156,-1.18689
0.7410639,-0.3676048,-0.4831645,0.07650515,-0.4655121,-1.304875
0.6730364,-0.3051968,-0.5098634,0.1486936,-0.3646876,-1.337991
0.6215442,-0.3192976,-0.4280439,0.2308213,-0.4019462,-1.296822
0.5815553,-0.2226456,-0.385717,0.3879279,-0.365078,-1.233425
0.5357271,-0.1597332,-0.4537537,0.4154776,-0.3150272,-1.083279
0.5063646,-0.08780121,-0.3841599,0.3169243,-0.3074255,-0.8974714
0.511752,-0.003578933,-0.3809851,0.2696341,-0.4955689,-0.7759707
0.5516381,-0.01828392,-0.4034469,0.217715,-0.8708795,-0.6539322
0.6160588,0.002326508,-0.4173141,0.2049576,-0.9979815,-0.5269809
0.6935035,-0.0132991,-0.5281313,0.1783586,-0.8082211,-0.3679584
0.7559529,-0.00925773,-0.5462937,0.0625211,-0.6319951,-0.1809611
0.8258829,0.02260867,-0.5670838,-0.03036125,-0.5267426,-0.05315953
0.9224339,-0.0143992,-0.6281998,-0.1185777,-0.4515693,0.03665713
1.022986,-0.04006334,-0.6989841,-0.1770881,-0.4159459,0.1293171
1.120391,-0.1463452,-0.8159046,-0.171055,-0.32949,0.2358377
1.183056,-0.2535168,-0.8824423,-0.1266119,-0.2675301,0.3364696
1.227414,-0.3389744,-1.001702,-0.01685327,-0.3614532,0.3703896
1.292055,-0.502187,-1.133935,0.07472046,-0.3955666,0.2915963
1.325296,-0.549724,-1.14161,0.1099378,-0.1776458,0.1373353
1.244494,-0.4913818,-1.105708,0.1311574,0.2641776,0.04653126
1.026567,-0.4228266,-1.016197,0.169517,0.8525769,0.06505715
0.8170591,-0.3509506,-0.7862653,0.2545078,1.286293,0.1505509
0.774046,-0.3294845,-0.581416,0.3152344,1.436475,0.2922996
0.8240753,-0.3110127,-0.6618894,0.3863213,1.748616,0.4805664
0.8967076,-0.2809291,-0.7496161,0.5373732,2.500901,0.7306475
1.066464,-0.271802,-0.6497497,0.7020476,3.283622,0.9396332
1.171016,-0.2733338,-0.6467299,0.7925578,3.470595,0.9075932
0.9485933,-0.2163648,-0.5768932,0.6203001,2.789803,0.6960948
0.6196057,-0.114713,-0.3663823,0.3519044,1.710928,0.5479551
0.5018449,-0.08933642,-0.301784,0.3346369,0.9050753,0.5395031
0.537962,-0.1666437,-0.2803422,0.2959056,0.5094309,0.618167
0.5734162,-0.2944912,-0.2529285,0.2042824,0.6174706,0.7106596
0.5521368,-0.355129,-0.2299413,0.3114129,0.9446167,0.7586736
0.5520206,-0.3506967,-0.1377134,0.3287955,0.9720516,0.7562471
0.5658023,-0.3561826,-0.130859,0.2307746,0.9857498,0.7330581
0.5359385,-0.3332294,-0.159969,0.1613313,0.9994767,0.7683092
0.5352719,-0.3315439,-0.1046423,0.0719269,0.8551386,0.8158658
0.5246828,-0.3824233,-0.04573542,0.1076884,0.7119831,0.780232
0.5228596,-0.4490214,0.02212922,0.131672,0.3708165,0.6179792
0.5786932,-0.4806539,0.05066457,0.02917232,0.03186325,0.2462174
0.6526833,-0.4480701,0.02900592,-0.04029631,-0.2645096,-0.1195198
0.7945397,-0.4423237,0.04318649,-0.1068554,-0.6934257,-0.3044477
0.9069418,-0.4415942,0.03239179,-0.1311125,-0.9238738,-0.4238098
1.070994,-0.432883,-0.07407112,-0.128641,-1.000657,-0.4577582
1.341537,-0.4700384,-0.2758764,-0.1249089,-0.9241663,-0.5076113
1.315958,-0.5078916,-0.4572897,-0.05249139,-0.8281347,-0.5687051
1.242558,-0.6035286,-0.5658382,-0.04265746,-0.9576145,-0.4487874
1.424738,-0.7140142,-0.7826468,-0.01318864,-0.9538237,-0.2117785
1.348992,-0.6857412,-0.9011701,0.09770473,-0.807508,0.08437864
1.084307,-0.6171117,-0.6339935,0.06000559,-0.5699897,0.2235915
0.856618,-0.5587855,-0.3895634,-0.1009939,-0.2945117,0.04139809
0.6109863,-0.4254691,-0.3665086,-0.2843001,-0.2980746,-0.1441979
0.6720057,-0.3579873,-0.3559974,-0.4732495,-0.4652776,-0.2701641
0.7446438,-0.3944149,-0.4164205,-0.641348,-0.7805433,-0.4174534
0.6537313,-0.3688725,-0.5028321,-0.7551641,-1.219155,-0.4075897
0.7696938,-0.3616777,-0.5365474,-0.7469623,-1.439079,-0.4552733
0.7984214,-0.3651484,-0.5374395,-0.7603545,-1.437707,-0.7767595
0.7883939,-0.2985187,-0.5086592,-0.7852374,-1.425852,-1.086148
0.851958,-0.3010509,-0.533403,-0.6334649,-1.367667,-1.308412
0.7492155,-0.317573,-0.5247254,-0.4410255,-1.136841,-1.422841
0.7304126,-0.3028947,-0.4972395,-0.2536652,-0.8546192,-1.289772
0.7033511,-0.3018972,-0.5204506,-0.07110424,-0.6164987,-1.108465
0.6289134,-0.2612009,-0.4937183,0.0254204,-0.4370976,-0.9538723
0.6775829,-0.2350514,-0.4990264,0.09033887,-0.3120778,-0.7874453
0.6409038,-0.1727505,-0.518582,0.05246779,-0.1640211,-0.7315633
0.6107224,-0.04917321,-0.4909381,-0.04038587,-0.2387009,-0.6686446
0.6045095,0.004018791,-0.4541338,-0.105008,-0.645678,-0.5357295
0.6177144,-0.007974116,-0.3995885,-0.1605611,-1.06307,-0.429458
0.7540205,-0.02331525,-0.4780432,-0.1026794,-1.119384,-0.3258918
0.8235568,-0.02016292,-0.6222055,-0.07358591,-0.6385069,-0.252822
0.8659336,-0.02827761,-0.6476683,-0.1342645,-0.1279812,-0.1729646
0.8884315,-0.02832826,-0.6574634,-0.1555362,0.004416563,-0.03589706
0.8644817,-0.008758718,-0.6705737,-0.1973009,-0.02153945,0.0982955
0.9293054,-0.05089987,-0.664179,-0.1851535,-0.112004,0.2594019
1.016118,-0.1441112,-0.6919969,-0.09573194,-0.2270913,0.3731711
1.107092,-0.2627658,-0.7597956,0.01388529,-0.3138313,0.3441924
1.121344,-0.3536002,-0.8834458,0.1783564,-0.2846032,0.2826153
1.074878,-0.4227424,-1.052412,0.3023412,-0.04426613,0.1822345
1.108531,-0.5257005,-1.15625,0.3361828,0.3376244,0.0566732
1.043616,-0.4899059,-1.048205,0.2736361,0.7366259,0.08376315
0.8859234,-0.3793999,-0.8268791,0.2193204,0.9073008,0.1800356
0.79052,-0.3907055,-0.7225916,0.3420788,1.077028,0.2309876
0.7837392,-0.3645523,-0.7153146,0.4959705,1.62347,0.3695023
0.8715014,-0.2922243,-0.706233,0.5706693,2.255011,0.5995785
0.9682049,-0.2535446,-0.6622173,0.6345576,2.790111,0.8302892
1.068831,-0.2132271,-0.6083113,0.6948883,3.054144,0.9173331
0.9963089,-0.2215304,-0.5656487,0.7386188,2.653905,0.7398871
0.7056693,-0.1886792,-0.4673263,0.6986598,1.840761,0.5379662
0.5374434,-0.1310134,-0.3724715,0.5788072,1.083514,0.4919499
0.4962,-0.186255,-0.3099841,0.4712225,0.5207549,0.6227393
0.5317555,-0.2638334,-0.2448965,0.4639891,0.4528628,0.8770299
0.6053106,-0.3564212,-0.2360037,0.5763418,0.7922783,0.9321849
0.6254204,-0.4511633,-0.2161831,0.660019,0.9628739,0.846635
0.700274,-0.4305558,-0.2089236,0.6625574,1.014511,0.844143
0.67928,-0.4003929,-0.2424276,0.6178834,1.009476,0.8062505
0.5747784,-0.4336545,-0.2041212,0.5526291,0.8423987,0.7609006
0.5326461,-0.4405442,-0.1392975,0.5662184,0.7146837,0.7118385
0.4824513,-0.4610736,-0.02155912,0.5996418,0.5427987,0.5638567
0.5295693,-0.5030501,0.1091687,0.5949044,0.3108372,0.3029614
0.5780286,-0.4710884,0.1344347,0.5677616,-0.05109764,-0.01660652
0.6267005,-0.4290409,0.1439434,0.4807549,-0.5537365,-0.2414993
0.7738984,-0.4075505,0.1088578,0.4233844,-0.8994031,-0.4226833
0.8552793,-0.3635234,0.04369497,0.4133248,-1.284575,-0.6011194
0.9754747,-0.3415967,-0.0002596868,0.4108055,-1.61228,-0.6424297
1.090602,-0.3339293,-0.1385468,0.4424867,-1.643986,-0.558932
1.118081,-0.3881304,-0.3153069,0.459056,-1.572173,-0.4298887
1.184836,-0.5082235,-0.48154,0.478977,-1.320153,-0.3137531
1.187076,-0.6139316,-0.5948688,0.5647259,-1.00121,-0.279667
1.172215,-0.8275725,-0.539064,0.7764204,-0.8517496,-0.3459001
1.153048,-1.061402,-0.4824961,0.9890635,-0.9399587,-0.4385437
1.026131,-0.997104,-0.4887995,0.9452881,-0.9980635,-0.6335185
0.8831897,-0.8157917,-0.4182041,0.8558783,-0.6244288,-0.9968006
0.7175838,-0.7106032,-0.3399592,0.8271337,-0.2830159,-1.190824
0.5379871,-0.4847935,-0.2658749,0.6016496,-0.380778,-1.142138
0.5034888,-0.4329467,-0.2373161,0.4080612,-0.8314284,-1.120287
0.6054004,-0.5893159,-0.3225263,0.4101876,-1.54739,-1.11412
0.6511633,-0.4644297,-0.368255,0.4264866,-2.074784,-1.147706
0.7341984,-0.4297146,-0.4382413,0.4686171,-2.234329,-1.29217
0.871655,-0.5359139,-0.5237633,0.4707481,-2.228114,-1.502728
0.8478353,-0.4736789,-0.4876881,0.498709,-2.034307,-1.789703
0.8694612,-0.556518,-0.5302753,0.68107,-1.554387,-2.049916
0.887531,-0.5228867,-0.6081228,0.8716946,-0.861142,-2.230797
0.7462209,-0.3501027,-0.5969839,1.066634,-0.2510776,-2.3793
0.6543377,-0.3142443,-0.5754352,1.227061,0.003962094,-2.411748
0.5377279,-0.1873588,-0.4979084,1.262389,-0.1057879,-2.352362
0.5070615,-0.1027723,-0.4393742,1.205382,-0.2910275,-2.172517
0.5885136,0.00950327,-0.4241005,1.123934,-0.5194454,-1.756836
0.6203531,0.1559862,-0.4330963,1.169075,-0.8541961,-1.355166
0.7494502,0.1394624,-0.4945282,1.189226,-0.9053583,-1.166825
0.8105296,0.1488321,-0.4977954,1.063684,-0.8068465,-1.06972
0.8329738,0.08763172,-0.4900881,0.9261835,-0.8514734,-1.012813
0.9561417,0.0402576,-0.5055092,0.7358596,-0.7169308,-0.9667982
0.9472177,0.08085006,-0.509138,0.5632611,-0.39988,-0.9372673
0.9589048,0.01774062,-0.5298976,0.446134,-0.0670776,-1.018571
1.043248,-0.01258967,-0.5076519,0.3897916,0.1049286,-1.143244
0.9857477,-0.04907822,-0.4958873,0.3992475,-0.07852543,-1.138674
0.915297,-0.08612747,-0.52679,0.3055173,-0.1993196,-0.8946969
0.9159684,-0.06984638,-0.5321935,0.3284225,-0.07457149,-0.4949697
0.9112753,-0.1077182,-0.5099573,0.4958925,-0.0589019,-0.1710308
0.9356946,-0.1343682,-0.4484224,0.6167453,-0.1026781,0.07634944
1.031028,-0.1687989,-0.4199382,0.879042,-0.07516776,0.2162125
1.167592,-0.1824864,-0.4936289,1.004809,-0.05325743,0.09623602
1.28082,-0.2038583,-0.6607036,0.9170691,0.04037268,-0.1138117
1.300658,-0.3025669,-0.8541623,0.9262553,0.1605471,-0.3874975
1.256517,-0.3297886,-0.9142048,0.7428178,0.07369978,-0.5924746
1.093658,-0.3109091,-0.8616144,0.4379487,-0.1977466,-0.3132192
0.8164624,-0.2811718,-0.855523,0.3675997,-0.3810766,0.07517424
0.7718373,-0.2558819,-0.8647552,0.4159197,-0.2233966,0.2556191
0.8747599,-0.2820213,-0.8108968,0.4306188,0.1952176,0.4673479
0.8113322,-0.2726289,-0.7754441,0.4365617,0.6260857,0.6132321
0.8015163,-0.2865108,-0.7917541,0.6419807,1.218162,0.7239833
0.8736136,-0.3560752,-0.757919,0.9087461,2.014114,0.7743038
0.9185745,-0.4146982,-0.6086238,0.9968494,2.597773,0.6973948
0.9976466,-0.4344602,-0.4003538,1.179679,2.69289,0.707673
0.9363784,-0.3739411,-0.3142601,1.416326,2.372825,0.6346338
0.777785,-0.2716863,-0.3496189,1.370029,1.878788,0.4972146
0.6914943,-0.131068,-0.3308423,1.175033,1.185081,0.4887219
0.6457837,-0.03380517,-0.2931212,1.001258,0.468848,0.516948
0.7067057,-0.07242969,-0.2721531,0.8189944,0.2999105,0.6388295
0.7602624,-0.1236751,-0.2467963,0.7540467,0.5577894,0.7085521
0.717731,-0.1866895,-0.255747,0.6897969,0.8325873,0.6488668
0.7184315,-0.2486083,-0.2266373,0.3882589,0.9265696,0.6511374
0.6929321,-0.2056013,-0.1626908,0.07003114,0.7890054,0.7421435
0.6087682,-0.1637899,-0.115674,-0.12306,0.6538871,0.9194986
0.538491,-0.1695961,-0.03989407,-0.159207,0.5514256,1.065455
0.5054898,-0.222729,0.04327803,-0.04906074,0.4917835,1.088902
0.5320183,-0.3789487,0.1422302,-0.03852091,0.3135113,0.8929835
0.5724945,-0.5297826,0.2232783,-0.1149713,-0.2490021,0.4373717
0.688121,-0.6098207,0.1927524,-0.2089088,-0.7960492,0.06310577
0.8625599,-0.6320659,0.1325399,-0.2889743,-1.006176,-0.1319761
0.9914545,-0.5929903,0.06790217,-0.2788509,-0.9834664,-0.3635007
1.141327,-0.5826756,-0.1014107,-0.2304499,-0.7757754,-0.5707551
1.236862,-0.6049061,-0.3729165,-0.1303842,-0.365709,-0.5389374
1.230499,-0.6320842,-0.5873679,-0.06638224,-0.1531374,-0.3671373
1.230174,-0.6815868,-0.6041997,-0.02267978,-0.7103362,-0.2206004
1.182916,-0.6630268,-0.5729624,0.02073981,-1.229994,-0.004739842
1.082321,-0.5857153,-0.5688486,-0.158148,-0.784999,0.1331634
0.9979027,-0.5040916,-0.5024109,-0.4163076,-0.302761,0.1154898
0.9004021,-0.4076144,-0.4606878,-0.596745,-0.3894297,0.05865106
0.794501,-0.3801973,-0.4370059,-0.7519407,-0.4983649,-0.1443232
0.7657869,-0.4001246,-0.4504777,-0.8578922,-0.689567,-0.3249247
0.8137761,-0.3959819,-0.5325042,-1.017177,-0.9163615,-0.3486153
0.8615439,-0.4105029,-0.5151084,-1.152132,-0.8537807,-0.3947161
0.9133948,-0.4107388,-0.4607747,-1.119152,-0.8551533,-0.5663078
0.9299636,-0.3586933,-0.4255458,-1.009685,-0.9234018,-0.8759708
0.8668947,-0.2648227,-0.3840593,-0.8354513,-0.8996211,-1.137777
0.7819294,-0.1633706,-0.4450886,-0.6751552,-0.9715707,-1.224032
0.703073,-0.1283607,-0.5000759,-0.6668336,-0.9841405,-1.092085
0.6812116,-0.1250927,-0.4931043,-0.6808003,-0.8895938,-0.804992
0.7138732,-0.1094019,-0.4984303,-0.641253,-0.7199222,-0.6019917
0.7088711,-0.0968709,-0.4819435,-0.6138243,-0.4143515,-0.4901099
0.664953,-0.06405447,-0.4607069,-0.5120879,-0.0898353,-0.4714893
0.600264,-0.04300074,-0.4101904,-0.3819825,0.05670763,-0.4937718
0.5320124,-0.04342767,-0.3343334,-0.3230421,-0.2022402,-0.4317916
0.5128337,-0.03018583,-0.3053235,-0.2458459,-0.6178704,-0.322336
0.5445717,-0.03569777,-0.3523393,-0.2072878,-0.8162376,-0.07878783
0.5998012,-0.03824687,-0.4509365,-0.2593775,-0.7674604,0.133575
0.6647398,-0.02119532,-0.4827837,-0.3411105,-0.5029057,0.1247043
0.7469114,-0.01842705,-0.4840872,-0.4312341,-0.2461843,0.1328082
0.8443821,0.004772546,-0.5209493,-0.4899185,-0.09887847,0.2171513
0.9090477,0.04839841,-0.5447222,-0.5581123,-0.04897474,0.3132918
0.9423524,0.07164617,-0.6361065,-0.6489776,-0.03489959,0.449446
1.016243,0.05503161,-0.7496628,-0.7129806,0.04453643,0.5831475
1.122995,-0.02786518,-0.7589963,-0.7001455,-0.05289945,0.6451902
1.207034,-0.1723012,-0.7570314,-0.580979,-0.2419098,0.6526725
1.295029,-0.3062834,-0.8566131,-0.4448098,-0.2695223,0.6761624
1.37019,-0.3379545,-1.06653,-0.378141,-0.1029054,0.6355222
1.347297,-0.3191736,-1.210268,-0.4237568,0.3110843,0.5359821
1.209405,-0.3298771,-1.104249,-0.4516254,0.6213928,0.5268495
0.9819296,-0.3267248,-0.8979891,-0.3597973,0.7917803,0.622625
0.815462,-0.3243496,-0.7497144,-0.2575177,1.11289,0.7895052
0.8137871,-0.3313834,-0.6505516,-0.09147576,1.518815,0.9674105
0.8058705,-0.3209426,-0.6770257,0.06098386,2.078445,1.150722
0.8144567,-0.3223993,-0.7079926,0.08456753,2.706511,1.336589
0.9678643,-0.3209743,-0.5973797,0.156531,3.235361,1.364493
1.056267,-0.3039138,-0.5068143,0.2640882,3.370148,1.198782
0.9512626,-0.2513561,-0.3901906,0.2968432,2.574072,0.9601968
0.7299027,-0.1446421,-0.2938541,0.180283,1.428193,0.810911
0.4943423,-0.05347531,-0.3572933,-0.0468442,0.8422316,0.890319
0.4080946,-0.03340469,-0.3365792,-0.1576468,0.5552448,1.065868
0.4656529,-0.09964935,-0.2945157,-0.2155738,0.4335932,1.23022
0.5184113,-0.2317752,-0.308628,-0.2570231,0.7513451,1.384819
0.5682539,-0.3687874,-0.226213,-0.1289673,1.121521,1.356497
0.6495662,-0.4454522,-0.1765067,0.01416563,1.265595,1.259609
0.6802245,-0.4517284,-0.1462999,0.04476002,1.27921,1.215677
0.6704211,-0.4618115,-0.127432,0.052401,1.038992,1.034033
0.6482451,-0.4769927,-0.1463732,0.07897437,0.6673455,0.8982467
0.5962701,-0.4796579,-0.09262665,0.0871335,0.2996826,0.8008644
0.6194149,-0.4961252,-0.06189165,0.002691686,-0.03981648,0.4776597
0.6626624,-0.469186,-0.04061662,-0.1335146,-0.2214563,0.173543
0.6638534,-0.430372,0.01439167,-0.2052364,-0.4409461,-0.002381522
0.7339919,-0.4476872,0.01829383,-0.1637252,-0.7760506,-0.1287819
0.8151419,-0.4514169,-0.01860223,-0.06547416,-1.029543,-0.2308337
0.9156982,-0.4464651,-0.09033345,-0.015162,-1.073297,-0.3843227
1.073111,-0.4745261,-0.1587323,-0.00511315,-0.9225209,-0.4670436
1.151004,-0.5071757,-0.2573569,0.03426142,-0.7962209,-0.4810603
1.180542,-0.5682742,-0.3947523,0.1412256,-0.7529142,-0.4466924
1.338513,-0.6944528,-0.4867045,0.2327074,-0.8071804,-0.3394722
1.510961,-0.7888873,-0.6161998,0.2241558,-0.9628599,-0.2590823
1.371096,-0.712636,-0.7296224,0.1724882,-0.9944577,-0.07457091
1.095381,-0.6072556,-0.5960861,0.06926722,-0.7020086,0.06200883
0.9341683,-0.6110216,-0.3503167,-0.06309662,-0.3239825,-0.1073634
0.7367307,-0.5368053,-0.282758,-0.2379823,-0.3998709,-0.2904993
0.6599001,-0.4386245,-0.2698724,-0.4546178,-0.6439986,-0.4442967
0.6979339,-0.4578175,-0.2586326,-0.5388955,-0.7841062,-0.6603847
0.6476517,-0.4239822,-0.383285,-0.5748842,-1.258863,-0.7269868
0.6996119,-0.3712555,-0.4549713,-0.5937392,-1.657423,-0.7627535
0.7802725,-0.356862,-0.4772683,-0.5664967,-1.718879,-0.953475
0.8070732,-0.3006409,-0.5117592,-0.6230769,-1.759483,-1.216637
0.8441409,-0.2841506,-0.46535,-0.5610946,-1.56109,-1.487145
0.7935756,-0.2715542,-0.4853983,-0.3589762,-1.231826,-1.62785
0.758423,-0.2341431,-0.4939073,-0.1596145,-0.8688244,-1.607624
0.7035507,-0.207852,-0.4682376,0.04322224,-0.5292501,-1.547254
0.6369355,-0.1557394,-0.513994,0.102489,-0.4473407,-1.401782
0.7174539,-0.1382785,-0.4947398,0.1583537,-0.2059422,-1.166721
0.7527907,-0.07559438,-0.4718359,0.2852437,0.1491275,-0.9783926
0.7064363,0.05140335,-0.4301617,0.316802,0.179116,-0.8839194
0.6767828,0.0742609,-0.3782812,0.3306133,-0.1365178,-0.7739192
0.6489796,0.0560336,-0.4607839,0.3120019,-0.7381392,-0.5591218
0.7004584,0.05573748,-0.5500707,0.2334438,-1.039313,-0.3824988
0.7962018,0.04351793,-0.6123006,0.09020091,-0.7635126,-0.3217536
0.8509461,0.05374416,-0.6282513,-0.107527,-0.3631515,-0.2699169
0.8472866,0.06892101,-0.5785165,-0.2064029,0.01320714,-0.2237789
0.822837,0.07512623,-0.5741913,-0.243692,0.194939,-0.1634125
0.8058546,0.07200301,-0.5753588,-0.2878543,0.03401693,-0.07187513
0.7677723,0.06546254,-0.567323,-0.3368376,-0.187751,-0.03338239
0.8106645,0.03271061,-0.5608783,-0.354985,-0.4560538,-0.03170884
0.9981213,-0.1081984,-0.5609919,-0.2679717,-0.6957501,-0.0007928919
1.171781,-0.2723138,-0.58925,-0.09023733,-0.4861212,0.06981631
1.170314,-0.2749841,-0.6132564,0.2360513,-0.2277771,0.1409392
1.150264,-0.2441313,-0.7468153,0.5372053,-0.26899,0.139134
1.329447,-0.3323144,-1.041204,0.5846811,-0.1902279,-0.03100829
1.443777,-0.3268408,-1.230988,0.5643785,-0.0314826,-0.3463037
1.342753,-0.2307174,-1.130077,0.526686,0.1373907,-0.5098508
1.213944,-0.2283302,-0.9949163,0.4250447,0.2212767,-0.4090226
1.001203,-0.2543599,-0.9618141,0.3314173,0.2889946,-0.243094
0.8048844,-0.3155483,-0.8079393,0.257433,0.7815345,-0.004326756
0.7788817,-0.3498124,-0.6612797,0.282982,1.171381,0.2778077
0.7360223,-0.308783,-0.6462972,0.3936428,1.331963,0.4074139
0.712838,-0.313284,-0.6266349,0.5357289,1.722586,0.4672381
0.8163698,-0.2882615,-0.6393428,0.6383797,2.019498,0.4921292
0.8805019,-0.2554285,-0.6059103,0.5799662,2.199723,0.3743221
0.8286244,-0.2600832,-0.5170495,0.5435184,2.220376,0.2890819
0.7137298,-0.241324,-0.4520318,0.5891805,1.854911,0.3417093
0.5591817,-0.2618599,-0.3642315,0.5620024,1.204964,0.4444698
0.460858,-0.2714757,-0.3259821,0.6037496,0.4964334,0.6346635
0.5689879,-0.299511,-0.2967772,0.7973213,0.2642399,0.8877143
0.7762764,-0.3954169,-0.300258,1.063516,0.5090419,1.040936
0.9135833,-0.4435253,-0.3907331,1.286813,0.8693965,1.014605
1.005512,-0.4459124,-0.4268959,1.284533,1.216374,0.8238478
0.9549372,-0.3866338,-0.445367,1.125468,1.23633,0.5123914
0.7784771,-0.2849824,-0.4143471,0.9545551,1.041259,0.3546154
0.6480258,-0.232047,-0.2933044,0.8117828,0.9965426,0.5516833
0.5642599,-0.2275161,-0.2036861,0.7061518,0.9000284,0.7306145
0.5403628,-0.2622892,-0.1321811,0.5647289,0.5971125,0.691959
0.4952778,-0.3012311,-0.01913106,0.4809618,0.372864,0.6685448
0.4751916,-0.3452006,0.1405568,0.4729932,0.2618242,0.6233266
0.5878873,-0.3968483,0.1510386,0.4071757,0.1192226,0.5059687
0.6303257,-0.4258078,0.06075955,0.3930562,-0.03565699,0.4190027
0.6822357,-0.4297887,0.1067093,0.4263465,-0.3064044,0.3080266
0.8100727,-0.400283,0.03740833,0.4067055,-0.6825751,0.1485161
0.8733422,-0.3867183,-0.07676524,0.3703159,-1.033335,0.005942665
0.9664196,-0.3887376,-0.04513373,0.3023018,-1.271655,-0.1005009
1.067297,-0.3793987,-0.09773162,0.2715298,-1.304561,-0.1876509
1.17359,-0.3976566,-0.1206097,0.3053235,-1.14503,-0.2613582
1.319849,-0.4654503,-0.1721402,0.3513149,-0.8151627,-0.2692278
1.461968,-0.6562819,-0.3556176,0.4347593,-0.5706483,-0.1528271
1.47677,-0.8725938,-0.3889016,0.5412512,-0.6620009,0.05822113
1.242105,-0.8934098,-0.3881849,0.7021005,-0.9445386,0.1688985
1.049672,-0.8270904,-0.4232716,0.8026307,-1.14078,0.06361833
0.9336601,-0.8216252,-0.3827121,0.6560552,-1.012466,-0.05279737
0.7858747,-0.7797656,-0.3689879,0.4654748,-0.7866447,-0.1345917
0.7620551,-0.6940233,-0.3528999,0.345245,-0.811945,-0.324759
0.7267145,-0.632616,-0.3508339,0.1784483,-0.9836728,-0.4922347
0.697783,-0.5534828,-0.403423,0.05138068,-1.270928,-0.5936857
0.7239429,-0.5049889,-0.4477757,-0.004164166,-1.57629,-0.7217597
0.7552804,-0.4626146,-0.5448775,-0.0389526,-1.632632,-0.8202377
0.8367168,-0.3175249,-0.6518129,-0.1057576,-1.567329,-0.9563865
0.8217106,-0.2810569,-0.6303803,-0.2207938,-1.466335,-1.136515
0.8053637,-0.3231499,-0.5721084,-0.230272,-1.208211,-1.236199
0.8291012,-0.214182,-0.5493135,-0.202492,-0.9224628,-1.300947
0.7956544,-0.1840692,-0.4735604,-0.1857767,-0.7124602,-1.389962
0.7732235,-0.2143518,-0.4390246,-0.06640017,-0.5990772,-1.517062
0.6705424,-0.1418697,-0.4631704,-0.001965094,-0.6316947,-1.564649
0.5946711,-0.1443677,-0.4201478,0.00854205,-0.676396,-1.456024
0.6397784,-0.1716962,-0.4153123,0.06052475,-0.6612955,-1.320255
0.6663869,-0.1680761,-0.4041297,0.1310778,-0.6518263,-1.134661
0.6904572,-0.1842487,-0.3535648,0.2980078,-0.5582848,-1.000723
0.707859,-0.164599,-0.3977231,0.4307561,-0.4566891,-0.9606212
0.6885693,-0.1513462,-0.4054876,0.4130203,-0.621252,-0.7365757
0.678216,-0.1102804,-0.413986,0.2683827,-0.8056699,-0.4537755
0.7490636,-0.01273777,-0.4877079,0.04307221,-0.6720994,-0.2666587
0.8495767,0.05544403,-0.5037304,-0.054391,-0.3741338,-0.1029106
0.8955013,0.07702265,-0.5504804,-0.1045815,-0.004399498,-0.04316692
0.9519476,0.08718676,-0.6084048,-0.2587389,0.1853799,0.007461574
0.9952387,0.1036105,-0.633896,-0.3960746,-0.0191521,0.1366772
1.011863,0.05314862,-0.6684926,-0.5395607,-0.1666148,0.3047129
1.050233,-0.04702918,-0.6794384,-0.6366881,-0.1848764,0.4671665
1.076923,-0.148437,-0.7140881,-0.5962102,-0.3052436,0.5356672
1.111814,-0.2949279,-0.793848,-0.4742437,-0.3085575,0.5667905
1.18964,-0.4236839,-0.9597522,-0.2608902,-0.2283945,0.496634
1.258411,-0.5165281,-1.089419,-0.1614864,-0.02617596,0.30102
1.216459,-0.5512564,-1.015874,-0.2219036,0.4148725,0.2197138
1.040039,-0.4628806,-0.9174473,-0.1416571,0.6455237,0.26158
0.8475704,-0.3584238,-0.7985357,-0.04530772,0.6924643,0.3288301
0.7913679,-0.3022753,-0.6311723,-0.05680274,0.9983862,0.5116699
0.8310247,-0.2709266,-0.6289937,0.03947185,1.457322,0.8863878
0.8371141,-0.2625218,-0.6845117,0.2188371,2.020373,1.191821
0.9362512,-0.2735974,-0.640206,0.340179,2.697763,1.189028
1.094869,-0.2839619,-0.5815728,0.3497805,2.963237,1.119438
1.054946,-0.2406196,-0.4732283,0.2795796,2.653744,1.035032
0.875107,-0.1704214,-0.3433694,0.1557668,2.095912,0.8565619
0.6536181,-0.1132915,-0.3312,-0.0568079,1.24645,0.8169756
0.4980815,-0.06744441,-0.3478,-0.1872766,0.6581522,0.9502706
0.5408099,-0.06906928,-0.3269504,-0.1827702,0.8781023,1.120083
0.6080688,-0.1540734,-0.3070014,-0.1923025,1.143219,1.236055
0.6245063,-0.3065751,-0.2498815,-0.1337051,1.292905,1.242279
0.6267902,-0.3937133,-0.1997741,-0.05968801,1.493841,1.174937
0.59143,-0.3687654,-0.1840084,-0.1059726,1.333599,1.077167
0.6096169,-0.35779,-0.1696513,-0.1445814,1.178759,1.008124
0.6198402,-0.3694601,-0.1644947,-0.1805199,1.032009,0.9873381
0.5803783,-0.3712598,-0.1531051,-0.2364677,0.6352836,0.9873723
0.5871911,-0.4179375,-0.1327383,-0.2512885,0.5042838,0.9189285
0.5982202,-0.4914751,-0.07813043,-0.3379295,0.3934432,0.6895752
0.6303608,-0.5138492,0.0006923165,-0.4957482,0.05566302,0.3625167
0.6957158,-0.4817693,0.04624405,-0.5801094,-0.1626867,0.06186105
0.7652638,-0.4411258,0.06456216,-0.5651202,-0.3564027,-0.09530003
0.8598159,-0.3988202,0.05116805,-0.5360907,-0.5382848,-0.1636039
0.9264376,-0.3817601,0.01471455,-0.5395102,-0.7205254,-0.2668291
1.018848,-0.4037372,-0.03833941,-0.525409,-0.8377012,-0.3361875
1.146276,-0.4161626,-0.1273803,-0.5006801,-0.6728914,-0.3183333
1.209653,-0.4668505,-0.256336,-0.4406128,-0.4363849,-0.1652311
1.301327,-0.587197,-0.456733,-0.3351712,-0.3353426,0.1248899
1.407379,-0.6720308,-0.6443061,-0.2967349,-0.5537436,0.3876969
1.365211,-0.7065756,-0.6578264,-0.2563856,-0.8084067,0.5512443
1.231019,-0.7327999,-0.5098453,-0.2168437,-0.4789307,0.5817926
1.100312,-0.6961461,-0.3557022,-0.3736516,-0.04920829,0.4028364
0.9512455,-0.5914049,-0.3106647,-0.6464382,-0.02902332,0.1161451
0.8434207,-0.513235,-0.3134959,-0.8831579,-0.1333868,-0.1031662
0.795136,-0.4645934,-0.3238334,-1.024504,-0.4108838,-0.2577978
0.7533218,-0.3990005,-0.424459,-1.076381,-0.8721329,-0.3398756
0.7710492,-0.3534554,-0.5289087,-1.134186,-1.138547,-0.3124228
0.7846765,-0.319661,-0.5402877,-1.123977,-1.10098,-0.3612487
0.7557629,-0.2844091,-0.5289704,-1.100768,-1.048156,-0.5321559
0.7653384,-0.269131,-0.5059842,-1.146035,-1.110879,-0.683226
0.7508985,-0.262359,-0.4618557,-1.077248,-1.067809,-0.8366395
0.7346361,-0.2953759,-0.4251429,-0.9523284,-0.9931431,-0.9721638
0.7214025,-0.3378752,-0.4181328,-0.8177458,-0.933484,-1.059311
0.654884,-0.3331944,-0.430554,-0.6451644,-0.6907882,-1.089482
0.6345582,-0.3000241,-0.426934,-0.5554052,-0.4635829,-1.015294
0.6420811,-0.2422786,-0.4322156,-0.4386707,-0.3679277,-0.9292901
0.6370908,-0.1749826,-0.4457911,-0.3052813,-0.2557016,-0.8328708
0.6494549,-0.0731043,-0.4525038,-0.3013101,-0.1486941,-0.6906744
0.6442339,0.03529737,-0.4625178,-0.3534442,-0.309441,-0.5303143
0.6582543,0.04421543,-0.4745872,-0.4124574,-0.7834784,-0.2566263
0.7316184,0.009792163,-0.5343102,-0.45376,-0.9906457,0.02968318
0.8386954,-0.006420025,-0.6131571,-0.5043327,-0.7239216,0.1620229
0.9220403,-0.03927196,-0.6293477,-0.5798981,-0.2906662,0.2282116
0.9462665,-0.05417133,-0.5946385,-0.5954444,0.1361103,0.2979955
0.9443834,-0.02796555,-0.5707491,-0.5634777,0.3036425,0.3652992
0.9422648,-0.01697565,-0.5957666,-0.557684,0.1742325,0.4209657
0.987553,-0.05243761,-0.6229449,-0.6105205,-0.04384392,0.4835746
1.075805,-0.1166021,-0.6840207,-0.6781084,-0.3308058,0.5936592
1.153143,-0.213358,-0.8866949,-0.6749198,-0.6548823,0.6976041
1.242574,-0.340198,-1.10337,-0.5527307,-0.6169223,0.6777138
1.288827,-0.4378375,-1.125681,-0.4297363,-0.03878421,0.5133439
1.192542,-0.4605481,-1.044214,-0.4600841,0.4995448,0.3673222
1.021858,-0.4281645,-1.002779,-0.4554584,0.5825653,0.3655908
0.9003529,-0.3835494,-0.8603896,-0.3088177,0.6732691,0.4548818
0.8397246,-0.3462902,-0.6547548,-0.2251426,1.236753,0.6165642
0.8309517,-0.3242117,-0.6383801,-0.1359107,1.697629,0.8593572
0.855357,-0.3050263,-0.6733202,0.04490386,1.908187,1.025769
0.8646225,-0.2949442,-0.6118287,0.1298997,2.493985,1.10075
0.9453779,-0.3526569,-0.558751,0.2032822,3.020775,1.208146
1.030869,-0.4106718,-0.4667509,0.430938,3.160692,1.122362
0.8885852,-0.3358899,-0.3664039,0.5488851,2.821696,0.8778577
0.6501259,-0.1974121,-0.3636582,0.3977047,1.803396,0.8175823
0.547556,-0.121848,-0.3506289,0.220457,1.002408,0.8311443
0.5725611,-0.1164457,-0.3067682,0.06058117,0.8298371,0.8870916
0.5888109,-0.1157928,-0.2914836,-0.1341467,0.9429045,1.027195
0.5513018,-0.1195615,-0.2561533,-0.1650265,1.112148,1.099988
0.5821619,-0.2331548,-0.2061338,-0.07694464,1.173247,1.087508
0.6163158,-0.3461659,-0.1596178,-0.09661452,1.161929,1.022398
0.6017909,-0.306753,-0.1539351,-0.1935326,0.9292582,1.038015
0.6192593,-0.3130106,-0.1784073,-0.2980794,0.7822366,1.068372
0.6003501,-0.4494291,-0.1111866,-0.332506,0.781892,1.015921
0.5927063,-0.5326296,-0.0462277,-0.2926951,0.6121545,0.898813
0.6211145,-0.5443112,-0.02742444,-0.3375777,0.3944205,0.5213122
0.6233093,-0.5670297,0.05939737,-0.4168058,-0.1085598,0.1042587
0.6735166,-0.5462691,0.08589926,-0.4598841,-0.5486638,-0.1328671
0.7662207,-0.4547756,0.02899202,-0.5045805,-0.6277748,-0.3292961
0.906204,-0.4071292,-0.01217283,-0.4822629,-0.6824437,-0.4190051
1.062136,-0.3931509,-0.09683451,-0.4570455,-0.5116259,-0.4256761
1.11855,-0.3736,-0.2135012,-0.4713225,-0.303419,-0.343071
1.14125,-0.4466628,-0.3294259,-0.4552272,-0.247319,-0.1876027
1.230972,-0.5796256,-0.4491986,-0.4506376,-0.4480475,-0.03837842
1.308719,-0.670327,-0.5671807,-0.4160991,-0.8858394,0.1525671
1.23109,-0.6623178,-0.6492724,-0.3512406,-0.9007449,0.2552295
1.118171,-0.6083182,-0.5785594,-0.3703902,-0.6520516,0.2849835
1.058115,-0.6162139,-0.4416704,-0.4854852,-0.4104305,0.2663059
0.9313681,-0.5841199,-0.4281912,-0.6624339,-0.1872306,0.1451856
0.8768463,-0.5227641,-0.4097517,-0.7886278,-0.2709563,0.08203723
0.8706591,-0.5213942,-0.3499541,-0.8113815,-0.5066935,0.004345891
0.7962737,-0.5089554,-0.4177401,-0.8240895,-0.849976,-0.1329258
0.8255895,-0.5052921,-0.5074892,-0.8457643,-1.109717,-0.285716
0.8488094,-0.4468862,-0.5304675,-0.9036877,-1.091094,-0.5551017
0.8176008,-0.330998,-0.5327743,-0.9955074,-1.108745,-0.7790998
0.8504706,-0.280618,-0.5030133,-1.004159,-1.051117,-0.9104343
0.8267845,-0.2458992,-0.4993982,-0.9425845,-0.8731914,-1.047778
0.7843276,-0.2435296,-0.5005436,-0.8697271,-0.7574454,-1.077676
0.7413296,-0.268561,-0.48556,-0.7573132,-0.6402616,-1.055034
0.6573389,-0.2672597,-0.4849535,-0.6438334,-0.5935638,-1.013605
0.6303562,-0.2485078,-0.4630486,-0.5732735,-0.6010486,-0.8669759
0.620509,-0.1835149,-0.4656727,-0.4934307,-0.5778365,-0.7079493
0.6502473,-0.1377423,-0.4799425,-0.3712658,-0.5169033,-0.584483
0.7047442,-0.1031578,-0.4786864,-0.3054722,-0.4041628,-0.4936751
0.674611,-0.05078472,-0.4968074,-0.3362394,-0.4109062,-0.4307991
0.672991,-0.04999137,-0.4971309,-0.3090189,-0.6029757,-0.3310245
0.7185573,-0.05920008,-0.5138582,-0.2277367,-0.735769,-0.2195977
0.737694,-0.06260211,-0.5695878,-0.2304604,-0.607782,-0.1409434
0.7719474,-0.0654989,-0.6204103,-0.2782384,-0.3240219,-0.07449139
0.8231901,-0.0450221,-0.6465823,-0.319774,-0.04258514,0.001766597
0.8639935,-0.01144676,-0.6326202,-0.3419357,0.21571,0.08956873
0.8650091,0.0168517,-0.6262183,-0.3640948,0.2641194,0.1987676
0.8749883,-0.01049291,-0.630843,-0.4182389,0.1023779,0.3235156
0.9337425,-0.06574575,-0.6280349,-0.4061166,-0.04642476,0.4282826
0.9921409,-0.1233324,-0.6569355,-0.3341313,-0.2385677,0.5251
1.078582,-0.2120669,-0.7321759,-0.2684313,-0.2933915,0.5555716
1.170671,-0.2882562,-0.8916264,-0.1730688,-0.08337674,0.484314
1.213639,-0.3246773,-1.031177,-0.1280182,0.1902633,0.3852649
1.21564,-0.3472272,-0.991004,-0.1581085,0.4954331,0.2285799
1.096196,-0.3831046,-0.9093057,-0.1619393,0.52286,0.1484135
0.8905314,-0.403601,-0.8559994,-0.1293093,0.4803027,0.2724792
0.8150495,-0.387991,-0.7287371,-0.07279811,0.9114542,0.4354102
0.8666795,-0.3672686,-0.6618984,0.03498093,1.336453,0.6589494
0.8675936,-0.3160609,-0.701413,0.2031196,1.697108,0.8880124
0.8672822,-0.2701149,-0.6866729,0.3063547,2.223495,0.9606742
0.9573945,-0.2744519,-0.641379,0.2801097,2.580997,0.9939145
1.010232,-0.2732148,-0.5781519,0.2763879,2.754638,0.9117791
0.9607509,-0.2600455,-0.4631702,0.3010633,2.557203,0.6804915
0.8308128,-0.2171985,-0.3935237,0.2476053,2.061331,0.5161389
0.630086,-0.1429359,-0.3689045,0.1017393,1.514615,0.4818223
0.4915611,-0.1120672,-0.3330877,-0.08992282,0.8333998,0.6366337
0.5029303,-0.1368852,-0.2972642,-0.1612234,0.6298258,0.8616069
0.5525455,-0.1982627,-0.2492799,-0.1343749,0.868232,0.9941986
0.5792224,-0.296975,-0.2018084,-0.1496306,0.9613548,1.128195
0.6403528,-0.3967127,-0.1870144,-0.06393782,1.174585,1.195546
0.6947145,-0.4208622,-0.1932712,0.06452992,1.334868,1.139562
0.7202782,-0.3984645,-0.1970617,0.04118661,1.212799,1.06331
0.7443762,-0.4119918,-0.1897957,0.02920978,1.019015,0.9582461
0.7093617,-0.4297281,-0.1664013,0.06037891,0.6672979,0.8460943
0.6829351,-0.4629048,-0.1268404,0.03417057,0.3042823,0.7481915
0.7134772,-0.5198002,-0.08347721,-0.01271658,0.1547587,0.5404629
0.7299636,-0.5298276,-0.0315173,-0.1193332,0.06504774,0.1928478
0.7714365,-0.4956061,0.01720239,-0.2254627,-0.08543406,-0.09010969
0.8307439,-0.437229,0.02158694,-0.2342045,-0.262499,-0.1924392
0.8637926,-0.3896311,0.003636715,-0.2268296,-0.4417975,-0.2005331
0.8913867,-0.3709797,-0.006099498,-0.2332953,-0.5607888,-0.2010106
0.9431605,-0.3421975,-0.03448201,-0.1952504,-0.6342758,-0.2380211
1.023854,-0.3148336,-0.0702447,-0.1363493,-0.6904674,-0.2721057
1.068286,-0.31836,-0.1056581,-0.1187909,-0.6137133,-0.2512086
1.130694,-0.3762886,-0.1973283,-0.1182033,-0.5475986,-0.1549867
1.265228,-0.5247928,-0.3248024,-0.09411347,-0.6049916,0.03683884
1.333925,-0.7277243,-0.4136327,-0.03166856,-0.6239742,0.2398384
1.28106,-0.8150789,-0.466798,0.0708174,-0.6075346,0.3008416
1.168388,-0.7753556,-0.4367878,0.09795835,-0.5198579,0.1652568
1.065693,-0.760243,-0.3482772,-0.08653542,-0.3739903,-0.04932692
0.9904546,-0.6760156,-0.3570037,-0.3833061,-0.3844811,-0.2467819
0.9033301,-0.5322311,-0.3508506,-0.5568979,-0.5880515,-0.4305649
0.8269038,-0.4552039,-0.3029758,-0.602977,-0.8985639,-0.5663912
0.7876758,-0.3528724,-0.3954131,-0.6749208,-1.226305,-0.6287983
0.7956542,-0.2865991,-0.4922351,-0.7719937,-1.368887,-0.6189788
0.8312079,-0.2785008,-0.5393119,-0.824953,-1.22996,-0.609676
0.874711,-0.245911,-0.5879388,-0.8512874,-1.024268,-0.6591738
0.9238844,-0.2434437,-0.5773726,-0.8592116,-0.8245913,-0.7095508
0.8944919,-0.2380296,-0.5656805,-0.7841741,-0.5568014,-0.7971372
0.673532,-0.3343315,-0.4736523,0.443402,-0.5198305,-1.16158
0.6345299,-0.2744322,-0.4602781,0.5600839,-0.2132061,-1.148052
0.6198882,-0.2519212,-0.4110596,0.7110556,-0.0004955952,-1.055452
0.5639788,-0.1661372,-0.3733251,0.7023462,-0.05561056,-1.003228
0.5234079,-0.0773332,-0.3567521,0.6147064,-0.5357623,-0.8164511
0.5793209,-0.01813729,-0.390374,0.5919307,-1.221095,-0.547367
0.6783563,0.002734516,-0.4758448,0.5277499,-1.523607,-0.3854787
0.7971671,0.02483132,-0.5393473,0.3657351,-1.188259,-0.3613391
0.9315058,0.08091882,-0.5624439,0.1849602,-0.7524642,-0.4670903
1.013253,0.08684,-0.5626953,0.07714323,-0.48685,-0.486418
1.016132,0.09279884,-0.6006655,0.04328874,-0.2838569,-0.4255153
1.055461,0.05870676,-0.657889,-0.009641555,-0.3322927,-0.3430915
1.154018,-0.08264945,-0.6948445,-0.01330145,-0.5066197,-0.1827087
1.212994,-0.224361,-0.7947586,0.1048357,-0.7687302,-0.09015685
1.264384,-0.3524787,-0.9772684,0.2819798,-0.9548216,-0.09860001
1.304374,-0.370935,-1.13516,0.4411798,-0.5020904,-0.1144782
1.238197,-0.2858258,-1.134839,0.4267548,0.03956516,-0.06085674
1.082701,-0.2743872,-1.02424,0.4047995,0.2628406,0.06750723
0.9197824,-0.2849193,-0.9171101,0.5419175,0.7179161,0.2356373
0.8373728,-0.2861942,-0.7610896,0.5869316,1.368863,0.4611226
0.8317375,-0.2836456,-0.652792,0.6361765,1.854253,0.6877417
0.8465595,-0.2762805,-0.6579724,0.7726141,2.137538,0.9009296
0.9616764,-0.3263393,-0.6005916,0.8017749,2.65297,1.043752
1.088168,-0.349786,-0.5230966,0.826522,3.132488,1.03922
0.9890244,-0.2832279,-0.4979776,0.806765,2.735369,0.9522505
0.747353,-0.1524666,-0.4226803,0.6283349,2.037382,0.8091497
0.5059077,-0.02736425,-0.3159642,0.3907819,1.354008,0.6500872
0.3661759,0.005604074,-0.2566629,0.1391891,0.4333148,0.5834253
0.426214,-0.04303979,-0.2643508,0.009266345,0.1554485,0.7653691
0.4789737,-0.1668358,-0.2691455,0.06232316,0.4458354,1.07783
0.4732408,-0.3104766,-0.2315792,0.172094,0.5677441,1.196203
0.5556157,-0.3974577,-0.2152336,0.2891544,0.8469404,1.223895
0.6155188,-0.4386218,-0.1946711,0.3251479,1.055137,1.262493
0.6358634,-0.4488828,-0.1703595,0.2472611,0.9161254,1.207561
0.6457207,-0.4557967,-0.175768,0.2142121,0.8631104,1.107221
0.6278828,-0.5142956,-0.1150915,0.2408947,0.6759177,0.9141262
0.6554795,-0.6190643,0.001041094,0.2563526,0.1406489,0.5331937
0.6581119,-0.6514446,0.04281548,0.2907395,-0.4474535,0.06176288
0.709906,-0.5932674,0.002307795,0.2818917,-0.9483693,-0.3225918
0.9900535,-0.5059114,-0.06060987,0.2179689,-1.135512,-0.6659656
1.254496,-0.4102446,-0.1477381,0.1916782,-0.8645893,-0.9807774
1.18378,-0.4464212,-0.2615487,0.1972306,-0.5519508,-1.017772
1.052401,-0.5823226,-0.358577,0.2208599,-0.6748384,-0.8431257
1.151684,-0.6506746,-0.4751858,0.2496928,-1.149666,-0.6056074
1.107251,-0.6770114,-0.603372,0.3059727,-1.530524,-0.3218209
0.9794898,-0.6451152,-0.6039923,0.3673784,-1.411623,-0.19802
1.043856,-0.5903871,-0.5365923,0.2639376,-1.009573,-0.2290881
0.9621334,-0.5678486,-0.5044088,0.05641083,-0.8185187,-0.3257896
0.8763188,-0.5187615,-0.4437875,-0.04392933,-0.6996897,-0.51025
0.9086611,-0.510125,-0.455788,-0.05906556,-0.7824761,-0.6318297
0.8412443,-0.4900991,-0.5573831,-0.08934515,-1.098058,-0.6880223
0.83767,-0.3800094,-0.5818304,-0.1530663,-1.155064,-0.853633
0.8284131,-0.3005086,-0.5847199,-0.2387228,-1.197279,-1.104713
0.7885534,-0.2454208,-0.5474527,-0.3457426,-1.189338,-1.297565
0.7798513,-0.2211604,-0.4553043,-0.3874742,-1.057564,-1.424436
0.693653,-0.2485596,-0.4517843,-0.2802025,-1.118722,-1.49023
0.6547477,-0.2554731,-0.4475504,-0.1286229,-1.024232,-1.418935
0.65034,-0.2686763,-0.4351846,0.03217736,-0.9185801,-1.281248
0.6627223,-0.264048,-0.4713712,0.2342397,-0.8348836,-1.123253
0.7004421,-0.2137987,-0.4903676,0.3598511,-0.4449376,-0.9728403
0.6358556,-0.1297916,-0.5121218,0.3576063,-0.1393176,-0.915881
0.5782215,-0.01841603,-0.445472,0.3038061,-0.1420873,-0.8123137
0.6070949,0.01891455,-0.3604267,0.2700986,-0.6168603,-0.6137541
0.7046895,0.007089056,-0.4344217,0.2560253,-1.163495,-0.3976321
0.8599633,0.02165522,-0.5363183,0.2184784,-1.097564,-0.1883029
0.9544662,0.02756988,-0.6249712,0.1778309,-0.7602766,-0.08828613
0.9718005,0.04130897,-0.7257199,0.1039821,-0.433484,-0.01698641
0.9920464,0.05770351,-0.7471584,-0.06501294,-0.1959501,0.0576403
1.030117,0.03334245,-0.7263657,-0.2367394,-0.2328593,0.09102718
1.097327,-0.04739688,-0.7601542,-0.2557221,-0.4352785,0.2261808
1.200562,-0.1963507,-0.8773583,-0.1158767,-0.4825543,0.34203
1.260538,-0.3471822,-1.014818,-0.008826359,-0.04225154,0.2747789
1.232159,-0.4004136,-1.028148,-0.03913501,0.4482182,0.2100732
1.064037,-0.3892292,-0.9110023,-0.0475643,0.3811334,0.2908462
0.8022923,-0.3990295,-0.8241388,0.05641219,0.4729033,0.4581651
0.7520861,-0.4062109,-0.8021429,0.1882215,1.369402,0.7053017
0.8377177,-0.3927388,-0.7626609,0.3269164,2.255148,0.9469164
0.8299292,-0.3700252,-0.6744303,0.4232791,2.731771,1.025063
0.938096,-0.3351612,-0.5699052,0.4859423,3.129235,1.116568
1.06517,-0.3463943,-0.4929083,0.6757902,3.163421,1.144144
0.9914059,-0.3656386,-0.4198353,0.8117862,2.53372,0.856559
0.8514827,-0.2974224,-0.3834257,0.6754184,1.511391,0.5347297
0.5805367,-0.1696884,-0.3696984,0.4753079,0.7482183,0.4169325
0.3236623,-0.05472075,-0.2828064,0.2760877,0.4291947,0.5941786
0.4331517,-0.07812428,-0.2269025,0.1556365,0.4662385,0.8613475
0.5746501,-0.2208983,-0.2183958,0.295306,0.8528015,0.904881
0.5208552,-0.2976984,-0.1570198,0.3635672,0.9715754,0.9394308
0.5729956,-0.3016277,-0.128713,0.1845393,0.8728121,1.004599
0.6191795,-0.2945708,-0.1378452,0.07699864,0.7900154,1.058866
0.592406,-0.3232098,-0.1064136,0.1019617,0.4930791,1.108773
0.6478314,-0.4076013,-0.06797614,0.1571694,0.4011564,0.9767492
0.647625,-0.4903258,-0.02815908,0.1917388,0.2035365,0.6631953
0.6866631,-0.5631096,0.04890186,0.1560674,-0.4299452,0.07725809
0.8269394,-0.5817694,0.1021939,0.07801203,-0.975238,-0.4817355
0.965131,-0.5720909,0.05229401,0.00642232,-1.09468,-0.7265011
1.138891,-0.6028775,-0.06377266,0.03113273,-0.6594673,-0.9952434
1.174629,-0.6455703,-0.2493218,0.1361055,-0.4431358,-1.056801
1.150483,-0.7122375,-0.5225758,0.2677905,-0.8187549,-0.8109695
1.190487,-0.7095864,-0.7124311,0.4192847,-1.279571,-0.6422012
1.103045,-0.647647,-0.7119096,0.4387043,-1.53868,-0.4758001
1.009143,-0.6315566,-0.648322,0.3896097,-1.10776,-0.3875204
0.9515842,-0.5527608,-0.5898668,0.3686621,-0.4742726,-0.4364901
0.8058624,-0.464982,-0.4985551,0.2118984,-0.4361046,-0.5144346
0.6995215,-0.4417442,-0.4369362,0.03720947,-0.6492948,-0.6679782
0.7087544,-0.4166318,-0.4790116,-0.06256124,-0.8979492,-0.7081287
0.7553794,-0.3852533,-0.5330166,-0.1733595,-1.152427,-0.6893857
0.7909005,-0.2892956,-0.5137348,-0.2258995,-1.261562,-0.8638188
0.8166071,-0.1912052,-0.4925139,-0.3013507,-1.245968,-1.139157
0.7838429,-0.1434153,-0.489606,-0.3715173,-1.223796,-1.380531
0.7247896,-0.09709745,-0.4918464,-0.3307036,-1.230565,-1.395935
0.700427,-0.1106283,-0.5267449,-0.3199853,-1.17599,-1.168238
0.6894134,-0.1420751,-0.5361456,-0.2808999,-1.109731,-0.8929881
0.7269014,-0.1635414,-0.5371154,-0.1410704,-0.9695706,-0.5960934
0.7575629,-0.1866024,-0.5570347,-0.02233588,-0.591424,-0.4477994
0.7416139,-0.1560314,-0.5262939,-0.0002812727,-0.1392075,-0.4772295
0.7120014,-0.1301442,-0.4617026,-0.08771833,-0.03359686,-0.4449421
0.6698902,-0.1175252,-0.3742403,-0.1431021,-0.4523112,-0.416836
0.7059457,-0.1072306,-0.3404434,-0.1032788,-0.9709144,-0.4066864
0.7846066,-0.1044921,-0.4508367,-0.08453771,-1.078621,-0.3524389
0.8439887,-0.04447743,-0.5780818,-0.1087203,-0.6551169,-0.3064482
0.9216812,-0.01054001,-0.6227838,-0.1256039,-0.06158353,-0.127469
0.9502153,-0.0388889,-0.6067616,-0.1346673,0.1519915,0.1384311
0.9654745,-0.05812024,-0.5992867,-0.1452206,0.003076484,0.2488229
1.042648,-0.1098808,-0.6340225,-0.128395,-0.2042929,0.2473497
1.109689,-0.1894546,-0.6994577,-0.1116138,-0.4562289,0.2712281
1.13643,-0.2801908,-0.8855117,-0.06074873,-0.5708264,0.2806673
1.162622,-0.3846376,-1.073093,0.104093,-0.2103723,0.2074646
1.162981,-0.4160442,-1.029573,0.2151286,0.2993894,0.1383085
1.028845,-0.3900043,-0.8946192,0.1228126,0.4311269,0.1668745
0.8301006,-0.4188985,-0.802814,0.03617082,0.4407835,0.291072
0.7880171,-0.4506967,-0.7314989,0.1799183,0.7351355,0.4506725
0.8372953,-0.4022108,-0.7305452,0.3696838,1.361105,0.5829358
0.8341432,-0.34269,-0.7004767,0.4237089,2.166946,0.7290412
0.8903403,-0.317332,-0.5834362,0.487348,2.740938,0.9048405
0.9860733,-0.3306184,-0.4812219,0.6502017,2.92954,0.9805286
0.9422139,-0.3452772,-0.3901544,0.8815493,2.848569,0.8677039
0.740479,-0.2857421,-0.3634213,0.9623487,2.228238,0.7047496
0.4911988,-0.2323823,-0.3572917,0.7926903,1.029183,0.623933
0.4325929,-0.2466887,-0.2678644,0.6993812,0.1188759,0.6266119
0.5749037,-0.2848724,-0.2423909,0.7608095,0.07028974,0.7295496
0.6633512,-0.3624782,-0.257815,0.8665875,0.4798561,0.8387039
0.7352988,-0.4416788,-0.2402906,1.021385,0.9220281,0.8636801
0.7674091,-0.4428499,-0.2644593,1.082645,1.147289,0.8157754
0.6703472,-0.3964936,-0.2591153,0.9796865,1.082879,0.7142314
0.6180152,-0.3889368,-0.2089419,0.8689066,0.9420364,0.6323519
0.5499647,-0.4194749,-0.1202372,0.8536144,0.7202714,0.5706796
0.469719,-0.4442973,-0.01213617,0.8290548,0.3930851,0.4719116
0.5241357,-0.4680977,0.06454159,0.7368035,0.0782228,0.2155344
0.5712421,-0.4874583,0.1752848,0.5761846,-0.2917447,-0.2038657
0.6207769,-0.4727631,0.1713073,0.365666,-0.6579585,-0.5406993
0.7475861,-0.3798621,-0.0002396072,0.2767592,-0.8086351,-0.7366376
0.8626764,-0.2560326,-0.08632922,0.2736227,-0.8586633,-0.7782221
0.8986912,-0.2210091,-0.08398126,0.232508,-1.029102,-0.6338087
0.9166004,-0.2614114,-0.0944563,0.2112713,-1.242568,-0.4337348
1.093783,-0.3019251,-0.175908,0.2410185,-1.289719,-0.1680368
1.220969,-0.344754,-0.3107948,0.3567253,-1.058754,0.09005589
1.170173,-0.4665879,-0.3795449,0.512215,-0.6764916,0.2349591
1.301056,-0.7534078,-0.4923813,0.6846569,-0.5650397,0.2945962
1.441563,-1.097195,-0.5550721,0.9885743,-1.042967,0.04793835
1.222085,-1.19157,-0.3802087,1.235082,-1.636423,-0.5405221
0.9590617,-1.049199,-0.2857728,1.123761,-1.6243,-1.114013
0.8801298,-0.9621108,-0.3402016,0.9445074,-1.324443,-1.457914
0.7244763,-0.8602489,-0.3301902,0.9165723,-1.227415,-1.581957
0.5660445,-0.6775937,-0.3297024,0.7435774,-1.20291,-1.617863
0.6095468,-0.5686489,-0.3719537,0.6579873,-1.441481,-1.585769
0.627563,-0.4870353,-0.4241533,0.85477,-1.951106,-1.513646
0.6886828,-0.4343746,-0.4802327,0.9670163,-2.250615,-1.58678
0.8971692,-0.4460525,-0.5409738,1.002313,-2.21368,-1.753064
0.9945567,-0.4742018,-0.5959329,1.016014,-1.891906,-2.035608
1.026288,-0.500972,-0.5925547,1.073764,-1.332107,-2.469707
0.9966745,-0.4255364,-0.6025868,1.250829,-0.5689932,-2.712921
0.8473359,-0.2586875,-0.6236181,1.333379,0.1097547,-2.763014
0.665163,-0.1125039,-0.5783367,1.337405,0.1911434,-2.749966
0.5055726,-0.04624539,-0.5196278,1.271233,-0.1560095,-2.545311
0.5259179,-0.05791318,-0.4295249,1.209697,-0.3318298,-2.269615
0.5836142,-0.03308832,-0.3183059,1.289302,-0.1399396,-2.053262
0.5680781,0.06284087,-0.2841317,1.352406,-0.08205999,-1.830991
0.5965305,0.1964243,-0.2967871,1.375235,-0.6868791,-1.493568
0.5885714,0.2650102,-0.3278394,1.277625,-1.471221,-1.16677
0.6377584,0.1771481,-0.4180986,1.00791,-1.673877,-1.055553
0.7438845,0.1072924,-0.5067458,0.6967713,-1.309489,-0.8911216
0.8065945,0.1117951,-0.5100811,0.4678735,-0.8216659,-0.6680661
0.8969632,0.09826719,-0.4775804,0.5048044,-0.3338563,-0.6485775
0.9330726,0.0941595,-0.4784115,0.5594851,-0.04241629,-0.6326138
0.9420899,0.07458004,-0.512047,0.4365707,-0.2079926,-0.5739823
0.9822661,0.07568716,-0.5523616,0.3618074,-0.2751373,-0.5162256
1.036944,0.08716215,-0.5487097,0.2910101,-0.1599443,-0.3441749
1.148477,-0.006530684,-0.4915092,0.2864473,-0.176629,-0.1312309
1.220444,-0.1071558,-0.462508,0.4558889,-0.06117129,0.09446027
1.236174,-0.120694,-0.5815296,0.5862577,-0.1867396,0.2873573
1.274918,-0.121508,-0.8797854,0.5852034,-0.4391451,0.3173445
1.346555,-0.2202102,-1.097657,0.4472388,-0.3039454,0.1749457
1.363347,-0.4018541,-0.9923444,0.3031039,-0.2901046,-0.075955
1.17118,-0.4671883,-0.8558638,0.3045815,-0.2577626,-0.2186462
0.9262196,-0.3987249,-0.8916394,0.3259003,0.1659109,-0.1122488
0.8894572,-0.3425564,-0.8152883,0.3646509,0.7457898,0.08826013
0.9252217,-0.2897992,-0.7018033,0.5301651,1.342141,0.3589189
0.869627,-0.2215976,-0.7228494,0.7721595,1.83779,0.7195003
0.8639571,-0.219386,-0.6469524,0.955397,2.388514,0.8935334
0.907911,-0.2845358,-0.5215433,1.007989,2.681915,0.8492345
0.8744883,-0.3265679,-0.4842318,0.990082,2.44906,0.8261058
0.8470476,-0.3096928,-0.4194244,0.9051608,2.170534,0.8125525
0.7931715,-0.2308258,-0.3129524,0.7723748,1.566639,0.7883363
0.6912868,-0.15724,-0.258056,0.6963055,0.7161214,0.7965385
0.6824249,-0.1729413,-0.2960422,0.7470355,0.4339076,0.8342179
0.7140449,-0.2083017,-0.2977227,0.8698229,0.5424182,0.9251388
0.7464562,-0.2293002,-0.252426,0.9100662,0.7244669,0.9670197
0.7683186,-0.271043,-0.2518263,0.8913168,0.9178996,0.8970401
0.7245797,-0.2827196,-0.2014414,0.7945845,0.9801063,0.8279001
0.6785796,-0.2617187,-0.133336,0.5650453,0.8960269,0.8362677
0.6327792,-0.2592766,-0.08441134,0.3621314,0.5849188,0.8939484
0.5858541,-0.2627126,-0.02918743,0.253225,0.1636379,0.9431728
0.5832438,-0.3027731,0.02974928,0.2520153,-0.1138345,0.9251759
0.6254871,-0.4024784,0.1738646,0.2414837,-0.2190338,0.7172247
0.6728523,-0.4552135,0.2398102,0.07520621,-0.5067294,0.3477133
0.6771145,-0.4521419,0.1469629,-0.1049598,-0.9162173,0.04091569
0.727047,-0.4705124,0.05593664,-0.1965626,-0.8346938,-0.1632032
0.8400184,-0.5090185,-0.1073997,-0.2125839,-0.5594769,-0.2963559
0.9802751,-0.5849425,-0.3140568,-0.2663925,-0.4196077,-0.2980378
1.289625,-0.6945604,-0.4483879,-0.3296791,-0.3792507,-0.2844492
1.560462,-0.7613654,-0.5596367,-0.1992437,-0.8225862,-0.3257537
1.396448,-0.7128905,-0.5945011,-0.01966048,-1.323889,-0.2761342
1.131812,-0.6385065,-0.5659074,0.02606797,-1.27081,-0.2287798
1.091362,-0.6423154,-0.5575711,-0.1033597,-0.8501582,-0.2547697
0.9438631,-0.5711538,-0.511902,-0.3085325,-0.3810254,-0.2366262
0.7802375,-0.4191955,-0.4567665,-0.3848027,-0.2451913,-0.3106368
0.7907237,-0.3538465,-0.4776912,-0.499815,-0.4377458,-0.394391
0.7534727,-0.3317914,-0.5114131,-0.6743116,-0.5832583,-0.2823844
0.7751002,-0.3185297,-0.4959789,-0.7071672,-0.6481342,-0.2216107
0.8215288,-0.3163313,-0.4699009,-0.7258399,-0.809457,-0.3483885
0.7897265,-0.2886965,-0.4474096,-0.7532374,-0.9871687,-0.5497614
0.8195603,-0.2466372,-0.4431047,-0.7213547,-1.024824,-0.7666623
0.7886013,-0.1865434,-0.4732726,-0.7038435,-0.9559489,-0.9669049
0.7469343,-0.1338256,-0.4856561,-0.725217,-0.8307383,-1.090854
0.7208219,-0.09328676,-0.4962686,-0.792993,-0.7868238,-1.070285
0.6310414,-0.05024056,-0.5189792,-0.8853616,-0.8070942,-0.9633627
0.6332778,-0.04222875,-0.5202393,-0.9260009,-0.7611171,-0.7562435
0.6406422,-0.05686915,-0.5309609,-0.8581902,-0.642659,-0.4893457
0.6166453,-0.06720834,-0.5074697,-0.7410364,-0.3643727,-0.4074131
0.6114159,-0.08546252,-0.4274957,-0.641907,-0.2108311,-0.3931262
0.5770628,-0.1178743,-0.3467856,-0.5492469,-0.4089319,-0.2172576
0.6097423,-0.1346387,-0.3130831,-0.4867181,-0.6097568,-0.03351796
0.7053365,-0.1046017,-0.3897981,-0.4547126,-0.6353541,0.05671812
0.8168726,-0.05733474,-0.4853212,-0.4913951,-0.4821784,0.08815735
0.8594984,-0.01673688,-0.523897,-0.6009911,-0.2609755,0.08449059
0.8360088,0.03817502,-0.5886263,-0.6807092,-0.1784775,0.173502
0.9087386,0.09614278,-0.6678904,-0.7306371,-0.1119191,0.3595073
0.9611216,0.08366641,-0.6874601,-0.7449837,-0.01332672,0.5071243
0.9843013,-0.006727983,-0.6943092,-0.7393857,-0.1384376,0.5918604
1.127598,-0.117356,-0.787276,-0.7218035,-0.3649368,0.6625087
1.218413,-0.2161789,-0.876053,-0.601231,-0.3465516,0.7777193
1.212371,-0.2344573,-0.9637638,-0.4395842,-0.1433081,0.8628821
1.298944,-0.2563287,-1.13277,-0.3430147,0.1655707,0.7930105
1.365895,-0.348527,-1.12607,-0.3594519,0.471744,0.7141964
1.199113,-0.3500747,-1.002848,-0.3735978,0.6210562,0.7634322
0.9754765,-0.3520034,-0.9627638,-0.2718469,0.9081676,0.7999745
0.8896032,-0.3649544,-0.7855454,-0.227753,1.380486,0.8228012
0.8298572,-0.2632116,-0.6389124,-0.1444237,1.830743,0.9379219
0.7877535,-0.2634741,-0.6707946,0.02707945,2.35719,1.072327
0.838964,-0.3137377,-0.630754,0.06704563,2.806599,1.24865
0.9420067,-0.3262804,-0.6003254,0.1833371,3.08333,1.38668
1.035591,-0.4063643,-0.5788113,0.3374191,3.126902,1.33025
0.9849405,-0.374737,-0.4305279,0.2950879,2.437818,1.190678
0.740951,-0.2805188,-0.2651325,0.2741109,1.254151,0.9611397
0.4982828,-0.2180173,-0.1983354,0.2275827,0.4028855,0.7954668
0.4411884,-0.1243169,-0.2772377,0.09555253,0.1117106,0.8776774
0.4953369,-0.1144181,-0.3486557,0.09090269,0.3042701,0.9425967
0.4983194,-0.1632686,-0.3325763,0.1124275,0.6720906,0.9944761
0.5251275,-0.2562797,-0.3157487,0.08547925,1.015584,1.065155
0.5884203,-0.3699447,-0.2627631,0.07308624,1.370438,1.079969
0.5616323,-0.4032218,-0.2325618,0.03260663,1.411561,1.205959
0.5351837,-0.446332,-0.1861911,0.02433649,1.196718,1.27739
0.5342353,-0.4929107,-0.04640637,0.08344073,0.8913571,1.20024
0.5712854,-0.5241875,0.03091273,0.1766872,0.2622251,0.9689333
0.7025584,-0.5667286,0.04510004,0.2798073,-0.3635532,0.349553
0.7961773,-0.5380468,0.07072772,0.2653751,-0.820432,-0.306741
0.9230947,-0.4810629,0.1011541,0.1101101,-1.249347,-0.6088598
1.101441,-0.4517775,0.08950516,-0.04307084,-1.325872,-0.7217937
1.164905,-0.4424771,0.003971547,-0.07184885,-1.04677,-0.747242
1.181521,-0.4645852,-0.08163832,0.01894517,-0.7318154,-0.7288468
1.165681,-0.5105678,-0.2595869,0.04840273,-0.5945118,-0.6868932
1.126825,-0.6247524,-0.5492241,-0.03651218,-0.778693,-0.4702098
1.10895,-0.7200341,-0.7044634,-0.08120021,-1.295368,-0.002474032
1.052322,-0.6176628,-0.6411032,-0.04919718,-1.663249,0.405893
0.9653107,-0.4954063,-0.5510904,-0.04571249,-1.104628,0.4192442
0.8306276,-0.5324906,-0.5501871,-0.178505,-0.3052585,0.2458515
0.7217376,-0.5008105,-0.4312189,-0.401964,-0.3623929,0.05194614
0.7225441,-0.414941,-0.3157496,-0.5951371,-0.7442636,-0.2564527
0.7492419,-0.4830586,-0.4402582,-0.7376716,-1.023734,-0.513542
0.7847788,-0.5256889,-0.4944333,-0.7789022,-1.203485,-0.699848
0.8389341,-0.4703076,-0.4675739,-0.7428127,-1.128935,-0.9517117
0.8834541,-0.4444429,-0.4885194,-0.7525214,-1.137277,-1.173817
0.8638536,-0.3773186,-0.4606575,-0.7642814,-1.185422,-1.37693
0.7793954,-0.2454717,-0.4960466,-0.6949483,-1.115677,-1.508164
0.7078838,-0.1427593,-0.5357983,-0.5722186,-1.02429,-1.397383
0.6574578,-0.1299263,-0.5253698,-0.4476951,-0.68785,-1.190977
0.635426,-0.1583184,-0.5214054,-0.3625926,-0.424791,-0.978907
0.6265206,-0.170279,-0.4877755,-0.2918948,-0.487511,-0.7778098
0.6363523,-0.2367602,-0.4890777,-0.1644842,-0.3973696,-0.7534972
0.6742798,-0.2745064,-0.4709071,-0.008492543,-0.126546,-0.8386442
0.6616796,-0.1963887,-0.4234936,0.0839905,-0.04378434,-0.9303132
0.6316857,-0.1275381,-0.4226623,0.1089944,-0.2714835,-0.9460639
0.6167228,-0.07259957,-0.4280595,0.1425978,-0.6071611,-0.7785467
0.6350755,-0.02132099,-0.4802847,0.1771665,-0.6874273,-0.5485496
0.7060483,0.01306804,-0.5523183,0.1173506,-0.3275114,-0.3265284
0.7353472,0.07560605,-0.5599991,0.007535952,0.1079564,-0.207301
0.7604141,0.1042303,-0.5393711,-0.07965439,0.07469773,-0.1971548
0.8051743,0.1055859,-0.5483067,-0.1856938,-0.217153,-0.1320482
0.8635438,0.09395861,-0.5864667,-0.3063319,-0.4176642,-0.08405812
1.01802,0.004963731,-0.6153402,-0.3879047,-0.5181646,-0.00567575
1.149184,-0.1510515,-0.6316279,-0.3252617,-0.3955916,0.07131274
1.171209,-0.342563,-0.6451039,-0.1250743,-0.2632325,0.004292829
1.169975,-0.4520925,-0.7388662,0.08516569,-0.2990938,-0.00793188
1.193037,-0.4345841,-0.9961366,0.2572567,-0.3033371,-0.02725944
1.268775,-0.4033951,-1.254962,0.2930674,-0.2775448,-0.1611321
1.313691,-0.3952307,-1.266279,0.3243404,-0.04355306,-0.2067998
1.193211,-0.4162942,-1.128632,0.4831886,0.4687794,-0.114614
0.9847752,-0.4301117,-1.063793,0.541845,0.8837274,0.07424933
0.8579415,-0.3798179,-0.902071,0.6027605,1.188996,0.279322
0.7527137,-0.2933265,-0.668936,0.7045316,1.464034,0.4482349
0.6687659,-0.2142105,-0.6388835,0.6874951,1.62143,0.6201034
0.7558447,-0.1891881,-0.6558672,0.7487924,1.872568,0.7367517
0.8894689,-0.2352488,-0.6395762,0.7898092,2.332237,0.6750357
0.9855668,-0.3120599,-0.6388806,0.7358376,2.629596,0.4926155
0.9973615,-0.3511818,-0.5504596,0.7128155,2.498674,0.3349437
0.7719536,-0.3257748,-0.3921555,0.6317401,2.082557,0.1599893
0.5123376,-0.2768088,-0.2061699,0.6457866,1.280083,0.1216696
0.4364593,-0.2502979,-0.138343,0.7224004,0.2602679,0.3317816
0.5379966,-0.2890835,-0.2357859,0.8162002,-0.006270728,0.5360584
0.7196658,-0.3548433,-0.3256718,1.039249,0.547669,0.7222541
0.8348384,-0.3696984,-0.4027443,1.080492,1.103686,0.8161366
0.8729543,-0.3613483,-0.4471065,0.9974255,1.461941,0.7628867
0.7466843,-0.3475402,-0.4009903,0.9462924,1.556246,0.8242668
0.5459954,-0.3086007,-0.2797234,0.7968366,1.417481,0.9477875
0.4716044,-0.2958067,-0.06052701,0.7841527,1.188432,1.047749
0.4422881,-0.3308763,0.1583349,0.8784239,0.644106,1.106351
0.4887832,-0.3863566,0.2313855,0.8805071,0.06456329,1.021631
0.550836,-0.4333369,0.1946885,0.8769232,-0.3200578,0.7682023
0.5621614,-0.4054759,0.1481129,0.7351846,-0.8026362,0.2765813
0.6466799,-0.3657167,0.1021648,0.4569144,-1.050192,-0.1501734
0.7683335,-0.408172,0.05272915,0.2959699,-0.987642,-0.2888428
0.9236406,-0.4236188,0.01075857,0.2047145,-1.014032,-0.4830595
1.017856,-0.3874999,-0.03885918,0.1419553,-1.066769,-0.6528196
1.056905,-0.3659234,-0.1116132,0.2155854,-1.09307,-0.5821817
1.148634,-0.3497616,-0.2033417,0.3270762,-0.955941,-0.5071115
1.074297,-0.3964702,-0.2611666,0.4069149,-0.6534784,-0.3291279
1.019548,-0.5085499,-0.2740129,0.4550259,-0.500051,0.05921959
1.298765,-0.7114211,-0.3204043,0.4580846,-0.6191662,0.2918293
1.5307,-1.001012,-0.4013613,0.5833351,-1.122996,0.2937858
1.410701,-1.039478,-0.4287781,0.7191667,-1.522279,0.1422836
1.163371,-0.8313831,-0.3983565,0.5438983,-1.077802,-0.1766265
0.9573707,-0.7508938,-0.377058,0.2441773,-0.5067051,-0.4356485
0.8038771,-0.7070247,-0.3639139,0.05169666,-0.7122007,-0.5645524
0.7676469,-0.6200414,-0.3514399,-0.1095655,-1.046295,-0.6217734
0.6826375,-0.5759703,-0.3573527,-0.1581058,-1.293922,-0.613266
0.592272,-0.5223207,-0.3672199,-0.0868946,-1.856571,-0.6586911
0.7333753,-0.5188757,-0.4378391,-0.08099038,-2.037309,-0.7580742
0.800138,-0.4378297,-0.5796911,-0.1060536,-1.849969,-0.9490168
0.7928799,-0.3082962,-0.6409488,-0.1195991,-1.759598,-1.228386
0.8492047,-0.3194145,-0.598873,-0.1691658,-1.314477,-1.426456
0.7968804,-0.2401197,-0.5665968,-0.1802301,-0.761577,-1.590407
0.8208181,-0.1785106,-0.5167473,-0.1268883,-0.4714016,-1.730145
0.7913253,-0.2430427,-0.4096194,-0.03418942,-0.3754572,-1.835217
0.6319203,-0.1945359,-0.3684153,0.05565071,-0.4397791,-1.928916
0.5901372,-0.1689132,-0.4114137,0.0589314,-0.4535153,-1.872473
0.5408814,-0.1570828,-0.4163457,0.03470583,-0.5376424,-1.713707
0.5798432,-0.089422,-0.4184937,0.0501518,-0.6732344,-1.431049
0.6966037,-0.07233692,-0.4606991,0.04306352,-0.6594073,-1.07681
0.7481449,-0.004014971,-0.4893932,0.0114779,-0.6277534,-0.969844
0.8004042,0.04428397,-0.5081959,-0.01745579,-0.6947134,-0.8473874
0.8007606,0.01116339,-0.5237841,-0.08575013,-0.8325311,-0.5379458
0.9155839,0.01698557,-0.5579978,-0.1872878,-0.838777,-0.4514311
1.05912,0.02904655,-0.6053204,-0.2352342,-0.4589682,-0.4814348
1.035291,0.04113922,-0.6152059,-0.1964803,0.2936721,-0.3639966
1.004532,0.0723068,-0.5953175,-0.1637998,0.6692037,-0.2257849
0.9427636,0.07825666,-0.5581471,-0.1774426,0.2665366,-0.08859735
0.91705,0.07145024,-0.5322341,-0.1668459,-0.1072731,0.1320534
0.984789,0.0619314,-0.5742075,-0.1470612,-0.2575239,0.5275013
1.122593,-0.006192015,-0.7668868,-0.1377263,-0.3617678,0.8574258
1.329306,-0.1469956,-1.028203,-0.142877,0.1255323,0.6639576
1.30761,-0.3067042,-1.03729,-0.20274,0.7236557,0.3396134
1.091946,-0.4405763,-0.8691682,-0.2378935,0.5275554,0.3781897
0.9174709,-0.4746494,-0.8002091,-0.2035067,0.4416336,0.4356748
0.7993278,-0.4310794,-0.6958092,-0.1257605,1.009682,0.5184932
0.8435102,-0.3798303,-0.5953712,0.007166169,1.49811,0.7919633
0.8907561,-0.26218,-0.6322108,0.1083998,2.135461,0.9813021
0.8530352,-0.1932656,-0.6171035,0.09846863,2.721619,1.139821
0.9566081,-0.242621,-0.5378762,0.04755688,2.660326,1.228062
1.052769,-0.2238807,-0.4588557,0.02996282,2.485079,1.12268
0.9988142,-0.1904133,-0.3878342,-0.001359183,2.012771,1.037046
0.8580847,-0.1782142,-0.3942241,-0.09058909,1.148786,0.9646286
0.6401647,-0.1004911,-0.3817307,-0.1961663,0.663678,0.9909953
0.5332668,-0.06922967,-0.3135543,-0.2340409,0.6035636,1.223842
0.5342839,-0.09320237,-0.2693423,-0.1489958,0.8129106,1.45997
0.5160194,-0.1688846,-0.2220592,-0.04997958,1.145281,1.555184
0.5628092,-0.3313321,-0.1422971,-0.01956712,1.353036,1.476731
0.597782,-0.432826,-0.07003943,-0.05253774,1.349585,1.412085
0.6059024,-0.4209723,-0.06309202,-0.1780539,1.095009,1.35728
0.6668411,-0.4057663,-0.05532883,-0.3214378,0.6775067,1.184122
0.6982728,-0.4359001,-0.01666735,-0.374945,0.2318532,1.072742
0.7169372,-0.4572773,-0.007680795,-0.303799,-0.02623761,0.8617327
0.7535567,-0.4736998,0.02992878,-0.2622336,-0.3059319,0.423391
0.794995,-0.4712326,0.04194198,-0.4032786,-0.7194761,0.04578816
0.8710066,-0.4037262,-0.01249058,-0.5608664,-0.6057304,-0.1643558
0.9940084,-0.4093887,-0.04723106,-0.6089583,-0.08691998,-0.2014099
1.121536,-0.5520189,-0.1642926,-0.5583206,0.1331531,-0.119063
1.184591,-0.7705975,-0.38783,-0.4825512,-0.1241037,-0.009630545
1.231043,-0.8915485,-0.5923567,-0.4345312,-0.7983287,0.03592884
1.212173,-0.7471408,-0.6702569,-0.3359959,-1.231456,-0.01563567
1.089854,-0.5969675,-0.5900365,-0.3438197,-0.997297,-0.06264118
1.005225,-0.550457,-0.5446103,-0.5217919,-0.619424,-0.1572342
0.8772051,-0.450815,-0.526178,-0.7002774,-0.3084001,-0.3015694
0.715926,-0.3828143,-0.3977335,-0.8718319,-0.1363111,-0.4159058
0.6936822,-0.3730355,-0.3483386,-0.9455138,-0.3877396,-0.4356771
0.7428486,-0.3820184,-0.4374937,-0.9445533,-0.7689251,-0.3556165
0.8150779,-0.3623827,-0.5136839,-0.9664913,-0.9622527,-0.397671
0.8773327,-0.2966896,-0.5396473,-0.9407023,-1.018018,-0.536153
0.8743584,-0.2755803,-0.5177971,-0.92076,-0.9101486,-0.7412073
0.8313042,-0.2551122,-0.4863556,-0.8703404,-0.8255406,-0.9998857
0.7721642,-0.2456039,-0.4664155,-0.7978321,-0.8548688,-1.049547
0.7284026,-0.2632697,-0.4400706,-0.7829593,-0.8149236,-1.01983
0.7011662,-0.2323402,-0.4515378,-0.701957,-0.7609396,-0.9519631
0.7084116,-0.2033109,-0.4942395,-0.6043378,-0.5849045,-0.7492663
0.7165834,-0.1589157,-0.5092195,-0.5293661,-0.2894122,-0.6026683
0.6931248,-0.08997267,-0.5044963,-0.4620597,-0.1207695,-0.5005147
0.6849271,-0.05086233,-0.4612215,-0.4912271,-0.03312423,-0.4346093
0.6696999,-0.01863843,-0.4021655,-0.4960964,-0.1942529,-0.3706639
0.6971794,-0.01595191,-0.4248572,-0.4641645,-0.6127579,-0.2152775
0.7779058,-0.01625061,-0.4879862,-0.4684669,-0.8146633,-0.07104592
0.8257796,0.008781636,-0.5302982,-0.451103,-0.5224739,-0.02002447
0.8486071,0.007431885,-0.5520957,-0.506827,-0.06445125,-0.01413086
0.8398747,-0.001963901,-0.5556137,-0.6359403,-0.02837115,0.1440957
0.8480593,-0.001239058,-0.5916565,-0.7057034,-0.1274232,0.3820031
0.9185485,-0.01539893,-0.6194011,-0.7020496,-0.1350078,0.5216654
1.05453,-0.06788425,-0.6335517,-0.64679,-0.3349453,0.6185169
1.219566,-0.1353317,-0.7234461,-0.5979432,-0.3295961,0.6263812
1.228247,-0.1665751,-0.85561,-0.5753754,-0.07245042,0.6003962
1.205272,-0.2147428,-0.9784425,-0.5555923,0.195517,0.5567215
1.273338,-0.287654,-0.9827592,-0.562098,0.4547385,0.490191
1.120457,-0.2996268,-0.8895299,-0.5733434,0.4508735,0.5328897
0.8901517,-0.3076626,-0.8609327,-0.5472889,0.5991449,0.630248
0.8785084,-0.3462345,-0.7594803,-0.4809927,1.100083,0.8215821
0.8748359,-0.3380807,-0.6737658,-0.3739737,1.562263,1.040858
0.8383799,-0.3005106,-0.7514174,-0.2782145,2.145771,1.163399
0.8794684,-0.2769913,-0.6987559,-0.248455,2.669583,1.291699
1.0148,-0.3084808,-0.5768571,-0.173871,2.919987,1.296298
1.153304,-0.3553952,-0.5175369,0.005121175,3.027259,1.174581
1.056398,-0.3012363,-0.4544617,0.08256761,2.593399,1.048497
0.7944987,-0.1847097,-0.4518564,-0.03869172,1.805539,0.9046477
0.5787643,-0.07820898,-0.3850807,-0.1940047,1.320597,0.9183592
0.4868353,-0.06694568,-0.3111735,-0.2951397,0.9895055,1.094592
0.5077574,-0.1689716,-0.2754073,-0.3721165,0.8375745,1.289759
0.5016186,-0.2416445,-0.1787561,-0.351047,1.080217,1.418927
0.5240072,-0.3290131,-0.1893383,-0.2344152,1.302556,1.382525
0.5989256,-0.4283304,-0.1778649,-0.1998389,1.326821,1.324725
0.6264961,-0.4129857,-0.1030338,-0.2336156,1.233198,1.287402
0.672328,-0.3967239,-0.1263443,-0.2601183,0.9185494,1.161923
0.6843425,-0.4274398,-0.09323216,-0.2833964,0.5086444,1.055964
0.6910886,-0.4681414,-0.04313027,-0.2798471,0.132673,0.8727125
0.7531153,-0.5314921,-0.005141125,-0.3236596,-0.1611898,0.4873078
0.7552771,-0.5294242,0.0697085,-0.3727815,-0.4366615,0.0989213
0.8204455,-0.4816149,0.09455778,-0.3869476,-0.7788608,-0.1956467
0.977086,-0.4882687,0.07119803,-0.4378974,-0.7982194,-0.3438446
1.080722,-0.565322,-0.1114159,-0.4026901,-0.4109722,-0.3168499
1.180774,-0.6950771,-0.391588,-0.2221355,-0.2357913,-0.2349634
1.265313,-0.7564442,-0.5993712,-0.03244508,-0.717484,-0.1225806
1.234197,-0.6885496,-0.7503546,-0.02004689,-1.283755,-0.04885593
1.112497,-0.6155723,-0.6749458,-0.1309118,-1.058905,-0.04248013
1.040795,-0.5618297,-0.4809079,-0.1927164,-0.6278419,0.001143129
0.9583537,-0.4891937,-0.4718714,-0.3571361,-0.5311708,-0.05227478
0.7939357,-0.4445451,-0.4329212,-0.5183928,-0.4453394,-0.2274123
0.7408697,-0.421826,-0.3586318,-0.548853,-0.6473624,-0.3160379
0.7499672,-0.421123,-0.4579515,-0.6370351,-0.8763664,-0.3690281
0.7423665,-0.4033656,-0.5000895,-0.6451581,-0.8810685,-0.4575432
0.7792549,-0.3130612,-0.4830091,-0.694936,-0.9632522,-0.5798272
0.78765,-0.2435157,-0.5093666,-0.8993358,-0.8196941,-0.7622992
0.7879916,-0.1964923,-0.465317,-0.9283525,-0.733221,-0.8790743
0.7532578,-0.1614275,-0.4627687,-0.9153118,-0.897661,-0.9383388
0.6792223,-0.2056319,-0.4816874,-0.9298253,-1.022864,-0.9860106
0.6599858,-0.2456924,-0.4706295,-0.8507521,-1.234233,-0.9289271
0.6656886,-0.2575829,-0.4893725,-0.7868196,-1.251227,-0.8317311
0.7048652,-0.2958186,-0.4715762,-0.6701275,-1.063459,-0.7251219
0.7442772,-0.3129293,-0.4808087,-0.4859658,-0.7583589,-0.658197
0.728755,-0.2469847,-0.483449,-0.2681023,-0.2407372,-0.6972036
0.6708162,-0.1153144,-0.438409,-0.1400618,-0.07516364,-0.6309944
0.6271971,-0.02108986,-0.4407117,-0.1919513,-0.4011981,-0.3666728
0.7190008,0.03317944,-0.4870307,-0.2032257,-0.7474779,-0.03882724
0.8583243,0.09026153,-0.5938602,-0.2845929,-0.7811837,0.1428514
0.9173414,0.1109995,-0.693787,-0.5378757,-0.5426844,0.1175671
0.9555798,0.1144335,-0.757544,-0.7249297,-0.283461,0.1538479
0.9703114,0.08817238,-0.7595373,-0.7894124,-0.07409141,0.2240216
0.9564721,0.007862319,-0.6712162,-0.7593142,-0.03729502,0.1986912
0.9659934,-0.05649499,-0.6750183,-0.728337,-0.1772662,0.2346747
0.9667896,-0.1271636,-0.7434964,-0.7222579,-0.3664316,0.2803292
0.9511763,-0.2232182,-0.8254589,-0.6640811,-0.4295965,0.3393755
0.9833598,-0.2507408,-0.9229219,-0.5749817,-0.223919,0.4789338
1.088678,-0.3185681,-0.9332224,-0.3878218,0.1159684,0.5383852
1.191511,-0.5046495,-0.9849247,-0.1703725,0.4760892,0.5215057
1.099112,-0.5310603,-0.9917762,-0.121557,0.6917576,0.5750859
0.8715545,-0.4396051,-0.8522193,-0.1199525,0.9373627,0.7502926
0.8025412,-0.4542521,-0.7695472,-0.001211524,1.424308,0.9138468
0.850208,-0.3866122,-0.6991221,0.1555981,1.85892,0.9667479
0.891008,-0.2949936,-0.6547289,0.2906181,2.47214,1.037384
0.9856092,-0.3088093,-0.6780828,0.4106666,3.228979,1.128419
1.134353,-0.2772876,-0.6457612,0.5077644,3.51974,1.100827
1.18128,-0.2807097,-0.5641869,0.5364587,3.327659,0.9239085
0.9694601,-0.2704695,-0.415543,0.3875235,2.539598,0.6809806
0.6674132,-0.1569381,-0.2921538,0.1265528,1.241827,0.5359357
0.4752063,-0.08140992,-0.2592626,-0.04362558,0.3297717,0.6781894
0.446663,-0.0606681,-0.2167849,-0.03706622,0.3102635,0.9613086
0.5351935,-0.1461759,-0.2279871,0.05469185,0.7237196,1.044842
0.5452453,-0.279849,-0.2535809,0.05524585,1.075612,1.021749
0.5749375,-0.3337233,-0.2169153,0.02772477,1.315081,0.9832428
0.6453696,-0.3513274,-0.2029428,-0.04572787,1.273938,0.9115489
0.6096555,-0.343332,-0.1886775,-0.2194573,1.048572,0.9145352
0.6102829,-0.3862682,-0.1599099,-0.2007031,0.8359528,0.9024257
0.6143837,-0.4713707,-0.138815,-0.09496824,0.576225,0.8535912
0.6021069,-0.5104851,-0.08620652,-0.106742,0.4237792,0.6625723
0.6463931,-0.531582,-0.01158254,-0.1216659,0.1412475,0.2646642
0.6901961,-0.5092785,0.05667474,-0.2232455,-0.307811,-0.04439237
0.8089552,-0.4744241,0.07805531,-0.3174675,-0.5674982,-0.2252837
0.9190031,-0.4508291,0.02669944,-0.3013281,-0.7576904,-0.3495797
0.9694018,-0.4153751,-0.05320919,-0.2707233,-0.7757069,-0.419334
1.074433,-0.4166064,-0.145093,-0.1977195,-0.6725736,-0.4641546
1.157122,-0.4537361,-0.2711075,-0.1209218,-0.6229138,-0.4422357
1.233216,-0.5500609,-0.4157673,-0.04643444,-0.5151893,-0.3138719
1.334481,-0.6739213,-0.5242014,0.01893345,-0.6011228,-0.01383678
1.33383,-0.7047642,-0.5425716,0.08582193,-0.7621951,0.2849691
1.224326,-0.6942866,-0.4571084,0.204816,-0.712697,0.4010111
1.0902,-0.7225368,-0.3582518,0.2121305,-0.5849143,0.3647858
0.9822222,-0.7107737,-0.3610295,0.05632961,-0.4015062,0.1450217
0.9413435,-0.648501,-0.3782244,-0.1626857,-0.3596648,-0.1462436
0.8913765,-0.581332,-0.3255587,-0.3672607,-0.518896,-0.3572868
0.7775238,-0.4737598,-0.3063614,-0.5030289,-0.7002586,-0.48476
0.7811641,-0.4313625,-0.3372162,-0.6014166,-1.028566,-0.5538621
0.8480096,-0.444745,-0.4187369,-0.6170414,-1.275192,-0.5581915
0.8289667,-0.3243567,-0.5530703,-0.6230677,-1.09737,-0.5721856
0.8728269,-0.2477697,-0.5939773,-0.6844007,-0.940166,-0.7057158
0.8806772,-0.2805757,-0.5515706,-0.6355245,-1.034823,-0.7843005
0.8198808,-0.2263572,-0.5572529,-0.5588052,-0.9128846,-0.7919944
0.8557594,-0.2116418,-0.5644071,-0.5354632,-0.6358452,-0.8647917
0.8283816,-0.2717189,-0.5149164,-0.4551847,-0.5312814,-0.9173361
0.7602373,-0.2789896,-0.4617157,-0.3894437,-0.4674703,-1.004713
0.7280445,-0.2528705,-0.4390712,-0.3736811,-0.49439,-1.036029
0.6367152,-0.1907794,-0.4408015,-0.3660642,-0.6223693,-0.8854205
0.6186385,-0.1394698,-0.4583137,-0.3390662,-0.6515305,-0.718707
0.688329,-0.127027,-0.4805371,-0.2468917,-0.6186899,-0.6220618
0.7426553,-0.09970531,-0.5072428,-0.1522937,-0.4738019,-0.6563961
0.7518077,-0.08916885,-0.5108641,-0.1114874,-0.3288843,-0.6948218
0.70039,-0.1287358,-0.4774502,-0.09837631,-0.4188095,-0.6273131
0.6809564,-0.1669333,-0.4607406,-0.0804906,-0.5482073,-0.5735428
0.6973794,-0.1521822,-0.4872223,-0.1039248,-0.5548573,-0.4570002
0.7148717,-0.1134802,-0.5269634,-0.1789836,-0.4288539,-0.3385405
0.755018,-0.06492215,-0.5353407,-0.1870077,-0.2312985,-0.2691193
0.8130157,-0.007874788,-0.5300457,-0.1533019,-0.1855939,-0.1244832
0.886108,0.0001838958,-0.5620339,-0.1520474,-0.259992,-0.02887217
0.9274851,-0.02127209,-0.6185859,-0.1905049,-0.3165081,0.08245806
0.9649439,-0.05597859,-0.6825988,-0.2647129,-0.4201833,0.2636831
1.040592,-0.1388728,-0.7337366,-0.2710073,-0.4611826,0.3830045
1.120192,-0.2173613,-0.8012348,-0.2205784,-0.3136553,0.5582791
1.203235,-0.2569118,-0.9589101,-0.1829441,-0.1419035,0.63443
1.266651,-0.2918629,-1.064931,-0.145364,0.09610356,0.4267283
1.283453,-0.3386211,-0.9267213,-0.1434548,0.3815002,0.1648745
1.183768,-0.3762712,-0.7588868,-0.1344373,0.3646262,0.009512116
0.9673847,-0.380057,-0.7655331,-0.03788168,0.3778173,0.03851619
0.8445287,-0.3772114,-0.6862681,0.07618327,0.8662281,0.1754457
0.8671708,-0.3510154,-0.5724255,0.1105983,1.330416,0.3906241
0.8594364,-0.2580754,-0.6678259,0.1286963,1.53663,0.7493789
0.7935441,-0.180963,-0.6843701,0.1346724,1.659979,0.9286841
0.8001463,-0.1707201,-0.5900577,0.002698736,1.552539,0.8808828
0.8706197,-0.187116,-0.5328212,-0.1486197,1.416415,0.9022291
0.8981549,-0.2185717,-0.4168312,-0.1604632,1.374878,0.9230298
0.8460336,-0.2347245,-0.4118849,-0.1086997,1.181502,0.9382904
0.7025804,-0.2352245,-0.4451082,-0.08628425,0.9265082,0.9983451
0.5541329,-0.2283753,-0.3633792,-0.09107838,0.6410915,0.9734303
0.4920382,-0.2091916,-0.3422361,-0.09324457,0.4506737,0.9365553
0.7138626,0.1005113,-0.4812784,0.5922849,-0.8701401,-0.8236509
0.8383118,0.1151916,-0.4940911,0.4827769,-1.019008,-0.6268766
0.9607168,0.1344376,-0.5747436,0.336036,-0.9192374,-0.4713676
0.994516,0.1191808,-0.6339704,0.2235129,-0.5003287,-0.3791302
0.9672357,0.1039607,-0.617384,0.1821069,-0.1074036,-0.2068655
0.9771834,0.08136765,-0.5937457,0.1482942,-0.02299123,0.03725589
1.020111,-0.004330346,-0.5695325,0.1428,-0.1820835,0.1252137
1.076709,-0.08624401,-0.6189695,0.1472771,-0.4671617,0.1767167
1.177066,-0.1560094,-0.8162112,0.1339779,-0.8525043,0.3097839
1.261164,-0.2751183,-1.138203,0.1932679,-1.001493,0.4067656
1.243875,-0.4181493,-1.299587,0.2841642,-0.4821553,0.360419
1.130984,-0.5288296,-1.167914,0.3267377,0.1566562,0.2688801
0.9706959,-0.518149,-1.074229,0.3680816,0.445044,0.2684352
0.8165242,-0.4511772,-0.9644881,0.4665963,0.6662049,0.2768613
0.740873,-0.4473406,-0.661668,0.6153959,0.9341478,0.3179587
0.751557,-0.4237963,-0.5348083,0.7823866,1.452389,0.4246116
0.7827336,-0.414746,-0.6263533,1.008465,2.137319,0.5676354
0.8640527,-0.4505788,-0.6115028,1.213481,2.666448,0.7860892
0.990932,-0.4185978,-0.541251,1.293131,2.964817,0.8480779
0.9649923,-0.3260033,-0.468413,1.321245,2.849162,0.7071237
0.7379749,-0.1482093,-0.3297367,1.189145,2.244128,0.5386764
0.481498,0.01400944,-0.2497809,0.8330041,1.036711,0.2945426
0.3516238,-0.005284911,-0.2581709,0.5586393,-0.05591825,0.234104
0.4224691,-0.09802337,-0.2637001,0.5513159,-0.03412653,0.4707923
0.5166443,-0.2338505,-0.2572293,0.6491983,0.3499791,0.6445217
0.5385685,-0.3702908,-0.2269397,0.6756124,0.5963301,0.6951634
0.5998174,-0.3819129,-0.1883448,0.6839039,1.007509,0.6663056
0.6103876,-0.3849329,-0.1749308,0.6625539,1.151093,0.5962741
0.6209788,-0.4249241,-0.1397977,0.5488211,1.068774,0.5548961
0.6598147,-0.4303531,-0.08498217,0.4980607,0.9467349,0.4569112
0.6336281,-0.4455052,-0.0330333,0.4849893,0.3947493,0.3016585
0.7415081,-0.5004498,0.06464725,0.422728,-0.4196073,-0.07712446
0.8613495,-0.5231865,0.1155774,0.3578892,-1.065273,-0.625548
0.8990986,-0.4524283,0.05970315,0.2554767,-1.392616,-0.8429945
1.11087,-0.3820093,0.02363087,0.2493962,-1.287316,-0.8983654
1.265413,-0.3949493,-0.07151875,0.4155657,-0.7476156,-1.032631
1.181203,-0.4970368,-0.2903135,0.5515026,-0.2558876,-0.8813112
1.125868,-0.689511,-0.4836179,0.5500789,-0.6474134,-0.5217017
1.160241,-0.8212721,-0.6359627,0.6286364,-1.488489,-0.2714113
1.137016,-0.7870528,-0.7022827,0.8780421,-1.626542,-0.2195263
1.091609,-0.7451013,-0.6793697,0.8775288,-1.289073,-0.3242794
1.040156,-0.7305619,-0.6783426,0.6756189,-0.8533979,-0.3708436
0.8742141,-0.5870877,-0.5989488,0.5561865,-0.560208,-0.535721
0.7442571,-0.4308055,-0.4587439,0.3022515,-0.7600733,-0.8536706
0.7332131,-0.4042883,-0.4253471,0.113154,-0.9379444,-0.913298
0.7534546,-0.3865787,-0.487427,0.1008784,-1.149762,-0.9781735
0.7888727,-0.3529213,-0.5531573,0.01989843,-1.513996,-1.264864
0.7875779,-0.3038368,-0.5402493,-0.01122142,-1.499541,-1.483475
0.8088973,-0.2364168,-0.5168299,-0.01131375,-1.383127,-1.68002
0.8043481,-0.207946,-0.5179544,0.005845216,-1.257614,-1.783157
0.7248805,-0.1829545,-0.4820372,0.0817532,-0.9765503,-1.650453
0.6742639,-0.1888891,-0.4732171,0.1435527,-0.837837,-1.43085
0.6080084,-0.2022756,-0.4573847,0.2796047,-0.817739,-1.148828
0.5870285,-0.1689068,-0.4269398,0.4082465,-0.6350913,-0.8704863
0.6194772,-0.135694,-0.4487345,0.4403597,-0.2014264,-0.7778298
0.6095291,-0.06004609,-0.4323853,0.3730018,-0.006212226,-0.7979747
0.6055766,0.01233198,-0.3751875,0.2423939,-0.3755998,-0.7634884
0.6062324,0.02227181,-0.3407033,0.2296165,-0.9167472,-0.6703947
0.6763184,0.0385333,-0.3664473,0.2375585,-1.214812,-0.5414461
0.8237308,0.05190621,-0.4649656,0.1654886,-1.025789,-0.4459659
0.9247594,0.05353693,-0.560755,0.06909012,-0.5539872,-0.3733562
0.9566563,0.05081128,-0.6533547,-0.07100687,-0.1937781,-0.2177813
0.9446326,0.03472095,-0.7169496,-0.1768444,-0.09676612,-0.1067092
0.9901202,-0.03806557,-0.7155794,-0.1847926,-0.283009,-0.08265669
1.105902,-0.2157261,-0.7417504,0.01485764,-0.5489925,-0.08338716
1.186175,-0.3833787,-0.8434048,0.3251782,-0.9094123,-0.1193465
1.244182,-0.4326743,-1.021564,0.4086175,-1.063143,-0.04230885
1.280663,-0.3922503,-1.197875,0.4274389,-0.4516013,0.1830444
1.214376,-0.3288354,-1.227544,0.5238752,0.2995428,0.418279
1.034863,-0.2864624,-1.05802,0.49714,0.6735521,0.4940156
0.8677478,-0.2701754,-0.8119939,0.4855883,0.9487693,0.5288663
0.8362677,-0.2897201,-0.7330182,0.5735447,1.263343,0.7794083
0.8739829,-0.3027757,-0.7575044,0.6459816,1.851045,0.902181
0.906233,-0.3099703,-0.6497259,0.7342434,2.558125,0.9099659
1.029688,-0.3467007,-0.5023742,0.8107141,3.08144,1.085858
1.147127,-0.3357784,-0.4540226,0.9023948,3.210504,1.041999
1.01417,-0.2681177,-0.4508937,0.9357176,2.662398,0.8674889
0.7370385,-0.1631767,-0.3941479,0.7385685,1.66535,0.6794998
0.4970359,-0.06250523,-0.3036316,0.5002714,0.59095,0.4026426
0.4057413,-0.07018062,-0.2799753,0.3867527,0.1758994,0.5147662
0.5112451,-0.1384006,-0.2770049,0.3950204,0.5062934,0.7160282
0.5550944,-0.248602,-0.234726,0.5032628,0.6949699,0.6739556
0.5303936,-0.3737887,-0.1880781,0.5455746,0.9628715,0.7561155
0.5863246,-0.383192,-0.1764031,0.4210634,1.182122,0.8019731
0.5845378,-0.3465419,-0.1982268,0.2063677,0.8762274,0.8069333
0.5856104,-0.3605284,-0.1804864,0.1272737,0.6977316,0.8482181
0.6274205,-0.4209714,-0.1032112,0.2007473,0.5752377,0.7361359
0.6436145,-0.5217719,0.013713,0.2265885,0.2713871,0.4947443
0.7149214,-0.5640462,0.1141157,0.2464322,-0.1703079,-0.007069121
0.7960783,-0.5066264,0.1190616,0.2276622,-0.9341594,-0.4734351
0.9309026,-0.4568817,0.06411015,0.1135161,-1.3008,-0.6751319
1.100772,-0.4685581,-0.06467171,0.07551802,-1.004354,-1.008248
1.167573,-0.531766,-0.2806613,0.1745565,-0.4490396,-1.122181
1.248817,-0.6690101,-0.497466,0.2844017,0.02447003,-0.7395875
1.258939,-0.7627852,-0.683567,0.2890768,-0.5958058,-0.4053615
1.11368,-0.675721,-0.7562494,0.4009328,-1.708178,-0.2840421
1.047543,-0.5786089,-0.6891197,0.5983466,-1.701983,-0.1583957
1.00541,-0.5638374,-0.6228439,0.4263602,-1.14839,-0.03603922
0.8864311,-0.4929254,-0.5700211,0.1306197,-0.6908348,-0.1495587
0.8120597,-0.438809,-0.4971507,0.05233151,-0.3765153,-0.3464912
0.7961125,-0.473569,-0.5120277,-0.07026392,-0.6381796,-0.3639748
0.8162183,-0.4723249,-0.5618895,-0.181474,-0.9195685,-0.4154354
0.8397934,-0.4436837,-0.5346374,-0.2129958,-1.047804,-0.5802903
0.8525737,-0.40895,-0.5474219,-0.3067858,-1.403214,-0.8780941
0.8393158,-0.297834,-0.5605966,-0.3669479,-1.486147,-1.241977
0.7616937,-0.1905624,-0.5139201,-0.3955619,-1.41465,-1.422313
0.7013669,-0.1761741,-0.5329535,-0.4054115,-1.359417,-1.479377
0.6524185,-0.1997,-0.5294873,-0.3687123,-1.068988,-1.352582
0.6043279,-0.1996787,-0.4851569,-0.2947247,-0.9347923,-1.087429
0.6136397,-0.1792206,-0.4800014,-0.09254958,-0.8043203,-0.9154847
0.6137039,-0.1686786,-0.4635828,0.0838653,-0.3481497,-0.7935621
0.6160262,-0.1481402,-0.4487415,0.09650093,0.05425101,-0.819304
0.6091604,-0.08464306,-0.399374,0.08405052,0.08173294,-0.8591379
0.5453634,-0.008258361,-0.3617672,0.06335478,-0.3383692,-0.737493
0.5111283,0.01746211,-0.3725825,-0.02677017,-0.8316707,-0.6100591
0.574429,0.008671457,-0.3558678,-0.1688068,-1.004469,-0.3841847
0.7401039,0.03052542,-0.4052719,-0.2461889,-0.9580729,-0.1506842
0.913307,0.01945517,-0.4951685,-0.2348922,-0.9257507,-0.007337528
1.047824,-0.03518355,-0.5818255,-0.2088341,-0.9395283,0.1537228
1.161078,-0.05717414,-0.7595714,-0.1264522,-0.8146642,0.1985751
1.255619,-0.1270997,-1.038183,-0.04400588,-0.6492554,0.2396022
1.379161,-0.2636169,-1.378621,0.05726958,-0.5045145,0.2761229
1.401332,-0.3873861,-1.472184,0.2452774,-0.04126165,0.09010205
1.261911,-0.476094,-1.217698,0.3178834,0.6204898,-0.04452638
1.062899,-0.4808046,-1.046654,0.3420064,0.8891058,0.06190319
0.8142497,-0.4599745,-0.9789161,0.5309618,0.8805269,0.2176606
0.7060589,-0.4943682,-0.7789244,0.7572657,1.360237,0.3005266
0.7962919,-0.5024072,-0.6475104,0.9669253,2.250432,0.3568618
0.8706757,-0.4556109,-0.6606444,1.136864,3.053481,0.3892254
0.9638428,-0.4069424,-0.585269,1.215002,3.664769,0.3418688
1.03057,-0.3866067,-0.4784802,1.315503,3.653585,0.2624717
0.8346264,-0.376224,-0.4630827,1.351391,2.872039,0.06868006
0.5145934,-0.2588937,-0.384451,1.226272,1.73809,-0.1793157
0.3456354,-0.0508618,-0.2800634,1.016513,0.6689474,-0.165279
0.3311499,0.04074928,-0.2744324,0.7739631,-0.0134731,0.1071246
0.4197587,-0.004275968,-0.2857896,0.7449723,-0.1295536,0.4842285
0.5486444,-0.0898469,-0.2999695,0.8737713,0.3224241,0.8154682
0.6092133,-0.2290845,-0.2973524,0.8690409,0.7277427,0.9639469
0.5848388,-0.3348432,-0.2726892,0.8693857,0.9169065,1.04976
0.5418067,-0.3714444,-0.2631923,0.802823,1.071945,1.176132
0.5380934,-0.4791648,-0.2188698,0.6278368,0.9627739,1.223577
0.5332009,-0.5631471,-0.1713044,0.6356529,1.018679,1.038784
0.5443143,-0.5383828,-0.1062394,0.660265,0.9583362,0.6127226
0.6444613,-0.5755059,0.07108259,0.6125713,0.3418529,0.02992649
0.7421939,-0.625031,0.2644819,0.6096552,-0.3777197,-0.5909043
0.785639,-0.5570757,0.2427576,0.4841666,-1.223973,-0.9728363
0.9030516,-0.3737656,0.07762747,0.3262061,-1.689605,-0.9863634
1.120477,-0.1404247,0.04567598,0.3232475,-1.851869,-0.8927787
1.194222,-0.1037906,0.002503383,0.3878824,-2.08331,-0.770134
1.234331,-0.2551536,-0.205842,0.452843,-1.713824,-0.4378333
1.612622,-0.4331438,-0.4879862,0.5793627,-1.281219,-0.05541616
1.824606,-0.6709538,-0.6715162,0.9035478,-1.19555,0.2036019
1.404087,-0.7625283,-0.5507003,1.282678,-1.159287,0.3494071
0.9505459,-0.7890558,-0.4378569,1.286358,-1.196842,0.1104107
0.8515222,-0.958738,-0.3655325,0.9799471,-1.053961,-0.5089201
0.7871533,-0.9077213,-0.1415825,0.7284108,-0.9853052,-1.066394
0.630779,-0.7574097,-0.1754064,0.4732425,-0.9808639,-1.404472
0.614108,-0.7044314,-0.2766045,0.3601675,-0.9681998,-1.609755
0.682207,-0.5602605,-0.2753261,0.5055595,-1.398814,-1.772249
0.7107891,-0.5323086,-0.481986,0.5589338,-2.010967,-1.821359
0.7967231,-0.4816827,-0.6187314,0.6552768,-2.336574,-1.814224
0.8447122,-0.3841982,-0.6358476,0.7639181,-2.125374,-1.91741
0.8750839,-0.449777,-0.6570202,0.7658082,-1.732852,-1.945412
0.9181825,-0.3788838,-0.6290832,1.072618,-1.39379,-1.962416
0.8456597,-0.3125118,-0.6422855,1.329938,-0.6891821,-2.020443
0.7697803,-0.2954296,-0.5993174,1.303271,-0.1665398,-2.038653
0.6858949,-0.2022359,-0.5162248,1.338729,-0.15409,-2.243209
0.583359,-0.2066438,-0.4605713,1.286097,-0.3712354,-2.323571
0.5917223,-0.1139633,-0.4330421,1.215539,-0.7845173,-2.15674
0.6566087,-0.03502927,-0.466871,1.257451,-0.8161825,-2.125517
0.7095507,-0.03216641,-0.4545208,1.362932,-0.5157417,-2.132882
0.6872303,0.07595506,-0.4628769,1.573137,-0.4182355,-2.078275
0.6447018,0.1002966,-0.4980095,1.647386,-0.5795818,-1.826641
0.672029,0.1513943,-0.4789971,1.477545,-0.806704,-1.358923
0.692794,0.2334899,-0.4822397,1.220022,-0.5936156,-0.9805738
0.7401342,0.2063609,-0.4476604,0.9662215,-0.270778,-0.7673766
0.7890045,0.1841733,-0.4125836,0.7351225,-0.2248124,-0.7152643
0.7915986,0.1251212,-0.4584542,0.5484964,-0.2291622,-0.7033189
0.9032591,0.07572384,-0.5349157,0.4470158,-0.2990017,-0.6146552
1.074134,0.05937473,-0.6073336,0.4035719,-0.04208577,-0.4467586
1.139751,0.01482232,-0.5731597,0.4046617,0.3666788,-0.2157603
1.169008,-0.05054664,-0.4712179,0.4301545,0.3913144,-0.07377373
1.211283,-0.1458006,-0.4260856,0.5048072,0.2873136,0.04287557
1.197525,-0.1666979,-0.4901207,0.599898,0.04374689,0.179702
1.180072,-0.1796301,-0.7444021,0.5865352,-0.2736396,0.182057
1.241813,-0.263517,-1.03204,0.5367281,-0.4143495,0.06884301
1.308551,-0.3254797,-1.063725,0.4598169,-0.3892578,-0.06908666
1.286171,-0.4130466,-0.9228312,0.3575862,-0.3031618,-0.07575584
1.090336,-0.4415435,-0.8745849,0.399624,-0.2287987,0.1236145
0.839194,-0.3574368,-0.8557255,0.4609389,0.07098733,0.3911491
0.8250285,-0.3287826,-0.7758804,0.4540694,0.3646134,0.6429759
0.8433247,-0.3027292,-0.7682321,0.5886218,0.4505767,0.8638947
0.7062234,-0.2452781,-0.7701587,0.8236235,0.7763621,1.017582
0.7527523,-0.2789876,-0.7277846,1.037493,1.496506,1.051124
0.9095306,-0.372585,-0.666393,1.224727,2.271609,0.9484566
0.9392362,-0.4512644,-0.4736691,1.2514,2.382466,0.7638695
0.9218144,-0.453025,-0.3339515,1.172657,1.990434,0.5397244
0.7593687,-0.370303,-0.3693078,1.128846,1.657838,0.3024459
0.5264784,-0.264485,-0.3324644,0.9921613,1.020474,0.2081107
0.4632737,-0.1435312,-0.2789865,0.8043011,0.5698858,0.3730127
0.5717494,-0.1056841,-0.3158557,0.7727693,0.7731983,0.5800258
0.735074,-0.1865263,-0.3026925,0.8650262,0.9388226,0.6523539
0.7774281,-0.2479043,-0.2821823,0.867104,1.010913,0.6350054
0.7605048,-0.284355,-0.2817248,0.6274572,0.9920713,0.6045787
0.7480782,-0.290719,-0.2113736,0.2559326,0.6843573,0.6922065
0.6731713,-0.2514809,-0.09771721,0.04278509,0.4060803,0.8220148
0.6151566,-0.2555244,0.05990826,0.06746156,0.2829833,0.8696135
0.564054,-0.279055,0.1798316,0.05576446,0.1056606,0.8397006
0.5985664,-0.3438544,0.1782974,-0.09902634,-0.3215124,0.646749
0.6954321,-0.4696027,0.1709986,-0.2231376,-0.6700248,0.3591168
0.7303645,-0.5207795,0.1271765,-0.2762686,-0.5840148,0.1157403
0.8956053,-0.5413017,0.01394381,-0.2770979,-0.4418733,0.02292712
1.078379,-0.6748003,-0.1050537,-0.2417894,-0.4850851,0.0502219
1.166741,-0.8965686,-0.3496055,-0.1450021,-0.8819132,-0.03372706
1.311318,-1.014651,-0.6666047,0.03118281,-1.422772,-0.1520049
1.256703,-0.8942827,-0.7690108,0.1475122,-1.238404,-0.2196794
1.017681,-0.7001467,-0.6390438,0.1122269,-0.7241074,-0.2887728
0.9115212,-0.5635574,-0.5496795,-0.07019463,-0.4574114,-0.3413761
0.7691654,-0.4376861,-0.5411176,-0.2903004,-0.2017248,-0.4639071
0.583521,-0.3457512,-0.423072,-0.4711163,-0.3836766,-0.536912
0.5883217,-0.3199637,-0.3373398,-0.6153011,-0.7827012,-0.5088302
0.6472857,-0.3424877,-0.4042452,-0.6639283,-1.020216,-0.5201351
0.7019817,-0.3359225,-0.4590053,-0.6977513,-1.293749,-0.5617344
0.7958944,-0.2794479,-0.5065316,-0.7599204,-1.125392,-0.7018411
0.8155909,-0.243555,-0.5088342,-0.8072695,-0.9408229,-0.9177429
0.7780329,-0.1883096,-0.4487945,-0.8507089,-1.048175,-1.08477
0.7223496,-0.129823,-0.4732628,-0.8684643,-0.8932821,-1.13136
0.6685967,-0.1040544,-0.4914015,-0.9027342,-0.9278586,-1.013431
0.6714633,-0.07048194,-0.4924559,-0.9092851,-0.9790466,-0.8152208
0.7057203,-0.1034827,-0.5453897,-0.8511523,-0.7298481,-0.5980257
0.7231982,-0.1403176,-0.5403956,-0.7861833,-0.519518,-0.4391525
0.7113937,-0.09912742,-0.5180728,-0.7460902,-0.2722488,-0.3007562
0.7138989,-0.09215323,-0.4699735,-0.7541484,-0.3972077,-0.1016854
0.7368676,-0.104418,-0.4033519,-0.6893498,-0.7603081,-0.01300599
0.7910236,-0.09817796,-0.4822672,-0.5953767,-0.8088908,0.01041109
0.8802197,-0.08557333,-0.6037191,-0.6125973,-0.5670294,0.05305049
0.911279,-0.04266415,-0.6324034,-0.6574374,0.02251007,0.04754727
0.893734,-0.0004614453,-0.6081402,-0.6889436,0.3497817,0.1613621
0.8837206,0.01455074,-0.5823235,-0.6838052,0.2792196,0.3479297
0.8792453,0.003764681,-0.586356,-0.6864257,0.2614353,0.4379813
0.9122698,-0.01429576,-0.5866842,-0.7526467,-0.0226653,0.4926337
0.9875649,-0.06357068,-0.6392808,-0.7823466,-0.3891471,0.5071279
1.052635,-0.1532736,-0.8155559,-0.7521961,-0.5317185,0.5162008
1.094049,-0.2138204,-1.002531,-0.6844517,-0.505471,0.524539
1.170572,-0.2916836,-1.065813,-0.5666768,-0.2484044,0.5033983
1.223966,-0.391093,-1.05056,-0.4175534,0.04594532,0.5311544
1.105572,-0.3825102,-1.054774,-0.3377233,0.275919,0.6137188
0.9289296,-0.3340346,-0.9942235,-0.332876,0.4863231,0.7370363
0.8956655,-0.3340506,-0.8509832,-0.2477076,0.8635053,0.8058383
0.8949028,-0.3076005,-0.7577942,-0.1120213,1.376864,0.8456692
0.8506995,-0.3204259,-0.7297302,0.05139997,1.812252,0.9648407
0.8866326,-0.4081354,-0.6974983,0.2109011,2.323692,1.009735
0.9305614,-0.4544606,-0.5931777,0.2457677,2.781781,1.049264
0.9165361,-0.4681755,-0.4850926,0.4198652,3.041091,1.094708
0.8684703,-0.4248324,-0.4122595,0.6758375,2.991477,0.9177876
0.7193625,-0.3153548,-0.3202673,0.6090846,2.391922,0.7288153
0.5419453,-0.2202384,-0.3093023,0.4839558,1.45517,0.646924
0.4441567,-0.1292158,-0.3111772,0.4289688,0.6683375,0.6092198
0.45849,-0.1007602,-0.276991,0.2671991,0.5444739,0.7938925
0.499725,-0.09583306,-0.3092789,0.2059058,0.7175259,1.078799
0.4686839,-0.081069,-0.283945,0.2585733,0.8007225,1.155382
0.539704,-0.2039536,-0.2363596,0.2794304,1.121218,1.085985
0.6607775,-0.3337767,-0.206545,0.2365781,1.15374,1.111322
0.6410456,-0.3590657,-0.1488906,0.1345402,0.8828568,1.183601
0.5939996,-0.3846096,-0.1686153,0.09448806,0.8169324,1.162352
0.5624395,-0.4319004,-0.1084023,0.1164921,0.6246667,1.077251
0.6067941,-0.5196606,0.05268062,0.1850036,0.3487782,0.7021958
0.7101543,-0.5733618,0.1272996,0.2313218,-0.1473993,-0.001725384
0.7450575,-0.5596286,0.1457394,0.1076933,-0.8518959,-0.511712
0.8425474,-0.5054499,0.08857071,-0.07156362,-1.0926,-0.6870011
0.995167,-0.4078345,0.0008627313,-0.1517709,-1.076752,-0.689828
1.060067,-0.4056235,-0.0737712,-0.1222383,-1.14533,-0.4436772
1.073728,-0.5175502,-0.2114866,-0.03364212,-1.165398,-0.1399809
1.157813,-0.712428,-0.4175169,0.1445197,-1.131642,-0.04296317
1.291057,-0.8959636,-0.7031836,0.2872322,-1.096721,-0.01947864
1.222644,-0.8185926,-0.8577515,0.1402954,-1.01874,-0.04515148
1.020555,-0.6873589,-0.6383192,-0.009327808,-0.7605269,-0.1672366
0.8723994,-0.6900929,-0.3475768,-0.01989593,-0.5390051,-0.3401236
0.731663,-0.5804191,-0.3072386,-0.1579938,-0.5720967,-0.6555366
0.6853979,-0.4482924,-0.3211407,-0.3223329,-0.8271158,-0.902935
0.6594582,-0.4196771,-0.31518,-0.4301494,-1.283172,-0.8952812
0.6256394,-0.3983164,-0.4090834,-0.4559105,-1.641374,-0.9141244
0.7308924,-0.4031264,-0.4737242,-0.4068172,-1.704632,-1.019333
0.8132196,-0.3435627,-0.5078052,-0.4243844,-1.554488,-1.147897
0.8512885,-0.2723111,-0.5423431,-0.3505347,-1.268735,-1.328519
0.8527543,-0.2761452,-0.5351804,-0.1821879,-0.8913896,-1.411406
0.7553969,-0.2073031,-0.5725689,-0.07186411,-0.5382068,-1.321159
0.712268,-0.1606597,-0.5491963,0.03698002,-0.4499996,-1.159902
0.6764487,-0.1844509,-0.4861935,0.1172006,-0.52756,-1.026333
0.6767386,-0.1839543,-0.495711,0.1713038,-0.5191917,-0.9215323
0.7425962,-0.1795611,-0.4706392,0.1682908,-0.3436415,-0.8726531
0.7237852,-0.1111959,-0.4507405,0.1357251,-0.1601888,-0.8656228
0.6943637,-0.009937866,-0.41628,0.170362,-0.3254553,-0.7596753
0.6494779,0.03535075,-0.374417,0.1309254,-0.7154386,-0.612235
0.657462,0.02210611,-0.4411696,0.04209952,-0.9576747,-0.4503904
0.7601837,0.01410796,-0.5211891,-0.04680878,-0.7765043,-0.2264475
0.7948674,0.04307157,-0.5719526,-0.1913604,-0.2828236,-0.08552331
0.8282597,0.04438825,-0.5705209,-0.2805097,-0.08114285,0.004594509
0.833121,0.06304954,-0.5419449,-0.3592759,-0.1682999,0.1085357
0.8381309,0.04504692,-0.5735528,-0.4314581,-0.3041646,0.1182724
0.9402554,-0.0557057,-0.5732916,-0.3939507,-0.4706228,0.09441442
1.048577,-0.1420542,-0.5708487,-0.2935031,-0.4630535,0.1159974
1.178401,-0.2595712,-0.6229902,-0.1373021,-0.374451,0.11678
1.197237,-0.3281409,-0.6703674,0.04859336,-0.3364797,0.1067519
1.159209,-0.2894391,-0.7831831,0.2095257,-0.3660958,0.108982
1.253124,-0.2413226,-1.003771,0.233655,-0.3611237,0.06842489
1.276701,-0.1883908,-1.161946,0.09279774,-0.02666283,0.03393912
1.17973,-0.2197823,-1.052218,0.01818045,0.3835493,0.06770063
0.9939966,-0.3150056,-0.8885269,-0.02977477,0.5721277,0.1580289
0.7856017,-0.357298,-0.8766978,-0.1513249,0.7635672,0.2976146
0.7159768,-0.3755645,-0.7607127,-0.1610367,1.005227,0.3909232
0.6946827,-0.3644045,-0.6483491,-0.1420393,1.103352,0.4078575
0.7404832,-0.3719388,-0.6558542,-0.1438218,1.256723,0.4634537
0.8963396,-0.4288883,-0.5695921,0.05685338,1.824999,0.518068
0.988395,-0.4632302,-0.5798721,0.3347481,2.507089,0.4398156
0.938562,-0.5047474,-0.6298493,0.4715902,2.723064,0.305134
0.8276953,-0.5503253,-0.5557625,0.5986734,2.396814,0.1927306
0.745435,-0.514226,-0.526545,0.7383647,1.727417,0.08615937
0.6279795,-0.3770294,-0.3289432,0.7441916,0.7841196,0.1898476
0.5059349,-0.2495667,-0.08373252,0.8798851,0.2236134,0.5277483
0.5575799,-0.2639344,-0.1796061,1.287949,0.5176653,0.7782322
0.7371184,-0.3046427,-0.3401925,1.474263,0.6252274,0.8366644
0.8785782,-0.2578883,-0.4348712,1.34832,0.6089369,0.7129891
0.8863937,-0.2346484,-0.555389,1.11048,1.162843,0.6216227
0.731827,-0.1936514,-0.4712829,0.649738,1.3203,0.8336818
0.4980356,-0.08468588,-0.1889562,0.384031,1.153942,1.094134
0.3683278,-0.08752071,0.01993891,0.5891684,1.213655,1.222682
0.4196474,-0.2208152,0.1343485,0.6799903,1.01083,1.206176
0.4771335,-0.3827095,0.2528586,0.5935584,0.4787754,0.8621596
0.4903607,-0.5168247,0.3211928,0.6089599,-0.3320117,0.3277904
0.6408591,-0.5459412,0.2112886,0.5233611,-0.9628522,-0.05345226
0.861547,-0.5788624,0.04524303,0.3775789,-1.200051,-0.2402382
0.994835,-0.6484887,-0.03159465,0.3290359,-1.518993,-0.4541128
1.054901,-0.5992077,-0.1121827,0.3319447,-1.600038,-0.5968601
1.099574,-0.541282,-0.1611899,0.4512621,-1.31845,-0.5388901
1.292192,-0.5876694,-0.2902425,0.5964671,-1.119948,-0.537377
1.459658,-0.6806071,-0.4896025,0.652628,-1.148646,-0.4078778
1.28545,-0.7893235,-0.4703597,0.6774486,-1.381992,-0.07977431
1.02048,-0.7999207,-0.4344732,0.6992177,-1.508231,0.06906165
0.8513157,-0.7681899,-0.4345113,0.7036163,-1.325653,0.1023204
0.731124,-0.7995211,-0.3747686,0.5798665,-1.116284,-0.08305854
0.6940845,-0.7135136,-0.3731402,0.3865789,-1.178898,-0.5386641
0.6771181,-0.5547369,-0.3527407,0.2323586,-1.383585,-0.8127056
0.6931348,-0.4773772,-0.4451328,0.07195294,-1.600989,-0.8960542
0.731373,-0.3666678,-0.6176944,-0.06415654,-1.852997,-1.009539
0.7381546,-0.2461688,-0.6386336,-0.2515522,-1.852928,-1.136789
0.7786553,-0.1945451,-0.6036003,-0.4288591,-1.702774,-1.231797
0.8293709,-0.1715313,-0.5731876,-0.4489023,-1.555944,-1.301187
0.8362985,-0.1618063,-0.5605654,-0.432459,-1.081976,-1.398796
0.8093295,-0.1459035,-0.5498734,-0.4035927,-0.5893557,-1.440059
0.756784,-0.1453881,-0.533919,-0.3631088,-0.5106937,-1.379383
0.6958353,-0.133774,-0.5215903,-0.3498911,-0.6594438,-1.299984
0.6702419,-0.1000591,-0.4967166,-0.3440878,-0.766342,-1.167357
0.7075271,-0.1002048,-0.5019844,-0.3134315,-0.7241896,-0.9840373
0.7364596,-0.08765614,-0.4721421,-0.21405,-0.5673789,-0.8344987
0.707785,-0.05705852,-0.4446961,-0.1381499,-0.3722813,-0.7462836
0.6812362,-0.04387772,-0.4717599,-0.1070289,-0.4580003,-0.6559503
0.6979906,-0.03878283,-0.4888461,-0.1186343,-0.8004374,-0.4362908
0.7924933,-0.02528903,-0.5601529,-0.209856,-0.8969459,-0.1627846
0.9240061,0.01309664,-0.6403084,-0.3105274,-0.5996079,-0.0367989
0.9500561,0.01961707,-0.652098,-0.4487519,-0.05383569,0.0179647
0.9553492,-0.0167265,-0.6468722,-0.5358562,0.2311259,0.1033514
1.028635,-0.06028775,-0.6416006,-0.4744068,0.1626047,0.08711343
1.032791,-0.1322694,-0.6395538,-0.4230887,0.04702369,0.01826734
1.049123,-0.2120432,-0.6657394,-0.4029903,-0.3250291,0.02951557
1.124352,-0.2590459,-0.8086877,-0.345587,-0.5649974,0.07864743
1.134427,-0.2994145,-1.068503,-0.2241312,-0.3190107,0.1758341
1.156902,-0.3898584,-1.210453,-0.05504093,0.1786317,0.222814
1.112848,-0.4694535,-1.069231,0.004038058,0.7425478,0.1946444
0.8935384,-0.4554996,-0.8876802,-0.0005392369,0.8000253,0.3015487
0.7026615,-0.4176258,-0.8459181,0.1454296,0.8074142,0.4976263
0.6874749,-0.3707534,-0.7638692,0.359217,1.35925,0.689212
0.7905122,-0.2939932,-0.713057,0.4654293,1.883854,0.8893609
0.8870799,-0.2650477,-0.6926328,0.4780672,2.611739,1.032454
1.012694,-0.2931013,-0.5397622,0.5092596,3.297137,1.114078
1.113331,-0.3203235,-0.4963609,0.6204152,3.236981,1.097121
1.049304,-0.320936,-0.5202216,0.634037,2.913001,0.9160986
0.9347514,-0.2787264,-0.443145,0.4494925,2.305969,0.658684
0.6444462,-0.1564464,-0.4026823,0.183321,1.537982,0.5696332
0.3245125,-0.03477383,-0.3462182,-0.0638372,1.01049,0.6966764
0.4357839,-0.07162896,-0.3201179,-0.0969543,0.6697588,0.8681603
0.5540666,-0.1509536,-0.3111133,-0.04357445,0.955727,1.131233
0.4885056,-0.1828921,-0.2347325,-0.1350013,1.337937,1.341806
0.6356045,-0.2798331,-0.2418452,-0.1639261,1.328832,1.308781
0.7129806,-0.3111673,-0.2093406,-0.2027187,1.426896,1.290251
0.6392755,-0.2708664,-0.1291406,-0.3609243,1.228454,1.262739
0.6719482,-0.3361038,-0.1116146,-0.437095,0.8351214,1.142386
0.6470743,-0.4138895,0.01125665,-0.435191,0.5639445,1.085113
0.6307632,-0.4840589,0.1123377,-0.4197136,0.1301485,0.8657164
0.6901916,-0.5102413,0.09307284,-0.5010353,-0.304804,0.4059271
0.7101079,-0.4364889,0.1036001,-0.628923,-0.7877007,0.03248278
0.8432774,-0.4118627,0.1015668,-0.6430802,-0.9942316,-0.1198504
1.034553,-0.3768613,0.04380231,-0.6491936,-0.7453119,-0.1548094
1.115065,-0.3823333,-0.0676372,-0.6126542,-0.5092429,-0.1515708
1.137158,-0.5703643,-0.2733559,-0.5532991,-0.272666,-0.03801312
1.241387,-0.7377511,-0.50945,-0.5477488,-0.4644149,0.1658727
1.384892,-0.7784549,-0.6110802,-0.3978289,-1.06553,0.2978617
1.272024,-0.7346413,-0.6134102,-0.2045146,-1.145557,0.2595924
1.108656,-0.699368,-0.6235709,-0.2484052,-0.6646583,0.1469129
1.076215,-0.6584714,-0.5449945,-0.4430054,-0.07297735,0.06467421
0.8707173,-0.5185496,-0.4558304,-0.6201837,0.06531223,-0.1121286
0.6990229,-0.4428551,-0.4056723,-0.7781276,-0.2627005,-0.23774
0.6957999,-0.4366199,-0.3544125,-0.8439069,-0.5209577,-0.1942596
0.6618437,-0.4302035,-0.4411216,-0.8196144,-0.9544981,-0.2210359
0.7176295,-0.4198947,-0.5140798,-0.8415753,-1.316783,-0.2736719
0.8144765,-0.339071,-0.5028026,-0.8440161,-1.214841,-0.4114354
0.8382764,-0.3058978,-0.5270978,-0.8700802,-1.198132,-0.6968799
0.8376867,-0.2826454,-0.5015041,-0.9586311,-1.132753,-0.8926782
0.7879965,-0.2339087,-0.5068107,-0.950896,-0.8480039,-0.9957715
0.7221534,-0.2437087,-0.5213214,-0.8698596,-0.6678927,-1.000351
0.661536,-0.2038294,-0.4918809,-0.7499014,-0.5155468,-0.9662338
0.6233807,-0.1741792,-0.5017384,-0.6862578,-0.4632759,-0.9502688
0.6286574,-0.1872732,-0.4599307,-0.6926227,-0.4587517,-0.8196482
0.635389,-0.1456158,-0.432857,-0.6013456,-0.2789457,-0.6804323
0.6374049,-0.07232247,-0.4353153,-0.51005,-0.09174798,-0.5588435
0.6102404,-0.004787428,-0.4025692,-0.4807514,-0.1971095,-0.3838609
0.5979742,-0.008428922,-0.4383172,-0.4875999,-0.7208194,-0.0964099
0.7085203,-0.0244781,-0.5171349,-0.5995226,-1.140765,0.3011781
0.8832218,-0.006786351,-0.5952884,-0.7828194,-0.8953454,0.4002552
0.9826153,-0.02049827,-0.6031168,-0.9405887,-0.4890914,0.2742957
1.0182,-0.0472212,-0.5748468,-0.9520554,-0.3779149,0.3430546
1.08373,-0.09889026,-0.6609184,-0.8311234,-0.04001238,0.3857795
1.125683,-0.1485789,-0.7365822,-0.7093244,0.3133365,0.3665269
1.113216,-0.178976,-0.7657472,-0.6529606,0.02084198,0.4129025
1.147067,-0.2413627,-0.8952632,-0.6444634,-0.3182693,0.3740041
1.214453,-0.2869406,-1.05678,-0.6241163,-0.3215578,0.3777558
1.224731,-0.3068964,-1.063649,-0.6081054,-0.06155174,0.4252071
1.096259,-0.339767,-0.958151,-0.5753119,0.4317844,0.4260282
0.8880535,-0.3576807,-0.8936058,-0.5321891,0.5740962,0.5122298
0.8130912,-0.3485781,-0.7871251,-0.5193259,0.7340958,0.6391474
0.8352719,-0.3270501,-0.7103362,-0.4568839,1.354146,0.8304453
0.8238654,-0.3109349,-0.7502988,-0.3495578,1.854745,1.034326
0.8766237,-0.3391613,-0.6914196,-0.2197178,2.367116,1.105525
0.9803771,-0.3823883,-0.6254882,-0.09417981,2.871462,1.144896
1.032495,-0.3638464,-0.6129784,0.01735791,3.011893,1.085357
1.091685,-0.3464067,-0.531685,0.1258326,2.951368,0.9455987
1.027809,-0.3361026,-0.5180877,0.07893644,2.54178,0.8934472
0.647548,-0.2111919,-0.4652253,-0.01087221,1.866089,0.7949245
0.2999703,-0.07082324,-0.310273,-0.04575999,1.275552,0.7292148
0.3566112,-0.06987955,-0.2921094,-0.1165582,0.9297558,0.9420798
0.4798596,-0.1262704,-0.2764724,-0.01183567,1.017583,1.212744
0.4018508,-0.1601705,-0.1612805,0.1282616,1.158518,1.283612
0.4378257,-0.2258671,-0.1687385,0.07270244,1.142525,1.295236
0.5689627,-0.2954071,-0.2146274,-0.006594952,1.249658,1.356427
0.6113311,-0.3577494,-0.1675773,-0.1382585,1.086719,1.371211
0.6876114,-0.4525858,-0.1683243,-0.2197076,0.6593718,1.298792
0.6715566,-0.4775464,-0.1404993,-0.154693,0.5729057,1.119006
0.6618035,-0.5204047,0.006277796,-0.1623462,0.3977329,0.7423568
0.7876277,-0.6013208,0.1350349,-0.2479685,-0.2316598,0.1904191
0.817149,-0.4976713,0.1825664,-0.4045174,-0.7434322,-0.346261
0.9548042,-0.3932011,0.11427,-0.5730133,-0.7693036,-0.6846836
1.129264,-0.3903766,-0.01353906,-0.5437987,-0.4074481,-0.7068668
1.108997,-0.3836882,-0.1860471,-0.4735829,-0.2341014,-0.4304078
1.162399,-0.5049129,-0.4461238,-0.4657807,-0.6886156,0.01451022
1.186547,-0.6542872,-0.6263237,-0.3076905,-1.354546,0.4524808
1.120535,-0.6719438,-0.6691404,-0.1394023,-1.543929,0.5670575
1.108524,-0.6241456,-0.6198451,-0.1667038,-1.048335,0.4288158
1.027025,-0.5975746,-0.5519559,-0.2857435,-0.448468,0.3666453
0.9077515,-0.5687998,-0.5314743,-0.4655661,-0.2294885,0.1652957
0.8270658,-0.4867035,-0.4316949,-0.6349721,-0.2617536,-0.1414169
0.7875512,-0.4794581,-0.3657146,-0.718228,-0.4744615,-0.308182
0.7936582,-0.4746499,-0.4436672,-0.7834092,-0.760253,-0.5560217
0.7827268,-0.3578563,-0.5045496,-0.8600032,-0.9073172,-0.7673152
0.7744811,-0.252316,-0.5591669,-0.9851393,-0.9605716,-0.8630333
0.7823333,-0.1582911,-0.5771261,-1.113962,-1.057997,-0.972557
0.7579878,-0.1320056,-0.5210428,-1.178714,-1.151833,-0.9360776
0.747422,-0.1779065,-0.4967456,-1.179774,-1.179362,-0.8860052
0.7607581,-0.1941785,-0.4937389,-1.067161,-1.097882,-0.8541154
0.7492336,-0.2308037,-0.4938009,-0.8545744,-0.8525217,-0.7726545
0.7470872,-0.2502326,-0.5120433,-0.6483253,-0.619924,-0.7981409
0.7450285,-0.2350276,-0.5492647,-0.579401,-0.3795591,-0.8035162
0.7250904,-0.2075395,-0.5695172,-0.6167407,0.002293505,-0.8259758
0.6930986,-0.1125778,-0.5144626,-0.6070491,0.07195743,-0.8823399
0.647447,-0.01738121,-0.4634907,-0.568632,-0.617306,-0.7060554
0.6690357,-0.009691069,-0.4935827,-0.5271834,-1.306291,-0.4162994
0.7466584,-0.05228451,-0.5578591,-0.4683168,-0.8747064,-0.170456
0.8311159,-0.05931949,-0.5990603,-0.4298454,-0.07304409,0.06137301
0.9049823,-0.03316387,-0.5846339,-0.3684052,0.2255698,0.185823
0.9032914,0.01451865,-0.5572164,-0.3061012,0.4692994,0.197303
0.9332598,0.08727633,-0.5862257,-0.3548836,0.2819932,0.2519964
1.056746,0.07532976,-0.6865023,-0.4661813,-0.1239976,0.36472
1.151255,-0.03018867,-0.8980872,-0.5556312,-0.1020756,0.4486546
1.225427,-0.1736335,-1.085747,-0.5975504,-0.1830158,0.4816932
1.242499,-0.3372977,-1.020359,-0.5602612,0.05940849,0.3683241
1.080702,-0.400301,-0.9060898,-0.5281773,0.4704886,0.1930348
0.8781569,-0.3751457,-0.8583597,-0.4996002,0.3206616,0.1873251
0.8582394,-0.3776554,-0.709275,-0.3786656,0.5352594,0.367521
0.9158557,-0.3560707,-0.6824187,-0.1836532,1.23598,0.7151764
0.8706788,-0.2733949,-0.7890672,0.1152283,1.93572,1.022918
0.8726812,-0.2289917,-0.7552052,0.3075373,2.592123,1.084586
1.017765,-0.2814066,-0.6371299,0.2457724,2.870074,1.084597
1.142371,-0.3329451,-0.4934963,0.3081038,2.861378,1.036548
1.102203,-0.295758,-0.4711108,0.4666118,2.738432,0.8590509
0.8506067,-0.1968838,-0.5251796,0.4543614,2.517886,0.7876601
0.5969612,-0.0890968,-0.4260179,0.3991914,2.056329,0.878724
0.553065,-0.07276923,-0.3825066,0.300913,1.225265,0.9991908
0.5346041,-0.1330059,-0.3245644,0.2410403,0.5693483,1.18143
0.4172147,-0.1621192,-0.1394818,0.345187,0.4795728,1.307107
0.4307415,-0.2225574,-0.1352069,0.414255,0.7267475,1.260797
0.5721155,-0.2945761,-0.1888016,0.383596,0.91532,1.202977
0.6059051,-0.3347461,-0.1597043,0.2642861,0.8943701,1.124133
0.6199429,-0.4018892,-0.1790765,0.05219069,0.7163875,0.9985756
0.6383573,-0.4397275,-0.1846953,-0.05546012,0.5044023,0.9193573
0.6125168,-0.5347786,-0.1632407,-0.0001298076,0.4987167,0.7380887
0.6446339,-0.6330318,-0.1113948,0.01669937,0.3708386,0.3384433
0.6338546,-0.5508547,0.03361883,-0.03538714,-0.2421517,-0.1056749
0.6638702,-0.4926507,0.1646529,-0.02149935,-0.8532938,-0.3368976
0.8209067,-0.4388058,0.157744,-0.0124584,-0.9973077,-0.3892757
0.9848375,-0.3525002,0.0787957,-0.008426386,-0.789688,-0.4563935
1.161273,-0.4392574,-0.02943781,0.09045711,-0.6285618,-0.4483736
1.203425,-0.5442354,-0.2391604,0.1656102,-0.6901367,-0.3929958
1.223786,-0.6279538,-0.4692668,0.1984664,-1.104944,-0.3407301
1.336556,-0.6861314,-0.6395283,0.2528247,-1.556741,-0.05226747
1.268647,-0.5962273,-0.7373401,0.3067159,-0.9639475,0.2127924
1.112261,-0.5340906,-0.5979711,0.2863086,-0.03501338,0.08390726
0.9462527,-0.4866831,-0.3496027,0.1118382,-0.1273399,-0.07909767
0.7492659,-0.4006571,-0.3157752,-0.1153617,-0.3110864,-0.1311475
0.719406,-0.3971426,-0.3192115,-0.2955211,-0.3020526,-0.3088673
0.7585627,-0.4374392,-0.2727723,-0.3281018,-0.7348941,-0.3821446
0.7621989,-0.4742828,-0.3750674,-0.2654056,-1.131586,-0.3323206
0.8385782,-0.4155605,-0.4678733,-0.33483,-1.307018,-0.4907682
0.8968493,-0.2966389,-0.5136866,-0.4420932,-1.252745,-0.6970124
0.8847962,-0.2447965,-0.5823838,-0.5669621,-1.069917,-0.8627626
0.8941497,-0.1785985,-0.580607,-0.7276107,-1.027243,-1.055811
0.8825879,-0.1444204,-0.593595,-0.7716787,-0.8630475,-1.153332
0.8257731,-0.1625238,-0.573699,-0.78915,-0.6596009,-1.231472
0.7377546,-0.1361541,-0.5251947,-0.7690301,-0.5194637,-1.231679
0.6552707,-0.1490146,-0.5373772,-0.6835032,-0.4126079,-1.105468
0.6710016,-0.1729162,-0.4854011,-0.5606822,-0.3851181,-1.0002
0.6742446,-0.1311348,-0.4422699,-0.2687388,-0.1707971,-0.8883122
0.6007101,-0.103459,-0.4245669,0.02061655,-0.09991145,-0.8504802
0.5338608,-0.1166492,-0.3688634,0.1027795,-0.5550914,-0.7605416
0.5041282,-0.1543484,-0.3719972,0.07687948,-0.9924429,-0.4577678
0.6232956,-0.1757542,-0.435132,0.039024,-0.8477137,-0.2534545
0.8091082,-0.09747909,-0.5294417,-0.03172385,-0.4185283,-0.1514802
0.8714652,0.06356839,-0.5486913,-0.1799863,-0.2489308,-0.05030063
0.8825264,0.1420569,-0.4925886,-0.3326115,-0.2345164,-0.05057999
0.8992688,0.0570095,-0.5032505,-0.4614991,-0.3821774,0.02360989
0.9178083,-0.04751557,-0.5753913,-0.514725,-0.5695516,0.1360933
0.9794963,-0.09984039,-0.6825716,-0.4169819,-0.4901102,0.140036
1.077902,-0.1814682,-0.7267334,-0.2892004,-0.3951727,0.1911143
1.131692,-0.2668079,-0.6986445,-0.1423108,-0.1901161,0.2702939
1.100027,-0.2933058,-0.7358708,0.001780191,-0.01203252,0.3128663
1.09695,-0.2945011,-0.8170267,0.1132521,-0.06117994,0.3322747
1.150572,-0.2859536,-0.8841413,0.2593265,0.07892229,0.241573
1.152245,-0.2331473,-0.8801342,0.2117431,0.2096915,0.1223438
1.071573,-0.1686514,-0.8327213,0.06547785,0.2710225,0.07736299
0.9655832,-0.1926827,-0.8126492,0.07750283,0.4830468,0.02895423
0.9162575,-0.2314581,-0.7315458,-0.01967458,0.7459016,0.01628693
0.8636124,-0.1705353,-0.6748138,-0.1533728,1.083254,0.1688956
0.7790646,-0.1439314,-0.7117785,-0.1429118,1.308473,0.3769273
0.7834097,-0.1823047,-0.6704432,-0.1287889,1.406086,0.4220648
0.788036,-0.2201745,-0.5858878,-0.08743441,1.436226,0.3377378
0.7544918,-0.3180802,-0.5182965,-0.05095297,1.334381,0.2943277
0.7685325,-0.386344,-0.4543227,0.05960461,1.261286,0.3296375
0.7313979,-0.3679785,-0.4611675,0.2486626,1.1716,0.4069672
0.6852758,-0.3413607,-0.4442123,0.2671296,1.134051,0.5535176
0.657585,-0.2889093,-0.3945878,0.2398493,1.098542,0.7215809
0.563018,-0.2170531,-0.4063894,0.3036616,0.813592,0.7826277
0.5220658,-0.1801624,-0.3775077,0.3686864,0.5879102,0.7700441
0.5647224,-0.2309536,-0.3045164,0.4276373,0.4741939,0.7487385
0.6390865,-0.3640522,-0.2565832,0.5223545,0.3117455,0.7330764
0.7233669,-0.4808382,-0.2101956,0.6788604,0.2740137,0.7382203
0.7709428,-0.5131812,-0.2060127,0.8313385,0.236418,0.7100713
0.8164314,-0.4925642,-0.2347973,0.9390049,0.1296412,0.6194677
0.8435903,-0.4843296,-0.252566,0.950465,0.1300887,0.4640481
0.8580777,-0.4460643,-0.290184,0.8532983,0.2465505,0.2920108
0.8450629,-0.3520465,-0.3007052,0.6894961,0.3808917,0.121064
0.7551627,-0.2251536,-0.2716894,0.3363164,0.4338475,-0.108222
0.6996986,-0.06731514,-0.2532793,-0.09209226,0.4468904,-0.3276541
0.6741753,0.0261384,-0.1848623,-0.3364803,0.3107072,-0.5242471
0.6178389,0.05116307,-0.1390977,-0.5030873,-0.2081932,-0.6624924
0.6293455,-0.01783024,-0.2301814,-0.7054488,-0.9385086,-0.5477068
0.7894243,-0.2885631,-0.3544644,-0.7947885,-1.415165,-0.1278102
1.040959,-0.5800469,-0.4921499,-0.5956393,-1.390125,0.4012222
1.226719,-0.6758964,-0.6222003,-0.2612941,-1.153183,0.4873652
0.5382056,-0.2194512,-0.5378392,0.5072789,-0.3214624,-0.9538465
0.5095407,-0.212728,-0.4602112,0.4589211,-0.4117327,-0.8211425
0.5132389,-0.1972648,-0.3540797,0.4582994,-0.6098533,-0.7666282
0.4962368,-0.1239361,-0.335487,0.4267161,-0.6874872,-0.7988648
0.4875095,-0.02400478,-0.3389345,0.3110854,-1.09321,-0.7492894
0.4877598,0.03625855,-0.3655226,0.2352741,-1.54013,-0.6415621
0.579982,0.07712595,-0.4903655,0.1128291,-1.872611,-0.488483
0.7564545,0.1316538,-0.6246033,-0.03224123,-1.834609,-0.3689817
0.882249,0.1227664,-0.7084961,-0.1344288,-1.344106,-0.3347079
0.9500397,0.06954995,-0.7178851,-0.104034,-0.7111193,-0.2411844
1.01058,0.05289318,-0.7543797,0.05192626,-0.09791811,-0.1538098
1.028172,0.02484878,-0.8381155,0.1491389,0.183695,-0.1498484
1.017935,-0.03182962,-0.898259,0.1585508,0.1825857,-0.1096171
1.039585,-0.1251869,-1.010532,0.1204687,-0.2346267,0.07137579
1.046906,-0.2304267,-1.190021,0.11088,-0.7712117,0.3022907
1.091008,-0.3077567,-1.332316,0.1338844,-0.3740237,0.3092012
1.142532,-0.399606,-1.227519,0.1255631,0.1819908,0.1771657
0.9834775,-0.4187123,-1.025943,0.2054325,0.2773464,0.1909197
0.7811865,-0.4036542,-1.006769,0.3779997,0.8406584,0.2835429
0.7688804,-0.4559619,-0.8894468,0.6061617,1.559996,0.4356267
0.7598194,-0.4259985,-0.7651104,0.8980443,2.12855,0.6645389
0.7029722,-0.3845886,-0.8495314,1.043104,2.778449,0.8639273
0.7953504,-0.3812439,-0.8042849,1.018349,3.078423,1.051414
0.9575353,-0.3108001,-0.6762246,1.025444,3.137576,1.081316
0.9473788,-0.2955942,-0.5513468,1.039105,2.88308,0.8572283
0.7386009,-0.268706,-0.39361,0.9406112,1.987591,0.5651189
0.4383623,-0.1589846,-0.3792155,0.7901095,1.042937,0.341249
0.2753911,-0.08171511,-0.3468469,0.6514204,0.3971545,0.3326364
0.3329158,-0.05521297,-0.2808146,0.5239848,0.1721873,0.5067016
0.3881092,-0.134495,-0.279303,0.5208709,0.4369379,0.6973205
0.4538475,-0.2377084,-0.1993243,0.5884069,0.7827615,0.8615048
0.5648429,-0.3109182,-0.1762078,0.5716339,1.109942,0.9521915
0.5976643,-0.3879159,-0.2138363,0.5009217,1.227436,1.010652
0.6231351,-0.3716302,-0.1753118,0.3974675,1.006493,1.023566
0.6209359,-0.385766,-0.1409392,0.3617093,0.7834152,0.9657821
0.5906129,-0.4770185,-0.09314845,0.4012752,0.342786,0.8142335
0.6338901,-0.5298335,-0.04466139,0.3726272,-0.3493334,0.3711458
0.6941133,-0.6468561,0.006417502,0.3245598,-0.9000738,-0.2403653
0.793165,-0.7231709,0.05588501,0.2538141,-1.40737,-0.7238376
0.9547218,-0.6096725,-0.02664181,0.1837006,-1.573254,-1.009223
1.145192,-0.5211521,-0.1585155,0.263452,-1.014144,-1.111635
1.262871,-0.5392323,-0.291007,0.4262012,-0.4402664,-1.068885
1.172096,-0.5968481,-0.5023182,0.5433475,-0.5589447,-0.6990858
1.091203,-0.7327887,-0.737798,0.561242,-1.157859,-0.1503106
1.095291,-0.8166412,-0.8742669,0.5477491,-1.570473,-0.0140812
1.027487,-0.7555499,-0.7495742,0.5602377,-1.335298,-0.1205904
1.005639,-0.675693,-0.5820918,0.4016273,-0.8607309,-0.1471017
0.9545534,-0.5602331,-0.617961,0.082355,-0.701865,-0.420403
0.8196875,-0.4191132,-0.5661548,-0.1869047,-0.6828155,-0.8096768
0.7707397,-0.4029772,-0.4865996,-0.3678194,-0.8395319,-0.9709352
0.7259156,-0.4342953,-0.5652598,-0.4243985,-1.203794,-1.102604
0.6908908,-0.3637914,-0.5737776,-0.4613158,-1.3768,-1.313542
0.7025352,-0.254938,-0.5647374,-0.5680461,-1.491036,-1.552809
0.667409,-0.1792447,-0.5531678,-0.5927591,-1.558253,-1.712776
0.6191347,-0.1500951,-0.4617088,-0.4992264,-1.445721,-1.694046
0.5523184,-0.1633321,-0.4507146,-0.3465846,-1.300858,-1.585599
0.4913381,-0.1546194,-0.4485955,-0.1724416,-0.9594119,-1.303612
0.4855021,-0.1609761,-0.4199995,0.02875723,-0.6831959,-0.9416
0.5037228,-0.1952178,-0.4453706,0.258988,-0.4607149,-0.796783
0.5336416,-0.1523775,-0.4501452,0.3456831,0.1545774,-0.7321473
0.532763,-0.05161329,-0.4461981,0.1826968,0.4182341,-0.5685373
0.5275688,0.05552105,-0.4263597,-0.02190338,-0.1735915,-0.3823389
0.5606945,0.1115481,-0.397771,-0.08020362,-0.9385448,-0.2278078
0.6351516,0.08710109,-0.4645284,-0.1688345,-1.367614,-0.0656706
0.8263496,0.04494935,-0.6437276,-0.3550237,-1.422405,0.08577255
1.070176,-0.04129962,-0.8747443,-0.4373859,-1.106463,0.1853833
1.177675,-0.1187594,-0.9933281,-0.4049392,-0.4610988,0.2220873
1.175871,-0.1587042,-0.9471034,-0.2516048,0.2102269,0.1644937
1.192282,-0.2717914,-0.9007155,-0.02569157,0.4518974,0.1139637
1.151949,-0.3437985,-0.9326561,0.07827578,-0.05491062,0.0781576
1.076558,-0.3432821,-1.096929,0.1312781,-0.6677413,0.05164203
1.133583,-0.4181037,-1.29839,0.2435213,-0.5211388,0.09015249
1.15234,-0.483043,-1.239324,0.3432788,-0.02432246,0.0703429
0.9657442,-0.4653172,-1.090609,0.4542349,0.5726771,0.1278658
0.7402789,-0.4463485,-1.04379,0.6035043,1.210398,0.3269759
0.6336474,-0.4344499,-0.8514845,0.7005726,1.395999,0.5538443
0.6691465,-0.3743942,-0.6883981,0.8190551,1.617863,0.8416756
0.7208243,-0.3079042,-0.65775,0.9514908,2.147556,0.9922921
0.7392152,-0.3000742,-0.5520409,0.9234681,2.532906,1.051143
0.7706381,-0.2896756,-0.553467,0.9046919,2.772555,1.077659
0.7702027,-0.2472403,-0.5672384,0.924898,2.764092,0.916674
0.7090642,-0.1876115,-0.4730809,0.7874498,2.539284,0.75089
0.4483016,-0.1118821,-0.3940601,0.601119,2.001031,0.6012898
0.1445355,-0.04475199,-0.2251726,0.4355289,0.9776022,0.572153
0.2176537,-0.03779318,-0.198323,0.3716924,0.3402201,0.7173308
0.3738668,-0.1474406,-0.2982747,0.4682797,0.5149952,0.7568067
0.3537312,-0.2772892,-0.2360092,0.5218864,0.8857125,0.8003946
0.451056,-0.3532339,-0.2554436,0.4580298,1.202125,0.8050064
0.5622465,-0.3979685,-0.2833675,0.3574914,1.367257,0.7044002
0.6257419,-0.4166951,-0.2047492,0.2631971,1.190468,0.6616555
0.720599,-0.445616,-0.2029504,0.178991,0.9183916,0.5714302
0.6711258,-0.4512748,-0.1389649,0.1389338,0.7368714,0.4706775
0.6877892,-0.4974502,-0.03684623,0.1259982,0.490583,0.2152937
0.7961703,-0.5518894,0.036478,0.07493688,0.1235391,-0.3194486
0.8120948,-0.4929068,0.149332,0.06597102,-0.6402434,-0.8176338
0.9703999,-0.4651451,0.1608316,0.09149375,-1.513748,-1.158312
1.128871,-0.4221945,0.08116734,0.1017614,-1.543336,-1.219438
1.21529,-0.4446616,-0.05155367,0.1445498,-0.9799054,-1.00526
1.431418,-0.7515443,-0.3245805,0.1900335,-0.6858465,-0.7292338
1.528838,-0.9695296,-0.5851657,0.2480584,-0.969776,-0.4591112
1.351045,-0.8029371,-0.6302353,0.2617752,-1.463479,-0.3179315
1.042894,-0.5855599,-0.5900822,0.1183115,-1.47034,-0.1542626
0.9056145,-0.641973,-0.6142373,-0.102787,-1.046302,0.09021046
0.9496952,-0.6436797,-0.5739092,-0.2890875,-0.6064443,0.02379799
0.8913852,-0.4679274,-0.5022539,-0.4527009,-0.6693298,-0.2367436
0.8464802,-0.4736283,-0.5254169,-0.6989924,-1.257858,-0.4631584
0.8680263,-0.4623512,-0.6286757,-0.9543729,-1.568459,-0.7262231
0.8655218,-0.4028734,-0.8124876,-1.014276,-1.462025,-0.8140483
0.8672198,-0.4090167,-0.8703775,-0.9811857,-1.046469,-0.8910095
0.8287897,-0.3041245,-0.7318258,-0.9280484,-0.6292151,-1.130408
0.7315681,-0.3000569,-0.6092488,-0.6913819,-0.7240541,-1.158681
0.5839709,-0.344016,-0.4988841,-0.3275927,-0.9862155,-1.12984
0.5094377,-0.3149811,-0.4404025,0.02826197,-1.116887,-1.137845
0.5119532,-0.3263762,-0.4752456,0.2680114,-0.9564228,-1.000896
0.4806131,-0.2751913,-0.4649019,0.3482381,-0.5752193,-0.9521877
0.4950939,-0.2449358,-0.427959,0.4674308,-0.3393095,-0.9650914
0.5103572,-0.1968538,-0.3944983,0.5281634,-0.2117368,-1.004929
0.4619382,-0.08145408,-0.3584713,0.376629,-0.5041494,-1.080855
0.4555866,-0.04819223,-0.3740573,0.2337531,-1.255048,-1.02823
0.5780478,-0.03145025,-0.4349191,0.09886713,-1.994949,-0.9529868
0.8012406,0.00298686,-0.5714334,-0.03322607,-2.346962,-0.8529737
0.9891614,0.07680267,-0.7523188,-0.1057404,-1.811607,-0.6871162
1.124741,0.1193011,-0.8557662,-0.1956611,-0.7568225,-0.4310407
1.197613,0.04964387,-0.8918393,-0.1147253,0.1871499,-0.1531752
1.126127,-0.0140744,-0.8994304,0.08532368,0.5810979,-0.1392325
1.012809,-0.09069359,-0.927871,0.1414048,0.02078823,-0.1325409
0.9620876,-0.175363,-1.000153,0.1537901,-0.2707064,0.07817012
0.9386381,-0.2757665,-0.9892201,0.1529645,0.4299716,0.3155591
0.8542626,-0.4267945,-0.950277,0.1132424,0.8517718,0.6250585
0.7171382,-0.4554632,-0.981546,0.1610698,0.8564097,0.7790593
0.7664836,-0.4314279,-0.9339197,0.3798439,1.432564,0.7308926
0.9555728,-0.5064791,-0.8439591,0.6416011,2.631158,0.8061615
1.005934,-0.4886807,-0.8171782,0.6758419,3.545217,0.8465457
0.9913328,-0.3602417,-0.7862366,0.6358624,3.727334,0.8483524
0.9375891,-0.2995566,-0.6890307,0.7332348,3.51205,0.8903858
0.7570919,-0.2691898,-0.5028218,0.7331843,2.549999,0.7287094
0.4610222,-0.2371945,-0.4179756,0.6230735,0.8906738,0.62602
0.2039586,-0.2021407,-0.4351763,0.5670568,-0.1852916,0.7964526
0.2527427,-0.1943354,-0.3050698,0.6253218,-0.1739097,0.9872428
0.4092855,-0.2817888,-0.1799091,0.8406318,0.3411666,1.058422
0.5408729,-0.3569493,-0.1917103,1.023743,0.9403307,0.9674207
0.7200662,-0.4201939,-0.2406601,0.9981961,1.410504,0.8427148
0.6953054,-0.4522702,-0.2989011,0.8038469,1.288694,0.7279718
0.6060771,-0.4116219,-0.2917143,0.6381526,0.8725044,0.6351235
0.5930623,-0.453981,-0.2259732,0.6314226,0.6421366,0.6131056
0.5537241,-0.4780165,-0.1356539,0.5839699,0.3036844,0.3381687
0.6050598,-0.4387241,-0.01714317,0.409674,0.04144535,-0.1936668
0.6601211,-0.4082989,0.07233385,0.2806988,-0.299758,-0.5812717
0.7482994,-0.3075964,0.1017355,0.2471422,-0.8353813,-0.6972235
0.9099374,-0.244623,0.03769326,0.179133,-1.063025,-0.6395289
0.9991973,-0.2231412,-0.04891717,0.06155609,-1.407522,-0.6010641
1.104908,-0.1911562,-0.09284487,0.0471988,-1.760934,-0.572325
1.230269,-0.2158576,-0.20451,0.08762451,-1.584694,-0.4990658
1.369139,-0.3340226,-0.4203985,0.1318781,-0.9308688,-0.4386604
1.474175,-0.6749838,-0.6930274,0.3097644,-0.08960575,-0.1702446
1.384547,-1.022979,-0.8171568,0.6841799,-0.1182556,0.1921085
1.177009,-1.03371,-0.57859,1.114876,-0.7188955,0.06768778
0.9501156,-0.9783628,-0.3381561,1.197862,-0.9268943,-0.4313017
0.819132,-1.023323,-0.4004598,0.8799742,-1.177673,-0.8398138
0.7674078,-0.8680389,-0.435049,0.5896003,-1.174538,-1.079328
