accx,accy,accz,gyrox,gyroy,gyroz
0.7130769230769232,1.4215384615384616,3.1184615384615384,-0.0976923076923076,-0.5846153846153845,0.3038461538461539
0.6971428571428571,1.0042857142857142,3.4314285714285715,-0.0528571428571428,-0.5471428571428572,0.3857142857142857
0.8722222222222222,1.135,2.5477777777777777,0.1261111111111111,-0.4527777777777778,0.4377777777777777
1.9546153846153846,2.7492307692307696,0.7307692307692307,0.2453846153846153,-0.2269230769230769,0.5276923076923077
2.480833333333333,3.779166666666667,-0.5241666666666667,0.2358333333333333,-0.03,0.6441666666666667
2.3415384615384616,4.12,-1.3715384615384614,0.1338461538461538,0.2276923076923077,0.9330769230769232
3.05,2.624166666666667,-1.6858333333333333,0.0499999999999999,0.4366666666666667,1.0583333333333331
2.9953846153846158,-0.0453846153846153,-2.0138461538461536,-0.0307692307692307,0.4361538461538461,0.88
2.565833333333333,-2.1241666666666665,-2.4891666666666667,-0.2208333333333333,0.3766666666666666,0.5008333333333334
2.1357142857142857,-2.702857142857144,-2.41,-0.36,0.3399999999999999,0.16
1.3216666666666665,-2.3833333333333333,-1.5894444444444444,-0.3755555555555555,0.2472222222222222,-0.2938888888888888
0.02416666666666656,-1.1016666666666668,-0.7191666666666667,-0.22,0.13,-0.6691666666666666
-0.5246153846153847,-0.0638461538461538,-0.8615384615384615,-0.1161538461538461,0.0938461538461538,-0.6653846153846155
-0.3169230769230771,0.4492307692307692,-1.1084615384615384,-0.2269230769230769,0.2046153846153846,-0.5107692307692308
0.37916666666666665,0.3891666666666666,-0.7458333333333332,-0.34,0.4108333333333333,-0.2966666666666667
1.5084615384615385,-0.6269230769230769,-0.1930769230769231,-0.2738461538461538,0.4507692307692308,-0.2869230769230769
1.1675,-1.7191666666666665,0.4908333333333334,-0.1266666666666666,0.4241666666666666,-0.3716666666666666
0.31714285714285706,-1.6942857142857142,0.8414285714285714,0.0157142857142857,0.4257142857142857,-0.37
-0.11111111111111116,-1.6866666666666663,0.7127777777777777,0.1716666666666666,0.5316666666666667,-0.3227777777777778
0.1315384615384615,-1.022307692307692,0.5861538461538461,0.2546153846153846,0.5238461538461539,-0.3492307692307692
-0.12416666666666631,-0.3441666666666667,0.94,0.34,0.3891666666666666,-0.3825
-0.17000000000000015,-0.3846153846153846,1.1976923076923076,0.44,0.3023076923076923,-0.3461538461538461
-0.4258333333333333,-0.6616666666666667,1.155,0.4308333333333333,0.3216666666666666,-0.2708333333333333
-0.003076923076922977,-0.7946153846153846,1.1630769230769231,0.3038461538461539,0.4146153846153846,-0.1907692307692307
0.3966666666666666,-0.765,1.5233333333333334,0.215,0.4691666666666667,-0.17
0.4157142857142857,-0.9285714285714286,1.741428571428571,0.1942857142857143,0.4857142857142857,-0.1671428571428571
0.43666666666666665,-1.1916666666666669,1.9916666666666667,0.2094444444444444,0.538888888888889,-0.1294444444444444
0.4769230769230769,-1.1584615384615384,2.226923076923077,0.2661538461538461,0.62,-0.0607692307692307
0.55,-0.7675000000000001,2.230833333333333,0.4341666666666666,0.7208333333333333,0.0174999999999999
0.9061538461538462,-0.1061538461538461,1.7915384615384615,0.6561538461538461,0.7738461538461539,0.0646153846153846
1.295,0.9633333333333334,0.7208333333333333,0.7591666666666667,0.7233333333333333,-0.0308333333333333
0.8007692307692308,1.8753846153846152,-0.4476923076923077,0.5392307692307692,0.6869230769230769,-0.2176923076923076
0.2516666666666666,2.395,-0.2083333333333333,0.1108333333333333,0.7958333333333334,-0.3891666666666666
0.1071428571428571,2.632857142857143,0.9528571428571428,-0.2057142857142857,0.8885714285714286,-0.4471428571428571
0.6950000000000001,2.21,2.6133333333333333,-0.4344444444444444,0.9783333333333332,-0.4316666666666666
0.9984615384615385,0.9246153846153846,3.413076923076924,-0.2776923076923077,0.8907692307692308,-0.4746153846153846
-1.2991666666666668,1.1758333333333333,1.919166666666667,0.0341666666666666,0.4516666666666666,-0.51
-3.3176923076923073,3.250769230769232,-0.5361538461538461,0.1861538461538461,-0.0246153846153846,-0.4523076923076923
-1.8525,5.291666666666667,-2.700833333333333,-0.0608333333333333,-0.4708333333333334,-0.6058333333333333
0.07384615384615378,5.43076923076923,-3.2684615384615388,-0.5084615384615385,-0.8376923076923077,-1.0007692307692309
0.8483333333333334,3.11,-2.0116666666666667,-0.7441666666666666,-0.8875000000000001,-1.1516666666666666
0.48571428571428565,0.5085714285714286,-1.3514285714285716,-0.6785714285714286,-0.8442857142857143,-1.0414285714285714
-0.37777777777777777,-2.613888888888889,-1.737777777777778,-0.5527777777777777,-0.7738888888888888,-0.705
-0.8500000000000001,-4.282307692307692,-1.6607692307692308,-0.5307692307692308,-0.5115384615384616,0.0876923076923076
0.6966666666666668,-3.6216666666666666,-0.7425,-0.4683333333333333,-0.2766666666666666,0.755
3.335,-1.6749999999999998,0.1833333333333333,-0.2525,-0.0683333333333333,1.0833333333333333
5.202307692307692,0.0753846153846154,0.4546153846153846,0.013076923076923,-0.0569230769230769,0.9353846153846154
4.265384615384616,1.18,0.0123076923076923,0.1623076923076923,-0.2069230769230769,0.5376923076923077
1.9449999999999998,1.4966666666666668,-0.6308333333333334,0.085,-0.2975,0.2766666666666666
0.07999999999999996,1.2942857142857145,-1.1871428571428573,-0.0985714285714285,-0.38,0.1671428571428571
-1.2383333333333333,-0.1249999999999999,-1.0016666666666667,-0.3488888888888889,-0.4866666666666666,0.2116666666666666
-0.616153846153846,-1.863846153846154,0.0761538461538461,-0.4192307692307692,-0.6246153846153846,0.4269230769230769
0.79,-2.3975,0.8850000000000001,-0.2608333333333333,-0.7041666666666666,0.5408333333333334
1.959230769230769,-2.0576923076923075,1.2453846153846155,-0.0453846153846153,-0.6523076923076924,0.5823076923076923
3.056666666666666,-1.3416666666666668,1.2141666666666666,0.1591666666666666,-0.5608333333333334,0.5358333333333333
3.4992307692307696,-0.8715384615384616,0.9146153846153846,0.24,-0.5292307692307693,0.3130769230769231
2.6909090909090914,-0.4872727272727273,0.7672727272727272,0.1918181818181818,-0.4818181818181818,0.1772727272727272
2.325,-0.4575,0.735,0.11625,-0.46875,0.125
1.895,-0.8155555555555556,0.9194444444444444,0.0138888888888888,-0.4666666666666667,0.0705555555555555
1.9346153846153846,-1.396923076923077,1.4284615384615384,-0.02,-0.4207692307692307,-0.0138461538461538
1.9033333333333333,-1.5516666666666667,1.7733333333333334,0.07,-0.3791666666666666,-0.1058333333333333
1.8276923076923077,-1.6376923076923076,1.9230769230769231,0.2276923076923077,-0.3061538461538461,-0.1715384615384615
1.7875,-1.385,1.88,0.3825,-0.2133333333333333,-0.2183333333333333
1.68,-0.4846153846153846,1.5307692307692309,0.4792307692307692,-0.1446153846153846,-0.21
1.2841666666666667,0.5975,1.2775,0.4941666666666666,-0.1525,-0.1158333333333333
0.7092307692307692,1.4884615384615385,1.3976923076923078,0.4423076923076923,-0.1884615384615384,0.0407692307692307
0.3633333333333333,1.8908333333333327,1.5133333333333334,0.3591666666666667,-0.1908333333333333,0.1949999999999999
0.41153846153846163,1.9523076923076923,1.26,0.21,-0.26,0.2753846153846154
0.54,2.0441666666666665,1.495,0.0141666666666666,-0.4491666666666667,0.2866666666666667
0.30846153846153845,2.103076923076923,2.308461538461539,-0.1861538461538461,-0.6407692307692308,0.2953846153846153
-0.035833333333333384,1.5133333333333334,3.2225,-0.3425,-0.7208333333333333,0.3441666666666667
0.6123076923076924,0.2807692307692307,4.119999999999999,-0.3676923076923077,-0.7446153846153846,0.4138461538461538
2.09,-0.4308333333333333,4.589166666666666,-0.1391666666666666,-0.7324999999999999,0.3983333333333334
2.4246153846153846,0.4446153846153846,3.378461538461538,0.2530769230769231,-0.7053846153846154,0.2630769230769231
2.256666666666667,1.885,1.245,0.5833333333333334,-0.5291666666666667,0.3041666666666666
2.3209090909090913,2.689090909090909,-1.370909090909091,0.7763636363636365,-0.3318181818181818,0.4354545454545455
1.7971428571428572,3.117857142857143,-3.355,0.7557142857142857,-0.0285714285714285,0.7871428571428571
2.253846153846154,1.9284615384615384,-3.8830769230769233,0.5353846153846153,0.2030769230769231,1.0746153846153847
2.1516666666666664,0.0699999999999999,-3.7283333333333335,0.2358333333333333,0.29,1.0041666666666669
1.3738461538461537,-1.1484615384615384,-3.3246153846153845,-0.0615384615384615,0.2284615384615384,0.7523076923076922
0.6216666666666667,-1.14,-2.6041666666666665,-0.3274999999999999,0.145,0.3916666666666666
0.5985714285714285,-0.3328571428571428,-1.842857142857143,-0.4142857142857142,0.08,0.0257142857142857
1.0066666666666666,0.5494444444444445,-1.395,-0.4972222222222222,0.0888888888888888,-0.4383333333333333
2.003846153846154,0.4746153846153846,-1.05,-0.6923076923076923,0.113076923076923,-0.8099999999999999
2.0791666666666666,0.3833333333333333,0.0583333333333333,-0.7083333333333334,0.265,-0.815
2.59,0.3484615384615385,0.6784615384615384,-0.5153846153846154,0.4246153846153845,-0.7707692307692308
2.4625,-0.6825000000000001,0.5183333333333333,-0.2691666666666666,0.5858333333333333,-0.8258333333333333
0.8492307692307692,-1.3984615384615384,-0.283076923076923,-0.2392307692307692,0.7661538461538461,-0.7923076923076924
-0.8525,-1.2858333333333334,-0.3191666666666666,-0.295,0.8641666666666666,-0.6549999999999999
-1.077142857142857,-1.37,-0.2242857142857142,-0.3242857142857143,0.9428571428571428,-0.5328571428571429
0.0377777777777778,-1.4200000000000002,0.4011111111111111,-0.2433333333333333,0.97,-0.5216666666666667
0.6600000000000001,-1.4307692307692306,0.9176923076923076,-0.0676923076923076,0.8276923076923077,-0.5723076923076923
0.0641666666666666,-1.7125,0.7966666666666667,0.0408333333333333,0.7725,-0.5233333333333333
-0.5815384615384611,-1.8184615384615384,0.696923076923077,0.0707692307692307,0.7507692307692307,-0.3784615384615384
-0.7,-1.4541666666666666,0.8541666666666666,0.0725,0.7041666666666666,-0.2491666666666666
-0.7323076923076923,-1.096923076923077,0.9684615384615384,0.0676923076923077,0.5984615384615385,-0.183076923076923
-1.1427272727272726,-1.09,1.1645454545454546,0.0845454545454545,0.5145454545454545,-0.0736363636363636
-1.19375,-1.13125,1.38375,0.13625,0.45375,0.04
-0.8688888888888888,-0.8338888888888889,1.515,0.2249999999999999,0.3666666666666666,0.1905555555555555
0.29384615384615387,-0.1846153846153846,1.6176923076923078,0.2523076923076923,0.3423076923076923,0.2661538461538462
1.3766666666666667,0.2608333333333333,1.8741666666666668,0.245,0.3708333333333333,0.135
1.8900000000000001,0.6966666666666667,2.0075,0.3075,0.3983333333333334,-0.0558333333333333
1.746923076923077,0.9392307692307692,1.6953846153846153,0.353076923076923,0.4453846153846154,-0.2461538461538461
1.1438461538461537,0.8507692307692308,1.3884615384615384,0.3069230769230769,0.5430769230769231,-0.3038461538461539
0.7766666666666667,0.7158333333333333,1.2966666666666666,0.2275,0.6491666666666667,-0.2466666666666666
0.6228571428571429,0.8528571428571429,1.31,0.1471428571428571,0.74,-0.1914285714285714
0.69,1.316111111111111,1.762222222222222,0.0177777777777777,0.8266666666666667,-0.1711111111111111
0.7776923076923077,1.813076923076923,2.7823076923076924,-0.0738461538461538,0.8507692307692308,-0.22
0.7966666666666666,1.4800000000000002,3.4025,-0.0191666666666666,0.8316666666666667,-0.3275
0.6166666666666667,1.0225,3.3008333333333333,0.2308333333333333,0.7291666666666666,-0.4441666666666666
0.2153846153846154,1.8784615384615384,1.3492307692307692,0.5261538461538462,0.58,-0.5007692307692307
-0.007500000000000062,3.965,-1.9208333333333327,0.4883333333333333,0.3025,-0.6408333333333333
0.06615384615384601,5.450000000000001,-4.456153846153846,0.1176923076923077,0.02,-0.8907692307692308
-0.034285714285714475,4.507142857142857,-4.714285714285714,-0.2785714285714286,-0.1699999999999999,-1.0
-0.13944444444444448,0.8844444444444445,-3.207777777777778,-0.5738888888888889,-0.2522222222222222,-0.8572222222222222
-0.2649999999999999,-2.2433333333333336,-1.5558333333333334,-0.6275000000000001,-0.2333333333333333,-0.54
-0.32000000000000006,-2.946923076923077,-0.6799999999999999,-0.5753846153846154,-0.18,-0.093076923076923
0.09615384615384603,-2.21,0.1246153846153846,-0.3830769230769231,-0.1561538461538461,0.3638461538461539
0.9058333333333334,-0.9233333333333332,-0.035,-0.1491666666666666,-0.1566666666666666,0.7158333333333333
1.8815384615384616,0.2607692307692307,-0.89,-0.1061538461538461,-0.2476923076923077,0.7861538461538462
2.0733333333333333,0.6541666666666667,-1.086666666666667,-0.1775,-0.4016666666666666,0.5941666666666666
1.447142857142857,0.2328571428571428,-0.9457142857142856,-0.2271428571428571,-0.43,0.4585714285714286
0.9505555555555556,-0.5955555555555556,-0.6444444444444444,-0.2622222222222222,-0.4788888888888888,0.3583333333333333
0.42846153846153845,-1.713076923076923,-0.5069230769230769,-0.2723076923076923,-0.6030769230769231,0.3515384615384616
0.23833333333333329,-2.4483333333333337,-0.1066666666666666,-0.2333333333333333,-0.6691666666666666,0.51
0.79,-2.4007692307692308,0.1353846153846153,-0.1592307692307692,-0.7007692307692307,0.6561538461538461
1.7908333333333335,-1.3433333333333335,0.5291666666666667,-0.0291666666666666,-0.6233333333333334,0.6774999999999999
2.043846153846154,-0.5623076923076924,0.5869230769230769,0.1053846153846154,-0.5969230769230769,0.59
1.725,-0.4441666666666666,0.8941666666666667,0.235,-0.6066666666666666,0.4291666666666667
0.9528571428571428,-0.5357142857142857,1.1528571428571428,0.2528571428571428,-0.64,0.3428571428571428
0.6077777777777778,-0.7105555555555555,1.346111111111111,0.195,-0.635,0.3083333333333333
1.1753846153846155,-0.9353846153846154,1.49,0.0946153846153846,-0.6492307692307692,0.3
2.206666666666667,-1.0566666666666666,1.46,0.0233333333333333,-0.61,0.2058333333333333
2.703846153846154,-0.9230769230769232,1.4684615384615385,-0.0146153846153846,-0.5323076923076923,0.0992307692307692
3.0041666666666664,-0.95,1.63,0.0516666666666666,-0.485,-0.0125
2.913846153846153,-1.2961538461538462,1.6615384615384614,0.1815384615384615,-0.3938461538461538,-0.1592307692307692
2.2816666666666663,-1.3033333333333337,1.4891666666666667,0.2558333333333333,-0.2841666666666667,-0.2641666666666666
1.772857142857143,-0.8085714285714286,1.5585714285714285,0.31,-0.2171428571428571,-0.2628571428571428
1.3922222222222222,0.3299999999999999,1.765,0.4288888888888889,-0.1922222222222222,-0.1283333333333333
1.1408333333333334,1.6183333333333334,1.4750000000000003,0.5499999999999999,-0.1891666666666666,0.0333333333333333
0.8661538461538462,2.167692307692308,0.7638461538461538,0.52,-0.1692307692307692,0.0738461538461538
0.31307692307692314,2.455384615384616,0.5561538461538462,0.2492307692307692,-0.273076923076923,0.1361538461538461
-0.046666666666666634,2.7183333333333333,1.6958333333333335,-0.0775,-0.4608333333333334,0.2658333333333333
-0.13769230769230778,2.2646153846153845,3.204615384615385,-0.2592307692307692,-0.5907692307692307,0.413076923076923
0.31999999999999995,1.0133333333333334,3.981666666666667,-0.3208333333333333,-0.6716666666666667,0.4491666666666666
0.9514285714285715,-0.09,4.281428571428572,-0.2085714285714285,-0.6742857142857144,0.4771428571428571
1.5122222222222224,0.2988888888888888,3.4188888888888886,0.1261111111111111,-0.6305555555555555,0.3972222222222222
2.3761538461538465,2.183846153846154,1.3323076923076924,0.4923076923076923,-0.4261538461538461,0.3669230769230769
2.418333333333333,3.089166666666667,-1.2283333333333333,0.715,-0.1758333333333333,0.4608333333333334
1.9071428571428573,3.9,-3.329285714285714,0.705,0.1414285714285714,0.8464285714285714
1.8772727272727274,3.049090909090909,-4.127272727272727,0.4681818181818182,0.349090909090909,1.1536363636363636
1.6353846153846154,0.4515384615384615,-4.008461538461538,0.1707692307692307,0.4330769230769231,1.1092307692307692
1.0866666666666667,-1.8983333333333328,-3.481666666666667,-0.1374999999999999,0.3141666666666666,0.8316666666666667
0.5911111111111111,-2.645555555555556,-2.73,-0.3822222222222222,0.2033333333333333,0.4555555555555555
0.22750000000000004,-1.920625,-1.573125,-0.4975,0.0525,-0.108125
-0.22999999999999998,-0.5461538461538462,-0.7961538461538461,-0.4753846153846153,-0.0069230769230769,-0.6207692307692307
0.37916666666666665,0.0991666666666666,-0.6083333333333333,-0.4891666666666667,0.0266666666666666,-0.7491666666666666
1.26,0.9176923076923076,-0.4369230769230769,-0.5753846153846154,0.15,-0.7223076923076923
2.3466666666666667,1.5066666666666666,-0.3208333333333333,-0.6124999999999999,0.3875,-0.5975
2.690769230769231,0.2730769230769231,-0.2623076923076923,-0.53,0.4776923076923077,-0.6215384615384616
0.9541666666666667,-1.2466666666666666,-0.0558333333333333,-0.4308333333333333,0.5266666666666667,-0.585
-0.9614285714285715,-1.26,0.2657142857142857,-0.3999999999999999,0.6057142857142858,-0.4957142857142857
-1.5194444444444444,-1.213888888888889,0.7288888888888888,-0.2916666666666667,0.6627777777777778,-0.4133333333333333
-0.81,-1.583846153846154,1.1953846153846153,-0.003076923076923,0.5223076923076924,-0.4530769230769231
-0.4908333333333337,-1.5508333333333333,1.1283333333333334,0.165,0.3316666666666666,-0.4641666666666666
-0.3192307692307692,-1.4207692307692308,1.0323076923076924,0.1930769230769231,0.32,-0.3946153846153846
0.16333333333333344,-1.3333333333333333,1.0291666666666666,0.1175,0.3658333333333333,-0.3283333333333333
0.2284615384615385,-1.0138461538461538,1.3707692307692307,0.0723076923076923,0.3776923076923077,-0.2792307692307693
0.43499999999999994,-1.2675,1.4533333333333331,0.0474999999999999,0.3566666666666666,-0.2808333333333333
0.17142857142857149,-1.65,1.4728571428571429,0.03,0.35,-0.27
-0.17388888888888898,-1.7761111111111112,1.7105555555555556,0.0511111111111111,0.3305555555555555,-0.1866666666666666
-0.5684615384615386,-0.9607692307692308,1.9384615384615385,0.1076923076923076,0.3176923076923076,-0.0384615384615384
-0.37249999999999983,0.24,1.9675,0.1475,0.4325,0.1033333333333333
0.6775,0.815,1.79,0.1783333333333333,0.4408333333333333,0.1383333333333333
1.5684615384615386,0.9084615384615384,1.593846153846154,0.1446153846153846,0.4153846153846153,0.0169230769230769
1.666923076923077,1.103846153846154,1.7561538461538464,0.0546153846153846,0.4715384615384615,-0.1584615384615384
1.3599999999999999,1.2483333333333333,1.8758333333333328,-0.0433333333333333,0.5408333333333334,-0.2825
0.9171428571428573,1.417142857142857,2.1157142857142857,-0.1042857142857142,0.56,-0.3171428571428571
0.2105555555555556,1.4383333333333337,2.48,-0.1605555555555555,0.5894444444444444,-0.3305555555555555
-0.17384615384615376,1.1623076923076925,2.9007692307692308,-0.18,0.61,-0.3415384615384615
-0.23083333333333322,1.2191666666666665,2.9933333333333336,-0.1033333333333333,0.5733333333333334,-0.3741666666666667
-0.41384615384615375,1.8146153846153843,2.38,0.1553846153846154,0.4692307692307692,-0.4323076923076923
-0.4908333333333337,3.07,0.6966666666666667,0.4308333333333333,0.2108333333333333,-0.5666666666666667
-0.3023076923076924,3.833076923076923,-1.8946153846153848,0.4015384615384615,0.0276923076923076,-0.7630769230769231
0.35083333333333333,3.355,-3.8683333333333336,0.1041666666666666,-0.1025,-0.8666666666666667
0.6000000000000001,1.96875,-4.1225000000000005,-0.15375,-0.17875,-0.80125
0.6311764705882354,-0.326470588235294,-3.436470588235294,-0.3723529411764706,-0.2047058823529411,-0.5388235294117647
0.84,-1.8692307692307693,-2.316153846153846,-0.5,-0.2492307692307692,-0.2623076923076923
0.24750000000000005,-1.3233333333333337,-1.1416666666666668,-0.4383333333333333,-0.1525,0.0825
-0.016153846153846185,-0.1692307692307692,-0.546923076923077,-0.3469230769230769,-0.1684615384615384,0.5238461538461539
0.7566666666666667,0.8575,-0.6791666666666667,-0.3458333333333334,-0.2833333333333333,0.805
1.6384615384615384,0.8853846153846153,-0.8284615384615385,-0.3446153846153846,-0.39,0.7646153846153846
1.6133333333333333,-0.1591666666666666,-1.0058333333333334,-0.3483333333333333,-0.4708333333333334,0.6749999999999999
1.9514285714285715,-0.5557142857142857,-0.5414285714285715,-0.3157142857142857,-0.42,0.5771428571428572
1.135,-1.4005555555555556,-0.4722222222222222,-0.3083333333333333,-0.6477777777777778,0.3294444444444444
-0.20428571428571418,-2.9114285714285715,0.2371428571428571,-0.1885714285714285,-0.7707142857142858,0.4207142857142857
0.7145454545454546,-2.778181818181818,0.7227272727272728,0.05,-0.7209090909090908,0.6045454545454545
2.2046153846153844,-1.8292307692307688,0.6538461538461539,0.1776923076923077,-0.7092307692307691,0.5923076923076922
2.9083333333333328,-0.9425,0.315,0.1991666666666667,-0.6575000000000001,0.5
3.109230769230769,-0.7453846153846153,0.273076923076923,0.1815384615384615,-0.6069230769230769,0.3207692307692307
2.3583333333333334,-1.044166666666667,0.4191666666666666,0.1308333333333333,-0.605,0.1566666666666666
1.7542857142857144,-1.2142857142857142,0.6585714285714286,0.0699999999999999,-0.5514285714285715,0.0699999999999999
1.4483333333333333,-1.2638888888888888,1.2466666666666666,0.0583333333333333,-0.4911111111111111,-0.0183333333333333
1.3884615384615384,-1.6084615384615384,1.4346153846153844,0.1384615384615384,-0.4269230769230769,-0.0623076923076923
1.8733333333333335,-1.825,1.4241666666666666,0.3066666666666667,-0.3775,-0.0983333333333333
2.1846153846153844,-1.716153846153846,1.3046153846153847,0.42,-0.2853846153846154,-0.1923076923076923
2.0616666666666665,-0.93,1.2891666666666668,0.4483333333333333,-0.2208333333333333,-0.2775
1.38,0.2907692307692308,1.389230769230769,0.4538461538461539,-0.1853846153846154,-0.2484615384615384
0.8058333333333334,1.4174999999999998,1.5625,0.4558333333333333,-0.13,-0.09
0.8014285714285714,1.9285714285714288,1.5471428571428572,0.47,-0.1,0.0642857142857143
0.9227777777777778,1.825,1.133888888888889,0.4127777777777777,-0.145,0.1638888888888889
0.6407692307692308,1.6538461538461535,0.7923076923076924,0.2207692307692307,-0.2338461538461538,0.1615384615384615
0.26916666666666667,1.8333333333333333,1.3983333333333334,0.0275,-0.3675,0.1525
0.13769230769230767,2.1607692307692306,2.566923076923077,-0.1115384615384615,-0.49,0.2538461538461538
0.6325000000000001,1.7166666666666668,3.52,-0.165,-0.5125000000000001,0.3658333333333333
1.5215384615384615,0.5761538461538461,3.938461538461538,-0.0438461538461538,-0.4738461538461538,0.4223076923076923
1.8375,0.4225,3.2825,0.2558333333333333,-0.4483333333333333,0.4016666666666666
1.991428571428571,1.56,1.985714285714285,0.4057142857142857,-0.3185714285714285,0.4228571428571429
2.5811111111111114,2.388888888888889,0.2233333333333333,0.4327777777777777,-0.1505555555555555,0.4516666666666666
2.1984615384615385,2.6115384615384616,-1.5015384615384617,0.3323076923076923,0.1192307692307692,0.6453846153846154
2.411666666666667,2.1533333333333333,-2.105,0.3175,0.2791666666666667,0.8266666666666667
1.97,0.4578571428571428,-2.611428571428572,0.2792857142857143,0.2871428571428571,0.8314285714285715
0.9218181818181819,-1.2972727272727271,-2.900909090909091,0.1263636363636363,0.2,0.7045454545454546
-0.1528571428571428,-2.079285714285714,-2.6785714285714284,-0.09,0.0892857142857142,0.4314285714285714
-1.063636363636364,-1.5663636363636364,-1.7872727272727271,-0.2690909090909091,-0.0736363636363636,0.13
-0.8664285714285715,-0.1557142857142857,-0.7635714285714286,-0.3242857142857143,-0.1557142857142857,-0.1335714285714286
0.270909090909091,0.8281818181818181,-0.4145454545454545,-0.3163636363636363,-0.1436363636363636,-0.2963636363636363
1.8323076923076922,0.8738461538461538,-0.5338461538461539,-0.41,-0.1653846153846153,-0.4538461538461538
2.3449999999999998,1.225833333333333,-0.1975,-0.4775,0.0349999999999999,-0.4216666666666666
3.0576923076923075,0.7900000000000001,-0.2792307692307692,-0.49,0.1276923076923077,-0.4953846153846154
2.2583333333333333,-0.3783333333333333,-0.0341666666666666,-0.46,0.2033333333333333,-0.5633333333333334
0.23642857142857143,-0.8871428571428571,0.722857142857143,-0.4185714285714286,0.325,-0.5357142857142857
-0.6190909090909089,-1.2754545454545454,1.171818181818182,-0.2945454545454545,0.4009090909090909,-0.49
-0.55,-1.6063636363636364,1.3718181818181818,-0.13,0.4181818181818181,-0.4845454545454545
-0.20500000000000007,-1.522857142857143,1.3457142857142856,0.075,0.3321428571428572,-0.47
-0.030714285714285694,-1.2107142857142856,1.1264285714285711,0.2257142857142857,0.3035714285714285,-0.4114285714285714
0.22818181818181815,-1.1918181818181817,1.0254545454545456,0.22,0.3518181818181818,-0.3409090909090909
0.32692307692307687,-0.9823076923076924,1.333846153846154,0.1869230769230769,0.4023076923076923,-0.26
0.6883333333333332,-0.905,1.3833333333333335,0.1175,0.4341666666666666,-0.2583333333333333
0.40692307692307694,-1.1346153846153846,1.43,0.0361538461538461,0.4615384615384615,-0.2692307692307692
-0.054166666666666696,-1.4391666666666667,1.6983333333333333,0.0425,0.455,-0.21
-0.5115384615384615,-1.4715384615384617,2.023846153846154,0.1407692307692307,0.4161538461538461,-0.0807692307692307
-0.5425000000000002,-1.0516666666666667,2.15,0.3008333333333333,0.4475,0.0691666666666666
0.19428571428571428,-0.2157142857142857,1.6714285714285713,0.4035714285714286,0.4885714285714285,0.1428571428571428
0.9318181818181819,0.6118181818181818,1.1727272727272726,0.3290909090909091,0.5436363636363637,0.0981818181818181
1.4378571428571427,1.262857142857143,1.2764285714285717,0.2514285714285714,0.5864285714285714,-0.0471428571428571
1.549090909090909,1.6663636363636365,1.3336363636363635,0.2045454545454545,0.5736363636363636,-0.1972727272727272
1.1238461538461537,1.7215384615384617,1.2892307692307694,0.1061538461538461,0.5784615384615385,-0.2976923076923077
0.39916666666666667,1.5375,1.6391666666666664,-0.0391666666666666,0.66,-0.3366666666666666
0.10333333333333328,1.4522222222222223,2.362222222222222,-0.1733333333333333,0.7477777777777779,-0.35
0.426875,1.471875,3.2975,-0.2275,0.7681250000000001,-0.368125
0.5653846153846154,1.5092307692307694,3.688461538461538,-0.0815384615384615,0.7153846153846153,-0.4423076923076923
-0.022499999999999964,1.9083333333333328,2.87,0.1841666666666666,0.6175,-0.5016666666666666
-0.9507692307692308,2.856923076923077,1.1676923076923076,0.4069230769230769,0.3969230769230769,-0.5476923076923077
-1.4849999999999999,3.5766666666666667,-1.1358333333333333,0.4675,0.1875,-0.5816666666666667
-0.2730769230769232,3.2884615384615383,-3.5176923076923075,0.3123076923076923,0.0584615384615384,-0.6423076923076922
1.0966666666666667,1.8716666666666668,-4.178333333333334,0.0441666666666666,-0.0391666666666666,-0.6991666666666667
1.2414285714285713,0.2542857142857143,-3.6757142857142857,-0.1385714285714285,-0.0628571428571428,-0.6185714285714285
1.38,-1.531111111111111,-2.807777777777778,-0.3766666666666667,-0.12,-0.4577777777777778
1.1138461538461537,-1.5884615384615384,-1.1284615384615384,-0.5069230769230769,-0.0092307692307692,-0.1353846153846153
0.5983333333333334,-0.1541666666666666,-0.0925,-0.4183333333333333,0.015,0.2866666666666667
0.52,1.1876923076923076,-0.4884615384615384,-0.44,-0.0284615384615384,0.7453846153846153
1.4633333333333334,1.3875000000000002,-1.2083333333333333,-0.555,-0.0833333333333333,0.8991666666666668
1.9646153846153847,0.38,-1.4007692307692308,-0.6369230769230769,-0.1769230769230769,0.6984615384615385
1.1908333333333334,-0.9875,-0.8691666666666666,-0.6566666666666667,-0.2658333333333333,0.5
0.6792857142857143,-2.271428571428572,0.1342857142857142,-0.5564285714285714,-0.3657142857142857,0.4164285714285714
0.5681818181818181,-3.1990909090909088,0.7472727272727273,-0.3790909090909091,-0.5181818181818182,0.3763636363636363
0.8053846153846154,-3.3530769230769226,1.0307692307692309,-0.1492307692307692,-0.5323076923076923,0.42
1.53,-2.7716666666666665,1.1058333333333332,0.0325,-0.52,0.4524999999999999
2.1338461538461537,-1.6546153846153844,1.1730769230769231,0.1876923076923076,-0.4569230769230769,0.4330769230769231
2.5841666666666665,-0.81,0.9675,0.2666666666666666,-0.3583333333333333,0.3791666666666666
2.6292307692307695,-0.3976923076923077,0.9515384615384616,0.31,-0.3092307692307692,0.2107692307692308
2.2024999999999997,-0.1591666666666666,1.0233333333333334,0.31,-0.2708333333333333,0.0916666666666666
1.9557142857142855,-0.1014285714285714,0.97,0.2471428571428571,-0.29,0.0371428571428571
1.6566666666666667,-0.42,1.0644444444444443,0.1094444444444444,-0.2905555555555555,0.0277777777777777
1.5392307692307692,-1.106923076923077,1.3276923076923075,0.0584615384615384,-0.3192307692307692,-0.0061538461538461
1.1491666666666667,-1.545,1.5791666666666666,0.21,-0.4225,-0.07
0.7230769230769232,-1.5861538461538462,1.5799999999999998,0.4038461538461538,-0.4792307692307692,-0.1923076923076923
0.14,-1.0391666666666668,1.4508333333333334,0.4783333333333333,-0.5,-0.2675
-0.253076923076923,0.0807692307692307,1.4,0.4176923076923077,-0.5876923076923076,-0.1915384615384615
-0.10833333333333339,1.275,1.65,0.3625,-0.6875,-0.0008333333333333
0.4214285714285715,1.9442857142857144,1.61,0.32,-0.6928571428571428,0.1471428571428571
1.381111111111111,2.045,1.1955555555555557,0.1688888888888889,-0.6988888888888888,0.2594444444444444
1.9138461538461538,1.6338461538461535,1.2223076923076923,-0.0315384615384615,-0.7392307692307691,0.2630769230769231
1.5533333333333332,1.4400000000000002,2.2025,-0.1333333333333333,-0.75,0.2241666666666666
1.0515384615384615,1.613846153846154,3.704615384615385,-0.1676923076923077,-0.7707692307692308,0.2699999999999999
0.735,1.5558333333333334,4.880833333333333,-0.1316666666666666,-0.7983333333333333,0.3466666666666667
0.97,0.7907692307692307,5.087692307692308,0.0269230769230769,-0.7215384615384616,0.4776923076923077
1.9541666666666666,0.1833333333333333,3.5666666666666664,0.3141666666666666,-0.615,0.4991666666666667
2.444285714285714,0.7071428571428572,1.7971428571428572,0.4757142857142857,-0.59,0.4257142857142857
2.3494444444444444,1.992777777777778,-0.175,0.5866666666666667,-0.515,0.3755555555555555
1.7042857142857142,2.8242857142857143,-2.3428571428571425,0.6421428571428571,-0.18,0.5357142857142857
1.2127272727272727,2.685454545454545,-3.453636363636364,0.5972727272727273,0.0472727272727272,0.8681818181818183
1.2164285714285714,1.4278571428571427,-4.0842857142857145,0.3271428571428571,0.1742857142857143,1.0164285714285717
1.4718181818181817,-0.0727272727272727,-3.9527272727272726,-0.01,0.2363636363636363,0.8972727272727272
1.6815384615384614,-0.8853846153846153,-3.457692307692308,-0.3984615384615384,0.2215384615384615,0.5676923076923077
1.685,-0.4858333333333333,-2.1733333333333333,-0.6858333333333334,0.2425,0.125
2.12,0.0585714285714285,-1.4728571428571429,-0.8014285714285715,0.2928571428571428,-0.2642857142857143
2.7216666666666667,-0.1111111111111111,-1.1772222222222224,-0.8983333333333334,0.3533333333333333,-0.675
2.1878571428571427,-0.3535714285714286,-0.0185714285714285,-0.8578571428571429,0.4821428571428571,-0.7921428571428571
2.2609090909090908,-0.3309090909090909,0.868181818181818,-0.7072727272727273,0.6427272727272727,-0.6963636363636364
2.3883333333333336,-1.4241666666666666,1.1333333333333333,-0.4833333333333333,0.68,-0.7866666666666666
0.7046153846153846,-2.028461538461538,1.1223076923076922,-0.2053846153846154,0.7415384615384616,-0.8246153846153845
-1.5953846153846154,-1.8061538461538464,0.8607692307692307,0.0123076923076923,0.7930769230769231,-0.7061538461538461
-2.3241666666666667,-1.5358333333333334,0.5883333333333334,0.1075,0.7691666666666667,-0.5141666666666667
-1.7414285714285715,-1.1357142857142857,0.6799999999999999,0.1685714285714285,0.74,-0.4028571428571428
-0.5766666666666669,-0.6499999999999999,0.8344444444444444,0.2411111111111111,0.6444444444444444,-0.3222222222222222
0.28214285714285714,-0.7357142857142857,0.8892857142857142,0.2521428571428571,0.5392857142857144,-0.3271428571428571
0.5590909090909092,-0.83,0.9754545454545456,0.1945454545454545,0.5081818181818182,-0.3036363636363636
0.7715384615384616,-0.8730769230769231,0.9746153846153848,0.1038461538461538,0.4823076923076922,-0.3376923076923077
0.5875,-1.1958333333333333,0.9841666666666667,0.0083333333333333,0.4866666666666666,-0.3658333333333333
0.07461538461538442,-1.756153846153846,1.4792307692307691,0.0261538461538461,0.49,-0.3223076923076923
-0.6941666666666666,-1.9175,1.9883333333333333,0.1983333333333333,0.4341666666666666,-0.1683333333333333
-1.0685714285714285,-1.562857142857143,2.005714285714286,0.3214285714285714,0.4385714285714285,0.0185714285714285
-0.19500000000000006,-0.6944444444444444,2.03,0.3955555555555555,0.5327777777777778,0.1261111111111111
0.8941666666666667,0.5558333333333333,1.79,0.4375,0.58,0.0808333333333333
1.1715384615384614,1.2607692307692309,1.4376923076923078,0.3938461538461538,0.5753846153846154,-0.053076923076923
1.0207142857142857,1.4392857142857145,1.0942857142857143,0.2828571428571428,0.585,-0.1914285714285714
0.7518181818181819,1.1045454545454545,1.0581818181818183,0.1381818181818181,0.5854545454545454,-0.239090909090909
0.5723076923076924,0.8061538461538462,1.580769230769231,0.023076923076923,0.5746153846153846,-0.2176923076923076
0.5725,1.0841666666666667,2.6566666666666667,-0.0841666666666666,0.6341666666666667,-0.2241666666666666
0.6971428571428571,1.4785714285714284,3.5785714285714287,-0.1028571428571428,0.687142857142857,-0.2514285714285714
0.8072222222222222,1.745,3.960555555555555,0.0233333333333333,0.6394444444444445,-0.365
-0.004285714285714226,2.376428571428572,2.8185714285714285,0.3842857142857143,0.5235714285714286,-0.4892857142857142
-0.6754545454545455,3.555454545454545,0.4536363636363636,0.5390909090909092,0.3163636363636363,-0.5427272727272728
-1.0876923076923082,4.568461538461539,-2.1546153846153846,0.4353846153846153,0.0784615384615384,-0.6476923076923077
-0.11499999999999999,4.598333333333334,-4.476666666666667,0.0841666666666666,-0.1008333333333333,-0.7858333333333333
0.8571428571428572,2.347857142857143,-4.525,-0.3357142857142857,-0.2342857142857143,-0.8264285714285714
0.5045454545454545,-0.7036363636363636,-3.3345454545454545,-0.56,-0.3218181818181818,-0.63
0.2942857142857144,-2.3657142857142857,-2.544285714285714,-0.6528571428571429,-0.33,-0.4228571428571429
0.25055555555555553,-2.687222222222222,-0.835,-0.6522222222222223,-0.1672222222222222,-0.0455555555555555
0.4161538461538461,-1.1684615384615384,0.7607692307692309,-0.3253846153846153,-0.0907692307692307,0.5053846153846154
0.5933333333333333,0.2375,-0.0575,-0.095,-0.205,0.925
1.666923076923077,0.9230769230769232,-1.0646153846153843,-0.1061538461538461,-0.2769230769230769,0.9730769230769232
2.208333333333333,0.6216666666666667,-1.3708333333333331,-0.1866666666666666,-0.3616666666666666,0.6983333333333334
1.546153846153846,-0.35,-1.0084615384615383,-0.2630769230769231,-0.4769230769230769,0.4492307692307692
0.8600000000000001,-1.8241666666666667,-0.5583333333333333,-0.3025,-0.5975,0.3475
0.35571428571428576,-2.932857142857143,-0.2314285714285714,-0.2928571428571428,-0.6828571428571429,0.3628571428571429
0.4211111111111111,-3.635,0.4027777777777778,-0.1283333333333333,-0.7444444444444445,0.5055555555555555
1.3707692307692307,-2.6061538461538465,0.9476923076923076,0.1769230769230769,-0.7315384615384615,0.6030769230769231
2.7575000000000003,-0.95,0.6525,0.2825,-0.6141666666666666,0.5725
3.3535714285714286,0.0699999999999999,0.5592857142857143,0.3321428571428572,-0.5757142857142856,0.3228571428571429
2.219090909090909,0.0436363636363636,0.3827272727272727,0.2663636363636363,-0.5227272727272727,0.1727272727272727
1.44,-0.1807692307692307,0.53,0.0846153846153846,-0.483076923076923,0.1184615384615384
1.1275,-0.6491666666666667,0.7733333333333333,-0.1466666666666666,-0.4608333333333334,0.125
1.3071428571428572,-1.16,1.07,-0.2414285714285714,-0.4114285714285714,0.1442857142857143
1.8155555555555556,-1.646111111111111,1.4605555555555556,-0.1727777777777777,-0.3844444444444444,0.0905555555555555
2.212142857142857,-1.8635714285714289,1.9335714285714285,0.0928571428571428,-0.3714285714285714,-0.08
2.018181818181818,-1.608181818181818,2.0872727272727274,0.2536363636363636,-0.3190909090909091,-0.2063636363636363
1.3646153846153846,-0.81,2.2123076923076925,0.3392307692307692,-0.3192307692307692,-0.223076923076923
0.56,0.5525000000000001,2.2958333333333334,0.4383333333333333,-0.3075,-0.0708333333333333
0.41142857142857137,1.8292857142857144,1.9921428571428568,0.4657142857142857,-0.3178571428571429,0.1157142857142857
0.479090909090909,2.370909090909091,1.4163636363636365,0.3536363636363636,-0.35,0.1890909090909091
0.6071428571428572,2.552857142857143,0.9385714285714286,0.1957142857142857,-0.35,0.1842857142857143
0.7877777777777778,2.585555555555556,1.0605555555555557,-0.1105555555555555,-0.4294444444444444,0.1688888888888889
0.8935714285714286,2.375714285714285,2.8514285714285714,-0.3771428571428571,-0.6121428571428572,0.2485714285714285
0.960909090909091,1.5445454545454544,4.294545454545455,-0.3836363636363636,-0.6990909090909091,0.3372727272727273
1.2676923076923077,0.5846153846153845,4.864615384615385,-0.1215384615384615,-0.6907692307692308,0.3876923076923076
1.5108333333333333,0.765,3.561666666666667,0.3216666666666667,-0.6308333333333334,0.3999999999999999
2.2199999999999998,2.0507692307692307,0.7838461538461539,0.5346153846153846,-0.4876923076923077,0.4161538461538461
2.506666666666667,2.735,-1.7283333333333335,0.5591666666666667,-0.2683333333333333,0.5083333333333333
2.184285714285714,2.7414285714285715,-3.2085714285714286,0.4957142857142857,-0.0785714285714285,0.6742857142857143
1.7942105263157895,1.6426315789473684,-4.058421052631579,0.28,0.1010526315789473,0.8921052631578947
0.6392307692307693,-0.1084615384615384,-3.576923076923077,0.0261538461538461,0.103076923076923,0.9653846153846152
0.22818181818181815,-1.1727272727272728,-3.2654545454545456,-0.2427272727272727,0.0672727272727272,0.7654545454545455
0.08999999999999997,-0.9721428571428572,-2.542142857142857,-0.4985714285714286,0.0421428571428571,0.3892857142857143
0.6545454545454545,-0.0163636363636363,-1.6945454545454546,-0.57,-0.0154545454545454,-0.0718181818181818
1.7792857142857144,0.3085714285714286,-1.4792857142857143,-0.6192857142857143,-0.0349999999999999,-0.4464285714285714
2.610909090909091,0.0818181818181818,-0.8809090909090909,-0.7354545454545455,-0.0672727272727272,-0.6936363636363636
1.9642857142857144,0.37,0.0328571428571428,-0.7871428571428571,0.0328571428571428,-0.6771428571428572
2.142777777777778,-0.1744444444444444,1.0083333333333333,-0.5994444444444444,0.1833333333333333,-0.5777777777777778
2.0930769230769233,-1.7876923076923077,1.4207692307692308,-0.2015384615384615,0.3476923076923076,-0.6138461538461538
0.1266666666666666,-1.8208333333333333,1.2558333333333334,0.0533333333333333,0.445,-0.62
-1.6023076923076922,-1.639230769230769,0.6407692307692308,0.0838461538461538,0.5276923076923077,-0.4938461538461538
-1.1416666666666666,-1.2525,0.4058333333333333,0.0808333333333333,0.5716666666666667,-0.3733333333333333
0.1042857142857142,-1.0992857142857144,0.5542857142857143,0.1235714285714285,0.4435714285714285,-0.3757142857142857
0.5418181818181818,-1.161818181818182,0.8236363636363637,0.1709090909090909,0.4054545454545454,-0.3981818181818182
0.572857142857143,-1.292857142857143,0.9871428571428572,0.1585714285714285,0.4457142857142857,-0.3785714285714285
0.645,-1.252222222222222,1.3250000000000002,0.1177777777777777,0.5416666666666666,-0.3238888888888889
0.6492857142857142,-1.2378571428571428,1.481428571428571,0.1257142857142857,0.6035714285714285,-0.2828571428571428
0.027272727272727226,-1.4563636363636363,1.3781818181818182,0.1454545454545454,0.6054545454545455,-0.2245454545454545
-0.7307692307692308,-1.446153846153846,1.52,0.2169230769230769,0.5915384615384615,-0.0538461538461538
-0.8616666666666664,-1.07,1.5958333333333334,0.2983333333333333,0.5875,0.1516666666666666
-0.21076923076923082,-0.223076923076923,1.6223076923076922,0.3592307692307692,0.6153846153846154,0.2507692307692307
0.7816666666666667,0.435,1.6625,0.3541666666666667,0.62,0.1633333333333333
1.1942857142857142,0.8185714285714285,1.7714285714285716,0.3242857142857143,0.5957142857142858,0.0328571428571428
1.2027777777777777,1.2777777777777777,1.7294444444444443,0.2988888888888888,0.5266666666666667,-0.1494444444444444
0.7807692307692308,1.6592307692307693,1.2630769230769232,0.2361538461538462,0.5146153846153847,-0.3084615384615384
0.46333333333333326,1.5,1.1058333333333332,0.0725,0.5533333333333333,-0.3408333333333333
0.44999999999999996,1.27,2.0,-0.0976923076923076,0.6084615384615385,-0.3538461538461538
0.7075,1.2166666666666666,3.4450000000000003,-0.1583333333333333,0.695,-0.3575
1.1492857142857142,1.157857142857143,4.667857142857143,-0.0057142857142857,0.7035714285714285,-0.4178571428571428
0.9800000000000001,1.0818181818181818,4.133636363636364,0.2590909090909091,0.7281818181818182,-0.5045454545454545
0.28,1.52,2.704285714285714,0.4528571428571428,0.7700000000000001,-0.51
-0.36611111111111105,2.815555555555556,-0.2994444444444444,0.5466666666666666,0.6144444444444445,-0.4522222222222222
-0.46214285714285697,4.147857142857142,-4.077857142857143,0.38,0.2342857142857143,-0.5264285714285715
1.0763636363636362,4.259090909090909,-5.163636363636363,0.0654545454545454,-0.0045454545454545,-0.8545454545454546
1.282857142857143,1.6514285714285717,-4.284285714285714,-0.2035714285714285,-0.205,-1.0478571428571428
0.6954545454545455,-1.0863636363636364,-3.0254545454545454,-0.3718181818181818,-0.3,-0.96
-0.1299999999999999,-2.273846153846154,-2.089230769230769,-0.5461538461538461,-0.2561538461538462,-0.6446153846153846
-0.6508333333333332,-1.8125,-0.8483333333333333,-0.6091666666666666,-0.0591666666666666,-0.09
-0.6200000000000001,-0.9414285714285714,-0.1185714285714285,-0.5457142857142857,-0.0328571428571428,0.4028571428571429
0.4473684210526315,-0.0178947368421052,0.0210526315789473,-0.4336842105263158,-0.1468421052631578,0.8778947368421053
2.0266666666666664,0.2933333333333333,-0.0516666666666666,-0.2683333333333333,-0.2966666666666667,0.9183333333333332
1.7433333333333332,-0.11,-0.3333333333333333,-0.1725,-0.4291666666666667,0.6666666666666666
0.5478571428571428,-0.9828571428571428,-0.5635714285714285,-0.1685714285714285,-0.6114285714285714,0.47
-0.19818181818181824,-2.111818181818182,-0.0581818181818181,-0.1645454545454545,-0.7827272727272727,0.4018181818181818
-0.1835714285714285,-2.9092857142857143,0.6028571428571429,-0.015,-0.835,0.5142857142857143
1.0236363636363637,-2.5890909090909093,0.6763636363636363,0.1509090909090909,-0.8918181818181818,0.6036363636363636
1.7085714285714286,-1.6785714285714286,0.5971428571428571,0.22,-0.8742857142857143,0.63
2.907777777777778,-0.4988888888888889,0.3022222222222222,0.2022222222222222,-0.7827777777777778,0.6005555555555556
3.5776923076923075,0.073076923076923,0.1561538461538461,0.13,-0.7246153846153847,0.3707692307692308
2.544166666666667,-0.235,0.4783333333333333,0.0475,-0.6616666666666667,0.2166666666666666
1.72,-0.7846153846153846,0.9530769230769232,-0.0523076923076923,-0.6107692307692307,0.133076923076923
1.5066666666666668,-1.4316666666666666,1.1558333333333333,-0.1716666666666666,-0.5675,0.1058333333333333
1.6657142857142857,-1.9035714285714285,1.51,-0.1614285714285714,-0.5364285714285715,0.0421428571428571
1.87,-2.0209090909090905,1.8727272727272728,0.0172727272727272,-0.4818181818181818,-0.0445454545454545
2.0942857142857143,-1.851428571428572,1.9685714285714284,0.1985714285714285,-0.4485714285714285,-0.1357142857142857
1.9610526315789472,-1.2957894736842106,1.791578947368421,0.3526315789473684,-0.4126315789473684,-0.24
0.9276923076923077,0.0623076923076922,1.8315384615384616,0.3892307692307692,-0.4292307692307692,-0.2392307692307692
0.3081818181818182,1.4263636363636365,1.791818181818182,0.3618181818181818,-0.3881818181818182,-0.0545454545454545
0.1628571428571428,2.402857142857143,1.6785714285714286,0.2571428571428572,-0.4964285714285714,0.1314285714285714
-0.08272727272727276,2.6245454545454545,1.55,0.1463636363636363,-0.6045454545454545,0.2190909090909091
0.06153846153846143,2.087692307692308,1.265384615384615,-0.0184615384615384,-0.6207692307692307,0.2699999999999999
0.7525000000000002,1.3825,1.6275000000000002,-0.2675,-0.7058333333333332,0.3416666666666666
1.4442857142857144,1.115714285714286,2.5685714285714285,-0.3999999999999999,-0.7557142857142857,0.3671428571428571
1.9257894736842105,1.318421052631579,3.832631578947369,-0.2889473684210526,-0.7531578947368421,0.363157894736842
1.8138461538461539,2.8884615384615384,2.876153846153846,0.193076923076923,-0.5653846153846154,0.3761538461538461
2.3763636363636365,4.244545454545454,0.4918181818181818,0.3818181818181818,-0.2518181818181818,0.5481818181818182
3.067142857142857,4.462857142857143,-1.2707142857142857,0.2985714285714285,0.04,0.8028571428571428
3.8866666666666667,3.0775,-2.0675,0.13,0.4166666666666667,1.0291666666666666
3.729230769230769,0.2869230769230769,-2.299230769230769,0.0292307692307692,0.4646153846153846,0.9976923076923078
2.54,-1.5972727272727274,-2.1427272727272726,0.009090909090909,0.3845454545454546,0.7454545454545454
0.9553846153846154,-3.087692307692308,-1.9930769230769232,-0.0423076923076923,0.3684615384615384,0.43
-0.18285714285714283,-3.0742857142857143,-1.624285714285714,-0.1071428571428571,0.3407142857142857,0.0192857142857142
-0.55,-2.25,-1.28,-0.12,0.31,-0.21
-0.49279411764705894,-2.172565359477124,-1.303415032679739,-0.0733660130718954,0.276813725490196,-0.1706699346405228
-0.4355882352941176,-2.0951307189542483,-1.3268300653594771,-0.0267320261437908,0.2436274509803921,-0.1313398692810457
-0.3783823529411765,-2.0176960784313724,-1.3502450980392158,0.0199019607843137,0.2104411764705882,-0.0920098039215686
-0.3211764705882354,-1.9402614379084968,-1.3736601307189542,0.0665359477124183,0.1772549019607843,-0.0526797385620915
-0.26397058823529407,-1.862826797385621,-1.3970751633986929,0.1131699346405228,0.1440686274509803,-0.0133496732026143
-0.20676470588235296,-1.785392156862745,-1.4204901960784313,0.1598039215686274,0.1108823529411764,0.0259803921568627
-0.14955882352941163,-1.7079575163398697,-1.44390522875817,0.206437908496732,0.0776960784313725,0.0653104575163398
-0.0923529411764703,-1.6305228758169936,-1.4673202614379086,0.2530718954248366,0.0445098039215686,0.1046405228758169
-0.03514705882352942,-1.5530882352941178,-1.490735294117647,0.2997058823529411,0.0113235294117646,0.1439705882352941
0.022058823529411797,-1.475653594771242,-1.5141503267973857,0.3463398692810457,-0.0218627450980392,0.1833006535947712
0.07926470588235301,-1.398218954248366,-1.537565359477124,0.3929738562091504,-0.0550490196078431,0.2226307189542483
0.13647058823529412,-1.3207843137254902,-1.5609803921568628,0.4396078431372549,-0.088235294117647,0.2619607843137255
2.064166666666667,2.165,-4.0675,0.1716666666666666,0.2229166666666666,1.0729166666666667
1.212307692307692,-1.5,-3.1361538461538463,-0.2053846153846154,0.2815384615384615,1.0215384615384615
0.6015384615384616,-2.293846153846154,-2.1215384615384614,-0.3515384615384616,0.2061538461538461,0.6984615384615385
0.7016666666666667,-1.99,-1.2558333333333334,-0.3858333333333333,0.02,0.1483333333333333
0.3276923076923077,-1.060769230769231,-0.793076923076923,-0.3846153846153846,-0.1930769230769231,-0.4738461538461538
0.1941666666666667,-0.3391666666666666,-0.4825,-0.4725,-0.2283333333333333,-0.7091666666666666
1.2284615384615385,0.2615384615384615,0.3446153846153846,-0.5784615384615385,-0.1623076923076923,-0.716923076923077
1.8816666666666668,1.37,1.3925,-0.5425,-0.0008333333333333,-0.65
2.5508333333333333,0.8224999999999999,1.115,-0.4391666666666666,0.1208333333333333,-0.7441666666666666
1.9544444444444444,-0.911111111111111,0.5066666666666667,-0.3411111111111111,0.2855555555555555,-0.76
0.796,-2.028,0.2126666666666666,-0.3266666666666667,0.414,-0.7533333333333334
-1.0357142857142856,-1.936428571428572,0.615,-0.3571428571428571,0.5357142857142857,-0.5721428571428572
-0.28166666666666673,-2.0058333333333334,1.0575,-0.3133333333333333,0.6333333333333333,-0.4508333333333333
0.7330769230769232,-1.7123076923076923,1.8438461538461537,-0.0638461538461538,0.6230769230769231,-0.51
0.7461538461538462,-1.396153846153846,1.7315384615384617,0.1484615384615384,0.6115384615384616,-0.5392307692307693
0.35750000000000004,-1.3325,1.2958333333333332,0.1291666666666666,0.665,-0.4358333333333333
0.06499999999999995,-1.725,1.3516666666666666,0.0258333333333333,0.7399999999999999,-0.3075
-0.16749999999999998,-1.98625,1.82875,-0.015,0.7675000000000001,-0.2475
-0.4682352941176471,-2.165294117647059,2.4011764705882355,0.038235294117647,0.7305882352941176,-0.1894117647058823
-1.1569230769230767,-1.7384615384615385,2.880769230769231,0.1846153846153846,0.73,-0.0653846153846153
-0.9966666666666668,-0.8291666666666666,2.8625000000000003,0.3608333333333333,0.7841666666666667,0.0566666666666666
-0.13357142857142845,0.3478571428571428,2.365,0.4907142857142857,0.8321428571428572,0.1264285714285714
1.2916666666666667,1.235,1.7183333333333335,0.465,0.8383333333333334,0.0766666666666666
1.0957692307692306,1.6079807692307693,1.625096153846154,0.4045192307692308,0.7873076923076924,0.0113461538461538
0.8998717948717949,1.9809615384615389,1.5318589743589746,0.3440384615384615,0.7362820512820514,-0.0539743589743589
0.703974358974359,2.353942307692308,1.438621794871795,0.2835576923076923,0.6852564102564103,-0.1192948717948717
0.5080769230769231,2.726923076923077,1.3453846153846156,0.223076923076923,0.6342307692307693,-0.1846153846153846
0.21285714285714286,2.7497142857142856,3.156285714285714,-0.2022857142857143,0.6131428571428572,-0.4248571428571429
0.31333333333333324,2.798666666666666,3.0200000000000005,0.4386666666666666,0.4693333333333333,-0.5866666666666667
-0.11090909090909085,5.007272727272727,-1.0863636363636362,0.6254545454545455,0.1190909090909091,-0.8018181818181819
-0.2649999999999999,6.645,-4.384166666666666,0.2025,-0.2075,-1.1541666666666666
-0.3515384615384616,4.765384615384615,-4.633076923076922,-0.4223076923076923,-0.28,-1.287692307692308
-0.6376923076923076,0.6353846153846153,-3.0715384615384616,-0.6392307692307693,-0.3407692307692307,-0.8984615384615384
-0.24199999999999977,-2.342,-2.346,-0.561,-0.412,-0.524
-0.15533333333333355,-3.0900000000000003,-1.63,-0.4506666666666666,-0.2086666666666666,-0.0993333333333333
0.21083333333333332,-1.31,-0.5566666666666666,-0.3433333333333333,0.0283333333333333,0.3575
0.7184615384615385,0.4423076923076923,-0.1223076923076923,-0.2915384615384615,-0.0369230769230769,0.8046153846153847
1.8199999999999998,1.0875,-0.5891666666666666,-0.3083333333333333,-0.1666666666666666,0.9708333333333332
2.2199999999999998,0.7108333333333334,-0.945,-0.3433333333333333,-0.2866666666666667,0.7983333333333333
1.5092857142857143,-0.3314285714285714,-0.2757142857142857,-0.2407142857142857,-0.3921428571428572,0.5878571428571429
0.8125,-1.4425,0.0733333333333333,-0.16,-0.5241666666666667,0.4524999999999999
0.48461538461538456,-2.296923076923077,0.27,-0.0946153846153846,-0.6338461538461538,0.4238461538461538
0.48307692307692307,-2.8815384615384616,0.0615384615384615,-0.0646153846153846,-0.7061538461538461,0.5307692307692308
0.8491666666666667,-3.065,-0.0249999999999999,-0.0016666666666666,-0.6875,0.6816666666666666
1.8272727272727272,-2.6818181818181817,0.2472727272727272,0.0472727272727272,-0.6445454545454545,0.6890909090909091
2.3728571428571428,-1.842142857142857,0.8257142857142857,0.1264285714285714,-0.6035714285714285,0.5585714285714286
2.6308333333333334,-1.1091666666666666,1.1608333333333334,0.2183333333333333,-0.5833333333333334,0.3349999999999999
1.7983333333333333,-1.095,0.9558333333333334,0.1941666666666666,-0.5791666666666666,0.2058333333333333
1.3376923076923077,-1.3061538461538462,1.0915384615384616,0.1069230769230769,-0.5646153846153846,0.0861538461538461
0.9085714285714286,-1.6014285714285716,1.3314285714285714,0.02,-0.5771428571428572,0.0414285714285714
1.2310526315789474,-2.0210526315789474,1.8805263157894736,0.0221052631578947,-0.5863157894736841,0.0147368421052631
1.95,-2.1872727272727275,2.363636363636364,0.1963636363636363,-0.5754545454545454,-0.08
